time,seconds_elapsed,ax,ay,az,gx,gy,gz
1783206034695984000,0.098984130859375,0.0059485148745588,-0.0107336348258191,0.0032259763091802,-0.0060684317722916,-0.0014713504351675,0.0026520574465394
1783206034705922000,0.108922119140625,0.0019887535312678,0.0029333546047331,-0.0841536164581775,0.0089629823341965,-0.0060461284592747,0.0015819992404431
1783206034715860200,0.118860107421875,0.0155465469663031,0.0050465793324634,-0.1179565173387527,0.0096241692081093,-0.0076330741867423,0.0022981641814112
1783206034725798100,0.128798095703125,0.0179041703425813,0.0132547782007372,-0.0509101030260324,-0.001048982143402,0.0030877469107508,0.0035485182888805
1783206034735736000,0.138736083984375,0.0327052418369799,0.0031294251661049,-0.0151595752090215,-0.0120407221838831,0.0081277675926685,0.0062373052351176
1783206034745674200,0.14867431640625,0.0443248611505143,0.0009002778745489,-0.0129278706341981,-0.0063471486791968,0.0033780201338231,-0.0005098129622638
1783206034755612200,0.158612060546875,0.0495357002671342,0.0048258492538705,-0.0606663578867912,0.0039449408650398,-0.0011904500424861,-0.0010535463225096
1783206034765551000,0.168551025390625,0.0342131621818989,0.0044457456287927,-0.0850508575588464,0.0055217985063791,-0.0043039517477154,0.0041081923991441
1783206034775489000,0.178489013671875,0.0134940896822139,0.0108211258796043,-0.0750192928880453,0.0037349117919802,-0.0009068511426448,0.0022852981928735
1783206034785427200,0.18842724609375,0.0097535971127916,0.0095452652914682,-0.0368640420168638,-0.0058367559686303,0.0047520995140075,0.0017542638815939
1783206034795365000,0.198365234375,-0.0085857041108887,0.0020165228876052,-0.025651158607006,-0.0087453834712505,0.0019642710685729,0.0080901496112346
1783206034805303000,0.208302978515625,0.0042216454161796,0.0037720750177744,-0.0597749620050191,-0.0024632532149553,0.0016553443856537,0.0033923336304724
1783206034815241000,0.218240966796875,0.0091041384944226,0.0034946782819228,-0.0680038611680269,0.0021840212866663,-0.005061537027359,0.0026553538627922
1783206034825180000,0.228179931640625,0.0356631691939663,0.0076190327695105,-0.0805634830117225,0.0051260152831673,-0.0062192128971219,0.0009013961534947
1783206034835117800,0.238117919921875,0.0359748563584871,0.004556489694002,-0.0742705203473567,0.0008870791643857,-0.0056971427984535,0.0032655266113579
1783206034845055700,0.2480556640625,0.0419480672828853,0.0115547236840473,-0.0382020126223564,-0.0047835893929004,-0.0054348218254745,0.004460752941668
1783206034854994000,0.257993896484375,0.0308433660883922,0.0012767328043933,-0.0307078574746847,-0.0065877987071871,-0.0159925073385238,4.78929141536e-05
1783206034864931800,0.267931884765625,0.020709564885823,0.0271894649570342,-0.0959212111413478,-0.0028399331495165,-0.0295876786112785,0.0006164778023958
1783206034874869800,0.277869873046875,0.0293096719813998,0.0691081052160356,-0.1504804843246936,0.0057434313930571,-0.0493749231100082,0.0007432247512042
1783206034884808700,0.28780859375,0.0267042478565126,0.0322605302767828,-0.1559416723400354,0.0142975049093365,-0.0514556504786014,-0.0060821906663477
1783206034894747000,0.297746826171875,0.0359774593075271,0.0212413884738925,-0.1057481931507587,0.0188860725611448,-0.0305768810212612,-0.0029297238215804
1783206034904684800,0.307684814453125,0.0117277649962808,-0.0525979830477386,0.0130985510259866,0.0136958379298448,-0.0152413323521614,-0.001433027209714
1783206034914622700,0.317622802734375,-0.0225638875156175,-0.0565219241589773,0.1169797812610864,-0.0135317891836166,-0.0377487726509571,-0.0098009463399648
1783206034924561000,0.327560791015625,0.0084214169272687,0.003577849353617,-0.1065378822237253,-0.0328998938202858,-0.0473092533648014,-0.0136569365859031
1783206034934498800,0.337498779296875,0.0215065056834835,0.0163537625628057,-0.2205272494971752,-0.0412379577755928,-0.0421784035861492,-0.0125439213588833
1783206034944437800,0.347437744140625,0.0026696028017438,0.0347060511322226,-0.0349549935251474,-0.031192785128951,-0.0284609887748956,-0.004608767107129
1783206034954375700,0.357375732421875,-0.0118745713221374,0.0054021604376379,0.0899959127455949,-0.013389621861279,-0.002810763195157,0.0028888904489576
1783206034964313900,0.36731396484375,-0.0532819467239081,0.0063814766314579,0.0265524913609027,0.0006851842626929,-0.0122173139825463,0.0018190986011177
1783206034974251800,0.377251708984375,-0.0538798486849758,-0.0017431812723632,-0.0847603501796722,0.0058430177159607,-0.0143861370161175,-0.0014283590717241
1783206034984189700,0.387189697265625,0.0121060785230714,-0.0114052870096871,-0.0866951176345348,-0.0042975014075636,-0.0039508063346147,0.0005796642508357
1783206034994128000,0.3971279296875,0.0652818979913834,-0.0070677738286089,-0.0005044423907995,-0.0156469512730836,-0.0002161813899874,0.0011729130055755
1783206035004066800,0.40706689453125,0.0796379108657129,-0.0064446232618531,-0.0121866968780755,-0.0112261027097702,0.0029955909121781,0.0001374759012833
1783206035014004700,0.417004638671875,0.0508185431519057,-0.0220815199593082,-0.042867081823945,-0.002988139167428,-0.0040920185856521,-0.0006742332479916
1783206035023942700,0.426942626953125,0.0316414485303685,-0.0086426173633197,-0.0819172357082367,0.0057321158237755,-0.0050398376770317,0.0002091373316943
1783206035033880800,0.436880859375,0.0486364042066969,-0.0081406820234376,-0.08295534658432,0.0046121655032038,-0.0050433557480573,0.0029308870434761
1783206035043818800,0.44681884765625,0.0524962123068515,0.0010885258890688,-0.0578092148900032,-0.000723211094737,-0.0017572813667356,0.0041863010264933
1783206035053756700,0.456756591796875,0.0154088372623547,0.0197489305595867,-0.0420966819733381,-0.0049850586801767,0.0007274094969034,0.0005002387333661
1783206035063695600,0.466695556640625,-0.0094592172760982,0.0120403700428316,-0.0452414097398519,-0.0003114761784672,0.0009412616491317,0.002476570662111
1783206035073633800,0.4766337890625,-0.0036005909083876,0.0050042106286156,-0.0612543869078159,0.0047879442572593,-4.57060523331e-05,3.84467421099e-05
1783206035083571700,0.48657177734375,0.0131838455561082,0.0062457716549281,-0.07277239074409,0.0015764385461807,-0.0051643019542098,-0.0004246770404279
1783206035093509600,0.496509521484375,0.0327199644820764,0.0003429362527327,-0.0639390959471464,-0.0020248144865036,-0.0041683060117065,0.0012631337158381
1783206035103447600,0.506447509765625,0.0388520740289241,0.0088805451718857,-0.0455354242503643,-0.0032373517751693,0.0007114042527973,0.0027001756243407
1783206035113386800,0.51638671875,0.0337057058501057,0.009781818560278,-0.0410480497032403,-0.0023486986756324,0.0014446158893406,0.0034550363197922
1783206035123325000,0.526324951171875,0.036487582520442,-0.0058670471361838,-0.0528705894440412,-8.07512551546e-05,-0.0001093386672437,0.0019407630898058
1783206035133262800,0.536262939453125,0.024551472003106,0.0026947737756185,-0.0575070170730352,0.0003926316276192,-0.0026384289376437,0.0025427807122468
1783206035143200800,0.54620068359375,0.0081845668309368,0.0098247900523245,-0.058253451526165,0.0023223580792546,0.0001160786487162,0.00239870371297
1783206035153139000,0.556138916015625,-0.0093957327189855,0.0092946515312651,-0.0613929185956716,-0.0010351762175559,-0.000962964259088,0.001478070160374
1783206035163076900,0.566076904296875,0.0022306542620528,0.0108673396415077,-0.0564560467153787,0.0001408755779266,-0.0020375498570501,0.0030775647610425
1783206035173015800,0.576015869140625,0.0135472355084028,0.004650848879991,-0.0597474894762039,-0.0014126291498541,0.0011187754571437,0.0027483971789479
1783206035182953700,0.58595361328125,0.0115440150603652,0.0184140834929421,-0.0554068299233913,0.0012665102258324,-0.0024187010712921,0.0028930068947374
1783206035192892000,0.595891845703125,0.0069436359922867,0.0062072480091359,-0.078747958022356,0.0003517577424645,-0.0007804916240274,0.0007058752235025
1783206035202829800,0.605829833984375,0.0125019733723253,0.0031864251835038,-0.0700678079605102,0.0006095515564084,0.0023266184143722,0.0009679303038865
1783206035212767700,0.615767822265625,0.0350693588861264,-0.0014527378252707,-0.0543564440876245,-0.0012795673683285,-0.0019108527339994,0.0058150067925453
1783206035222706700,0.625706787109375,0.0387419190521817,0.0060345857228152,-0.0586959345966577,-0.000465971417725,9.77027229964e-05,0.0013885665684938
1783206035232644900,0.635644775390625,0.034939613292925,0.0204878210270777,-0.0703670831680297,0.0015264777466654,-0.001343217678368,0.001129051670432
1783206035242582800,0.645582763671875,0.0247921671574935,0.0113003470641793,-0.0630325024962425,-0.0009156409651041,-0.0007717031985521,0.0058343247510492
1783206035252520700,0.655520751953125,0.0304632715964689,0.0115212506727082,-0.0597381371259689,0.0015658065676689,-0.0007857494056224,0.0027490737847983
1783206035262459000,0.665458984375,0.0262135417301207,0.0077261098731774,-0.0607844313085079,0.0021578269079327,0.0001767165958881,0.0042172744870185
1783206035272397800,0.675397705078125,0.0297796001812443,0.0098280414553359,-0.0574929885476827,0.0010553132742643,0.0018635774031281,0.0038242726586759
1783206035282335700,0.685335693359375,0.0497739112034905,0.0170534032987197,-0.0522533343285322,0.0030425637960433,-0.0017647133208811,0.0062341676093637
1783206035292273700,0.695273681640625,0.0332129173644818,0.0310808326726546,-0.0690115769058466,0.0063942032866179,-0.0002776868641376,0.0040555992163717
1783206035302211800,0.7052119140625,0.0119991749493405,0.0063058267125161,-0.0685597414851188,0.0019760197028517,-0.0013232440687716,0.0024089668877422
1783206035312149800,0.715149658203125,0.0209940443830098,0.0054888569069793,-0.0573345831155776,-0.0009536277502775,0.0008067684248089,0.003465729765594
1783206035322088700,0.725088623046875,0.0120500648863613,0.0037819479578174,-0.0661667088687419,-0.0036151902750134,0.0014925324358046,0.0056255534291267
1783206035332026600,0.735026611328125,0.008818015029421,-0.0049926480549853,-0.0582365003913641,0.0019949804991483,0.0010820403695106,0.004362026695162
1783206035341964800,0.74496484375,0.006921917350823,0.0126705348722636,-0.0582382539570331,0.0031609125435352,0.0034168337006121,0.0038959737867116
1783206035351902700,0.75490283203125,0.0130274585511535,0.0140589798562461,-0.0711059188365936,0.0036887349560856,-0.000832222867757,0.0043760184198617
1783206035361840600,0.764840576171875,0.0196095129557419,-0.0083067593053448,-0.0634714784353971,0.0046224389225244,0.0018743476830422,0.0037405882030725
1783206035371779600,0.774779541015625,0.0257839090080466,0.0048503032751148,-0.0562888734549284,0.0022817943245172,0.0012183096259832,0.0053990208543837
1783206035381717800,0.7847177734375,0.0111786797461565,-0.0124271911030635,-0.0746919606298208,0.0056658736430108,0.0036801355890929,0.0043039289303123
1783206035391655700,0.79465576171875,-5.58766393922e-05,-0.0076108540296321,-0.0657125353604555,0.0057212845422327,0.0020907279103994,0.0017419876530766
1783206035401593600,0.804593505859375,-0.0083826558194588,-0.0060990703603485,-0.0646627340465784,0.0082198623567819,-0.0008400809019804,0.0024077775888144
1783206035411531800,0.81453173828125,0.0065259768357966,0.005092450601072,-0.0754337189078331,0.0028133913874626,0.0017478805966675,0.0059384130872786
1783206035421471000,0.824470947265625,0.0305751070736441,-0.0018592408335069,-0.07678221090734,0.0006541004404425,0.0025300506968051,0.0029924246482551
1783206035431409000,0.834408935546875,0.0359085313903167,-0.01381763168131,-0.0764835202217102,-0.0006534000858664,-0.0032484936527907,0.004969063680619
1783206035441346800,0.844346923828125,0.048288851144351,-0.0621469563999446,-0.0785737704992294,-0.0031426576897501,-0.0054895435459911,0.0124490838497877
1783206035451285000,0.854284912109375,0.0280510776218958,-0.0870884369342122,-0.0820119282543659,-0.0096588842570781,-0.0071578309871256,0.0125526394695043
1783206035461223000,0.864222900390625,-0.0132856802290771,-0.0906578107204288,-0.0634592034757137,-0.0131367053836584,0.0011759991757571,0.0069746491499245
1783206035471161900,0.874161865234375,-0.0256867413770407,0.0628516934360843,-0.0347428120791912,-0.0083539355546236,0.0058597004972398,0.0031618014909327
1783206035481099800,0.884099853515625,0.0090691219799686,0.1965484445491805,-0.0066167877912521,0.0070037157274782,-0.0013409540988504,0.004648910369724
1783206035491038000,0.894037841796875,0.0750411850594449,0.1130800704088062,-0.0889034413337707,0.018381854519248,-0.0088270790874958,0.0023493529297411
1783206035500975900,0.903975830078125,0.0701859635806176,0.039696479830658,-0.1378156485408544,0.0144856497645378,-0.0105059351772069,0.002208205172792
1783206035510913800,0.913913818359375,0.020962398002576,-0.0319907779912697,-0.0631365473926067,0.0019222116097807,-0.0004957816563546,0.0011150799691677
1783206035520852700,0.923852783203125,0.0174988135452382,-0.0411036432148423,-0.0115168347924947,-0.0063796611502766,0.0044406540691852,0.0031808940693736
1783206035530791000,0.933791015625,0.0205119508213363,0.0109869200337212,-0.0182598793119192,-0.0049369530752301,0.0039809588342905,0.0031430362723767
1783206035540728800,0.943728759765625,0.0057259764313697,0.0253999603249132,-0.0737748457849025,0.0106151085346937,-0.0027698879130184,0.002210130682215
1783206035550666800,0.953666748046875,-0.0347496254124678,-0.003650033240416,-0.1126660097151994,0.0196557641029357,-0.008158478885889,0.0031457603909075
1783206035560605700,0.963605712890625,-0.0543095179396681,-0.0248315356200793,-0.1075637181401252,0.0109333796426653,-0.0057733510620892,0.002521782182157
1783206035570543900,0.9735439453125,-0.0417956532001495,-0.0235456011625006,-0.0598304915845394,-0.0033292276784777,0.0069622360169887,0.0028715576045215
1783206035580481800,0.983481689453125,-0.0108888847530353,0.0126571867669234,-0.0243798234969377,-0.0111946081742644,0.0087737180292606,0.0021833968348801
1783206035590419700,0.993419677734375,0.0491216395735275,0.0300074449872132,-0.0606055676102638,-0.0069039883092045,0.003626893274486,0.0020419829525053
1783206035600358000,1.00335791015625,0.104055308160372,0.012487844382273,-0.0896352627396583,0.003115089610219,-0.0033559151925146,0.0029748883098363
1783206035610296800,1.013296875,0.1220130992531776,-0.010450520735234,-0.0935170726090669,0.0075638517737388,-0.0092405378818511,0.0006170687265694
1783206035620234800,1.02323486328125,0.0908858107900247,0.0205419669336872,-0.0810883836686611,0.0050935037434101,-0.0023938161320984,0.0029561230912804
1783206035630172700,1.033172607421875,0.0283980187628883,0.0347979215336032,-0.0448754990369081,-0.0048755295574665,0.0030047346372157,0.0036705071106553
1783206035640110800,1.04311083984375,-0.0253373068848624,0.0104303958292352,-0.0424859735518693,-0.0004051467403769,0.0017716912552714,0.0038622543215751
1783206035650048800,1.053048828125,-0.0407614239147398,-0.0019700122981797,-0.0742108991146087,0.0017553325742483,-0.0002261437475681,0.0019288812763988
1783206035659987700,1.06298779296875,-0.0132183962796814,-0.0247032284987159,-0.0881254426985979,0.0056736418046057,0.0004758653230965,0.0038034804165363
1783206035669925600,1.072925537109375,0.0329129571703728,-0.0118997148965485,-0.0819903009444475,0.0006037047132849,-0.0005155173130333,0.0031215269118547
1783206035679863800,1.08286376953125,0.0717144974553026,-0.0136114781173411,-0.0549082327514886,-0.0024544028565287,-0.0007599955424666,0.0037391139194369
1783206035689801700,1.0928017578125,0.1039686253907624,-0.0022090452184434,-0.0417447997957468,-0.0042536351829767,0.0019396510906517,0.0042914533987641
1783206035699741000,1.102740966796875,0.0758561181715224,0.0025653250099392,-0.0632937837809324,0.000369613058865,-0.0028295377269387,0.0035431049764156
1783206035709678800,1.112678955078125,0.0189164891902823,0.0159003790723858,-0.0689759210705757,0.0069081136025488,-0.0037835775874555,0.0022775100078433
1783206035719616800,1.12261669921875,-0.0220319451965391,0.015410924188164,-0.0852794056177139,0.0084570087492465,-0.0005478370003402,0.0032793912105262
1783206035729555000,1.132554931640625,-0.0416099031033925,0.0149961830745451,-0.0659703095138073,0.0056859445758163,-0.0018316605128347,0.0052102855406701
1783206035739494000,1.142493896484375,-0.0366391198203433,0.010900798953115,-0.0598322451502084,0.0034068115055561,0.0010139271616935,0.0026392699219286
1783206035749431800,1.152431884765625,-0.0110125476653222,-0.0013664477813057,-0.0563905802637338,0.0015099653974175,0.0003330260515213,0.0032681254670023
1783206035759369700,1.16236962890625,0.0134477023903746,-0.0189172609418397,-0.0704576840609312,0.002404254861176,0.0010134638287127,0.0058165043592453
1783206035769308000,1.172307861328125,0.0242178013356402,-0.0106892111622029,-0.0828758516073226,0.004232638515532,-0.0029726861976087,0.0027070795185863
1783206035779245800,1.182245849609375,0.019866163731087,-0.0067365051807835,-0.0764361739486455,0.0085946302860975,-0.0004365579225122,0.0046482575125992
1783206035789184800,1.192184814453125,0.0130139688819181,0.0013732108822325,-0.0668570292204618,0.0038231341168284,0.0004817927256226,0.0027596037834882
1783206035799122700,1.202122802734375,0.0142806734826415,-0.006307890805439,-0.0623661475419998,0.0038399118930101,0.0008546351455152,0.0042946496978402
1783206035809060900,1.212060791015625,0.0064496967291925,0.0123928458754671,-0.0646089580327272,0.0016603358089923,0.0001330054365098,0.0020233432296663
1783206035818999600,1.22199951171875,0.0046737456983886,0.008402196203568,-0.0652063394039869,0.0035245483741164,-0.0003636740148067,0.0039762393571436
1783206035828938500,1.2319384765625,0.0170055227361153,0.0187888031234266,-0.074033204460144,0.0039554480463266,-0.0023461310192942,0.005744844675064
1783206035838876400,1.24187646484375,0.0243668270180467,0.0070375567868584,-0.0713385585486888,-0.0013855211436748,-0.000811617821455,0.0050625423900783
1783206035848814600,1.251814697265625,0.0260225857352837,0.006458537622774,-0.0596662409335374,0.00084247905761,-0.0008161454461514,0.0042838342487812
1783206035858752500,1.26175244140625,0.0268104847099632,-0.0018907319503137,-0.0677460870146751,-0.0009170714765787,-0.001270480453968,0.0041370941326022
1783206035868690400,1.2716904296875,0.0218597213016357,0.0007042164463317,-0.0560743539214134,0.0014599347487092,-0.0007040314376354,0.004522762261331
1783206035878629600,1.281629638671875,0.0287783598499838,0.0045212859498802,-0.0595154342859983,-0.00020507350564,-0.0002480982802808,0.0056862970814108
1783206035888567800,1.29156787109375,0.0443191072631627,0.0071241390917683,-0.0693903470903635,0.0015728799626231,0.0018814182840287,0.004298320505768
1783206035898505700,1.301505615234375,0.0366708027333952,0.0125280302621889,-0.0719330173105001,0.0049447081983089,0.0003125499933958,0.0073929131031036
1783206035908443600,1.311443603515625,0.0339456612189766,0.0232001121930778,-0.0662456193238496,0.0035772025585174,-0.0001539830118417,0.0071956352330744
1783206035918382600,1.321382568359375,0.0326093437144532,0.025463307884708,-0.0642968233436346,0.0029590828344225,-0.0018845051527023,0.0073580876924097
1783206035928320800,1.33132080078125,0.0230204173777718,0.0309508176513947,-0.0617500614702701,0.0046663377434015,-0.0007404289208352,0.0049673472531139
1783206035938258700,1.3412587890625,0.0066046680951956,0.0253604868310503,-0.0693792411744594,0.0045667355880141,-0.0003406885080039,0.0089157503098249
1783206035948196600,1.351196533203125,0.0081345354104414,0.0205327835468109,-0.0800017574757337,0.0048416592180728,-0.0027845804579555,0.0048353145830333
1783206035958135600,1.361135498046875,0.0055339153248351,0.0163311214727349,-0.073565002426505,0.0026927553117275,0.0004953690804541,0.0040661934763193
1783206035968073700,1.37107373046875,0.0175689744383096,0.0103082353208679,-0.0713186848044395,0.0031537050381302,-0.0007008356042206,0.0050114523619413
1783206035978011600,1.38101171875,0.0188397158933337,0.008170013149199,-0.0654804801702499,0.0029792683199048,-0.0036470904015004,0.0064122746698558
1783206035987949600,1.390949462890625,0.0183027686055749,0.010797434476763,-0.0603922171205282,0.0023049553856253,0.00104167079553,0.0044729611836373
1783206035997888500,1.400888427734375,0.016121981367236,0.0139415137893054,-0.0618903467237949,0.001611734740436,-0.000155952759087,0.0043453956022858
1783206036007826700,1.41082666015625,-0.000185768363066,0.0216854333138093,-0.0650315673589706,0.0023255618289113,-0.0010488233529031,0.0025130216963589
1783206036017764600,1.4207646484375,0.0007680708962026,0.0144464585036039,-0.0582967061460018,0.0015854695811867,0.0015376387163996,0.0070862020365893
1783206036027702500,1.43070263671875,8.15864693839e-05,0.0156348645705729,-0.0653279199570417,0.001579837873578,-0.0017066719010472,0.0059912279248237
1783206036037641500,1.440641357421875,0.007681786674261,0.0209890987798338,-0.0696656569004058,0.0016243122518062,0.0017620953731238,0.0036505754105746
1783206036047579600,1.45057958984375,0.0212860678658355,0.0157593220673035,-0.0805897864967584,0.0017348732799291,0.0019304547458887,0.0018067513592541
1783206036057517600,1.460517578125,0.0159908840671647,0.0032165052279364,-0.0714618926674127,0.0016190251335501,-0.0029370049014687,0.0038691032677888
1783206036067455500,1.47045556640625,0.0130583834123797,0.0054834957452723,-0.0653244128257036,-0.0017877584323287,0.0001232689246535,0.0045341360382735
1783206036077394400,1.48039453125,0.0179367117721587,0.0075095582127803,-0.0587415273040533,-0.0019611297175288,0.0020569902844727,0.0022587312851101
1783206036087332600,1.49033251953125,0.016894344846066,0.0019232870796229,-0.0626338585674762,6.75274059176e-05,0.0007451884448528,0.0032548364251852
1783206036097270500,1.5002705078125,0.0162140252985525,0.0093556107711512,-0.0663759677052497,0.0012584924697875,0.0007177577354013,0.0026034275069832
1783206036107208400,1.51020849609375,0.0099794052253011,0.0195731264681089,-0.0623351678818464,0.0026901885867118,0.0008885376155376,0.0015800131950527
1783206036117147600,1.520147705078125,0.0098814247435424,0.002227361759846,-0.0668260495603084,0.001322922296822,0.0012038559652864,-0.0008967265603132
1783206036127085600,1.53008544921875,0.0122845494956709,0.0102129810857353,-0.0689227295786142,7.3367729783e-05,0.0022578665520995,0.0040702088735997
1783206036137023700,1.540023681640625,0.0235434092054143,0.0168225308520253,-0.0602449176043272,-0.0001450115814805,0.000454906374216,0.0014624414034187
1783206036146961700,1.549961669921875,0.0320675010558683,0.0109361853603273,-0.0588981791704893,0.0026038875803351,-0.0005399100482463,-2.98286322504e-05
1783206036156900600,1.559900634765625,0.031283629802335,0.0104242537828162,-0.0624894816607236,-0.0007306560873985,0.0006369408220052,0.0021339897066354
1783206036166838500,1.569838623046875,0.0349568749549798,-0.0002464216422755,-0.0746083739995956,0.0002756100147962,0.0009682569652795,0.002991103567183
1783206036176776700,1.579776611328125,0.0219478288433514,0.0041073165878187,-0.0647322921514511,-0.0025729062035679,-0.0005550710484385,0.0017380863428115
1783206036186714600,1.589714599609375,0.0207520523206796,0.0039306037474656,-0.0660796151071786,-0.0001179566606879,-0.0009253341704607,0.0028033475391566
1783206036196653600,1.599653564453125,0.0141174092123284,0.0105709048450458,-0.0705693277418613,0.0021156370639801,0.0011495347134768,0.0014917408116161
1783206036206591500,1.609591552734375,0.0130051645209547,0.0137275148455984,-0.0723638099431991,-0.0001157969236373,-0.0014905990101397,0.0039072907529771
1783206036216529700,1.61952978515625,0.0203351786154788,0.0101309973241295,-0.0701192458868026,-0.0003184638917446,0.0010806829668581,0.0038849199190735
1783206036226467600,1.629467529296875,0.0242512834801338,0.0068593415425857,-0.0720645347356796,0.0008347751572728,-0.0022580465301871,-0.0001439903862774
1783206036236406500,1.639406494140625,0.0300154547637328,0.0091418538560392,-0.0584463437497615,-0.0014962898567318,0.0007436024025082,0.0017718877643346
1783206036246344400,1.649344482421875,0.0315616978250443,0.0112230942766182,-0.0656283642083406,-0.0012636967003345,0.0002918983809649,0.0022608649451285
1783206036256282600,1.65928271484375,0.0319760781790595,0.0108366111431038,-0.0575485181272029,-0.0026173824444413,-8.44066962599e-05,0.0030065500177443
1783206036266221600,1.6692216796875,0.020365062297089,0.0107452658981084,-0.0618880086362361,-0.001097940839827,-0.0050364802591502,0.0009083666373044
1783206036276159500,1.679159423828125,0.0130947607668582,-0.0010864069972187,-0.0648784226238727,-4.3062493205e-05,2.85860151052e-05,0.0013099715579301
1783206036286097400,1.689097412109375,0.0182990422785282,0.0048831689316779,-0.0722112497299909,0.0013946965336799,0.0016464339569211,0.0032046516425907
1783206036296035600,1.69903564453125,0.0134433093430474,0.0097259784535039,-0.0594908843666315,-9.4543211162e-05,0.0002328278496861,0.0021585619542747
1783206036305974500,1.708974609375,0.0243291710219345,0.0098399191227974,-0.0684697251141071,0.0002516321837902,-0.0011974181979894,0.0021895586978644
1783206036315912400,1.718912353515625,0.027948411831865,0.0105462453278247,-0.0629337182968854,0.0002220710739493,0.0017525656148791,0.0025011482648551
1783206036325850400,1.728850341796875,0.0275172904056031,0.0138738416808424,-0.0593441693723201,-0.0022385949268937,0.0011206702329218,0.0021639438346028
1783206036335788500,1.73878857421875,0.0235254899562336,0.0150587360498961,-0.0663788903146982,-0.0026154313236474,0.0012120166793465,0.0017572792712599
1783206036345727700,1.748727783203125,0.0153020798190962,0.0092944734347518,-0.0582990442335605,0.0003685383126139,-0.0009638885967433,0.0016196419019252
1783206036355665700,1.758665771484375,0.0038028902811463,0.0089103968874551,-0.0635375294089317,0.0014785435050725,0.0038721458986401,0.005220235325396
1783206036365603600,1.768603515625,0.0037389581994619,0.0045319945735624,-0.0599479804843664,0.0016505438834428,0.0009084292687475,0.000820932444185
1783206036375541800,1.778541748046875,0.0084554470610339,0.0133911818635882,-0.0722170949488878,0.0014257729053497,5.22229820489e-05,-0.0015410250052809
1783206036385480700,1.788480712890625,0.0143802431332878,0.0148294573386665,-0.0696720866411924,0.0004114294424653,0.0011424971744418,0.0007955383043736
1783206036395418600,1.798418701171875,0.0122068080843426,0.0134961948743322,-0.0698217242449522,-0.0006956467404961,3.88831831514e-05,0.0027609509415924
1783206036405356500,1.8083564453125,0.0130916463611647,0.0100275734822731,-0.0683247636854648,0.000159477815032,-0.0009249807335436,-0.0006639579078182
1783206036415295500,1.81829541015625,0.0321548231462948,0.0155150878155371,-0.0657803398996591,3.29772010445e-05,0.0009919623844325,0.0015446015167981
1783206036425233700,1.828233642578125,0.0338450412555597,-0.004424702840764,-0.0633867227613926,0.0003020968288183,-0.002218245062977,0.0033198157325387
1783206036435171600,1.838171630859375,0.0293924822934903,0.0043561722157755,-0.0574012186110019,0.0008472455665469,0.0004070987924933,0.0010228392202407
1783206036445109500,1.848109619140625,0.0162211217596195,0.008616126648616,-0.0701209994524717,-0.0005037588998675,0.0001682573929429,-0.0018075103871524
1783206036455048400,1.85804833984375,0.0043956228767521,0.0044360918844584,-0.0708703565150499,0.0002587037160992,0.0019461833871901,0.0008561832364648
1783206036464986600,1.867986572265625,-0.003139786729915,0.0054583795703249,-0.0668313102573156,0.0002887398004531,-0.0021529551595449,0.0017562368884682
1783206036474924500,1.877924560546875,-0.0119163189714774,0.0004597858317429,-0.0681774641692638,0.0016083363443613,-0.0011694496497511,0.0031466730870306
1783206036484862500,1.887862548828125,-0.0037598183244001,0.0058379123732447,-0.0672790540248155,-0.0008917897939682,0.0006388300098478,0.002034343779087
1783206036494801400,1.897801513671875,0.0069928819614928,0.0132334751178044,-0.0648854368865489,-0.0014390693977475,-3.287568688392639e-07,-0.0042834733612835
1783206036504739600,1.907739501953125,0.0142573748054448,0.0097342211254639,-0.0684779084205627,-0.0004143184050917,0.0008186879567801,0.0013550405856221
1783206036514677500,1.917677490234375,0.0356536798464134,0.0069690535613335,-0.0544119736671447,-0.0011341711506247,0.000520946457982,0.0001225296873599
1783206036524616400,1.927616455078125,0.0300499050226062,0.0097863075057277,-0.0614466946095228,-0.0002942830324172,-0.0006708209402859,0.0018150017131119
1783206036534554400,1.937554443359375,0.0243592556329444,0.0076497704010689,-0.0677338120549917,-0.0029987227171659,0.0005366564728319,-0.0009331143228337
1783206036544492500,1.947492431640625,0.0137071205115411,0.009900782464561,-0.0735708476454019,-0.0002126982435584,0.0009951442480087,0.0007857549935579
1783206036554430500,1.957430419921875,0.0022247816436924,0.0188762393782846,-0.0601046323508024,-0.0001290747895836,0.0004822192713618,-0.0025788827333599
1783206036564369700,1.96736962890625,-0.0114108536673709,0.0109390120716532,-0.0681850629538297,-0.0012557171285152,0.0003781747072935,-0.0003028975334018
1783206036574307600,1.9773076171875,-0.0105873353900387,-0.0042467387582408,-0.0530728340178728,0.0002931775525212,0.0022541051730513,0.001671836245805
1783206036584245800,1.987245849609375,0.0031660080165602,0.0019884247377049,-0.0689367581039667,-0.0008898070082068,0.0020966161973774,0.0013685207813978
1783206036594184700,1.997184814453125,0.019788550183922,0.0038673566523706,-0.0641483547836542,-0.0017026038840413,-0.0014698891900479,-1.68557744473e-05
1783206036604122600,2.00712255859375,0.031629347100621,0.0035571673251921,-0.0587614010483026,0.0003776224330067,-0.0001486293040215,0.0012206076644361
1783206036614060500,2.017060546875,0.0292298938766121,0.0067167410343885,-0.0571153874069452,-3.94284725189e-05,8.75927507877e-05,0.0015516383573412
1783206036623998700,2.026998779296875,0.0353287861404474,0.0104219156952574,-0.0584609567970037,0.0004665730521082,-0.0004154033958911,0.0007618234958499
1783206036633937700,2.036937744140625,0.0177013777794782,0.017764743605582,-0.0638473260104656,-0.0008261259645223,-0.0011672135442495,0.0005809948779642
1783206036643875600,2.04687548828125,0.0158095178845804,0.003553591695195,-0.0666910250037908,-0.000913456082344,0.000721629243344,0.0008558700792491
1783206036653813500,2.0568134765625,0.0093183292343746,0.0066641705969348,-0.0650455958843231,-0.0017550149932503,0.0007298849523067,0.0014066118746995
1783206036663751700,2.066751708984375,0.0194930652355309,0.0041665176954586,-0.0587608165264129,-0.0005409363657236,0.0004231869243085,-0.0019794041290879
1783206036673690600,2.076690673828125,0.0197231385312043,0.008214797572419,-0.0566670591175556,-0.0039132963865995,0.0006010858342051,0.0017474233172833
1783206036683628500,2.086628662109375,0.0229486673158127,0.0028144272330682,-0.0644499680787324,0.0020724348723888,0.002336582634598,0.0019320189021527
1783206036693566500,2.09656640625,0.0238038502398878,0.0086115326718892,-0.0628033699154853,0.0017067827284336,-0.000445888377726,0.0026380228810012
1783206036703505400,2.10650537109375,0.0218422769764903,0.0009220832809805,-0.0638508331418037,4.68743965029e-05,-0.0006464314647018,-0.0002234426792711
1783206036713443600,2.116443603515625,0.0219034234460443,0.0055730737248668,-0.0629524229973554,-0.0004577944055199,-0.0002107382752001,0.0005603255704045
1783206036723381500,2.126381591796875,0.0160944083737209,0.0101526566000888,-0.0660942281544208,0.0015209522098302,-0.000917553436011,0.001339747570455
1783206036733319400,2.1363193359375,0.0156441255892626,0.0080151285481639,-0.0663929188400506,0.0015486488118767,-0.0018326151184737,0.0003796778619289
1783206036743258400,2.14625830078125,0.0116202312348876,0.0111775746344588,-0.0744727649211883,-0.0006586257368326,0.0010487670078873,0.004570354707539
1783206036753196500,2.156196533203125,0.008870348004857,0.009377384211542,-0.0672907444626092,0.0004487168043851,-0.0003496590070426,0.001872572582215
1783206036763134500,2.166134521484375,0.0149924110817257,0.0068933671097736,-0.0544236641049385,0.0018506916239857,0.0024659261107444,0.0010820655152201
1783206036773073700,2.17607373046875,0.0143722424899227,0.0025174444473348,-0.063702949103713,0.001383040100336,-6.64736144244e-05,0.0016338727436959
1783206036783011600,2.186011474609375,0.0112711620688904,0.0019547873295843,-0.0640033933550119,0.0012814477086067,0.0002651452086865,0.0009233739692717
1783206036792949800,2.19594970703125,0.0119862058699131,0.0030122787595726,-0.0574199233114719,-0.0017958348616957,0.0006449120119214,0.0018405665177851
1783206036802887700,2.2058876953125,0.0145413976449053,0.008827887969464,-0.0478454547584056,-0.0023737102746963,0.0004948759451508,0.0010287696495652
1783206036812827100,2.2158271484375,0.0127135611632373,0.0134442774574272,-0.0577215366065502,0.000275868922472,-0.001023924909532,-0.0003829719498753
1783206036822765000,2.22576513671875,0.0105136764987837,0.0125628595469752,-0.0638560938388109,0.0004066722467541,-0.0009046331979334,0.0007340903393924
1783206036832703200,2.235703125,0.0132819265025667,0.0073758442639373,-0.0583200870215892,-0.0006202422082424,-0.0013357987627387,0.0016214558854699
1783206036842642200,2.24564208984375,0.0173760913478676,0.0074418998040491,-0.0619113895118236,-0.0019361292943358,-0.0014912690967321,-0.0003055233974009
1783206036852580000,2.255580078125,0.0212790536031592,0.010691311787744,-0.0577209520846605,0.0028096232563257,-0.0009477180428802,0.0001554696355015
1783206036862518000,2.26551806640625,0.0129738378009293,-0.0011263782480033,-0.0643032530844211,0.0003304481506347,-0.0017105634324252,0.0007212315686047
1783206036872456200,2.275456298828125,0.0148660721551626,0.0074804234498413,-0.0590653524309396,-0.0003585116937756,-0.0015393220819532,0.0018173886928707
1783206036882395100,2.28539501953125,0.0118242659070063,0.0067510268964804,-0.0550257216513156,0.0011857207864522,0.0005002641119062,-0.0013948753476142
1783206036892333000,2.2953330078125,0.0048464810499455,0.0083516076606465,-0.0541290650725364,-0.0015876945108175,0.0015913611277937,0.0018765516579151
1783206036902271000,2.30527099609375,0.0124903194671496,0.0096949257281143,-0.0671498746871948,-0.0004498967900872,-7.39572569727e-05,-3.4725992009e-05
1783206036912210000,2.3152099609375,0.0120836200960911,0.009630441090581,-0.0690963325798511,-0.0012914557009935,0.0020626969635486,0.0020396099425852
1783206036922148000,2.325148193359375,0.0089018939205911,0.0073014592868974,-0.0662538026303052,-0.0001821517944335,7.9083256423e-06,0.0010832429397851
1783206036932086000,2.3350859375,0.0113555524167139,0.0056436136438511,-0.0686474197685718,-0.0012127952650189,0.0011477409861981,0.0003426177427172
1783206036942024000,2.34502392578125,0.0146166822376661,0.0162160893914755,-0.0559288079708814,-0.0001265425235033,-0.0003783404827117,0.0014334600418806
1783206036951963000,2.354962890625,0.0108512926890049,0.0184022195252124,-0.0553285039901733,0.0014007799327373,-0.0019986075349152,-0.0002778870984911
1783206036961901000,2.364901123046875,0.0210358194318134,0.0096275139145553,-0.0587701688766479,-6.02547079324e-05,0.0003519067540764,0.0019660894758999
1783206036971839000,2.3748388671875,0.0216483070406597,0.0090778806751593,-0.0643073447376489,-0.0014834478497505,0.0004363288171589,0.0024936618283391
1783206036981778200,2.384778076171875,0.0188847697446122,0.0135840923534939,-0.0681967533916235,0.0012363409623503,-0.0014826217666268,0.0009097163565456
1783206036991716000,2.394716064453125,0.0166424524442292,0.0160239460865501,-0.0683463909953832,0.000215551815927,0.0004606866277754,-0.0014272072585299
1783206037001654300,2.404654296875,0.0171863317962735,0.0060510893330443,-0.0559282234489917,0.0015398263931274,0.0013539129868149,-0.0007334752008318
1783206037011593200,2.41459326171875,0.0105730146037414,0.0032594082213239,-0.0608668488949537,-0.0009811222553253,0.0020697708241641,0.0023240998852998
1783206037021531100,2.42453125,0.0145375982526224,0.0063810473731951,-0.0539852726876735,-0.0013643195852637,-0.0012276004999876,0.0036938639823347
1783206037031469000,2.434468994140625,0.0234630009129643,0.003547084322595,-0.0613163462281227,0.0004295855760574,-0.0022356072440743,-1.67184043675e-05
1783206037041407200,2.4444072265625,0.026597298617009,-0.0009149320209864,-0.0595189414173364,0.000284289009869,7.70590268075e-05,0.0014643196482211
1783206037051346200,2.45434619140625,0.0179989359539467,0.00927315208551,-0.0659545274227857,-0.0007924269884824,-0.0022955513559281,0.0005660355091094
1783206037061284000,2.4642841796875,0.0181006062301341,0.0049332368847914,-0.0693950232654809,-0.0001757638528943,-0.0014145905151963,-0.0017975100781768
1783206037071222000,2.474221923828125,0.0162156966658309,0.0076332165584899,-0.0581698648959398,0.0009512854740023,-0.0022697318345308,0.0013082684017717
1783206037081161000,2.484160888671875,0.0095816380793694,0.0178415854011895,-0.0598152940154075,-0.0009371908381581,-0.0009417878463864,0.0017886946443468
1783206037091099100,2.49409912109375,0.0137198064631782,0.0032536634671268,-0.0569715950220823,-0.0010394565761089,-0.0013780137524008,0.0009497988503426
1783206037101037000,2.504037109375,0.0104551147119607,0.0130861893013352,-0.0568213728964328,0.0009562810882925,0.0008963765576481,-0.0007755251135677
1783206037110975000,2.51397509765625,0.0157868950608186,0.0147191333985654,-0.0677460870146751,-0.000130021944642,0.0019435314461588,0.0012309004087001
1783206037120914000,2.523913818359375,0.0218439118111506,0.0064208542271982,-0.0738823978126049,-0.0013172375038266,0.0010947035625576,0.0011747856624424
1783206037130852000,2.53385205078125,0.0154782218372914,0.0095842136289458,-0.0583230096310377,-0.0018224390223622,0.0006190626882016,0.0018594847060739
1783206037140790000,2.5437900390625,0.0176910481817089,0.0123442163941916,-0.0638601854920387,0.0005164882168173,-0.0006695175543427,-0.000404352787882
1783206037150729000,2.55372900390625,0.0150145133156795,0.0042865273459348,-0.0661047495484352,0.0014757588505744,0.0006969505921006,0.0014763716608285
1783206037160667000,2.5636669921875,0.0166659885834436,0.005650952133513,-0.0611655395805835,0.0008708499372005,0.0005830391310155,0.0025147371925413
1783206037170605000,2.57360498046875,0.0197596163503825,0.0148517833349062,-0.0574240149646997,-0.0001944145187735,0.0011068829335272,0.0002609039656817
1783206037180544300,2.583544189453125,0.0185434272273443,0.0097084656296996,-0.0581722029834985,0.0016075894236564,0.0020009255968034,0.0017669750377535
1783206037190482200,2.593482177734375,0.0012045078183989,0.0076935136446729,-0.0732873545289039,-0.0019578505307435,0.0001915739849209,0.0026117297820746
1783206037200420000,2.603420166015625,0.016405319220107,0.0120605634474894,-0.0708937373906374,0.0012432960793375,0.0013092588633298,0.0012158593162894
1783206037210358000,2.61335791015625,0.0178022169386036,0.0089221969231031,-0.0596697480648756,0.0026481132954359,-0.0016260771080851,5.63187059015e-05
1783206037220297200,2.623297119140625,0.006813086681487,0.005606236208952,-0.0643067602157592,-6.73234462738e-05,0.0016322280280292,0.0057641505263745
1783206037230235100,2.633235107421875,0.0083402597161475,0.0087376661024754,-0.0641582916557788,-0.0002931589260697,0.0012404769659042,0.0024072364903986
1783206037240173000,2.643173095703125,0.0077959511058405,0.0075439765056129,-0.047699324285984,0.0018402365967631,0.0014393758028745,0.0012360482942312
1783206037250112000,2.653112060546875,0.0127502125123515,0.0097923901866422,-0.0557791703671216,0.0016673970967531,-0.0022773314267396,-0.0021120780147612
1783206037260050200,2.66305029296875,0.0127657023424282,0.0066419085327768,-0.0675993720203638,0.0010290537029504,0.0004110028967261,0.0014691941905766
1783206037269988000,2.672988037109375,0.0103560382516589,0.0040434027724433,-0.0586211157947778,0.001034646295011,0.0003942251205444,0.0010630621109157
1783206037279927000,2.682927001953125,0.0072014558114111,0.0070216057324782,-0.0581722029834985,-0.001930627040565,-0.0002239886671304,-0.0005963626317679
1783206037289865000,2.692864990234375,0.0066582340464927,0.0008013475447194,-0.064907648718357,0.0006750104948878,-0.0014333301223814,-0.0018413903890177
1783206037299803100,2.70280322265625,0.0131799730985891,-0.0008541006452636,-0.0503928011536598,0.0018459428101778,0.0009525227360427,7.49756582081e-05
1783206037309741000,2.712740966796875,0.0178283468937035,0.0100235411945497,-0.0668523530453443,0.0007878690958023,-0.0003992980346083,0.0018451788928359
1783206037319680000,2.722679931640625,0.0062415704038459,0.0045192401232663,-0.0638601854920387,0.0008233124390244,-0.0016903113573789,-0.0008341467473655
1783206037329618000,2.732617919921875,0.0064420979446265,0.0069339913811068,-0.0599696077942848,-0.0025016441941261,0.0012868363410234,0.001985874492675
1783206037339556000,2.74255615234375,0.0114955910750664,0.0085512995177879,-0.0746352620065212,-0.0013096248731017,-0.0028334124945104,0.0027172174304723
1783206037349495000,2.7524951171875,0.0156795439625158,0.0043947460939176,-0.0626648382276296,-0.0002185273915529,0.0024763979017734,0.0002940071281045
1783206037359433000,2.762432861328125,0.0068423219091258,0.0033888798198895,-0.0659597881197929,3.2358802855e-05,0.0019163670949637,0.0001907309051603
1783206037369371000,2.772370849609375,0.0158271083401981,0.0030470669451635,-0.0569821164160966,0.0005732467398047,-0.0011870143935084,0.0012000692076981
1783206037379310000,2.78231005859375,0.0128332694196142,0.0045457810703199,-0.0556353779822587,-0.0007705567404627,0.0034098783507943,0.0010387352667748
1783206037389248300,2.792248291015625,0.0190848040950484,0.0055593785596545,-0.0602741436988115,-8.23959708213e-05,0.000320877879858,0.0004131586756557
1783206037399186200,2.802186279296875,0.02034411997376,0.0100003247157437,-0.059077627390623,0.0015245592221617,0.001102696172893,-0.0016474707517772
1783206037409124000,2.8121240234375,0.0213653710465878,0.018196230358025,-0.0598263999313116,0.0001618200913071,-0.0003878748975694,0.0023765657097101
1783206037419063000,2.82206298828125,0.0152771645735483,0.0013119867808651,-0.0565355416923761,-0.0005701370537281,-0.0005043032579123,0.0020893109031021
1783206037429001200,2.832001220703125,0.0048676882347557,0.0040991013153223,-0.0501022937744855,0.0004487885162234,0.0010126330889761,-0.0002199162263423
1783206037438939100,2.841939208984375,0.0062213404665701,0.009904234796972,-0.0557902762830257,-0.0018573040142655,0.0021860892884433,7.93498475104e-05
1783206037448878000,2.851878173828125,0.0105144162843003,0.0074856795802712,-0.0563911647856235,-0.0006575500592589,0.0003682156093418,-0.0032653140369802
1783206037458816000,2.86181591796875,0.0147200238811317,0.0104447029158007,-0.0562432807475328,0.0013778582215309,0.0029503568075597,0.000920204911381
1783206037468754200,2.871754150390625,0.0240363529546651,0.0040773689741268,-0.0643248803943395,-0.0031511131674051,0.000391858164221,0.0022893361747264
1783206037478693000,2.881693115234375,0.0189311935690697,0.0041101569988764,-0.0562456188350915,-0.0006875740364193,-0.0005393018946051,-0.0002026031725108
1783206037488631000,2.891631103515625,0.0200609739171341,0.0033135449947789,-0.0553483777344226,0.000752929598093,-3.56980599462e-05,0.0005715775769203
1783206037498569000,2.90156884765625,0.0113168004420585,0.0100184220614377,-0.0538514171749353,-0.0001514479517936,0.0013672485947608,6.25168904662e-05
1783206037508507100,2.911507080078125,0.0169517101896461,0.016143846139172,-0.0554980153381824,0.0021375389769673,-0.0020722239278256,-0.0008578717242926
1783206037518446000,2.921446044921875,0.0152672368345782,0.010007964599505,-0.0682154580920934,0.0018195658922195,-0.001879237126559,0.0004522430244833
1783206037528384000,2.931384033203125,0.0049898533097002,0.0091372964119305,-0.0632750790804624,-0.0006161611527204,-0.0011175731196999,0.0014405418187379
1783206037538322000,2.941322021484375,0.0208316842949949,0.0102102228730684,-0.0560924740999937,0.0005036666989326,0.0023041111417114,0.0003872208762913
1783206037548260900,2.9512607421875,0.0109598584968596,0.0087678694444941,-0.0502577765971422,0.0003534648567438,0.0003594709560275,0.0020386471878737
1783206037558199000,2.961198974609375,0.0160356730569619,0.0011144138155737,-0.0604348872184753,0.0006282655522227,0.001557607203722,0.0015686070546507
1783206037568137000,2.971136962890625,0.0127630171949975,-0.0012020601329859,-0.065523150268197,0.0007339930161833,0.0010886243544518,0.0008974904194474
1783206037578076200,2.981076171875,0.0036701764127239,0.0037699835253879,-0.0631301176518201,-0.0004051318392157,-0.001561077311635,0.0003776438534259
1783206037588014000,2.99101416015625,0.001379033268243,0.0076956645025638,-0.0673199705570936,-0.0005465457215905,-0.001847633626312,-0.0011440864764153
1783206037597952000,3.000951904296875,0.005400826997077,0.0057076461902353,-0.0662730918526649,-0.0001963516697287,0.0012201946228742,0.0018686382099986
1783206037607890200,3.01089013671875,0.0022624376398045,0.0059617899146629,-0.0631324557393789,-0.0014227367937564,0.0023581634741276,-0.0008411284070461
1783206037617829000,3.0208291015625,0.0104369214681442,0.009361524488707,-0.0670242024809122,0.001106115989387,-0.0005422034300863,0.0021074037067592
1783206037627767000,3.03076708984375,0.0088480357083491,0.0143314446886535,-0.0599900660604238,-0.0006297323852777,-0.0001800134778022,0.0034179450012743
1783206037637705000,3.040705078125,0.0108544162278529,0.0075086174978641,-0.0562479569226503,-0.0012550931423902,-0.0019979788921773,-0.0002837006468325
1783206037647644200,3.05064404296875,0.0140408185784704,0.0054556670234305,-0.0626829584062099,-0.0008462984114885,0.0031456500291824,0.0002270936965942
1783206037657582000,3.06058203125,0.0104706958735827,0.0007539967050775,-0.0673234776884317,-0.0011748038232326,0.0010786121711134,0.0012752499897032
1783206037667520000,3.07052001953125,0.0054618273361586,0.0167700791455805,-0.0519113890230655,-0.0010626846924424,0.0005859271623194,0.0041136471554636
1783206037677459000,3.080458984375,0.0036873010774608,0.0188882586096413,-0.0580476998209953,-0.0004085833206772,0.0015384703874588,0.0012437859550118
1783206037687397000,3.090397216796875,0.011813936309237,0.0147271294753532,-0.0637368513733148,-0.001676513813436,0.0021398123353719,0.0023849504068493
1783206037697335000,3.1003349609375,0.0115217210301663,0.0108390542619396,-0.0623906974613666,-0.0020697899162769,-0.003185995388776,0.0011730685364454
1783206037707274000,3.11027392578125,0.0115517782417126,-0.0009128496617544,-0.0508668484061956,0.0017308071255683,0.0007733260281383,0.0010977012570947
1783206037717212000,3.1202119140625,0.0155164075563661,0.0080907602007966,-0.051916065198183,1.0738149285e-06,-0.0005060536786913,-0.0005783955566585
1783206037727150000,3.130150146484375,0.0143975504611153,0.0085133649604627,-0.0638853199332952,0.0020549036562442,-0.0022317818365991,0.0010336160194128
1783206037737088000,3.140087890625,0.02005333859995,0.0109206726973643,-0.0583463905066251,0.0039287246763706,0.0010043932124972,0.0013099401257932
1783206037747027000,3.15002685546875,0.0124958815582562,0.0066960179067682,-0.0599912351042032,0.0005731415003538,-0.0009136153385043,-0.0004173859488219
1783206037756964900,3.15996484375,0.003675574107049,0.0087594167099799,-0.0613397271037101,-0.0022041853517293,0.000467010308057,0.0002787341363728
1783206037766903000,3.169903076171875,0.0158663261057343,0.0060980337473098,-0.0578980622172355,-0.0020342757925391,0.0003429069183766,0.0006137599702924
1783206037776842200,3.17984228515625,0.0100457027940079,0.0022886315269861,-0.0595464139461517,-0.002197328954935,0.000711659900844,0.0012520009186118
1783206037786780200,3.1897802734375,0.0163812259584665,0.0056704422852722,-0.0635877982914447,0.0006738249212503,-0.0008337725885212,0.0007859475445002
1783206037796718000,3.199718017578125,0.0148880008591804,0.0086524400710128,-0.0721183107495307,-0.0008759256452322,0.001607016660273,-0.0010115017648786
1783206037806657000,3.209656982421875,0.0202241377227474,0.0117809245222015,-0.0593996989518404,-0.0012674098834395,0.0029577717650681,0.0009632322471588
1783206037816595000,3.219594970703125,0.0011480740565806,0.0121351721868151,-0.0628425328820943,-0.0006394144147634,-0.0006493013352155,0.0006058868020772
1783206037826532900,3.229532958984375,0.0085601860771421,0.0106504820204339,-0.0664338353723287,-0.0030716797336935,-0.0011566332541406,-0.0013523355592042
1783206037836470800,3.239470703125,0.0135463861250318,0.0007496630232548,-0.0598503653287887,-0.0017605908215045,-3.01534309983e-05,-0.0004600619431585
1783206037846409700,3.24940966796875,0.0103427860444411,-0.0054457712505012,-0.0574567481905221,0.0028386879712343,0.0010894392617046,0.0033442636486142
1783206037856348000,3.259347900390625,0.0116032801000867,0.0085114013322396,-0.0508738626688718,-0.0017116721719503,-0.000422554090619,-0.0005939831025898
1783206037866285800,3.269285888671875,0.0134275181188713,0.0058087639105739,-0.0555120438635349,0.0015741353854537,0.0011524390429258,-0.0006139567121863
1783206037876224800,3.279224853515625,0.014336970247142,0.0094760222804266,-0.0517728573352098,-0.0019187713041901,0.0009532924741506,-0.0025856245774775
1783206037886162700,3.28916259765625,0.0068772653583437,0.0081144059378653,-0.0463859035998582,-0.0005618901923298,0.000979924108833,0.0022586651612073
1783206037896100900,3.299100830078125,0.0123348001118749,0.0146673073132056,-0.0579074145674705,0.0027192402631044,-0.0026944866403937,0.0008724746294319
1783206037906039800,3.309039794921875,0.0110685156362596,0.008063264839095,-0.0608984130769967,-0.0011689756065607,0.0007250127382576,-0.0011533922515809
1783206037915977700,3.318977783203125,0.0144078891920391,-0.0052936905279057,-0.0522194320589303,-0.0011975923553109,-0.0013420032337307,-0.0024795052595436
1783206037925915600,3.32891552734375,0.0155488850538618,0.0069491158850025,-0.0534153638452291,-0.0012359423562884,-0.0015537245199084,0.0024721100926399
1783206037935854600,3.3388544921875,0.013521315615857,0.0086325023946817,-0.0505722493737936,-0.0016327826306223,-0.0004510325379669,0.0011411155574023
1783206037945792800,3.348792724609375,0.0042207138344179,0.0150282906792825,-0.0608978285551071,0.0003946814686059,0.0004656272940337,0.0010012993589043
1783206037955730700,3.358730712890625,0.0137307023165281,0.0091206238383427,-0.0607464373856782,0.0018750522285699,-0.0011924710124731,0.00054193707183
1783206037965668600,3.368668701171875,0.018381304601347,-0.0008411909313406,-0.061345572322607,0.0004878118634223,0.0004003657959401,0.0021140011958777
1783206037975607800,3.37860791015625,0.0242250621934887,0.0055926734744803,-0.0611959347188472,-0.0002273712307214,-0.0016553136520087,-0.0002589528448879
1783206037985546000,3.3885458984375,0.0310145853362977,0.0126340296536218,-0.058801733058691,-0.0010814471170306,-0.0012116311118006,0.0014369480777531
1783206037995484000,3.39848388671875,0.0236552812152076,0.0087644627778558,-0.0549111553609371,0.0039818249642848,0.0009975177235901,0.0015779342502355
1783206038005422800,3.4084228515625,0.0127552540136501,0.0050867652123793,-0.0614957944482564,0.0015389071777462,-0.0010544476099312,-0.0001757571008056
1783206038015360800,3.41836083984375,0.0068218362435232,0.0146905466248979,-0.0646399376928806,-0.0007455563172698,0.0005092965438961,0.0017391419969499
1783206038025299000,3.428298828125,0.0048563265905249,0.0144568794329185,-0.0528191515177488,-0.0022965818643569,4.856986925e-05,0.0015844125300645
1783206038035238000,3.43823779296875,0.0047930246965028,0.0052817671946715,-0.0570066663354635,-0.0004051364958286,-0.0013660327531397,-0.0004248931072652
1783206038045175800,3.44817578125,0.0114201786181423,0.0097486560761928,-0.0529658665120601,0.0005525359883904,0.0022702470887452,-0.0002800172660499
1783206038055113700,3.45811376953125,0.0077955583801958,-0.0027997456871671,-0.0629933395296335,0.001264065504074,0.0010176398791372,0.0031911407131701
1783206038065052700,3.468052734375,0.0068327503631822,-0.002549844313017,-0.0697276162207126,-0.0005482155829668,-0.0005216673016548,0.0020494435448199
1783206038074990800,3.477990966796875,0.0178045641593169,0.0103792273310013,-0.0600023410201072,-0.0025648716837167,0.0002219616435468,-0.0001572025939822
1783206038084928800,3.4879287109375,0.0169744243449531,0.011237337431102,-0.063594812554121,0.0009843232110142,0.0011972114443778,0.0005642478354275
1783206038094866700,3.49786669921875,0.012007148193242,0.0005843300934415,-0.0597048193782567,0.0003575785085558,-0.0003642248921096,0.0003013000823557
1783206038104805600,3.5078056640625,0.0045425844662357,0.0081941931758075,-0.0689823508113622,0.0018697213381528,0.0010171569883823,0.0008057029917836
1783206038114743800,3.517743896484375,-2.7399463579e-05,0.0085187717879423,-0.065689154484868,0.0012514777481555,-0.0002554194070398,-0.000431841937825
1783206038124681700,3.527681640625,0.0048143323460128,0.0001102737077511,-0.0595557662963867,-0.0013293912634253,0.0038189508486539,-0.0010978986974805
1783206038134620700,3.53762060546875,0.0065998001238331,0.0039191462051123,-0.0579109216988086,-0.0011789957061409,-0.0017507188022136,-0.0002728591207414
1783206038144558600,3.54755859375,0.0109173071299213,0.0098433577554766,-0.0577601150512695,0.0006492650136351,-0.0007443102076649,8.18739645183e-05
1783206038154496800,3.557496826171875,0.0208884377172216,0.0095670158989727,-0.0650911885917186,-0.0002342080697417,-0.0004545981064438,-1.71663705259e-05
1783206038164436000,3.56743603515625,0.0139977283554151,0.0214176537896739,-0.0731698656290769,7.0190988481e-05,4.76739369332e-05,6.56580086797e-05
1783206038174374000,3.577373779296875,0.0071994556505698,0.0172804626533994,-0.0634440059065818,0.0021186489611864,0.0036650607362389,0.0010974458418786
1783206038184311800,3.587311767578125,0.0056082957352977,0.0045631705965381,-0.0671878686100244,0.00169946718961,0.0020980569534003,-0.000692997360602
1783206038194250800,3.597250732421875,0.0145173409158829,-0.001717115249345,-0.0676373659431934,-0.0021553225815296,0.0006282785907387,-0.0004066315013915
1783206038204189000,3.60718896484375,0.0275287799139972,0.0096614801162388,-0.0601560702770948,-0.0009699501097202,0.0009156335145235,-5.90889248996e-05
1783206038214126800,3.617126953125,0.03081091599036,0.0128773414567811,-0.0592588291764259,-0.0009861746802926,-0.0002446975558996,-0.0005983067676424
1783206038224065800,3.627065673828125,0.0293099368428811,0.0201975008775712,-0.0668903469681739,-0.000318787060678,0.0011638482101261,-0.0005189445801079
1783206038234003700,3.637003662109375,0.0182499881055671,0.0180747137370519,-0.0644961453080177,-0.0012349281460046,-0.0012715244665741,-0.0007789132650941
1783206038243942000,3.64694189453125,0.0085229776056017,0.0098213833856862,-0.0652449178487062,0.0004985239356756,-0.0005966792814433,0.0026786688249558
1783206038253879800,3.6568798828125,-0.0018017247928772,0.0097088674884987,-0.0559662173718214,-0.0007093288004398,-0.0014552236534655,0.0003404936287552
1783206038263818800,3.66681884765625,-0.021426435317751,0.004726033008052,-0.065092357635498,-0.002031055279076,-0.0012842486612498,-0.0008326289243996
1783206038273756700,3.676756591796875,-0.0106026334238704,-0.0003014397651422,-0.0612029489815235,0.0005398588255047,0.0002672532573342,-0.0003687613643705
1783206038283694800,3.68669482421875,0.0003838208189699,0.0049599650615127,-0.0710778617858886,-0.0002092877402901,-0.0012576729059219,0.0002400372177362
1783206038293633800,3.6966337890625,0.0125667639705352,0.0162780532783595,-0.0594049596488475,0.0019458951428532,-0.0002224864438176,-0.0001560228411108
1783206038303571700,3.70657177734375,0.0070199252320453,0.0024597822762327,-0.0632955373466014,0.0005543930456042,0.0008494355715811,0.0003907242789864
1783206038313509600,3.716509521484375,0.0141563255837652,0.0006586100392043,-0.0637450346797704,-0.0003337012603878,0.001163609791547,0.0004523764364421
1783206038323448800,3.72644873046875,0.0173807127240579,0.0122101051531266,-0.0595557662963867,-0.0008146679028868,-0.0009815664961934,0.0009346748702228
1783206038333387000,3.736386962890625,0.0142548540547955,-0.0047442262518685,-0.0540209285229444,-0.0005508866161108,0.0019433330744504,0.0009043817408382
1783206038343325000,3.746324951171875,0.0045566586573608,0.0050404601189307,-0.0607540361702442,0.0029266690835356,-0.0004756161943078,-0.000273534329608
1783206038353263900,3.756263916015625,-0.0003844966724049,0.0028564625767758,-0.0652437488049268,-0.003063422627747,0.0004760129377245,-2.35047191381e-05
1783206038363201800,3.766201904296875,0.0082999277057591,0.0135532359909266,-0.0496814380139112,0.0015252036973834,0.0001798695884644,-0.0017162099247798
1783206038373140000,3.776139892578125,0.0117965102504007,0.0173625057805096,-0.0496802689701318,0.0003740563988685,-0.0007474343292415,-0.0012539543677121
1783206038383078000,3.786077880859375,0.0055335408654995,-0.0081760044985683,-0.065239657151699,0.0020555770024657,-0.0029804948717355,0.0008294363506138
1783206038393016800,3.796016845703125,0.0009341664444189,-0.0246926157731562,-0.0606003069132566,0.0034250989556312,-0.0002666795626282,0.0018361620604991
1783206038402954800,3.805954833984375,0.0190081769285723,-0.0171635537088848,-0.0565595070898532,0.0001696506515145,-0.0010445890948176,0.0016896883025765
1783206038412893000,3.815892822265625,0.0478979977963957,0.0029546211550477,-0.0475789127767086,-0.001230658032,-0.0021407301537692,0.002958302386105
1783206038422831900,3.825831787109375,0.0330078689122106,0.0167653390383813,-0.0601467179268598,-0.0008554188534617,-0.0033804322592914,-0.0015208680415526
1783206038432769800,3.835769775390625,-0.0090878906125202,0.0079455019446322,-0.0734597884863615,0.0037430999800562,-0.001015902031213,0.0041865310631692
1783206038442707700,3.845707763671875,-0.0318324684572871,-0.0012235641453182,-0.0736065034806728,0.0021952707320451,-0.0023892940953373,0.0005052438937127
1783206038452646700,3.855646728515625,-0.0378480846181511,-0.0479332472062902,-0.0620832389473915,-0.0004004267975687,-0.0007337513379752,-0.0006442365702241
1783206038462584800,3.865584716796875,-0.0204914468894246,-0.0555066233363235,-0.0430821858793497,-0.0047544287517666,0.0012795985676348,-0.0028844876214861
1783206038472522800,3.875522705078125,0.0348506472346838,-0.0316934892448596,-0.0468278021484613,-0.0065724393352866,0.0039086379110813,0.0004585017450153
1783206038482461700,3.885461669921875,0.0902146974622737,-0.0082095734080299,-0.0550631310522556,-0.001540663652122,0.0037587021943181,0.0015266956761479
1783206038492399600,3.895399658203125,0.1170424073016736,0.0247561916618142,-0.0667366177111864,8.7296590209e-05,-0.000711387488991,-0.0026729498058557
1783206038502337800,3.905337890625,0.1201277695637662,0.0275742447572294,-0.0736187784403562,-0.0013137925416231,-0.003173479810357,-0.0016074191080406
1783206038512277000,3.915277099609375,0.1094851055236067,0.0273561587268719,-0.0670335548311471,-0.0017966069281101,-0.0021634423173964,-0.0004060373175889
1783206038522215000,3.92521484375,0.0585006586197298,0.0355514661475317,-0.0670347238749265,-0.0034163417294621,0.001166308298707,-0.0011983276344835
1783206038532152800,3.93515283203125,0.0335762251183856,0.0761684857560554,-0.0508750317126512,-0.0009382255375385,0.0005876752547919,0.002301430562511
1783206038542091000,3.945091064453125,-0.006480365862092,0.1037995707004796,-0.074816463792324,0.0012090811505913,-0.002117030788213,0.0023030282463878
1783206038552030000,3.955030029296875,-0.0357793337863869,0.0469750605654669,-0.0668815791398286,0.0049216924235224,-4.13828529417e-05,-0.0004606847651302
1783206038561967900,3.9649677734375,-0.0679112144485116,-0.0050189698063302,-0.0653846185803413,0.0014191027730703,0.001612972933799,0.0009486600756645
1783206038571905800,3.97490576171875,-0.0706531153014861,-0.0201846596623072,-0.0644920536547899,-0.0040547857061028,0.0021413010545074,0.0016498239710927
1783206038581844700,3.9848447265625,-0.0364000321011524,-0.0136597103063948,-0.0495353075414896,-0.0029178829863667,0.0051943487487733,0.0012985528446733
1783206038591783000,3.994782958984375,-0.0421739667269401,0.0287144825672265,-0.055524903345108,-0.0031089717522263,-0.0026872251182794,0.0008510849438607
1783206038601720800,4.004720947265625,-0.0412572811402846,0.0424912342488765,-0.0766232209533453,0.0028016483411192,3.95849347114e-05,-0.0022887818049639
1783206038611659800,4.01465966796875,-0.0344921069874428,0.0280279433414805,-0.089488547745347,0.0032639373093843,-0.0023636980913579,0.0003567931707948
1783206038621597700,4.02459765625,-0.0235687080434523,0.0149182270340854,-0.0647960050374269,-0.0032789167016744,-0.0006068111397325,0.0011988845653831
1783206038631535900,4.034535888671875,0.0009449800993781,0.0041410955598345,-0.0621066198229789,-0.0054988274350762,0.0012678080238401,0.0008798863273113
1783206038641474800,4.044474853515625,0.0470765710114501,0.0159341945770196,-0.0366729033589363,-0.0059049585834145,0.0003663278184831,0.0004266165196895
1783206038651412700,4.054412841796875,0.0667076564781833,0.0306635571086546,-0.0616623831868171,0.0018709385767579,-0.0024760635569691,0.0014807973057031
1783206038661350700,4.0643505859375,0.069624137579929,0.0281752063250634,-0.0706365477591753,0.0040435455739498,-0.002130651846528,0.0031705731526017
1783206038671289600,4.07428955078125,0.0354039794016629,0.0109749145020963,-0.0691354955464601,0.0030587194487452,0.0010893908329308,0.0024909265339374
1783206038681227800,4.084227783203125,-0.0040838809133041,0.0062681707164039,-0.0465402173787355,-0.0006183069199323,-0.0003143609501421,0.0046217213384807
1783206038691165700,4.094165771484375,-0.0136716930051334,0.0109763301410479,-0.0396598102152347,-0.0041704652830958,0.002253274898976,0.0013370919041335
1783206038701103600,4.104103515625,-0.0114698995113838,0.0068235350102651,-0.0490881482958793,0.0023947600275278,-0.0009904555045068,0.0027424423024058
1783206038711042800,4.114042724609375,-0.0155175492006819,0.0052986726636998,-0.0639011020243167,0.0038047861307859,0.0013492228463292,0.0009435536339879
1783206038720981000,4.12398095703125,-0.0156278229084331,-0.005306294281152,-0.0692868867158889,0.0049667228013277,0.0009090024977922,0.0015190625563263
1783206038730919000,4.1339189453125,-0.0054669145032297,0.0074258756844326,-0.0638993484586477,0.0009285872802138,-0.0011563897132873,0.0014843437820672
1783206038740857900,4.14385791015625,0.0072702832639217,0.0092702797084115,-0.0378618208825588,-0.0009116567671298,0.0006447061896324,0.0014957953244447
1783206038750795800,4.153795654296875,0.0032378220106009,-0.0170561523782322,-0.0486357283532619,8.26837494969e-05,-0.0003727511502802,0.0007209638133645
1783206038760734000,4.16373388671875,-0.0168335819690022,-0.0079065581737319,-0.0606067366540431,0.0047381557524204,0.0036914986558258,-0.0028519330080598
1783206038770673000,4.1736728515625,-0.0304315156181808,0.0267146322532091,-0.0631517449617385,0.004985874518752,0.003141360823065,0.0010493863373994
1783206038780610800,4.18361083984375,-0.0028953652484808,0.056108877245523,-0.0616565379679203,0.0023581329733133,0.0014971252530813,-0.0039477688260376
1783206038790548700,4.193548828125,0.0315802198624238,0.0422551422043703,-0.0755728351175785,0.0009102914482355,-0.0026204786263406,-0.0021589994430541
1783206038800487700,4.20348779296875,0.0570264852807857,-0.0037470775738358,-0.0652472559362649,-0.0012444723397493,-0.0004689106717705,0.0010463814251124
1783206038810425900,4.21342578125,0.0151410257721785,-0.0678391127601033,-0.0639022710680961,0.001369098201394,0.001656343229115,-3.48286703228e-05
1783206038820363000,4.223363037109375,-0.0353810551838017,-0.0542819175466895,-0.051936523464322,-0.0020597223192453,0.0017849737778306,0.0007454776205122
1783206038830302000,4.233302001953125,-0.0570917051372583,-0.036117936357297,-0.0531383004695177,-0.0016223490238189,0.0033475498203188,-0.0006203122902661
1783206038840240000,4.243240234375,-0.0243230792078655,0.0136741954894736,-0.0565834724873304,0.0016240440309047,0.0039954967796802,0.0005490817129611
1783206038850178000,4.253177978515625,0.0040730398588813,0.0235776494017336,-0.0645136809647083,0.0012664403766393,-0.0004874230362474,-0.0004480667412281
1783206038860116000,4.263115966796875,0.0262241179230622,0.0055828005344374,-0.0648141252160072,0.0005822740495204,0.0028449902310967,0.0015964419580996
1783206038870055000,4.273054931640625,0.0502064848013222,-0.0317821858750423,-0.0646679947435855,-0.0032591708004474,0.0027581516187638,0.0018318439833819
1783206038879993000,4.2829931640625,0.0787625802027527,-0.0119582036181353,-0.0422258613109588,1.91805884242e-05,0.0022641352843493,0.0042846156284213
1783206038889931000,4.292930908203125,0.0898072217730805,-0.0165296808187151,-0.0428261652916669,-0.000497268512845,-0.0037098289467394,0.0002968404442071
1783206038899870000,4.302869873046875,0.1052843384986743,0.0258696556293172,-0.0458154102355241,0.0057089617475867,-3.28021124005e-05,0.0039736004546284
1783206038909807900,4.312807861328125,0.0856312238632235,0.0430691711341496,-0.0722995125353336,0.004661968909204,0.0022830516099929,0.0074633946642279
1783206038919746000,4.32274609375,0.0462352796154096,0.0295303152950247,-0.0791810887426137,0.0069807828404009,0.0008169813081622,0.0063704336062073
1783206038929685000,4.33268505859375,0.0296777837745845,0.0178741496636532,-0.0562853663235902,0.0015964303165674,0.0022752427030354,0.0048014507628977
1783206038939623000,4.342622802734375,0.0327340934721287,0.0357629854397848,-0.0416191275894641,0.0026542376726865,-0.0002004317939281,0.0076025635935366
1783206038949560800,4.352560791015625,0.022075912202429,0.0336695979236858,-0.0580757568717002,0.0055526727810502,-0.0025140210054814,0.0067114029079675
1783206038959499800,4.362499755859375,0.0247027992404531,0.0040259675804525,-0.0793202049523592,0.0097902948036789,0.0004362291656434,0.0067478884011507
1783206038969438000,4.37243798828125,0.0414493148473557,0.0066068874517455,-0.0646469519555568,0.0071316622197628,-0.0050352248363196,0.0091652292758226
1783206038979375900,4.3823759765625,0.0042945919213816,-0.0076329653967404,-0.0531160886377096,0.0096174571663141,-0.0059960936196148,0.0108060035854578
1783206038989315000,4.392315185546875,-0.0545832294476684,-0.0330410770620685,-0.0680734192728996,0.0103456228971481,-0.0029506818391382,0.0109053868800401
1783206038999253000,4.4022529296875,-0.0823586958654224,-0.0324082088188966,-0.0758469758838415,0.0057948138564825,-0.0013884711079299,0.0119429547339677
1783206039009191000,4.41219091796875,-0.1092237968394532,-0.1047524783779867,-0.0673129562944173,0.0058175548911094,-0.0028764964081346,0.0077505465596914
1783206039019129000,4.422129150390625,-0.1062770393304526,-0.0859660727076232,-0.0643172816097736,0.0028760936111211,-0.0005678022280335,0.0095220813527703
1783206039029068000,4.432068115234375,-0.1024130208460614,-0.135547192152217,-0.073445759961009,-0.0032643703743815,-0.0012246835976839,0.0097922142595052
1783206039039006000,4.442005859375,-0.120699906895915,-0.072282670998387,-0.0529471618115901,0.0037535903975367,0.0043096314184367,0.0100755747407674
1783206039048943900,4.45194384765625,-0.1097371166564524,-0.0366048385248286,-0.0465180055469274,0.0033457521349191,0.0051141404546797,0.0098167024552822
1783206039058883000,4.461883056640625,-0.0491721733175218,0.0109998069147579,-0.0638794747143983,0.0087101580575108,0.0041412878781557,0.0079354457557201
1783206039068821000,4.471821044921875,-0.0490995556058827,-0.0074915293657453,-0.0549029720544815,0.0097334384918212,0.006803527008742,0.0039975401014089
1783206039078759000,4.481759033203125,-0.0183025311435572,0.0394704890550579,-0.0596937134623527,0.0083683021366596,0.0041326428763568,0.0023730117827653
1783206039088697900,4.49169775390625,0.0031519612248986,0.0125984377504326,-0.0534112721920013,0.0006655529141426,0.005725348368287,0.0062507223337888
1783206039098636000,4.501635986328125,0.0199260224258527,0.1253211826215498,-0.0472831447005271,-0.0012338133528828,0.007040683645755,0.0053487094119191
1783206039108574000,4.511573974609375,-0.0333886118581052,0.0608515965268947,-0.0499824667870998,-0.0032696211710572,0.0053177438676357,0.0050399391911923
1783206039118513000,4.521512939453125,-0.0941881768036633,0.0795863907410297,-0.0582154576033353,0.0046412982046604,0.0049622124060988,0.0019157850183546
1783206039128450800,4.531450927734375,-0.1092321080100722,0.0048279064969276,-0.0695914226204156,0.0025479141622781,0.0065840100869536,0.0031476696021854
1783206039138389000,4.541388916015625,-0.0463624313927255,0.0121250823343521,-0.0643640433609485,0.0025242120027542,0.0138824023306369,0.0063972589559853
1783206039148327000,4.551326904296875,0.1060753975448198,0.0971739511488005,-0.0296592252045869,0.0016533136367797,0.0072289565578103,0.0025111199356615
1783206039158265900,4.561265869140625,0.1668204649573192,0.0408092085792217,-0.0527092614024877,0.0044379150494933,0.0018022330477833,0.0046445778571069
1783206039168203800,4.571203857421875,0.2158806658003479,-0.0121419512707623,-0.0724625941425561,0.0091461166739463,0.0056883180513978,0.0034506833180785
1783206039178142000,4.581141845703125,0.1872689220883883,0.0245995923110167,-0.0667775342434644,0.0112343020737171,-0.003203444648534,0.0038842456415295
1783206039188081200,4.5910810546875,0.2149368273452855,-0.0952757345783524,-0.0621370149612426,0.0016896640881896,0.0007179956883192,0.0008100657723844
1783206039198019000,4.60101904296875,0.1599114527538418,0.0411250193630112,-0.0248795897126197,0.0009514363482594,0.0102212196215987,-0.0006597326137125
1783206039207957000,4.61095703125,0.0759566468033939,-0.0033285987167269,-0.0592979921430349,0.001657722517848,-0.0030624731443822,-0.0022686459124088
1783206039217896000,4.62089599609375,0.0264108544005081,-0.0244799000376602,-0.0727659610033035,0.0032257912680506,0.0062665804289281,-0.0063214441761374
1783206039227834000,4.630834228515625,0.0111050939201377,-0.0804957880703732,-0.0605026917576789,-0.0008874768391251,0.0039470782503485,-0.0061085601337254
1783206039237772000,4.64077197265625,0.1976139914214611,-0.1005287414694205,-0.0489905331403017,-0.009296940639615,0.0040932856500148,-0.0013524207752197
1783206039247711000,4.6507109375,0.4360470460958778,0.0978031158978119,-0.0147357968389987,-0.0104026924818754,0.0049263089895248,0.003222631290555
1783206039257649000,4.66064892578125,0.3876739507341757,0.2835455042723566,-0.0573825139105319,0.0059408606030046,-0.007757528219372,0.0002300373744219
1783206039267587000,4.670587158203125,0.0832401548750698,0.235486260632798,-0.1432540402024984,0.0262462943792343,-0.0150871109217405,0.0005783666856586
1783206039277526000,4.680526123046875,-0.234284702823311,0.0599995645411312,-0.1478682559996843,0.0208022613078355,-0.0129190310835838,0.0001972683239728
1783206039287464000,4.6904638671875,-0.3838848971821367,-0.0203448163767927,-0.0631669425308704,-0.0036487914621829,0.0039118332788348,-0.0007713958621025
1783206039297401900,4.70040185546875,-0.2676204611161724,0.0046810225392575,-0.0043722237348556,-0.0220823921263217,0.0092887552455067,-0.0020212172530591
1783206039307340800,4.7103408203125,-0.0802355388321448,0.0607181611392647,-0.0027402386188507,-0.0190945528447628,0.0017403499223291,0.0008521303534507
1783206039317279000,4.720279052734375,0.0231925773405935,0.0910753968116827,-0.0663379737824201,0.0048440694808959,-0.0075748548842966,0.0021411003544926
1783206039327217000,4.730216796875,0.0432735528661403,0.0204264096960425,-0.1417424665957689,0.0180075503885746,-0.017009088769555,-8.58423300087e-05
1783206039337154800,4.74015478515625,0.0732949533134698,-0.0402368566179415,-0.1147907467842102,0.0051753744482994,-0.0128708034753799,0.0001956538762897
1783206039347094000,4.750093994140625,0.1127673603309784,-0.0247865753836347,-0.0369710095226764,-0.0153508121147751,-0.004501097369939,0.0004994357004761
1783206039357032000,4.760031982421875,0.078787139255274,0.002931998331286,-0.0052495910912752,-0.0243584215641021,2.3613218218e-05,-0.0014875486958771
1783206039366970000,4.76997021484375,-0.0031524909478612,-0.0145008030563243,-0.0393669647485017,-0.0196107290685176,-0.005305522121489,-0.0043402002193033
1783206039376909000,4.779908935546875,-0.1045737060112878,-0.0402088269667001,-0.1034054294168949,-0.0123887686058878,-0.008167621679604,-0.0059162592515349
1783206039386847000,4.789846923828125,-0.1284622662594076,-0.0591693607946857,-0.1019014545947313,-0.0172805339097976,-0.0131525006145238,-0.0039196363650262
1783206039396785000,4.799784912109375,-0.0605198620881885,-0.0267117690092651,-0.0469827004492282,-0.0253555029630661,-0.0065630413591861,-0.0034056464210152
1783206039406724000,4.80972412109375,-0.0032358583823777,0.0271238478083396,-0.0278361014306545,-0.0322973169386386,-0.0058643841184675,-0.0052407337352633
1783206039416662000,4.819662109375,0.0143207862973213,0.0401890856531914,-0.032331659284234,-0.0276309251785278,-0.0064465519972145,-0.0022294973023235
1783206039426600000,4.829599853515625,-0.0203536823865491,0.0475637015078449,-0.0426636682063341,-0.0193728692829608,-0.0067584859207272,-0.0065273907966911
1783206039436539000,4.839538818359375,0.0151025295258499,0.1243773259001784,-0.0598679009854793,-0.0149664031341671,-0.0156808737665414,-0.0087058562785387
1783206039446477000,4.84947705078125,0.061210401635617,0.1141247023572213,-0.1013140100955963,-0.0119561543688178,-0.0070047113113105,-0.0067597581073641
1783206039456415000,4.8594150390625,0.0932472426917403,0.06565474532519,-0.020652911928296,-0.0100826201960444,-0.0139467716217041,-0.0074710887856781
1783206039466354000,4.86935400390625,0.0046782940093427,0.0060833430682541,-0.0553653288692235,-0.0138290142640471,-0.0008197175338864,-0.0100151132792234
1783206039476291800,4.879291748046875,-0.0386029489729087,0.0313774409990524,-0.0691401717215776,-0.0151584642007946,-0.0026857950724661,-0.0165891274809837
1783206039486230000,4.88922998046875,0.0372804407980293,0.0564178518631495,-0.0320335531204938,-0.0159432888031005,-0.0074136806651949,-0.0085637075826525
1783206039496168000,4.89916796875,0.1056828636964317,-0.0384771717353491,-0.070493339896202,-0.0101964538916945,4.07733023166e-05,-0.0106335161253809
1783206039506107000,4.90910693359375,0.0155012191203888,0.0028499004052486,-0.0764805976122617,-0.0096784057095646,-0.0045707947574555,-0.007564531173557
1783206039516044800,4.919044921875,0.0093457469642627,-0.0086887991591822,-0.0645119273990392,-0.0101979887112975,-0.0004506185650825,-0.0106748370453715
1783206039525983000,4.92898291015625,0.0069474079851061,-0.0067204308288171,-0.0464133761286735,-0.0079765832051634,0.0008034254424273,-0.0093574132770299
1783206039535922200,4.938922119140625,0.0277588714759796,-0.0182834793832153,-0.0519540591210126,-0.0090282661840319,-0.0027697375044226,-0.0025786033365875
1783206039545860000,4.948860107421875,0.0085475640575867,-0.0921806363735348,-0.0720084206342697,-0.0080241523683071,-0.0024421499110758,-0.0032555575016885
1783206039555798000,4.958798095703125,-0.0165826850810088,-0.0365270194816868,-0.073956632092595,-0.0070560928434133,-0.0040919785387814,-0.0020153233781456
1783206039565737000,4.968737060546875,-0.029489266332006,-0.0261220229551894,-0.0664770899921655,-0.0065796440467238,-0.0003205328248441,0.000239485874772
1783206039575675100,4.978675048828125,-0.0173155020007397,0.0035437735540792,-0.0401461324274539,-0.0032387087121605,0.0019727149046957,-0.0008438881486654
1783206039585613000,4.988613037109375,-0.0016387436503544,-0.0031536828245269,-0.0399970793455839,-0.0009568203240633,-0.0016618240624666,-0.0004858491010963
1783206039595552000,4.998552001953125,-0.0230711155185475,-0.0177023915596306,-0.0783019678205251,0.002429655753076,-0.001402432564646,0.0013599880039691
1783206039605490000,5.008489990234375,-0.031318107460672,-0.0441669306424446,-0.0582481908291578,-0.0022340966388583,-0.0024723941460251,0.0019534453749656
1783206039615428000,5.018427978515625,-0.0079342087990604,-0.0379412062617018,-0.0600444265961647,-0.0023504765704274,0.0036086679901927,0.0003560816403478
1783206039625366000,5.028365966796875,0.0186194242061581,-0.0250456076290225,-0.0404471612006425,-0.0059536676853895,0.0034388494677841,-0.0013038178440183
1783206039635305000,5.038304931640625,0.0488032212741207,-0.018021462879586,-0.0485328525006771,-0.001640411093831,0.0002286750823259,0.0009153941646218
1783206039645243000,5.048242919921875,0.0554622864376753,0.0057072351982817,-0.0642448008954525,0.0038328673690557,-0.0012538419105112,0.000401523662731
1783206039655181000,5.05818115234375,0.0485951771471649,0.0005262066980358,-0.0724707774490118,0.0034909173846244,-0.0014362684451043,0.0007650451734662
1783206039665120000,5.0681201171875,0.0576038467773236,0.0175795871638692,-0.065435471984744,-3.44738364219e-05,-0.0030826148577034,-0.0002474673092365
1783206039675058000,5.078057861328125,0.0421091943950392,-0.0022934036002261,-0.0528612370938062,0.0001969551667571,-0.0013385107740759,0.0018319287337362
1783206039684995800,5.087995849609375,0.0225755870865657,0.0077003635105676,-0.0646826077908277,-0.0008347695693373,-0.0006081615574657,-0.001625022967346
1783206039694934800,5.097934814453125,-0.0048331009785644,0.0126420120306778,-0.0573474425971508,-0.000173239968717,-0.0034436294808983,-0.0023845564574003
1783206039704873000,5.107873046875,-0.0109109047885984,-0.0060132324075326,-0.0663227762132883,-0.0001986259594559,0.000420487485826,-0.001783333835192
1783206039714811000,5.117810791015625,-0.0121221437418833,0.0061960324953775,-0.0622808073461055,-0.0009323265403509,-0.0047742747701704,-0.0001928939018398
1783206039724750000,5.12775,-0.0398730237076524,0.015737292898586,-0.0573386747688055,-0.0012542847543954,-0.0079262349754571,-0.0015014016535133
1783206039734688000,5.13768798828125,-0.119539923205832,0.0499250786106335,-0.038180385312438,0.0052382359281182,0.0020638145506381,-0.0042132986709475
1783206039744626000,5.1476259765625,-0.326711788238585,0.0945730205359403,-0.0378805255830287,0.0075762658379971,0.0036279479973018,-0.0053615900687873
1783206039754565000,5.157565185546875,-0.3335692529179155,-0.0063494055593386,-0.068104398933053,0.0087315449491143,0.0031496442388743,-0.0010352849494665
1783206039764503000,5.1675029296875,-0.1426109839254524,-0.0236093734139809,-0.0437163921296596,0.005470729433,0.0119739696383476,-0.005003192462027
1783206039774441000,5.17744091796875,0.1306709187522065,-0.1103182410126552,-0.0286047477155923,0.0023327264934778,-0.000115183647722,0.0032251765951514
1783206039784379000,5.18737890625,0.3442472987987101,-0.2253590718341059,-0.087865914979577,8.74437391757e-05,0.0096548032015562,0.0006343396380543
1783206039794318000,5.197318115234375,0.3885006473492831,-0.1013751839646138,-0.0133493109166622,-0.0023655947297811,-0.0026223687455058,-0.0003401110880076
1783206039804256000,5.207256103515625,0.2751849050210789,0.0896805814524181,-0.0423836822211742,-0.0011305063962936,0.0045299525372684,0.0027402485720813
1783206039814194000,5.21719384765625,0.177704152945429,0.0891866421893239,-0.0899754544794559,0.016429578885436,0.0312430560588836,0.0065208720043301
1783206039824133600,5.227133544921875,-0.0018515278845094,-0.0857349856317974,0.0193862529933452,0.0112246582284569,0.0164254363626241,0.0025556283071637
1783206039834071600,5.237071533203125,-0.0058298569309525,0.0647838214092887,0.0487210685491561,-0.0046773422509431,-0.0039719813503324,-0.0047140028327703
1783206039844009700,5.247009765625,-0.0610242953458335,0.0821864354379009,-0.3460381277382373,-0.0106617091223597,0.0148386275395751,-0.0070236013270914
1783206039853948700,5.25694873046875,-0.0987946294195018,0.1492085007606539,-0.0832820943206548,-0.0141400629654526,-0.0141469500958919,-0.0030429745092988
1783206039863886600,5.266886474609375,-0.1195633497471921,0.0547966530026402,0.0669540598541498,0.0046351365745067,0.0055139712058007,-0.0026172536890953
1783206039873824500,5.276824462890625,-0.1068472860996145,-0.0543515898159937,-0.123834469461441,0.0054900106042623,-0.0084226168692111,-0.0014292174018919
1783206039883763500,5.286763427734375,-0.0105471951758954,-0.098099797289446,-0.1155909572511911,-0.0001856386661529,-0.0060011534951627,-0.0006924606859683
1783206039893701600,5.29670166015625,0.0221693261069245,-0.026664363370696,0.0424222606658935,-0.0058496501296758,0.0065966635011136,-0.0025476187001913
1783206039903639600,5.3066396484375,0.0034952308377716,0.0309129196266876,-0.0467711035251617,-0.0098409298807382,0.0049415086396038,-0.0009393356740474
1783206039913577500,5.316577392578125,0.0124479416301473,0.0661530045703751,-0.092120065292716,-0.0003140037879347,0.0076350299641489,-0.0025183239486068
1783206039923516400,5.326516357421875,0.0066290627509355,0.0981787077445536,-0.0009919336467981,0.0084372451528906,7.06068240106e-05,-0.0033505402971059
1783206039933454600,5.33645458984375,1.3708864944e-05,0.0748870585102355,-0.1006447325319051,0.0131837977096438,0.0038845196831971,-0.0028639808297157
1783206039943392500,5.346392578125,-0.0677774411341641,0.013221200158121,-0.0804407334148883,0.0122983921319246,0.0076985768973827,-0.0002193513792008
1783206039953331500,5.35633154296875,-0.11381109723025,-0.0419445281855063,0.0123334118723869,0.0041512493044137,0.0128422062844038,0.0013423264026641
1783206039963269400,5.366269287109375,-0.0913881525552831,-0.0381894910675007,-0.0535223313510417,-5.49089163541e-05,0.0150497574359178,0.000340508762747
1783206039973207600,5.37620751953125,-0.0127872017881833,-0.0275199161875294,-0.0607172112911939,-0.0004370724782347,0.0057864850386977,-0.0009575157891958
1783206039983146500,5.386146484375,0.0696086751493159,0.0118032642181729,-0.0668570292204618,0.002494572661817,0.0017814151942729,0.0023925369605422
1783206039993084400,5.39608447265625,0.1241226570193655,0.0413835104689933,-0.1021691656202077,0.0032085664570331,-0.002960342913866,0.0005767941474914
1783206040003022300,5.406022216796875,0.127958344458416,0.0455292319715954,-0.1051566569983959,0.0009081400930881,-0.003243027254939,0.0002901495900005
1783206040012961500,5.41596142578125,0.1099822687902487,0.0428919559702975,-0.0536789832174777,-0.0006897561252117,-0.0015199617482721,0.0004065295215696
1783206040022899700,5.425899658203125,0.0674534242110326,0.0322505020731128,-0.0412584775835275,-0.0029939645901322,0.0011700382456183,0.0004445491358637
1783206040032837600,5.435837646484375,0.0229361822935752,0.0410600461017107,-0.0515846412867307,-0.0028983568772673,0.0023753850255161,0.0030243531800806
1783206040042775600,5.445775634765625,-0.0067965830712579,0.0254405480636283,-0.0453004464507103,0.0039396435022354,0.0024603127967566,0.0004615429788827
1783206040052714500,5.455714599609375,-0.0215285348522011,0.0154787926594493,-0.062059858071804,0.0048941206187009,0.0018113004043698,0.000867142342031
1783206040062652700,5.465652587890625,-0.0149034084908664,0.0282835529372096,-0.0432072735637426,0.0024653561413288,0.0041550686582922,0.0021469444036483
1783206040072590600,5.475590576171875,0.0026215350094716,0.022593341938965,-0.0373790058016777,-0.0008457517251372,0.0082097314298152,0.0021948814392089
1783206040082529500,5.485529541015625,0.0249368363251909,0.0303124969149706,-0.0505588053703308,-0.0010378183797001,0.0065196147188544,6.7725777626e-06
1783206040092467500,5.495467529296875,0.0410801801408641,0.0310015842908294,-0.0626870500594377,0.0038032755255699,0.0038612473290413,0.0018608653917908
1783206040102405600,5.505405517578125,0.0459234463204164,0.0289012327444041,-0.0571516277641057,0.003739551641047,-0.0018027499318122,0.0031216642819344
1783206040112344600,5.515344482421875,0.0308255564370658,0.0206498157889116,-0.0622387217700481,-0.0005390830338001,0.0009898412972688,0.0016121845692396
1783206040122282500,5.525282470703125,0.0097949246370233,0.0042174715645611,-0.0507172108024358,0.0013909460976719,9.46815125644e-05,0.0020538810640573
1783206040132220400,5.535220458984375,-0.0069242097726091,0.0003502747423946,-0.0532604655444622,0.0004239529371261,0.0001873592846095,0.0020027486607432
1783206040142159400,5.545159423828125,-0.0209398117114324,0.0043551584356231,-0.0564040242671966,0.0004856884479522,0.0014730598777532,0.0035270862281322
1783206040152097500,5.55509765625,-0.012357030209992,0.0058684901745989,-0.0601473024487495,0.0020867809653282,0.0023044988047331,0.0001139789819717
1783206040162035500,5.565035400390625,4.21677744481e-05,0.0014475775929633,-0.058949032574892,0.0045255944132804,0.0032842431683093,5.64416404813e-05
1783206040171973400,5.574973388671875,0.0118704248699825,0.0049257111654616,-0.0561035800158977,0.0028754994273185,0.0005571665242314,0.0014884234406054
1783206040181912300,5.584912353515625,0.0231000676183961,-0.0010490295623196,-0.0574509029716253,0.0006053522229194,0.0021853200159966,0.0024201292544603
1783206040191850500,5.5948505859375,0.0312538465854246,0.0060210777872707,-0.0489262357324361,0.0004618074744939,0.0044420827180147,0.0015063984319567
1783206040201788400,5.604788330078125,0.0429545409116894,0.0042072241651825,-0.0594049596488475,0.0009114509448409,0.005002963822335,0.0020782002247869
1783206040211727600,5.6147275390625,0.0315980295137502,0.0054722345657413,-0.0588064092338085,0.002345030196011,0.0014596283435821,0.0012696641497313
1783206040221665500,5.62466552734375,0.0195338904362637,0.0080537983244284,-0.0571627336800098,0.0003339126706123,0.0034692685585469,0.0023195040412247
1783206040231603700,5.634603759765625,0.0176574381730519,0.0042481543971924,-0.0516302339941263,0.0005565527826547,0.0059779663570225,0.001045181415975
1783206040241542700,5.644542724609375,0.0238855645734351,0.0046770427671726,-0.0478928010314703,0.0011853165924549,0.0005498975515365,0.0012095058336853
1783206040251480600,5.65448046875,0.0206611682999879,0.0115661309940507,-0.0540326189607381,-0.0019841119647026,0.0042101461440324,0.002075299154967
1783206040261418500,5.66441845703125,0.0210513275281991,0.0105833807341288,-0.0663058250784874,0.0010284902527928,0.0018257359042763,0.0010312274098396
1783206040271357400,5.674357421875,0.0093402214057743,0.0069454626231919,-0.0681038144111633,0.0014652488753199,0.0008776504546403,-0.0021579079329967
1783206040281295600,5.684295654296875,0.0078222911234945,0.0257645558536052,-0.0640659371972084,-0.0004428541287779,0.0027889469638466,0.0004487596452236
1783206040291233500,5.694233642578125,0.0158092256236355,0.0145504394678864,-0.0627221213728189,0.0010541081428527,0.0009609530679881,0.0028195055201649
1783206040301171500,5.70417138671875,0.0130264539041556,0.0195006731532514,-0.053892918229103,0.0002874722704291,-0.0009324229322373,0.000974852591753
1783206040311110400,5.7141103515625,0.0005413403350859,0.0175104948498774,-0.0485047954499721,-0.001547978259623,-0.0025481628254055,0.0006691217422485
1783206040321048600,5.724048583984375,-0.0044344296503346,0.0154275510959792,-0.0474579167455434,0.000333983451128,-0.0003970051184296,0.000339578371495
1783206040330986500,5.733986572265625,-0.0034054793282411,0.0038860659194178,-0.0396773458719253,0.0003134775906801,0.0007367026992142,-0.000659106997773
1783206040340925400,5.743925537109375,-0.0041830852377694,-0.0049766467682551,-0.0398275679975748,0.0003417516127228,-0.002974341623485,-0.0009591910056769
1783206040350863400,5.75386328125,-0.0048286257328465,0.0076071414023172,-0.049704234367609,0.0005433531478047,0.0017847274430096,0.0010373811237514
1783206040360801500,5.763801513671875,0.0068639583521988,0.0021232072656275,-0.0559901827692985,0.000607824884355,0.0004634354263544,0.0021052034571766
1783206040370740500,5.773740478515625,0.007630650142068,0.0068215165831148,-0.0603308423221111,0.0008416501805186,0.0030094175599515,0.0012455349788069
1783206040380678400,5.783678466796875,0.0044990923843812,0.0119844979700166,-0.0510556489765644,-0.0015249736607074,0.0014181020669639,-0.0008901378605514
1783206040390616300,5.7936162109375,0.0012331767904572,0.0134218190304469,-0.0527034161835908,0.0002718605101108,0.0003776047378778,2.75874044746e-05
1783206040400555500,5.803555419921875,-0.0008028773481026,0.0100481596125755,-0.0465700279951095,0.0003919573500752,-0.0002041831612586,-7.80425034463e-05
1783206040410493700,5.81349365234375,0.0027040895932354,0.016077735800133,-0.040882630008459,0.0028468593955039,-0.00050804996863,-0.0017017717473208
1783206040420431600,5.823431640625,0.0007145232112146,0.012437593766069,-0.0573427664220333,0.0004780143499374,0.0013386439532041,-0.0015784042188897
1783206040430369500,5.83336962890625,-0.0045890630896203,0.007860960899759,-0.0556979218244552,-0.0022171046584844,-0.0007703131996095,0.0007928744889795
1783206040440308500,5.84330859375,0.0062976023068651,0.0133381365020992,-0.0509101030260324,-0.0022107670083642,0.0011859494261443,-0.0001497510820627
1783206040450246700,5.85324658203125,0.012781557498686,0.0138236960959155,-0.0441787489444017,-0.0012994334101676,0.000784610863775,0.0009669121354818
1783206040460184600,5.8631845703125,0.0143194437236059,0.0156140044456347,-0.0495668717235326,0.0010905163362622,-0.0002431781031191,0.000798306427896
1783206040470123500,5.87312353515625,0.0084137724769301,0.0171710474621737,-0.0422352136611938,0.0017951885238289,0.00117575423792,-0.0008318147156387
1783206040480061400,5.8830615234375,0.0104695542292669,-0.0001279509283369,-0.0404413159817457,-0.0009494870901107,0.0019648093730211,0.0017702896147966
1783206040489999600,5.89299951171875,0.0105120964630506,0.003995298447553,-0.0362573082953691,0.0083438800647854,0.0165850296616554,-0.000904589658603
1783206040499938600,5.9029384765625,0.0134944184757769,0.0298361663738032,0.0219353529542684,0.0854287520051002,0.0067299273796379,-0.0024982814211398
1783206040509876500,5.91287646484375,0.0115110078399069,0.0494830795973306,0.5960796410113572,0.0638779252767562,-0.1126510575413703,0.000335854711011
1783206040519814400,5.922814453125,0.0907527224622666,0.0076444001062074,-1.2041706223338842,0.0461419969797134,0.0732358694076538,-0.0024794987402856
1783206040529752600,5.932752685546875,-0.0257332200004253,0.0060867269020061,-0.0744277567356824,-0.0576248839497566,-0.0547473952174186,0.0018990039825439
1783206040539691500,5.94269140625,0.0199435398162342,-0.0525668892231537,0.7902876233816146,-0.1114726960659027,0.0922734215855598,-0.0021573195699602
1783206040549629400,5.95262939453125,-0.0280947980326134,-0.0337973068234277,-0.3217027279049158,-0.0812908262014389,0.0614979267120361,0.0004147612489759
1783206040559567400,5.9625673828125,-0.0550891605426557,0.0010298864704323,0.0070405661612749,-0.0123876258730888,-0.0559862963855266,0.0011863424442708
1783206040569506600,5.972506591796875,0.0355352684979792,0.0203617560951504,-0.0370627794593572,0.0676193237304687,0.0123615991324186,0.0024859649129211
1783206040579444700,5.98244482421875,-0.0235071871145628,0.0471795016629621,-0.3471989882111549,0.0514001585543155,-0.0543946586549282,0.0023188111372292
1783206040589382700,5.992382568359375,0.0284225869485642,0.0125206963391043,-0.1780529663830995,0.0032739080488681,0.0035535967908799,0.0002117177937179
1783206040599320600,6.002320556640625,0.0027832649098243,-0.0051191102791344,0.4289887981474399,-0.0449286252260208,0.025070983916521,-0.0021879037376493
1783206040609259500,6.012259521484375,0.0184781434387899,-0.0128064270784612,0.0020201076507568,-0.0425826460123062,0.0173768457025289,0.0008459691889584
1783206040619197700,6.02219775390625,0.0343862537264823,-0.0109610366737935,-0.1325350777894258,0.0013273078948259,0.0014231991954147,0.000446222256869
1783206040629135600,6.032135498046875,0.0062822951398789,0.0123486368409823,0.0428740960866212,0.0322998687624931,-0.0289115365594625,-0.0015301093226298
1783206040639074600,6.042074462890625,0.0168218732648994,0.0297312857937999,-0.2690817293077707,0.029305275529623,-0.0071372231468558,0.0002848503645509
1783206040649012500,6.052012451171875,-0.0010320829940959,0.0363331545771332,-0.0516407553881406,-0.0054966481402516,-0.0074541391804814,-8.0973841249e-06
1783206040658950700,6.06195068359375,0.0228015230632387,0.0096862948970869,0.1716021828085184,-0.0270235333591699,0.0214306339621543,-0.0016806551720947
1783206040668888600,6.071888671875,0.0131750868609175,0.0043102141821989,0.0229740483522415,-0.0185096729546785,0.0093169789761304,-0.0019576237536966
1783206040678827500,6.08182763671875,0.010077979362104,0.0139500806882511,-0.0826730225116014,0.0118857407942414,-0.006248072721064,-0.0013565134722739
1783206040688765400,6.091765380859375,0.0168185031308792,0.0105167635050136,-0.0504822330027818,0.0220736637711524,-0.0073684649541974,9.1180903837e-05
1783206040698703600,6.10170361328125,0.0107876437351107,0.0165667888255557,-0.0931108298957347,0.0091038979589939,-0.0049015926197171,-0.0023496528156101
1783206040708642600,6.111642578125,0.0066280672370921,0.0100612474230118,-0.0329594357937574,-0.0068178102374076,0.0071047362871468,-0.0005112725775688
1783206040718580500,6.12158056640625,-0.0148312748364172,0.0068491672084433,0.0793985308855772,-0.0156171927228569,0.0093167033046484,0.0013259793631732
1783206040728518400,6.131518310546875,-0.0102015692091546,0.0077094509993214,-0.0132411743670701,-0.0041490895673632,0.0032247218769043,0.0014338372275233
1783206040738456600,6.14145654296875,-0.0046940761003643,0.0069620621315436,-0.0760831227272749,0.01324531622231,-0.0092880763113498,-0.0010588441509753
1783206040748395500,6.1513955078125,0.0124470100483857,0.0237258165676146,-0.051975686430931,0.0116868345066905,-0.0067727207206189,-0.0001981104724109
1783206040758333400,6.16133349609375,0.0085705065417569,0.0226005936636589,-0.0398497798293829,-0.0007688691839575,0.001692118588835,0.0031542563810944
1783206040768271400,6.171271240234375,0.0033771482829004,0.014984191242652,0.008327098840475,-0.0076576676219701,0.0036599284503608,0.0008090767078101
1783206040778210600,6.18121044921875,-0.0026217998709529,0.0122054289780091,0.0364478624314069,-0.005277432501316,0.0051779714412987,0.0010033347643911
1783206040788148700,6.191148681640625,-0.0053567229938693,0.0052067246305057,-0.0226619136631488,0.0034303050488233,-0.0018437192775309,0.0003207665868103
1783206040798086700,6.201086669921875,0.0041603254166897,0.0043063736907206,-0.060963295006752,0.0109877195209264,-0.0037800353020429,0.0022641038522124
1783206040808024600,6.211024658203125,0.0040965668649412,0.0113459854373475,-0.0310293445140123,0.0009204382076859,3.20137478411e-05,0.0010260003618896
1783206040817963300,6.22096337890625,0.0094757300194818,0.0082135097976308,-0.0067909753143787,-0.0057851346209645,0.0039766877889633,-0.0026579503901302
1783206040827901400,6.2309013671875,0.0209709649015218,0.0145686829440528,0.0160959792762994,-0.0059004509821534,0.0036650977563112,0.0003170669078826
1783206040837839400,6.24083935546875,0.0185241471381392,0.0117662201434141,-0.0011140987217426,0.0017722500488162,-0.0023971004411578,-0.0002874904312193
1783206040847778300,6.2507783203125,0.0197528121502604,0.0153211818117881,-0.0356745399713516,0.0037286086007952,-0.0036184256896376,-0.001187106128782
1783206040857716200,6.26071630859375,0.0127059623786713,0.0113063703795894,-0.0388116689532995,0.0038105361163616,-0.0025572036392986,-0.0027444963343441
1783206040867654400,6.270654296875,0.0159507803856395,0.0163570413652807,-0.0248936182379722,-0.0019916929304599,0.0011504492722451,0.0022782254964113
1783206040877592300,6.28059228515625,0.0131151368346065,0.0154756691206013,0.007573650124669,-0.0050646662712097,0.000666438601911,0.0015751824248582
1783206040887531300,6.29053125,0.012101420614263,0.0067084937958512,-0.0039496144086122,-0.0001418134197592,-0.0009956401772797,-0.0017974445363506
1783206040897469200,6.30046923828125,0.0253553174655884,0.0129646635472076,-0.0201104756146669,0.0034241108223795,-0.0008905972354114,-0.0006688442081212
1783206040907407400,6.310407470703125,0.0273866406301036,0.0117788330298149,-0.0317781170547008,0.0067658456973731,-0.0018685101531445,0.0011511598713696
1783206040917345300,6.32034521484375,0.0157501523801591,0.0115387086975853,-0.0183066410630941,0.0010169278830289,-0.0011248034425079,0.0005367719568312
1783206040927284200,6.3302841796875,0.0089239322224631,0.0118764070861972,-0.0016986206114292,-0.0023421170189976,0.0004448634572327,3.63641884177e-05
1783206040937222100,6.34022216796875,0.0042750835033133,0.008553747203201,-0.0084352353900671,-0.0005330210551619,0.0003829351626336,0.0029098545201122
1783206040947160300,6.350160400390625,0.0044964985684957,0.0119235387301305,-0.029084640187025,0.0008350443094968,-0.0038035539910197,0.001040581613779
1783206040957098200,6.36009814453125,0.0042942631278187,0.0177111137222032,-0.0299801277220249,0.0039514703676104,-0.0016613770276308,-0.0019562076777219
1783206040967037200,6.370037109375,0.0054586124657653,0.01640694948819,-0.0171066176235675,0.0015977686271071,-0.0044033676385879,0.0012273350730538
1783206040976975000,6.37997509765625,0.0070249849996529,0.0047089631422422,-0.0082762454360723,-0.003334448672831,-0.0022909115068614,-0.0007873862050473
1783206040986913300,6.389913330078125,0.0058124765378888,-0.0052875165154458,-0.0030389293044805,-0.0031384406611323,0.0001131240278482,0.0009284885600209
1783206040996851200,6.399851318359375,0.0200791306283324,-0.0016768015052657,-0.0171048640578985,-0.001828946173191,-0.0003747874870896,0.00031812582165
1783206041006790400,6.409790283203125,0.0184569636534433,0.0172499579172814,-0.0106704470962286,-0.0009889854118227,-0.0008187368512153,0.0015264018438756
1783206041016728000,6.41972802734375,0.0144479472077917,0.0044087700526928,-0.0129144266307353,-0.0032686404883861,-0.0001339130103588,0.0020488467998802
1783206041026666200,6.429666259765625,0.0004963412827346,0.0012301765491953,-0.0168038352847099,-0.0031003281474113,-0.0010700142011046,0.0007098093628883
1783206041036604200,6.439604248046875,-0.0016630926403217,0.0077799680854193,-0.0049853871971368,-0.0030327821150422,0.0013603684492409,-0.0005239059682935
1783206041046543400,6.44954345703125,0.0166046411844901,0.0074694134320598,0.0005476970106363,-0.0041443845257163,0.0011137598194181,0.002048707799986
1783206041056481300,6.459481201171875,0.0179228385104332,0.0117213580883806,-0.0153156425535678,-0.0009580589830875,-0.0001887138932943,-5.89767005294e-05
1783206041066419500,6.46941943359375,0.0251692568415775,0.015297321445588,-0.0156114106297492,0.0026915371417999,-0.0020574540831148,-0.0027660799678415
1783206041076357400,6.479357421875,0.0203415352910291,0.0052733372930437,-0.0115700262844562,-0.0006616842001676,0.0003133043646812,0.0001804972998797
1783206041086296300,6.48929638671875,0.0199336029441095,0.0035547470392426,-0.0072322893410921,0.0010699033737182,0.0012962771579623,0.0009544116910547
1783206041096234200,6.499234130859375,0.0165367087811231,0.0066055631443392,-0.0043909284353256,-0.0022163949906826,0.0021108505316078,0.0002648658119142
1783206041106172400,6.50917236328125,0.0098042313214857,0.0144715929448604,-0.004541150560975,0.0011740755289793,0.0004767347127199,0.001486724242568
1783206041116110300,6.5191103515625,0.0014894896390847,0.021460150357685,-0.0168096805036067,-0.0001622093841433,0.0001015877351164,0.0001858305186033
1783206041126049300,6.52904931640625,-0.0054786597399506,0.0219218450187239,-0.0141156191140413,-0.0001600794494152,-0.0001447545364499,0.002917168661952
1783206041135987200,6.5389873046875,0.0064894259513821,0.0095520192592404,-0.0120224462270736,-0.0015392508357763,0.0004673963412642,0.0006869561038911
1783206041145925400,6.54892529296875,0.0101089133564848,-0.0029172163206851,-0.0025987843215465,-0.0001051379367709,0.002915640361607,0.0011037406511604
1783206041155863300,6.55886328125,0.0078039060834329,0.008794191195839,0.0050315644264221,-0.000397996045649,-0.0007280041463673,-0.0001715454272925
1783206041165802200,6.56880224609375,0.0141939633135683,0.0064548204288817,-0.0063414779812097,0.0017003081738948,-0.001588737592101,0.0002718707546591
1783206041175740200,6.578740234375,0.0143303030443377,0.0124436079483246,-0.0117255091071128,0.0027870275080204,-0.00013985671103,0.0029294642154127
1783206041185678300,6.58867822265625,0.016914419519715,0.0144191184055292,-0.0147194302260875,0.0002122838050127,8.4810890257e-06,0.0007272961083799
1783206041195616300,6.5986162109375,0.0131144609811715,0.0029352862669155,-0.0063414779812097,-0.0016436865553259,0.0015940144658088,0.001488690264523
1783206041205555200,6.60855517578125,0.009717895611748,0.0079429309616331,-0.0121773445278406,-0.001597880385816,-0.0018055108375847,0.0022061457857489
1783206041215493000,6.6184931640625,0.0075843815812375,8.20613934192e-05,-0.0177127668231725,-0.0004912661388516,-0.0029575494118034,0.0012090844102203
1783206041225431300,6.628431396484375,0.0112926797809544,0.0120647783983033,-0.0190559981256723,0.0007937094196677,-0.0012723011896014,0.0007094754837453
1783206041235369200,6.638369140625,0.0077372523216996,0.0151996103918878,-0.0088800565481185,-0.0007871920242905,-0.0006295950151979,0.0041026878170669
1783206041245307100,6.64830712890625,0.0028301179925445,0.0144429331059567,-0.0076829557180404,0.0003286730498075,0.0005262168124318,-2.01519578695e-05
1783206041255246000,6.65824609375,0.0094280640860088,0.0074590792677132,-0.0108265144407749,0.0014028707519173,0.0023008799180388,0.0011533037759363
1783206041265184300,6.668184326171875,0.0128082811088301,0.0128185285082086,0.0066781625896692,0.0017717191949486,0.0003663594834506,0.0015383968129754
1783206041275122200,6.6781220703125,0.0135606155797839,0.0146209656871389,-0.0106815530121326,-0.0007272465154528,0.0004759337753057,0.0031306529417634
1783206041285060000,6.68806005859375,0.013353576099826,0.0086815794005291,-0.01891103669703,-0.0008103372529149,-0.0016213054768741,-0.0012281427625566
1783206041294999300,6.697999267578125,0.0062136686167679,0.0010368139681406,-0.015468202766776,-0.002583566121757,-0.0024090055376291,-0.0008502691052854
1783206041304937500,6.7079375,0.0066876702035311,0.0003744319361168,-0.0118739776670932,-0.0012714266777038,-0.0043017147108912,0.0021990502718836
1783206041314875400,6.71787548828125,-0.0067302763693965,0.0087536902220919,-0.003043605479598,-0.0023476826027035,-0.0017338604666292,0.0010063683148473
1783206041324813300,6.727813232421875,-0.0028894834969658,0.0037130383069161,-0.0142640876740217,0.0001311879605054,-0.0029959320090711,-0.0018706445116549
1783206041334751500,6.73775146484375,0.0163241072100587,0.0130952174245845,-0.0141121119827032,-0.0010961666703224,-0.0022057555615901,0.0011261384934186
1783206041344690400,6.7476904296875,0.0157318038727156,0.0200437807537382,0.0036965164303779,-0.0013707382604479,0.0007072100415825,0.0004499619826674
1783206041354628400,6.75762841796875,0.0185825445281807,0.0167997390649048,-0.0004933364748954,0.000137023627758,-0.0010145097039639,0.0006864506285637
1783206041364566300,6.767566162109375,0.0164960388440173,0.0024859852965688,-0.0042325230032205,-0.0002443408593535,-0.0003814767114818,0.0001162679400295
1783206041374504400,6.77750439453125,0.0053080067476257,0.003997536070412,-0.0031856442987918,0.0021422365680336,0.0010995743796229,0.0004677926190197
1783206041384443400,6.787443359375,0.001575021631224,0.0070125502097653,0.0035474633485078,-0.0032008625566959,-0.0010115131735801,0.0013703377917408
1783206041394381300,6.79738134765625,-0.0010368870333768,0.0112446713541867,0.003250526228547,-0.0005367845296859,-0.0033314255997538,-0.0024965996854007
1783206041404319200,6.8073193359375,-0.0020352138883434,0.0003185461635701,-0.0012362637966871,-0.0001956336200237,-0.0024363370612263,-1.32019631564e-05
1783206041414257400,6.81725732421875,0.0091950407814234,0.008918776556733,-0.0031803836017847,0.0003378894180059,-0.0020878524519503,0.0006779446266591
1783206041424195300,6.8271953125,0.0498081879324279,0.0218620228565763,0.0016091887623071,0.0003954144194722,-0.0005783727392554,0.0029956940561532
1783206041434134300,6.83713427734375,0.0701625005066394,0.0244011311464477,0.0008621697872877,-0.0025907633826136,-0.0017480971291661,0.001135722734034
1783206041444072200,6.847072265625,0.0485448717320337,0.0188817649367731,-0.0006312836408615,0.001727819442749,-0.0018234644085168,-0.0002334080636501
1783206041454010400,6.85701025390625,0.0123662272966001,-0.0033226872824598,-0.0130476976215839,0.0003734081983566,-0.0024878527037799,0.0015974198468029
1783206041463948300,6.8669482421875,-0.0126594928884413,-0.0041773450501495,-0.0090063132762908,-0.0020452747121453,-0.0010058037005364,-0.0024593733251094
1783206041473886200,6.87688623046875,-0.0040042672052979,-0.0096089553445577,0.0070019877165555,-0.0009299172088503,0.0019347025081515,-0.0007096393965184
1783206041483825200,6.8868251953125,-0.0049944564195815,0.0185537842245772,-0.0055728316962718,-0.0014124820008873,0.0030455070082098,0.0040694028139114
1783206041493763300,6.896763427734375,0.0175279026424046,0.0018200550340116,0.006848258459568,0.0027330787852406,-0.000721862539649,0.0029842630028724
1783206041503701200,6.906701171875,0.0254476353915408,0.0059383907727664,-0.0054226095706224,0.0022885967046022,0.0040015196427702,0.0020111440680921
1783206041513639200,6.91663916015625,0.0149267802332993,0.0099694409537129,0.0037006080836057,0.0001394171267747,0.0058488743379712,0.0019289220217615
1783206041523577000,6.9265771484375,0.0203002990983426,0.0134777961345389,0.0225467628508806,0.0012161331251263,0.0055673783645033,0.0022173423785716
1783206041533516300,6.936516357421875,-0.0075664075331296,-0.0021967976582236,0.0152098440915346,0.0036762747913599,0.0007833209820091,0.0018679606728255
1783206041543454200,6.9464541015625,-0.0146185271348804,0.0187488227394875,-0.0130740011066198,0.0061306441202759,0.0043333149515092,-0.0001320734154433
1783206041553392000,6.95639208984375,-0.0218861069850623,0.0179698925225529,-0.0072393036037683,0.0019162567332386,0.0020406050607562,0.0022087846882641
1783206041563330000,6.966330078125,-0.012490794391185,0.0108735547531628,-0.0017032967865467,0.0024355724453926,0.001857379451394,0.0018050498329102
1783206041573268200,6.976268310546875,-0.0114103056780993,0.0085136526548303,0.0065261868983507,0.0002892231568694,-0.0006487583741545,0.0009309379383921
1783206041583206100,6.9862060546875,-0.012621626829775,0.0073838403407251,-0.0002092588365077,0.0007139975205063,0.0023185356985777,-0.0002648213412612
1783206041593145300,6.996145263671875,-0.0146265917103271,0.0169664191350108,-0.0052986909300088,0.0021956535056233,0.0008115670643746,-0.0023272964172065
1783206041603083300,7.006083251953125,-0.0080822115681599,0.0288549687501508,-0.0055979661375284,-0.0007849568501114,0.002676845062524,0.0027984897606074
1783206041613021400,7.016021484375,0.0017464326753746,0.0332349876323947,0.0119090489804744,0.0009705135598778,0.0021714479662477,0.002175863366574
1783206041622959400,7.02595947265625,0.0097534783817827,0.0335158367006573,0.0036789807736873,0.0002591833472251,-0.0001540244556963,0.0007590618915855
1783206041632897300,7.035897216796875,0.0151811568531673,0.0282956863329978,0.009214987590909,0.0016817422583699,0.0042023975402116,0.0010873894207179
1783206041642836200,7.045836181640625,0.0213014115654397,0.0137414337730966,0.0057704000949859,0.0011501749977469,0.0036412696354091,-0.0007046514656394
1783206041652774400,7.0557744140625,0.0501162492346018,0.027995105084381,0.0057668929636478,0.0014341091737151,0.0046243397518992,-0.0002898746170103
1783206041662712300,7.06571240234375,0.0608200780106242,0.0541616476013092,0.0066594578891992,0.0018200008198618,0.0016929982230067,-0.0022992296144366
1783206041672650200,7.075650146484375,0.0614557090330403,0.0444017257790081,-0.0015752864927053,0.0027035968378186,0.0055816485546529,0.0001393042039126
1783206041682588400,7.08558837890625,0.0574829968766309,0.0610822497778804,0.0015600889235734,0.0043816547840833,0.0044751055538654,-0.0010098495986312
1783206041692526300,7.0955263671875,0.0406674894204363,-0.0126545929510379,0.0063397244155406,0.0021959980949759,0.0099449716508388,-0.0040969857946038
1783206041702465300,7.10546533203125,0.0442401785417459,-1.97413135087e-05,0.0190443076878786,0.001838868483901,0.0150382677093148,-0.0004457922186702
1783206041712403200,7.1154033203125,0.0448107084386982,0.0114242565716383,0.0088444007128477,-0.0009208936244249,0.02053077891469,0.0001991658937186
1783206041722341400,7.12534130859375,0.0746748542313929,0.0726124737749109,0.0237783504724502,0.0023065907880663,0.0249100811779499,0.0028652567416429
1783206041732279300,7.135279296875,0.091265613021003,0.082990847155964,0.0203062904477119,0.0085163973271846,0.0246103163808584,0.0006189425475895
1783206041742217200,7.14521728515625,0.089126902225567,0.0443942091928329,0.0050227965980768,0.0169013608247041,0.0166709013283252,0.0054688253439962
1783206041752156200,7.15515625,0.0439836647637188,-0.0249827989253448,-0.0338952553391456,0.0168891474604606,0.0137820001691579,0.0027852803468704
1783206041762094300,7.16509423828125,-0.0021555888650007,-0.0306916187259368,-0.020886136162281,0.0147082852199673,0.0109031228348612,-0.0006885470356792
1783206041772032300,7.1750322265625,-0.0602991502759046,-0.0761579141296912,-0.0045849897027015,0.0067922682501375,0.0066094361245632,0.0023042098619043
1783206041781970200,7.18497021484375,-0.0458283153828699,-0.0265187534880824,-0.0024929858595132,0.0025003179907798,0.0024186859373003,0.0026709269732236
1783206041791908400,7.194908447265625,-0.0870978440833743,-0.0639049881815677,-0.031520342901349,0.0038226153701543,-0.001677606254816,0.0023325234651565
1783206041801846300,7.20484619140625,-0.0894163684251252,-0.0337343565558549,-0.0205874454766511,0.0025365753099322,-0.0075528053566813,0.0005386183038353
1783206041811785200,7.21478515625,-0.05143328664992,-0.0374606836026068,-0.0151946465224027,-0.0007397225126624,-0.0061445385217666,0.0002555840183049
1783206041821723400,7.224723388671875,0.0068427694336976,0.0055820379160344,0.0020201076507568,-0.0029288409277796,-0.0083126174286007,0.0006774286739528
1783206041831661600,7.23466162109375,0.0395319095192477,0.0002447274421108,0.0186398185402154,-0.0044629368931055,-0.0105699757114052,0.0015926761552691
1783206041841599500,7.244599609375,0.0410135355122853,0.0002844475311459,-0.003345803296566,-0.0003206552937626,-0.0116200605407357,-0.0023796949535608
1783206041851537400,7.254537353515625,-0.0016741802899166,-0.027171139282477,-0.0106616792678833,0.0019593937322497,-0.0135917132720351,-0.0016467499081045
1783206041861475600,7.2644755859375,-0.0393481504501774,-0.0446145054465858,0.0073135378837585,-0.0037400377914309,-0.0124300410971045,-0.0007292910013347
1783206041871413500,7.27441357421875,-0.1020609103396069,-0.0430406756920274,-0.0052466684818267,-0.0071591949090361,-0.007186621427536,-0.0030899387784302
1783206041881352700,7.284352783203125,-0.1397890127067454,-0.0105636394206201,0.0125642980188131,-0.0071591949090361,-0.0048821875825524,-0.0003247784916311
1783206041891290600,7.29429052734375,-0.1310958478996995,-0.0385821710463613,0.0133183312565088,-0.0060499850660562,-0.0056230332702398,-0.0015402643475681
1783206041901228500,7.304228515625,-0.1313232543142512,0.0142097636708989,-0.0088245269685983,-0.0021841414272785,-0.0039593568071722,6.2333419919e-06
1783206041911166700,7.314166748046875,-0.1044093274961225,0.0075850163354771,-0.0170499190002679,-0.0022175265476107,-0.0052749733440577,-0.0010284248273819
1783206041921104600,7.324104736328125,-0.0507081872457638,0.0049247156516183,-0.0035784430086612,0.0014794738963246,-0.0016786414198577,-0.0003011154476553
1783206041931042600,7.33404248046875,-0.0293331259222235,-0.0082103953919373,0.0122837275117635,0.0013171918690204,0.0010063424706459,0.0033764233812689
1783206041940981500,7.3439814453125,0.0193876138333696,0.0417176149612991,-0.0002829085946083,-0.0047119380906224,-0.0038861501961946,0.0038110511377453
1783206041950919700,7.353919677734375,0.0646606516873464,0.0048863335697213,-0.0179407303601503,-0.0033149598166346,0.0024850864429026,0.0014527598395943
1783206041960857600,7.363857666015625,0.0762726356836967,0.0750241562928305,0.0182692316621541,-0.0009138537570834,4.93596307933e-05,0.0016080220229923
1783206041970795500,7.37379541015625,0.0616112009888514,0.0195478413298027,-0.0136012398511171,0.0024785576388239,-0.0007642679847776,0.0023779007606208
1783206041980733700,7.383733642578125,0.0640318887971341,0.0044090988462558,-0.005518471160531,0.0005373796448111,-0.0021488456986844,0.0015648379921913
1783206041990671600,7.393671630859375,0.0830153605427127,-0.0144095788256265,0.0015156652599573,-0.0044387290254235,0.0010339934378862,0.0011773104779422
1783206042000609500,7.403609619140625,0.109601489311736,0.0105242070259526,0.006299976927042,-0.0084675597026944,3.74382361769e-05,0.0031278096139431
1783206042010548500,7.413548583984375,0.1180405788930133,0.0578841158902738,9.9368721246e-06,-0.0063483929261565,0.0005727014504373,5.69580588489e-05
1783206042020486700,7.423486572265625,0.1306518304592464,0.066656360115786,-0.0001367781221866,0.0008083200082182,-0.0049693365581333,-0.0020514666102826
1783206042030424600,7.433424560546875,0.1194903941088356,0.0584065368957584,-0.0188368024170398,0.0029739448800683,-0.0056318528950214,-0.0015677353367209
1783206042040362500,7.443362548828125,0.0948429965837392,0.0435042791823623,-0.0101519761800765,0.0028383899480104,-0.0017060870304703,0.000417651142925
1783206042050300700,7.45330078125,0.0644611013941001,0.0051910841033793,0.0116956984907388,-0.0038128085434436,-0.0015663485974073,-0.0009375468362122
1783206042060238600,7.463238525390625,0.0418938528776168,-0.0093891751140356,0.0118441670507192,-0.0034104045480489,-0.0005082744173705,-0.0010810911189764
1783206042070176500,7.473176513671875,0.0327917510766536,-9.05734934378e-05,0.0093020813524723,-0.0027291914448142,-0.0055167097598314,-0.0030225773807615
1783206042080115500,7.483115478515625,0.0196109103283844,0.003911679851287,-0.0004208557605743,0.0003355732187628,-0.007209681905806,0.0013585886918008
1783206042090053600,7.4930537109375,0.0012181892838794,0.0203581576322671,-0.0180734168291091,0.0036163171753287,-0.0020518852397799,-0.0014466175343841
1783206042099991600,7.502991455078125,-0.006019105025893,0.0044491385956993,-0.0083428809314966,0.0003920281305909,-0.0057049440219998,0.0015020342543721
1783206042109929500,7.512929443359375,-0.0033737872820347,0.0141244874070864,0.0060252516388893,-0.0019949106499552,-0.0009135114960372,-0.0002695831935852
1783206042119867600,7.52286767578125,0.0187154501928482,0.0124585223896661,0.0039314942300319,-0.0015163403004407,7.61188566684e-05,0.0004481389187276
1783206042129805600,7.5328056640625,0.0235658037003129,0.0126029586619231,0.0118628717511892,-9.7993761301e-05,-0.001336826942861,-0.001591759850271
1783206042139743500,7.542743408203125,0.0271503659225068,0.0142250799710396,0.0060299278140068,0.0011369138956069,-0.0018473546952009,0.0014865878038108
1783206042149681700,7.552681640625,0.0318359755886253,0.0128936350044561,0.0034884266376495,0.0045583462342619,-0.001148089300841,0.0017124023288488
1783206042159620600,7.56262060546875,0.0226905278362799,0.0063521044065011,0.0004991816937923,0.003513322211802,-0.0013643377460539,0.000957928597927
1783206042169558500,7.57255859375,0.0194348413754254,0.019986360611231,0.0036427404165267,0.0015819631516933,7.12787732481e-05,-0.0023168162442743
1783206042179496400,7.582496337890625,0.0184595940019469,0.0245758301262278,0.0079810618817806,-0.0012055672705173,0.0010838126763701,0.0037242979742586
1783206042189434600,7.5924345703125,0.0278955947992391,0.0527297379349358,0.0069330141335725,9.87974926829e-05,0.0016019255854189,0.0037398277781903
1783206042199372500,7.60237255859375,0.0231723565364722,0.0430477904194034,-0.0069809449285268,0.0028668865561485,-0.0022567282430827,0.0033107926137745
1783206042209310500,7.612310546875,-0.0072107533627189,0.0195217342075891,-0.0009925181686878,0.0004655588418245,-0.003453942015767,0.000998739618808
1783206042219248600,7.62224853515625,-0.0248751783989835,0.0054119009469402,-0.011016484054923,0.0013238955289125,0.0005597081035375,0.0003755600191652
1783206042229186600,7.6321865234375,-0.0207107156632933,-0.0079440041072899,0.0153197342067956,0.0013235071673989,-5.61280176043e-05,-0.000594959128648
1783206042239125500,7.64212548828125,-0.0268214444953948,0.0251558493707329,0.0100806645095348,0.0008702371269464,0.0005249739624559,0.0009382227435708
1783206042249063400,7.6520634765625,-0.0389689875400159,0.0281697218657704,-0.0143073422938585,0.0016769701614975,-0.0027555851265788,-0.0011913422495126
1783206042259001600,7.662001708984375,-0.0489970176800154,0.0130529035196639,-0.0165483992189168,0.0029920386150479,-0.0017694160342216,0.002701933030039
1783206042268939500,7.671939453125,-0.0561528351182583,0.0021494650848908,-0.0014350012391805,0.0014370456337928,-0.0006140391342341,-0.0006876965053379
1783206042278877400,7.68187744140625,-0.0398273488018661,-0.0105396420571021,0.0054465749680995,-5.289912223815918e-07,0.0019556446932256,-0.0015052868984639
1783206042288815600,7.691815673828125,-0.0036613355191424,-0.0045519413830479,0.0091851769745349,0.0027634110301733,0.0001404955983161,-0.0028490363620221
1783206042298753500,7.70175341796875,0.0116843277133535,0.0077035190154565,-0.0005412672698497,0.0021013496443629,-0.0006480664014816,0.000311070587486
1783206042308691500,7.71169140625,0.0280155496507883,0.0075975972558371,-0.0101169048666954,0.0022106766700744,-0.0016577774658799,-0.0002198400907218
1783206042318629400,7.72162939453125,0.0262095596747472,0.0072974498320603,-0.0060737669557332,7.50878825783e-05,0.0006839395500719,1.66485551744e-05
1783206042328568600,7.731568603515625,0.0262147655728273,0.0034240698642795,-0.0143009125530719,0.0005732104182243,-0.0023189801722764,0.0016071698628365
1783206042338506500,7.741506591796875,0.0144789542674086,-0.0110338096490595,-0.0033750293910503,-0.0017530601471662,-0.0010654302313923,0.0019539133645594
1783206042348444400,7.7514443359375,-0.0052622313771396,-0.0068240601666504,0.0105447748899459,-0.0013612760230898,-0.0023114308714866,-0.0017711941618472
1783206042358382300,7.76138232421875,0.0099617234381381,0.0017677266251528,0.0021639000356197,-0.0018699401989579,0.0028199476655572,0.0011793221347033
1783206042368320500,7.771320556640625,0.0204001062110066,0.0301471639851573,0.0056049804002046,0.0015074843540787,-0.001928674057126,0.0005323411896824
1783206042378258400,7.781258544921875,0.0292527998281642,0.017359163045953,-0.0035223289072513,0.0016409093514084,0.0006362162530422,0.0002061040140688
1783206042388196400,7.7911962890625,0.0346335612847469,0.0012212260577594,0.0006681085199117,0.0005493639037013,-0.0001457268372178,-0.0001017178874462
1783206042398134500,7.801134521484375,0.0310204670878127,-0.0010901287576882,-0.0054664487123489,0.0001735920086503,0.0015315320342779,0.0031308270990848
1783206042408072400,7.811072509765625,0.0341937176959123,0.0081689263038104,0.000218026664853,-0.002044279128313,0.0008005481213331,-0.0011531529016792
1783206042418010400,7.82101025390625,0.0258021205181721,-0.0016837107366649,0.0093441669285297,-0.0016826223582029,0.0008905627764761,-0.0001422169152647
1783206042427949600,7.830949462890625,0.0159759696258232,0.0097493410627823,0.0024590835899114,-0.0009120581671595,0.0022903813514858,-0.0001179007813334
1783206042437887700,7.8408876953125,0.0091052527392748,0.0068297546884976,-0.0039776714593172,-0.0021762605756521,0.0021641473285853,0.0010435036383569
1783206042447825700,7.85082568359375,0.0047646662516985,0.012931651760172,-0.0093663787603378,-0.0019728010520339,-0.0008233776316046,0.0007456825114786
1783206042457763600,7.860763671875,0.0234055716373026,0.0285275816929992,-0.0056254386663436,-0.0015504239127039,-0.0011911601759493,-0.0003829651977866
1783206042467701800,7.87070166015625,0.0333331005448941,0.0315797449383884,0.0006599252134561,0.0011478634551167,-0.0003121509216725,0.0021989271044731
1783206042477639700,7.8806396484375,0.0197793165646959,0.0100150336611084,-0.0078688336789608,0.0011561196297407,-0.0015188292600214,0.0013243448920547
