time,seconds_elapsed,ax,ay,az,gx,gy,gz
1783197539550077200,0.0920771484375,0.0039749680455774,-0.0226053063713945,-0.0274736978590488,-0.0013296101242303,-0.0035374546423554,0.0013701077550649
1783197539560014300,0.102014404296875,-0.0218664159039035,-0.0189645569825544,-0.0232850139975547,0.0088835461065173,0.0093740569427609,0.0020524251740425
1783197539569951200,0.111951171875,-0.0160757036732509,-0.0283227889690548,-0.0855523773401975,-0.004580863751471,-0.0009105382487177,-0.0008879706729203
1783197539579889400,0.121889404296875,0.0257297402685508,-0.0519601052693091,-0.0518622891843318,-0.0071879103779792,-0.0054664299823343,9.02239698916e-05
1783197539589826300,0.131826416015625,0.004913710200414,-0.033686398361437,-0.0755178900599479,0.0021150447428226,0.0083852037787437,0.0015238036867231
1783197539599764200,0.14176416015625,-0.0091092256614938,-0.032330271044746,-0.0397691158086061,0.0033085718750953,-0.002924985717982,0.0009207969997078
1783197539609701400,0.151701416015625,0.0063422086335718,-0.0307424721303395,-0.0633984131991863,-0.0053038233891129,-0.0023097950033843,-0.0001724306493997
1783197539619639300,0.161639404296875,-0.0227464501414448,-0.0235456559614278,-0.0575777442216873,0.0035116048529744,0.0051352516748011,0.0006514657288789
1783197539629576200,0.171576171875,-0.004722388879396,-0.0178357538820244,-0.0616220511764287,-0.0019215103238821,-0.0021247919648885,0.0004069874994456
1783197539639513300,0.181513427734375,0.0074525079630315,-0.0350400414600968,-0.0455991371363401,0.0007012523710727,0.0004682750441133,0.0014150172937661
1783197539649451300,0.191451171875,-0.0047460620159283,-0.0270674916783347,-0.0634054274618625,0.0008392045274376,0.0026672470849007,-0.0013165869750082
1783197539659388400,0.201388427734375,-0.0039260143373161,-0.0228112042070366,-0.0512912112981081,-0.0024947989732027,-0.0017308462411165,-0.0009178332984447
1783197539669326300,0.211326416015625,0.0085511168546974,-0.015460549183283,-0.0532329930156469,-0.0019523128867149,-0.0004538600333034,0.0008875234052538
1783197539679263200,0.22126318359375,-0.0038121056340634,-0.0165888042945414,-0.0635614948064088,-0.0004380429163575,0.0030597227159887,0.0005037228111177
1783197539689200400,0.231200439453125,6.71469520777e-05,-0.009827036808338,-0.0541349102914333,0.0008320184424519,0.0006277239881455,0.0026137453969568
1783197539699138300,0.24113818359375,0.00083802172672,-0.0142536210789345,-0.051729602715373,-0.0013069389387965,-0.0007700091227889,0.0003993152640759
1783197539709075200,0.2510751953125,0.0001779138501733,-0.0056804385229013,-0.0571188945382833,-0.0023801932111382,-0.0006879838183522,0.0037607573904097
1783197539719013000,0.26101318359375,-0.0026056159211322,-0.0183421142352744,-0.0589221445679664,-0.0014137448742985,-0.0018000663258135,-0.0016622028779238
1783197539728950300,0.2709501953125,0.0047558162249624,-0.0180285730403848,-0.0526350271224975,-0.0004139943048357,-3.1461007893e-05,-0.0012531413231045
1783197539738888200,0.28088818359375,-0.0046370852161198,-0.0193706535654142,-0.0544248331487178,0.0017396239563822,-0.0005746930837631,0.0005111799109727
1783197539748825300,0.290825439453125,-0.001792838233523,-0.0263989630333147,-0.0547241083562374,-0.0002646706998348,0.0023230924271047,-0.0008283902425318
1783197539758762200,0.30076220703125,0.0049121392978355,-0.0251391904968768,-0.0610170710206031,0.000602982006967,0.0021964004263281,0.0016464458312839
1783197539768700400,0.310700439453125,0.0009206950414925,-0.013134718317911,-0.0625268910616636,-0.001989072188735,0.0017151669599115,0.0014829279389232
1783197539778637300,0.32063720703125,0.0026185119353234,-0.0122549946076236,-0.054909401795268,-0.0007920693606138,0.000660587567836,0.0012491531670093
1783197539788575500,0.330575439453125,-0.000436016797088,-0.0177078897186554,-0.0543114359021186,-0.0011657103896141,-0.0026465258561074,-0.0004137244541198
1783197539798512000,0.34051220703125,0.0062621656673029,-0.0095131485535763,-0.0469698409676551,-0.0008950373157858,-0.0003726338036358,-0.0018699134234338
1783197539808450300,0.3504501953125,0.0007555676076561,-0.0217170888273976,-0.0538502481311559,0.000753991305828,-0.0004895464517176,0.001283535733819
1783197539818387200,0.36038720703125,0.0060978784836828,-0.018730821291916,-0.0541436781197786,-0.0020623095333576,-0.0009269551374018,0.0015151521656662
1783197539828324400,0.370324462890625,0.000747932290472,-0.0183602892127819,-0.0538572623938322,0.0007483903318643,0.0019103768281638,0.0004062119405716
1783197539838262300,0.38026220703125,-0.0058448901033028,-0.0190179859365336,-0.0634235476404428,-0.0011494597420096,-0.0026001660153269,-0.0004944927059113
1783197539848199400,0.390199462890625,-0.0179181532021611,-0.0174022213029675,-0.0554787261158227,0.0024519329890608,-0.0023455675691366,0.0008453438058495
1783197539858137300,0.400137451171875,-0.025323643685691,-0.0241595866086892,-0.0647533349394798,0.0026000048965215,0.0015144180506467,0.0005108504556119
1783197539868074200,0.41007421875,-0.0159432364000007,-0.0031386268192902,-0.0550491025269031,-0.0020589297637343,0.0140435248613357,-0.003568579442799
1783197539878012200,0.42001220703125,0.0147908880271017,-0.0348285906665027,-0.0526747746109962,-0.0076088663190603,-0.0016014906577765,-0.0013718630652874
1783197539887949300,0.42994921875,0.0088393592115491,-0.020227306927368,-0.0864841052323579,0.0079389344900846,0.0036729001440107,-0.0019234035862609
1783197539897886200,0.43988623046875,-0.002029898392409,-0.0272714532852172,-0.0136140993326902,0.006136056035757,0.0042180698364973,0.0008052550256252
1783197539907824400,0.449824462890625,0.0048735243204981,-0.0292863002389669,-0.0453331796765327,-0.0082575315609574,-0.0067789210006594,-0.0011692126281559
1783197539917761300,0.45976123046875,0.0221168470010161,-0.0333860637079924,-0.1163753856271505,-0.002853081561625,-0.0066280043683946,-9.41804610192e-05
1783197539927699200,0.46969921875,-0.0167557583592832,-0.0182689759338274,-0.0259936884343624,0.012271543033421,0.0062483791261911,0.0003431106451898
1783197539937636400,0.47963623046875,-0.0149630297236144,-0.0189054472064599,-0.0207587103903293,-0.0067079225555062,-6.94915652275e-05,-0.0019141610246151
1783197539947574300,0.48957421875,-0.0104681294571608,-0.0182434396337717,-0.0925847601950168,-0.0048634177073836,-0.0047670416533946,-9.49557870626e-05
1783197539957511200,0.49951123046875,-0.0112814186014235,-0.0093024466786533,-0.0836070884913206,0.0046304007992148,0.0052948943339288,-0.0024310648441314
1783197539967448300,0.5094482421875,-0.0093711645333096,-0.011945636397507,0.0075075991511344,0.0025390209630131,0.000901211053133,0.0029298781882971
1783197539977386200,0.51938623046875,0.00723502928745,-0.0212106371426023,-0.0762765994727611,-0.0055163353681564,-0.0037954566068947,-0.000610175775364
1783197539987323400,0.529323486328125,-0.0038624475818127,-0.0347879298625513,-0.0963397288143634,-0.0004304954782128,0.0045354440808296,-8.444767445325851e-07
1783197539997261300,0.53926123046875,-0.0020313596971333,-0.005490761169698,-0.0249631763428449,0.0042191045358777,0.0028798116836696,0.0020375740714371
1783197540007198200,0.5491982421875,-0.0007862550068646,-0.005970744972676,-0.0336444954484701,-0.0015522316098213,-0.001494696829468,-0.0026852758601307
1783197540017136400,0.559136474609375,0.0068657575836405,-0.0007006956152617,-0.0891571238338947,-0.0043840445578098,0.000572448130697,0.0020652129314839
1783197540027073300,0.5690732421875,0.0092480861429125,-0.0059229420418851,-0.0436760601192712,0.0029660137370228,0.0034561189822852,-0.0019055603770539
1783197540037010200,0.57901025390625,-0.0063277782494202,-0.013443181478884,-0.0275216286540031,-0.0010654842481017,0.0023234281688928,0.0003751353360712
1783197540046948000,0.588947998046875,0.0063102791253477,-0.0208547729096375,-0.0790074857413768,-0.0009935786947607,5.17517328262e-05,-0.0010155674535781
1783197540056885200,0.59888525390625,-0.0074565996162593,-0.0261766985847614,-0.0632937837809324,0.0018354961648583,0.0023786565288901,0.0003546990919858
1783197540066823200,0.6088232421875,-0.0086475994991138,-0.0161466317513026,-0.0378559756636619,0.0039804056286811,0.0012510740198194,-0.0013039177283644
1783197540076760300,0.61876025390625,-0.0033606720721349,-0.0152836034474894,-0.0664344198942184,-0.004341522231698,-0.002458123024553,0.0003938244190067
1783197540086698200,0.6286982421875,-0.0006552490383386,-0.0141925568077713,-0.0721183107495307,4.55025583505e-05,-0.0025036628358066,-0.0008900854736566
1783197540096635400,0.638635498046875,0.0022736805530264,-0.0099272275134921,-0.0432312389612197,0.0013600317761301,-0.0019000419415533,-0.0026478504296392
1783197540106572300,0.648572265625,0.0070656275372952,-0.028545729271043,-0.0668669660925865,-0.0002908622846007,-0.0022563724778592,-0.0001343588810414
1783197540116510500,0.658510498046875,-0.0022131460048258,-0.0286009848559275,-0.0712000268608331,-0.0003312546759843,0.0001162053085863,0.0009124788921326
1783197540126447000,0.668447021484375,-0.0214636803219094,-0.0282672593895345,-0.0489122072070837,-4.218891263e-06,0.0020057181827723,-0.0011376226320862
1783197540136385300,0.67838525390625,-0.0270217163078486,-0.0383782277057878,-0.0462269136458635,0.0004983283579349,-0.0003786631859838,-0.0019584437832236
1783197540146322200,0.688322265625,-0.0118422308219596,-0.0315460801308043,-0.0613373890161514,-0.0018915925174951,0.0003180196508765,-0.0011810672003775
1783197540156260400,0.69826025390625,-0.0028513708431273,-0.0288833089286461,-0.0555102902978658,0.0005671139806509,0.0003584255464375,0.0010635426733642
1783197540166197200,0.708197265625,0.0063455696344375,-0.0192934601433575,-0.0517652585506439,-0.0010566152632236,0.0007541715167462,-0.0011953506618738
1783197540176134400,0.718134521484375,0.016548106957972,-0.0135051042665727,-0.0586398204952478,-0.000224363990128,-0.0026675108820199,0.0002033067867159
1783197540186072300,0.728072265625,0.0235423862921074,-0.0181191556669771,-0.0659691404700279,-0.001761008054018,0.0027139382436871,0.0006605712696909
1783197540196009500,0.738009521484375,0.0118769002765417,-0.0123701454198919,-0.0650689767599105,0.0001055980101227,-0.0001538768410682,0.000350849237293
1783197540205947400,0.747947509765625,0.0030696897689253,-0.0189605383945629,-0.055183542561531,-0.0021769972518086,-0.0016255392692983,-0.0009066953789442
1783197540215884300,0.75788427734375,-0.0165050350012257,-0.0160541311622597,-0.0590700286060571,-0.0017011845484375,-9.84454527497e-05,-0.0001362741459161
1783197540225822200,0.767822265625,-0.0262884335972368,-0.0066968672901391,-0.0592249269068241,-0.001344321295619,0.000483188778162,0.0026336798910051
1783197540235759400,0.77775927734375,-0.0123039300495758,-0.0230218512830324,-0.0649158320248127,-0.0030683605000376,0.0002920380793511,0.001079028006643
1783197540245696300,0.7876962890625,-0.0031937545400112,-0.0195142998198047,-0.0680617288351058,0.0016118781641125,0.0019847434014081,-0.0003446978516876
1783197540255634400,0.797634521484375,-0.0033094898741692,-0.0231590312640182,-0.049959670433402,-0.0002287151291966,0.0021708044223487,0.0002380567602813
1783197540265571300,0.8075712890625,0.0058040101036429,-0.0270390327688306,-0.051153264132142,0.0028618834912776,-0.0026204884052276,-0.0002048269379884
1783197540275509200,0.81750927734375,-0.0067006666824221,-0.023496154263895,-0.0512882886886596,0.0009898599237203,-3.67541797459e-05,-0.0001348874066025
1783197540285446400,0.8274462890625,-0.0188115218453109,-0.0226771660312078,-0.0580161356389522,0.0019467333331704,0.0019539585337042,-0.0008731156121939
1783197540295384300,0.83738427734375,-0.0114118400480598,-0.0329050569917075,-0.0583089811056852,0.0009953631088137,0.000304598826915,0.0018980677705258
1783197540305321200,0.8473212890625,0.0034131694443523,-0.0269376730198971,-0.0684843381613492,-0.0020939037203788,-0.0008693225681781,0.001455450663343
1783197540315258400,0.85725830078125,0.0006461889490485,-0.0290909968625754,-0.0615980857789516,-0.0024250233545899,-0.0003460762090981,0.0003190848510712
1783197540325196300,0.8671962890625,-0.0076375091411173,-0.0094342563647776,-0.0681874010413885,-0.0007139416411519,0.0009772484190762,0.0007238851394504
1783197540335133400,0.877133544921875,-0.024605558544211,0.0034675665127113,-0.0646025282919406,-9.33380797505e-05,0.0014708205126225,0.0013195963110774
1783197540345071400,0.8870712890625,-0.0288149564001709,0.0254288941584527,-0.0539846881657838,0.0006496841087937,0.0029099925886839,0.0019640813115984
1783197540355008300,0.89700830078125,-0.0106122871682047,0.0290767491415143,-0.0469657493144273,-0.0009721852838993,0.0006757951341569,0.0031684015411883
1783197540364946400,0.906946533203125,0.0141968676567077,0.0309477489114738,-0.0547550880163908,0.0013205306604504,0.0016044392250478,0.0029284504707902
1783197540374883300,0.91688330078125,0.0207440242778509,0.0112935474306344,-0.0525099394381046,-0.0012439172714948,0.0003615743480622,0.0024701717775315
1783197540384821500,0.926821533203125,-0.0035632089069113,-0.0079277059930376,-0.0547562570601701,0.0005465261638164,0.0009634485468268,0.0016541790682822
1783197540394758100,0.936758056640625,-0.0023284794801846,-0.022269662942551,-0.0682289020955562,-0.0018236860632896,0.0016014450229704,0.004304670728743
1783197540404695300,0.9466953125,-0.010924969846569,-0.0434044401036575,-0.0621107114762067,-0.0032711131498217,0.0037950910627841,0.0032149050384759
1783197540414633200,0.95663330078125,-0.0057904199697077,-0.040154827190563,-0.0591372486233711,-0.0018772250041365,0.0042234500870108,0.0034799678251147
1783197540424570400,0.9665703125,-0.0119686336806043,-0.023194321773108,-0.0495855764240026,-0.0024956110864877,0.005282056517899,0.0038032755255699
1783197540434508300,0.97650830078125,-0.0185068398103117,-0.0412549156532622,-0.0497650246441364,-0.002266920171678,0.0052308812737464,0.0040813176892697
1783197540444445400,0.986445556640625,-0.0250187059223651,-0.0180952998673543,-0.0656523296058178,-0.0023002102971076,0.0028449555393308,0.0021281554363667
1783197540454383400,0.99638330078125,-0.0324224428402259,-0.0031768764704465,-0.0583458059847354,-0.0013897810131311,0.0028011214453727,0.0029181425925344
1783197540464320300,1.0063203125,-0.0200329899316653,-0.0055366278717294,-0.0546346765071153,0.0005511306226253,0.0061223497614264,0.0050619877874851
1783197540474257200,1.016257080078125,0.0029660832639783,-0.0224760357022285,-0.0652794046401977,-0.0036562941968441,0.0037051341496407,0.0031743193976581
1783197540484195300,1.0261953125,0.0103249215941876,-0.0205852169869467,-0.0542266802281141,-0.0043244808912277,0.0009492952376604,0.0054254890419542
1783197540494132200,1.03613232421875,0.0052783787943422,-0.0318924093504436,-0.0508054736077785,-0.0025778040289878,0.0036944882012903,0.0061309011653065
1783197540504070400,1.0460703125,-0.0102237262420356,-0.0290230827255174,-0.0620452450245618,-0.0019570216536521,0.0030699768103659,0.0065548764541745
1783197540514007000,1.056007080078125,-0.0197516522396355,-0.0204725321264006,-0.0617629209518432,-0.0021122843027114,0.0024366772267967,0.007534653879702
1783197540523945200,1.0659453125,-0.0020048004837706,-0.0174983751538209,-0.0538484945654869,-0.0022220062091946,0.0029900821391493,0.0038776013534516
1783197540533882000,1.075882080078125,0.0133650199424475,-0.0113065895752981,-0.0372433967232704,-0.0015839077532291,-0.0012869061902165,0.0049980292096734
1783197540543820000,1.085820068359375,0.0071678458027541,0.005074179725442,-0.0460731843888759,-0.0022624814882874,0.0016409731470048,0.0043000141158699
1783197540553757200,1.095757080078125,0.0067051601944491,-0.0134629090926609,-0.0591126987040042,-0.002815531566739,0.0025958770420402,0.0048387590795755
1783197540563694300,1.1056943359375,0.010434227187559,-0.0061462659363634,-0.066159110084176,-0.0005161585286259,0.0016264864243566,0.0053764516487717
1783197540573632300,1.11563232421875,0.0172193938156589,-0.0323848873088136,-0.0516629672199487,-0.0051902728155255,0.00049500586465,0.0032908169087022
1783197540583569400,1.1255693359375,0.0185739502297714,-0.035206484068185,-0.0590104073733091,-0.0047519179061055,-0.0005414960905909,0.0049944408237934
1783197540593507300,1.13550732421875,0.015456768057309,-0.0393291900213807,-0.0551321046352386,-0.0070520034059882,-0.0006627743132412,0.0064839357510209
1783197540603444200,1.1454443359375,-0.0059477294232696,-0.0236791826806031,-0.0656207654237747,-0.0058208247646689,0.0020637698471546,0.0033491286449134
1783197540613382100,1.155382080078125,-0.0083484338894486,-0.03040887452811,-0.0599339519590139,-0.0014760605990886,-0.0023602806031703,0.0064723584800958
1783197540623319000,1.165319091796875,-0.0107023766044527,-0.0132594224098138,-0.0579956773728132,-0.0053147412836551,0.0001561408862471,0.0052813934162259
1783197540633257200,1.17525732421875,-0.0069049570828676,-0.0079614986647851,-0.0451420410186052,-0.0021178722381591,0.0003170426934957,0.00532803311944
1783197540643194000,1.185194091796875,-0.0037516806837171,-0.0242944467684254,-0.0530804328024387,-0.0044348230585455,-0.0011024223640561,0.0039719515480101
1783197540653131300,1.19513134765625,0.0037271307643502,-0.0278250320473685,-0.0444125577002763,-0.0008731158450245,0.0027328208088874,0.0001297346316277
1783197540663069200,1.205069091796875,0.0126656395014375,-0.067708641081117,-0.0590811345219612,-0.003768503665924,-0.0054300343617796,0.0061687184497714
1783197540673006000,1.215006103515625,-0.0229498637590557,0.0144176708005368,-0.044433600488305,-0.003212341107428,0.00662921089679,0.003357051173225
1783197540682944000,1.224944091796875,-0.0010288681237027,-0.0209386883334256,-0.0484749848335981,-0.0028133997693657,-0.0013165962882339,0.0029972579795867
1783197540692881200,1.234881103515625,-0.0186454080307856,0.0296493796640075,-0.0559749852001667,-0.0022122366353869,0.0059930463321506,0.0003104971256107
1783197540702819000,1.244819091796875,0.0038526203075423,0.0128298170872032,-0.0609112725585699,0.000274091027677,-0.0041762343607842,0.0032511595636606
1783197540712756200,1.254756103515625,0.0081382982701063,0.0155354593167081,-0.0642149902790784,-0.0010564289987087,0.0079877050593495,0.0011767880059778
1783197540722694100,1.264694091796875,0.0407701095446944,-0.0360139097272418,-0.0514969630032777,-0.004204018972814,-0.0039296741597354,0.0024180873297154
1783197540732631300,1.27463134765625,0.0259044757809489,-0.0311267587401904,-0.0794832865595817,-0.0019722888246178,-0.0018879259005188,0.0014440163504332
1783197540742568200,1.284568115234375,0.0102133875111117,-0.0528700414547696,-0.0535749383211135,-0.0023459298536181,-0.0016074953600764,0.00502809882164
1783197540752506400,1.29450634765625,-0.016018530125916,-0.0358648749116808,-0.0704874946773052,-0.0046996334567666,0.0011564311571419,0.0050580790266394
1783197540762443000,1.304443115234375,-0.0465655710157007,-0.0507360251007601,-0.0631488223522901,-0.0025845514610409,-0.0025914353318512,0.0022306009195744
1783197540772381200,1.314381103515625,-0.0496296712940558,-0.0077689717673696,-0.052386020797491,-0.0040272762998938,0.0008625476621091,0.0009010878857225
1783197540782318000,1.324318115234375,-0.0181268640493974,0.024553572628647,-0.0480669885545969,-0.002421922981739,0.002330215414986,-0.0009141226764768
1783197540792256000,1.334256103515625,0.0099111531615257,0.0270496454943902,-0.0310147314667701,0.0013057058677077,-2.4648848921e-05,0.002857027342543
1783197540802193200,1.344193115234375,0.0166150712469592,0.028553328055609,-0.0289256502330303,-4.79789450764e-05,0.0025724659208208,0.0005254296120256
1783197540812131000,1.354131103515625,0.0185086299085989,0.0118381391687318,-0.0551139844566583,-0.0002913959324359,-0.0016412595286965,-0.0007160969544202
1783197540822068200,1.364068115234375,0.011095504107885,-0.0070768613173626,-0.0485281763255596,-0.0029502967372536,-0.0013272725045681,0.0019577168859541
1783197540832005400,1.37400537109375,-0.0117027127534151,-0.0061830908154137,-0.0477700514346361,-0.0006816340610384,-0.0006664381362497,0.0006823407020419
1783197540841943300,1.383943359375,-0.0190405082955956,-0.0283508825523778,-0.0583826308637857,0.0022057648748159,-0.0016749771311879,0.0001683505252003
1783197540851880200,1.393880126953125,-0.0417891869267448,-0.0217860258777625,-0.0790337892264127,0.000366854481399,0.0024328513536602,-0.0010310236830264
1783197540861818000,1.403818115234375,-0.0151882533142343,-0.021249690511357,-0.045069560304284,-0.0002219704911112,0.0012256405316293,0.0003844462335109
1783197540871755000,1.413755126953125,0.0068789093261584,-0.0080589128909632,-0.0506231027781963,0.0018843160942196,0.0011942409910261,0.0007665359880775
1783197540881693200,1.423693115234375,0.0105256683306768,-0.0054662843155674,-0.0533206712990999,0.0004190448671579,-0.0020678648725152,-0.0018473566742613
1783197540891630000,1.433630126953125,0.0198369924355298,0.0168099362319335,-0.0543669654816389,0.0016524447128176,-0.0010542985983192,-0.0015997337177395
1783197540901568300,1.443568359375,0.0115789037106558,0.0003002615882083,-0.0528694204002618,0.0007403120398521,0.0010064556263387,0.0023835562169551
1783197540911505200,1.453505126953125,0.005176745050773,-0.0127756209482438,-0.0551139844566583,-0.0008536744862794,-0.0014661853201687,0.0013177709188312
1783197540921442300,1.4634423828125,-0.0022604922778904,-0.0272972453135997,-0.0569072976142168,-0.0010534115135669,0.0011937799863517,-0.0009216812904924
1783197540931380200,1.473380126953125,0.0030174846576526,-0.025634865059331,-0.0576484713703393,0.0012746173888444,0.001736519858241,0.0026730690151453
1783197540941317000,1.483317138671875,-0.005349361671321,-0.0461982538069598,-0.0561444965481758,0.0004450427368283,0.0007641995325684,0.0015255128964781
1783197540951255000,1.493255126953125,-0.0120529144305735,-0.0344540947983041,-0.0595914221316576,0.0002386653795838,0.0001831422559916,0.0021370102185755
1783197540961192200,1.503192138671875,-0.0108086865231394,-0.0267953602060675,-0.0730675742983818,-6.57346099615e-05,0.0017280420288443,0.0005958389956504
1783197540971130000,1.513130126953125,0.001483699219115,-0.0245304109487682,-0.0506155039936304,-0.0032797362655401,-0.0001989626325666,0.0015806523151695
1783197540981067300,1.5230673828125,-0.004682897119224,-0.0011298077475279,-0.0473240612328052,-7.2224996984e-05,0.0008607092313468,0.0006349636241793
1783197540991005200,1.533005126953125,-0.0010489610636606,-0.0190233014324679,-0.0597311228632926,-0.0007370766252279,-0.0032227933406829,-0.0005887041334062
1783197541000942300,1.5429423828125,-0.0141185417234897,-0.0162670615268871,-0.0582318242162466,-0.0003051124513149,-0.0007441891357302,-0.0020566387102007
1783197541010879200,1.552879150390625,-0.0248532131623476,-0.0126099272588267,-0.0517933156013488,0.0028189932927489,-0.0005204384215176,-0.0016705855960026
1783197541020817200,1.562817138671875,-0.0290598710719496,-0.017526834063325,-0.0528372716963291,0.0023934198543429,0.0019357949495315,0.0007643424905836
1783197541030754000,1.572754150390625,-0.0146168831670656,-0.0340341706194914,-0.0535866287589073,0.0011198064312338,0.0011563203297555,0.0003598590847104
1783197541040692000,1.58269189453125,-0.0092257281806319,-0.0300832593029364,-0.0601736059337854,-0.0001518530771136,0.0015920135192573,2.03060917556e-05
1783197541050629000,1.592629150390625,-0.0081849138908088,-0.036524124271702,-0.0474509024828672,-0.0006090365350246,0.0013370453380048,0.0002879418898373
1783197541060567000,1.602567138671875,-0.003099390787445,-0.0233753956947475,-0.0571779312491416,-0.0016125151887536,-0.0005956105887889,0.0014453516341745
1783197541070504200,1.612504150390625,0.0105542733706533,-0.0106392299740575,-0.0576332738012075,-0.0010544285178184,0.0013310806825757,-0.0015138234011828
1783197541080442000,1.622442138671875,0.0141540514282882,-0.002658898744639,-0.0547884057641029,-0.0002080760896205,0.0002809958532452,-0.0007055539172142
1783197541090379300,1.632379150390625,0.0146205364288762,-0.0093450802439823,-0.0555254878669977,0.0022621983662247,-0.0001491005532443,0.0016490721609443
1783197541100317200,1.642317138671875,0.0063886781238019,-0.0078185099975205,-0.0676373659431934,-0.0019522532820701,-0.0001871837303042,-0.0005640147719532
1783197541110254300,1.65225439453125,0.0009305953809991,-0.0131559620353393,-0.0626969869315624,-0.0012891264632344,-0.0032032136805355,-0.002645008964464
1783197541120191000,1.66219091796875,0.0076402856200933,-0.0217350811418145,-0.0445727166980505,0.0011918740347027,6.84796832501e-05,-0.0002753282897174
1783197541130129200,1.672129150390625,-0.0104189565531909,-0.0259453009816817,-0.0542974073767662,0.0017313454300165,-0.001225615851581,0.0003794410731643
1783197541140066000,1.682066162109375,0.001484028012678,-0.0116681528966873,-0.0527986932516097,-0.000507840886712,-0.0017561172135174,-0.0010272404178977
1783197541150004200,1.692004150390625,0.0157393478583544,5.20955134183e-05,-0.0477075075924396,-0.0003977390006184,-0.0001059398055076,-0.0016137233469635
1783197541159941000,1.701941162109375,0.0021755539407953,-0.0133878710950724,-0.050097617599368,0.0011018868535757,0.0005518607795238,-0.0017681866884231
1783197541169879300,1.71187939453125,0.0041040377853438,-0.0043526970504783,-0.0524912347376346,-0.0003304788842797,0.0001204437576234,0.002083218190819
1783197541179816200,1.721816162109375,0.0062270578213036,-0.0083544435051269,-0.0541349102914333,0.0002213278785347,0.0002892883494496,-0.0006148302927613
1783197541189754400,1.73175439453125,-0.0037255233291536,-0.0138210018153302,-0.0536801522612571,-0.000725601799786,0.0001984415575861,-0.0010369922965765
1783197541199691000,1.74169091796875,0.0020107553005218,-0.0265189909501001,-0.0527829111605882,-0.0032121958211064,-0.0020940075628459,0.0012115144636482
1783197541209629200,1.751629150390625,-0.006861775528267,-0.0129046724217012,-0.0577151068657636,-0.0008754413574934,-0.0009532403200864,0.0023301048204302
1783197541219566000,1.761566162109375,-0.0133593573866412,-0.0047216216944158,-0.0566600448548793,0.0003229808062314,-0.0010650930926203,-0.0009256093762814
1783197541229503200,1.771503173828125,-0.0172844218758866,-0.0031769860683009,-0.0491699813604354,0.002460048533976,0.0006539705209434,0.0016310405917465
1783197541239441200,1.781441162109375,-0.0112729065014049,0.0020229206623509,-0.0487251602023839,0.0001785177737474,0.0017645084299147,0.0017112018540501
1783197541249378300,1.79137841796875,-0.0098545641360804,0.0030035109312273,-0.0598047726213932,-0.0001049749553203,0.0005329456180334,0.0006684805266559
1783197541259316200,1.801316162109375,0.0083533292602747,0.0017068221841938,-0.0569715950220823,0.0003869105130434,0.0011183083988726,0.0006383867003023
1783197541269253400,1.81125341796875,-0.0001420022865757,0.0034071050297468,-0.0716413408875465,0.0002430714666843,0.0020226654596626,-0.0035056588239967
1783197541279191300,1.82119140625,6.7220017313e-06,-0.0185134887468069,-0.0441144515365362,-0.0017204768955707,0.0004977392964065,0.001426249044016
1783197541289128200,1.831128173828125,-0.0124077192176133,-0.0088138229114934,-0.0607329933822154,-0.0009186463430523,0.0012330231256783,0.0011297904420644
1783197541299066000,1.841066162109375,-0.0113392132032662,-0.0159037081072106,-0.0553337646871805,0.000130639411509,-0.0050712120719254,-0.0012635923922061
1783197541309003000,1.8510029296875,-0.0147619541935622,-0.0154072480934672,-0.0517319408029317,0.0029498916119337,-0.0011474369093775,-0.0002824061084538
1783197541318941200,1.860941162109375,-0.0051437560966238,-0.01328167077424,-0.0530757566273212,-0.0006951773539185,0.0008153128437697,0.000770341604948
1783197541328878000,1.870878173828125,-4.39122069627e-05,-0.0154116320076398,-0.0514297429859638,-0.0010615270584821,-0.0023741754703223,0.0007392289116978
1783197541338815200,1.880815185546875,-0.0201355735233053,-0.0054456433863379,-0.0617500614702701,0.0002503460273146,0.0009710206650197,-0.0017401739023625
1783197541348753200,1.890753173828125,-0.0206027161110192,-0.0133848754203878,-0.0563730446070432,0.0028977524489164,0.0023430059663951,-0.0011598137207329
1783197541358690300,1.900690185546875,-0.0161386493742465,-0.0098235296769998,-0.0571229861915111,-0.0020362855866551,-6.1686150729e-06,0.0015526160132139
1783197541368628200,1.910628173828125,-0.0114811789572238,-0.0011161993472836,-0.0572796380579471,0.0024692919105291,-1.64322555065e-05,-0.0013735138345509
1783197541378565000,1.920565185546875,-0.0033983737340196,-0.001092763672769,-0.0593652121603488,-0.0014133304357528,0.0003375019878149,-0.0020480924285948
1783197541388503000,1.9305029296875,-0.0102176983600482,-0.0022477789267897,-0.0509890134811401,0.0018805228173732,0.0001286184415221,0.0041166902519762
1783197541398440200,1.940440185546875,-0.0080936554107815,-0.0133385520606301,-0.0581669422864913,8.68840143084e-05,0.0021313154138624,-0.0008250714745372
1783197541408378000,1.950378173828125,-0.0186241095144301,-0.0194249593022279,-0.0698281539857387,0.0032773585990071,-0.0002147988416254,-0.0018166203517466
1783197541418315300,1.960315185546875,-0.0240864665735512,-0.027650533996988,-0.0524620086431503,0.0015385812148451,0.002201753668487,-0.0026959960814565
1783197541428253200,1.970253173828125,-0.0170136055778712,-0.0223468380982987,-0.0589011017799377,-0.001024099998176,0.0010577458888292,0.0010213907808065
1783197541438190300,1.9801904296875,-0.009213964677602,-0.039378856115695,-0.0581593435019254,0.0007391786202788,-0.001204343046993,0.0008155284449458
1783197541448127200,1.990127197265625,-0.0101826635792851,-0.021853081498295,-0.0550204609543085,-0.0003772880882024,0.0012265807017683,-0.0016218461096286
1783197541458065200,2.000065185546875,-0.0263959125597029,-0.0044097244673408,-0.0544312628895044,0.0016991784796118,0.0035424656234681,-0.0026690009981393
1783197541468001800,2.010001708984375,-0.0266090438537299,0.0012831168794073,-0.0409720618575811,-0.0008943639695644,-0.0008494723588228,-0.0004742627497762
1783197541477940000,2.01993994140625,-0.010656747364439,0.0396331414040178,-0.0519061283260583,0.001374383457005,0.004174580797553,-0.00319255143404
1783197541487876900,2.029876953125,0.0386747447006404,0.0360803260269574,-0.0535544800549745,0.0046249413862824,0.0040105320513248,-0.0028118938207626
1783197541497814800,2.039814697265625,0.0835088888138532,0.0188522922471165,-0.0556494065076112,0.0003990372642874,-0.0040849447250366,-0.0018491611117497
1783197541507752000,2.049751953125,0.0699901030818,0.0114197493598796,-0.0611620324492454,0.0015891212970018,-0.0019660270772874,9.51846595853e-05
1783197541517689900,2.05968994140625,-0.007060732166469,-0.0185643604175187,-0.0545750552743673,-0.0012386236339807,9.97870229184e-05,-0.0006715394556522
1783197541527627000,2.069626953125,-0.0754707264499738,-0.035210612254031,-0.0545902528434991,0.0006292574107646,0.0066803470253944,-0.0008074571378529
1783197541537565000,2.07956494140625,-0.0486606070661917,-0.0754199278444983,-0.0543143585115671,-0.0008874125778675,0.0031628441065549,0.0023481224197894
1783197541547502000,2.089502197265625,0.0071086629614233,-0.0810619340531527,-0.0556710338175296,-0.0001732837408781,-0.0003090593963861,0.0028324371669441
1783197541557439700,2.099439697265625,0.0477774675561115,-0.0648467671102844,-0.0574620088875293,-0.0014500031247735,0.0004331637173891,0.0005154872778803
1783197541567377000,2.109376953125,0.0568487723600119,-0.0363812452022917,-0.0555149664729833,-0.0012013940140604,-0.0014942572452127,-0.0002041622065007
1783197541577313800,2.119313720703125,0.0561317101318389,-0.0060839047572575,-0.054321957296133,-0.0025356374680995,-0.0026620533317327,-0.0005887225270271
1783197541587252000,2.129251953125,0.0388244553696364,0.0262916484676301,-0.0528249967366456,0.0005235467106103,-0.0015318058431148,0.0006704404950141
1783197541597188900,2.13918896484375,0.0077540847254917,0.0188842765542678,-0.06464110673666,0.0027012126520276,0.0010048551484942,0.001304805278778
1783197541607127000,2.149126953125,-0.0051169776875525,-0.0008005027279257,-0.0589449409216642,-0.0024173483252525,-0.0052548800595104,0.002351991366595
1783197541617064000,2.15906396484375,-0.0205074390430003,-0.0173610855749808,-0.0711959352076053,0.000832506455481,-0.0026420527137815,0.002866780385375
1783197541627002000,2.169002197265625,-0.06503273640275,-0.0438522934690117,-0.0557674799293279,-0.0005338741466403,-0.0002883332781493,0.0020489073358476
1783197541636938800,2.178938720703125,-0.0834641363566741,-0.0402106855636462,-0.0593710573792457,-0.0018492098897695,0.000694106798619,-0.0019921732600778
1783197541646877000,2.188876953125,-0.0657046808475628,-0.0150591287755407,-0.0574362899243831,0.0004481403157114,0.0040646884590387,0.0011841885279864
1783197541656813800,2.198813720703125,-0.013092450078763,0.0225661799374036,-0.0478781879842281,-0.0004994124174118,0.000884607899934,-0.0002754898741841
1783197541666751700,2.208751708984375,0.0286014597799628,0.0383387176793068,-0.0592564910888671,0.0016526812687516,0.0003591398708522,0.0008801794610917
1783197541676689000,2.21868896484375,0.031898090172559,0.0587020355438813,-0.0556646040767431,-0.0012541590258479,0.002006571739912,-0.0015976257855072
1783197541686626800,2.228626708984375,-0.0037437165729701,0.0386497381235472,-0.0550759905338287,-0.0019878894090652,0.0004825764335691,0.0009173871949315
1783197541696564000,2.23856396484375,-0.021916136797145,0.025117069996614,-0.0573135403275489,0.0001857820898294,-0.001779512502253,-0.0020168835762888
1783197541706502000,2.248501953125,-0.019833594902046,0.0037338527660816,-0.0662795215934514,0.0017369408160448,0.0005344483070075,-0.0040789530612528
1783197541716439000,2.25843896484375,-0.0205796274963766,-0.0107311095085926,-0.0602928483992815,-0.0004553738981485,0.0010162140242755,5.82679640501e-05
1783197541726376000,2.2683759765625,-0.0352372445326298,-0.0266514582233503,-0.0574468113183975,0.0007631937041878,0.0023257499560713,-0.001374713378027
1783197541736313900,2.27831396484375,-0.030141674959287,-0.0421364659944549,-0.054909401795268,0.001370926387608,0.0005406332202255,-0.0007587242871522
1783197541746250800,2.288250732421875,-0.0045277065575122,-0.0371012665725313,-0.0627075083255767,0.0017881290987133,0.0025232820771634,-0.0027763426769524
1783197541756189000,2.29818896484375,0.0160004830125719,-0.0347750886472873,-0.0519336008548736,0.0003295158967375,-0.0027809357270598,-0.0025395876727998
1783197541766125800,2.308125732421875,0.0027946356872096,-0.0121748968424275,-0.0544710103780031,0.0027093729004263,0.0003252592869102,0.0006504668854176
1783197541776064000,2.31806396484375,-0.0158297660881653,0.0132752410334534,-0.0662836132466793,-0.0005639186128973,-0.0001146951690316,-0.0003788447938859
1783197541786001000,2.3280009765625,-0.0259784543326124,0.0246074399740435,-0.0516354946911334,0.0011676782742142,0.0027084159664809,-0.0001378094311803
1783197541795939000,2.33793896484375,-0.007167443943955,0.0091244049643166,-0.0616617986649274,0.0008249292150139,-0.0012381221167743,-0.0022281245328485
1783197541805876000,2.3478759765625,-0.0200154177423566,0.0399013638861477,-0.0577805733174085,0.0047296825796365,0.0094491308555006,-0.0049776649102568
1783197541815814100,2.357814208984375,0.0008962181873619,-0.0282263976561836,-0.0607774170458316,2.06809490919e-05,-0.0021795621141791,-0.0055236127227544
1783197541825750800,2.367750732421875,-0.0316833149107173,0.029180976700969,-0.0476040472179651,0.0027636010199785,0.003230946836993,-0.0039752703160047
1783197541835688700,2.377688720703125,-0.0329257892524823,-0.0127755296166986,-0.0648427667886018,0.0045066392049193,0.0071830777451395,-0.0017616510158404
1783197541845625900,2.3876259765625,-0.0061931555517017,-0.0345047655396163,-0.0367196651101112,-0.0020726760849356,-0.0003138566389679,-0.0025021829642355
1783197541855563000,2.39756298828125,-0.0092560137210413,-0.0179522381348535,-0.0579565144062042,-0.0002609277144074,-0.0008582067675888,-0.0028268224559724
1783197541865501000,2.4075009765625,-0.0383794880811125,0.0282775433215312,-0.0582879383176565,0.0040651801973581,0.0025507388636469,-0.0020185408648103
1783197541875438000,2.41743798828125,-0.0049288347043097,0.0019177067222073,-0.0439016855686903,-0.0021141525357961,0.0001022284850478,-0.003760248189792
1783197541885376000,2.4273759765625,-0.0154455890761688,0.1051806771948002,-0.0536474190354347,0.0044234860688447,0.0107847331091761,-0.0067846234887838
1783197541895313200,2.437313232421875,0.0069483213005587,0.1029497763375751,-0.0776274295598268,0.008265895769,0.0164897572249174,-0.0038370371330529
1783197541905251000,2.4472509765625,0.1066969817755743,-0.0208499871366657,-0.0312333426535129,0.0008654845878481,-0.0095573561266064,-0.0026779905892908
1783197541915187700,2.457187744140625,0.0702580333029851,0.0114102691454812,-0.0638432343572378,0.0047576939687132,0.0030354007612913,-0.0037392601370811
1783197541925126000,2.4671259765625,0.0220154324531555,-0.0341195473480038,-0.0728454559803009,0.0082801105454564,0.0043285656720399,0.0033820564858615
1783197541935062800,2.477062744140625,0.0446386215411126,-0.1798885112471878,-0.0298690685629844,-0.0053768455982208,-0.0097022987902164,0.0015303608961403
1783197541945001000,2.4870009765625,-0.0383473393771797,-0.163434073922038,-0.0621691636651754,0.0030585322529077,0.0082474732771515,0.001580263255164
1783197541954937900,2.496937744140625,-0.0680206661723554,-0.3017527948805131,-0.0770142660975456,-0.0005564419552683,0.0017027552239596,0.0028239598032087
1783197541964876000,2.5068759765625,-0.0259002379972487,-0.2498496987617574,-0.011309329521656,-0.0049893334507942,-0.004740594420582,0.0074937855824828
1783197541974813000,2.51681298828125,0.0657565936978906,-0.1822604828092269,-0.0668242959946393,-0.0030119363218545,0.0010192901827394,0.0060492875054478
1783197541984751000,2.526751220703125,0.0747737571617588,-0.0678237370944581,-0.0541068532407283,-0.0081593859940767,-0.0110599771142005,0.0063420189544558
1783197541994688000,2.53668798828125,0.049709093205817,0.0724069914977997,-0.0461351437091827,-0.0062981024384498,-0.0066844029352068,0.0043092286214232
1783197542004625000,2.546625,-0.0157223967235535,0.203081152519863,-0.064562780803442,0.0023518661037087,0.0094354096800088,0.0021820000838488
1783197542014562800,2.556562744140625,0.0450736519575119,0.2590957938769832,-0.0769932233095169,-0.0004178211092948,-0.0037040943279862,0.0048603415489196
1783197542024500000,2.5665,0.1017686219953,0.2132274296115152,-0.0512415269374847,-0.0104525098577141,0.0026452811434865,0.0065994476899504
1783197542034438000,2.57643798828125,0.1617043640526011,0.3054840172980911,-0.0250198749661445,0.014379602856934,-0.0263514854013919,-0.0030848705209791
1783197542044375000,2.586375,0.0824211666423827,-0.1222480587865225,-0.0836620335489511,-0.015917545184493,0.016004629433155,0.0071005774661898
1783197542054313000,2.59631298828125,0.0662284855259582,0.2055866690673865,0.0228267488360404,0.0012957956641912,-0.0508071593940258,-0.0023603022564202
1783197542064250000,2.60625,-0.2153944897186011,-0.0125230892255902,-0.0876642549276351,0.0152483154088258,0.028577646240592,0.0065322234295308
1783197542074188000,2.61618798828125,-0.0382783657941967,-0.1026890613084658,-0.0413999318808317,0.0084093175828456,-0.0148015208542346,0.0021750251762568
1783197542084125000,2.626125,-0.0639190760724246,-0.2215965592291206,-0.1124795472323894,-0.0183919724076986,0.0021252329461276,-0.0042389980517327
1783197542094062800,2.636062744140625,-0.0896227320516482,-0.0391718440352007,-0.1436041688144207,0.0070060617290437,0.0017177695408463,-0.0009017908014357
1783197542103999700,2.645999755859375,-0.1032839219290763,-0.0793763921190053,0.0084434186965227,0.0033458964899182,0.0181524697691202,-0.001389846438542
1783197542113938000,2.65593798828125,0.1235949616171419,-0.0832752809873782,0.0446773461163043,0.0092903384938836,0.0007889252156019,-0.0081414924934506
1783197542123874800,2.665874755859375,0.2048998375806957,-0.3270108077177778,-0.1257289049059152,-0.0148092079907655,-0.0169264208525419,-0.0084745278581976
1783197542133813000,2.67581298828125,-0.0382558617014437,0.0024868118470534,0.0195785606950521,0.0149753196164965,0.0061562615446746,-0.0157657302916049
1783197542143750000,2.68575,-0.0478939700752496,0.0093027754722163,-0.0055225628137588,0.0147736584767699,0.0028676881920546,-0.0210744738578796
1783197542153687000,2.69568701171875,-0.0659767392545938,0.0591784939492121,0.0159299750596284,0.0078185470774769,-0.0114385467022657,-0.0202672686427831
1783197542163625000,2.705625,-0.0296865516029298,0.2239676722746342,-0.0763099172204732,0.0165076628327369,0.0021180748008191,-0.0206127204000949
1783197542173561900,2.715561767578125,0.0077818495152518,0.2145010845428332,-0.0652472559362649,0.0151883326470851,0.0134471617639064,-0.0167673807591199
1783197542183499800,2.725499755859375,0.1217336247246712,0.1943232062477618,-0.0426356111556291,0.01337949372828,-0.0041081956587731,-0.0154373599216341
1783197542193437000,2.73543701171875,0.201303237860836,0.1098580396223813,-0.0856575912803411,0.004640863277018,-0.0137810632586479,-0.0105046527460217
1783197542203374800,2.745374755859375,0.0666338514564558,0.078044778189063,-0.1023795935004949,0.0034975139424204,-0.0041503733955323,-0.0062244478613138
1783197542213312000,2.75531201171875,-0.0786900538226589,-0.0492795426821336,-0.1210527297884225,0.0019001495093107,-0.0039847246371209,-0.0079959826543927
1783197542223250000,2.76525,-0.2137484760772436,-0.1111047334815375,-0.0551969865649938,0.0038440953940153,0.0002243360504508,-0.0080017866566777
1783197542233187000,2.77518701171875,-0.221679196011275,-0.1712103156804107,-0.0013549217402935,0.0185522027313709,0.018783638253808,-0.0051340954378247
1783197542243125000,2.785125,-0.0434682991201058,-0.2447550242375582,-0.0296820215582847,0.0138427540659904,0.0071460576727986,-0.0077083492651581
1783197542253062000,2.795061767578125,0.1028127607533708,-0.2205145544123835,-0.0522615176349878,0.0076359906233847,-0.000857806764543,-0.0112317111343145
1783197542263000000,2.805,0.1616044473420828,-0.1735593995572067,-0.0224625916987657,0.0137421349063515,4.624016582965851e-07,-0.0083790197968482
1783197542272936700,2.814936767578125,0.1633901251824572,-0.0284616129178553,-0.0315887319624424,0.0124291963875293,0.001693167258054,-0.0088075222447514
1783197542282875000,2.824875,0.1759924171241,0.1350703501543961,-0.0542933157235384,0.0104556372389197,-0.011693712323904,-0.0135501688346266
1783197542292811800,2.834811767578125,0.0932050475178286,0.1665700338602066,-0.1218137772887945,0.0055468990467488,-0.0196874551475048,-0.0096142832189798
1783197542302750000,2.84475,-0.153484342315793,0.1642118168288841,-0.1172293721079826,0.0054141990840435,0.0013942280784249,-0.0059276577085256
1783197542312686800,2.854686767578125,-0.3113936249343678,0.0805812926630489,-0.0985100585907697,0.0080025251954793,0.0112945288419723,-0.0035292145330458
1783197542322625000,2.864625,-0.2429969285238534,-0.0684817443454638,-0.0705927086174488,0.0083811711519956,0.013969475403428,-0.0004113351460546
1783197542332562000,2.87456201171875,0.0076673562901094,-0.2571216990587301,-0.0504097522884607,0.0028465893119573,0.0040545263327658,0.0006310259923338
1783197542342499000,2.8844990234375,0.163032032459788,-0.3339795872844755,-0.0482926140040159,0.0010802363976836,-0.014350114390254,0.000266729388386
1783197542352437000,2.89443701171875,0.1215899784702807,-0.2977745388993062,-0.1011637879699468,-0.012037162669003,-0.0281841699033975,0.0023296137806028
1783197542362374000,2.904373779296875,-0.1599820337720215,-0.2212827805722132,-0.0960445452600717,-0.0134875867515802,-0.000836968421936,0.0046783811412751
1783197542372311800,2.914311767578125,-0.2220291054274886,-0.0065403798204846,-0.0384475118160247,-0.0047002211213111,-0.0069515858776867,0.0019086939282715
1783197542382249000,2.9242490234375,-0.1206131693273782,0.2940432251501828,-0.0757464381188154,-0.0003125490620732,0.0224528443068265,0.0058102481998503
1783197542392187000,2.934186767578125,0.2105789791956543,0.2284798707357607,-0.0516600446105003,-0.0074402336031198,-0.0133309867233037,0.0062504694797098
1783197542402124000,2.9441240234375,0.3562269653299823,0.2204791177728213,-0.1232604689657688,-0.0099072679877281,-0.0118199782446026,0.0125470347702503
1783197542412062000,2.95406201171875,0.2854399397168308,0.0334099925728514,-0.0269675019025802,-0.0086113736033439,-0.0185836069285869,0.014792613685131
1783197542421999000,2.9639990234375,0.0771009214676916,-0.0967758369429968,-0.0870931770414114,-0.0115409428253769,-0.0057519320398569,0.0129577443003654
1783197542431937000,2.97393701171875,-0.0030005700554698,-0.2079520282255485,-0.0454220270037651,-0.0113073838874697,-0.0174844898283481,0.013057081028819
1783197542441874000,2.9838740234375,-0.0653623702159151,-0.2269717129288241,-0.0426864645600318,-0.0110711120069026,-0.0114107821136713,0.0134126413613557
1783197542451812000,2.99381201171875,-0.1234338893039151,-0.1281919888175092,-0.0669686729013919,-0.0156426951289176,-0.0276661850512027,0.011569732800126
1783197542461748700,3.003748779296875,-0.3042888344304636,0.0466843202908523,-0.0527343958437442,-0.003829026594758,0.0104832295328378,0.0113136358559131
1783197542471687200,3.013687255859375,-0.2241578976171091,0.0672219352764077,-0.0604138444304466,-0.0044881589710712,-0.0070893722586333,0.0095620742067694
1783197542481624000,3.0236240234375,-0.0990406583361327,0.1556346704837866,-0.0982961235791444,-0.0144554805010557,-0.0032184305600821,0.0089308451861143
1783197542491562200,3.033562255859375,-0.0282211186928674,0.1206587072358466,-0.0512087937116622,-0.0010150391608476,0.0057353829033672,0.0089332424104213
1783197542501499000,3.043498779296875,0.0870234728060662,0.0800221426766365,-0.0628986469835043,-0.0064237518236041,-0.0049041481688618,0.0071643171831965
1783197542511437000,3.05343701171875,0.1460960586953908,-0.0080981123901903,-0.0281365456819534,-0.0115668484941124,-0.0127226561307907,0.0075475452467799
1783197542521374000,3.0633740234375,0.1076749234296381,-0.0292445617227815,-0.0825397515207529,-0.0136641506105661,-0.0107659623026847,0.0084326304495334
1783197542531311000,3.07331103515625,-0.0516428012147545,-0.0327190146340057,-0.0542301873594522,-0.0065604355186223,-0.0067323390394449,0.0043249707669019
1783197542541249000,3.0832490234375,-0.1553034840343519,-0.0473030184447765,-0.0499807132214307,-0.0061928667128086,-0.0108793824911117,0.0054459320381283
1783197542551186200,3.093186279296875,-0.2181547482121735,-0.0332470936287194,-0.0524988335222005,-0.0056296084076166,0.0039496310055255,0.0049505839124321
1783197542561124000,3.1031240234375,-0.1817404592568054,-0.0508365993984043,-0.0496697475761175,-0.0048778895288705,-0.0020325947552919,0.0037157265469431
1783197542571061200,3.113061279296875,-0.1115402570882812,-0.0459302505205385,-0.0748193864017724,-0.004993736743927,0.0001565236598253,0.0071237734518945
1783197542580999200,3.122999267578125,-0.0384468542288988,-0.0449019669187255,-0.0482002595454454,-0.0040758373215794,-0.0013686353340744,0.0017000308725982
1783197542590936000,3.13293603515625,0.0496724875224754,-0.0513652446486987,-0.0579395632714033,-0.0088679296895861,-0.0046158274635672,0.0047791777178645
1783197542600874000,3.1428740234375,0.0860768396057188,-0.0538660484884865,-0.0378910469770431,-0.0106343105435371,-0.0076683759689331,0.008427657186985
1783197542610811000,3.152810791015625,0.0924972645746543,-0.0263462647316977,-0.0492553215563297,-0.0056741740554571,-0.0034784246236085,0.0045066853053867
1783197542620749000,3.1627490234375,0.1118481539936736,0.0336178266372531,-0.0421954661726951,-0.0045927129685878,-0.0045015439391136,0.0044188881292939
1783197542630686000,3.17268603515625,0.1613994993545114,0.0661691748204641,-0.0307785846233367,-0.0060385428369045,-0.016716131940484,0.003676930675283
1783197542640624000,3.1826240234375,0.0992138594785705,0.0856759854535572,-0.055243163794279,-0.0063159232959151,-0.0090770218521356,0.0044587366282939
1783197542650561000,3.19256103515625,-0.0707984237900003,0.0699902857448905,-0.0450479329943656,0.0012322729453444,0.0020307567901909,0.0040893564000725
1783197542660499200,3.202499267578125,-0.1130884729109704,0.0295108662424609,-0.0616442630082368,-0.002860564738512,-0.0039096567779779,0.0019687316380441
1783197542670436000,3.21243603515625,-0.1578329659793526,0.0027216800488531,-0.0562573092728853,-0.0029697548598051,0.0014837770722806,0.0019391705282032
1783197542680374300,3.222374267578125,-0.1410135312667116,-0.0379500654215924,-0.0676502254247665,-0.0012411549687385,0.0013455292209982,0.0002759904600679
1783197542690311000,3.232310791015625,-0.0553538941597566,-0.0398295590252615,-0.0557061051309108,-0.0041908714920282,0.0012925323098897,0.0028163797687739
1783197542700248800,3.242248779296875,0.0309895970255136,-0.0064716984984464,-0.0524304444611072,-0.0043239947408437,-0.0027224854566156,0.0033818441443145
1783197542710186000,3.25218603515625,0.0687681235387921,-0.0282497967980802,-0.0488531704962253,-0.0022400710731744,-0.0028125005774199,0.0052375341765582
1783197542720124000,3.2621240234375,0.0553130872253328,0.0026094518460333,-0.0338911636859178,-0.0024082195013761,-0.0077413446269929,0.0030416953377425
1783197542730061000,3.27206103515625,0.0301920534396544,0.0092432273047044,-0.0543845011383295,-0.0062216008082032,0.0006356285884976,0.0033293166197836
1783197542739998200,3.281998291015625,0.0186699214175343,0.0272500269046984,-0.0385135627895593,-0.0010148100554943,-0.0051241251640021,0.0013369284570217
1783197542749936000,3.29193603515625,0.0050556028891354,0.0480016134344972,-0.0598918663829565,-0.0016960464417934,0.0004653176292777,0.0004122790414839
1783197542759873000,3.301873046875,-0.0287752454442903,0.0267113351844251,-0.0383335300475358,0.0022482918575406,-0.0009591365233063,0.0011615427210927
1783197542769811200,3.311811279296875,-0.046757001934573,0.0018540851677767,-0.071401686912775,-0.0017661564052104,-0.0033112405799329,0.0021977783180773
1783197542779747800,3.321747802734375,-0.0648466027135029,-0.0193891208038665,-0.0639309126406908,-0.0014589875936508,0.0044823656789958,-0.0017662737518548
1783197542789686000,3.33168603515625,-0.0371260539539158,-0.0503619493576698,-0.0522860675543546,0.0008704792708158,0.0044381571933627,-7.7030621469e-05
1783197542799623000,3.341622802734375,0.0085943714745342,-0.0671675747406669,-0.0531967526584863,-0.0020651500672101,-0.0003057676367461,0.0021674155723303
1783197542809561000,3.35156103515625,0.0287461289476603,-0.060653133079037,-0.0687590634495019,-0.0021157506853342,-0.000197110697627,0.0012329125311225
1783197542819498000,3.361498046875,0.0075779609736055,-0.0495292431268841,-0.0645715486317873,-0.0026869717985391,-0.0011925646103918,-0.0002077920362353
1783197542829436200,3.371436279296875,0.0034797684071585,0.015933281261567,-0.0416699809938669,-0.0017498051747679,0.0009446223266422,0.0016931723803281
1783197542839373000,3.381373046875,0.010024586940743,0.0122785398799926,-0.0509551112115383,-0.0040735229849815,0.0032220552675426,0.0018615829758346
1783197542849311200,3.391311279296875,0.0287980783306062,0.0585612936326302,-0.0433346993356943,-0.0005845157429575,-0.0001465771347284,-0.0002084919251501
1783197542859248000,3.401248046875,0.0757604666441679,0.0833994553563185,-0.0454348864853382,0.0016135359182953,0.0056029888801276,-0.001630377722904
1783197542869186000,3.41118603515625,0.1041647233515977,0.0514816010373644,-0.0463233597576618,0.0003245659172534,-0.0057410122826695,-0.0008982748258858
1783197542879123000,3.421123046875,0.067086892453581,0.0622027188749052,-0.0543833320945501,0.0014128582552075,-0.0018643452785909,-0.0007234429940581
1783197542889060900,3.431060791015625,0.0313167100880295,0.0093246585104614,-0.0582598812669515,0.0005779573693871,-0.0042159161530435,-0.0017916368087753
1783197542898998000,3.440998046875,-0.0161847535382956,-0.0155063976190052,-0.0664770899921655,0.0005048494786024,-0.0005557374097406,-0.0012392732314765
1783197542908936000,3.45093603515625,-0.0366701999451965,-0.0267388442458584,-0.0673655632644891,-2.75168567895e-05,-0.0005006100982427,-0.0010568466968834
1783197542918873000,3.460873046875,-0.0459846658552065,-0.0376561057100072,-0.0517933156013488,0.0005926052108407,0.0011242544278502,0.0013282564468681
1783197542928811000,3.47081103515625,-0.0499612048033624,-0.0485192623667418,-0.0630149668395519,-0.0018788082525134,0.0021927147172391,0.0021477108821272
1783197542938748200,3.480748046875,-0.0386124200541526,-0.0271480826338753,-0.0756026457339525,-0.0013920748606324,-0.0007284730672836,-0.0020227483473718
1783197542948686000,3.49068603515625,-0.0133897525249049,-0.0248173746639862,-0.0591477700173854,-0.0007009841501712,-0.0014957296662032,0.0021224617958068
1783197542958623000,3.500623046875,-0.0226123389003798,-0.0201748643540777,-0.0456891535073518,-0.001780791208148,0.0009590373374521,-0.0001158618833869
1783197542968561000,3.510560791015625,-0.017958996669203,-0.0036623218998312,-0.0627577772080898,-0.0007496150210499,0.0001403815113008,-0.0018929892685264
1783197542978498000,3.520498046875,-0.0148500708684325,-0.0047985045892186,-0.0552799886733293,-0.0010335212573409,0.0023445149417966,-0.002960231853649
1783197542988436000,3.53043603515625,-0.0029186639256775,0.0292732946269214,-0.0421358449399471,0.0025170054286718,0.0030084408354014,9.121815674e-05
1783197542998373000,3.540373046875,0.0536792024131864,0.0232548745876178,-0.0644189884185791,-0.0029528234153985,-0.0035256608389317,-0.0007111174054443
1783197543008310000,3.55031005859375,0.0542008151344954,-0.0046990445364266,-0.0304220262706279,0.0002861125394701,-0.0005591660737991,-0.0003819505218416
1783197543018248200,3.560248291015625,0.0059950756963342,-0.0053621115550398,-0.065120414686203,-0.0020639672875404,-0.000380600336939,-0.0030262661166489
1783197543028185000,3.57018505859375,-0.0794946116711944,-0.0290412394367158,-0.0642097295820713,-0.003269312903285,-0.0044626933522522,0.0008331865537911
1783197543038123000,3.580123046875,-0.1349575922286137,-0.0723620929101482,-0.0567231732189655,-0.0016917660832405,0.0059988996945321,-0.0030006011947989
1783197543048060000,3.590059814453125,-0.1263500324789434,-0.0557598080795258,-0.0530190580040216,0.0006400980055332,0.0082295630127191,-0.003273841459304
1783197543057997800,3.599997802734375,-0.0061500835949555,-3.3427345566e-06,-0.0518541058778762,0.0032635563984513,0.0047777472063899,-0.0040540038608014
1783197543067935000,3.60993505859375,0.1426849350776523,0.0120413335906341,-0.0180371764719486,0.0024909731000661,-0.0022356868721544,-0.0029261552263051
1783197543077873000,3.619872802734375,0.1656979637334123,0.0695286230498924,-0.0407628030210733,0.0027522165328264,-0.0058119450695812,-0.0041017886251211
1783197543087810000,3.62981005859375,0.0747762779124081,0.064687210900709,-0.060347793456912,0.0019380878657102,-0.0011149276979267,-0.0002354115713387
1783197543097748000,3.639748046875,-0.0709768125642091,0.0493249344601295,-0.0567436314851045,0.0036343187093734,-0.0013495245948433,-0.004305484239012
1783197543107685000,3.64968505859375,-0.196080388646014,0.0390376597288995,-0.0754477474331855,0.0045248800888657,0.0101065952330827,-0.0063153719529509
1783197543117623000,3.659623046875,-0.2340332122802734,0.011263243623916,-0.0403080449908971,0.0076251551508903,0.0079591860994696,-0.0106358602643013
1783197543127560200,3.669560302734375,-0.1549768824284896,0.0399561810796149,-0.0700935269236564,0.0047449469566345,0.012660464271903,-0.0071577718481421
1783197543137498000,3.679498046875,-0.0766939846346154,0.0402810839187353,-0.0090057287544012,0.0173098370432853,0.0214076526463031,-0.0073881950229406
1783197543147435000,3.68943505859375,0.1596396866077557,-0.0215100036816671,-0.0712286684334278,-0.0008055167272686,-0.0091728940606117,-0.0124159771949052
1783197543157373000,3.699373046875,0.0626612214984372,0.0687174710637889,-0.0305699103087186,0.0131658529862761,0.0129220318049192,-0.0055371429771184
1783197543167310000,3.70931005859375,0.0312581848338246,-0.025483766150847,-0.0947469066649675,0.00574761768803,0.0010549868457019,-0.0092389369383454
1783197543177248000,3.719248046875,-0.1548508083634078,0.0452902355839498,-0.0444920526772737,0.0070403041318058,0.011672168970108,-0.0105245094746351
1783197543187185200,3.72918505859375,-0.2327317377602681,-0.025032862311881,-0.1125824230849742,0.0093777608126401,0.0006631938740611,-0.0118369152769446
1783197543197123000,3.739123046875,-0.3547427546542138,-0.0158190254984423,-0.0671358461618423,0.0046434449031949,0.0286664627492427,-0.0157503820955753
1783197543207060200,3.749060302734375,-0.3341609352007508,0.0360949208078905,-0.0248994634568691,0.0191949568688869,0.0275564566254615,-0.0155562385916709
1783197543216998100,3.758998046875,-0.1654266359787434,-0.0991153492738492,-0.0947176805704832,0.0022047096863389,0.0216441415250301,-0.0140179945155978
1783197543226935000,3.76893505859375,-0.0885109714174643,-0.0571893842249177,-0.004101005578041,0.0131417792290449,0.0132621098309755,-0.0152699463069438
1783197543236873200,3.778873291015625,-0.0890819397058338,-0.0547237247637473,-0.1107476088732481,0.0121182203292846,0.0363009832799434,-0.0102968215942382
1783197543246809900,3.788809814453125,-0.1357682510243728,-0.0901868687404319,-0.0062596449166536,0.0113925086334347,0.0156545620411634,-0.0109077505767345
1783197543256748000,3.798748046875,-0.0343417935302481,-0.0840267569418065,-0.0617909780025482,0.0034801447764039,-0.0091527877375483,-0.0129762422293424
1783197543266685000,3.808684814453125,-0.2474558076288551,0.1203135470599867,-0.098106738486886,0.0125575298443436,0.066377654671669,-0.0091143930330872
1783197543276622000,3.8186220703125,-0.0598406476523727,0.0564893279304727,-0.0505786791145801,0.0182963758707046,0.0196546241641044,-0.0106297321617603
1783197543286560000,3.82856005859375,0.180445524075441,0.1822695428985171,-0.1055529628396034,0.0015885019674897,0.0301163215190172,-0.0093183908611536
1783197543296497200,3.8384970703125,0.3197382594315335,0.1436057579833082,0.0322936653614044,0.0199721064418554,0.0222497768700122,-0.0069844089448452
1783197543306435000,3.84843505859375,0.440389313083887,0.0797608796582557,-0.1465939982801675,0.0034485235810279,0.0172132067382335,-0.0029606388416141
1783197543316372200,3.858372314453125,0.4058027510123327,-0.0364572147816419,-0.006712064859271,-0.0042012715712189,-0.0036765309050679,-0.0012795138172805
1783197543326310100,3.86831005859375,0.3258848358951509,-0.090396218908485,-0.0828717599540948,-0.0001588594168424,0.0057028564624488,0.0029099050443619
1783197543336247000,3.8782470703125,0.2790066552663222,-0.0125354555168189,-0.0586830751150846,-0.0010020267218351,0.0075748926028609,0.0036869021132588
1783197543346185000,3.88818505859375,0.3177553054533898,0.0594507898182608,-0.0721101274430751,-0.0090692732483148,-0.0207946971058845,0.0024698371998965
1783197543356122000,3.8981220703125,0.2102274988768622,0.1763116756737232,-0.0889507876068353,-0.0067834546789526,-0.0099516715854406,0.0019985323306173
1783197543366060000,3.90806005859375,0.0404684962496161,0.1487612958492711,-0.0569265868365764,-9.57241281867e-05,0.0028978153131902,0.0038323851767927
1783197543375997200,3.9179970703125,-0.0348627851970493,0.0125779977506026,-0.0720516752541065,-0.005293465219438,-0.0097469054162502,0.0038712311070412
1783197543385935000,3.92793505859375,-0.145925634031929,-0.1105252165605314,-0.0355365928053855,-0.0075174709782004,-0.0083934869617223,0.004462718963623
1783197543395872000,3.9378720703125,-0.2091889130767434,-0.1975007220390252,-0.0345125104546546,-0.0026063444092869,-0.0043785297311842,0.0035735941492021
1783197543405810200,3.94781005859375,-0.2461905369333922,-0.242472429725714,-0.059086979740858,-0.0031163403764367,0.0018207761459052,0.0070828413590788
1783197543415747000,3.9577470703125,-0.1892369524920359,-0.2965733646823093,-0.0230149648845195,-0.0056826956570148,-0.0015513617545366,0.008214071393013
1783197543425685000,3.96768505859375,-0.148976144176349,-0.1959874679318629,-0.0245300456225872,-0.0026408340781927,-0.0048004183918237,0.0024704323150217
1783197543435622000,3.977621826171875,-0.135461961554177,-0.1369143523195758,-0.042221769657731,-0.0022205477580428,0.0067826705053448,0.0029222841840237
1783197543445560000,3.98756005859375,-0.0278553175877779,-0.0450562076323665,-0.0298053556770086,-0.0001701796427369,-0.0047647962346673,0.0059076873585581
1783197543455497000,3.9974970703125,0.0166075820602476,0.0038038127297535,-0.0269616566836833,-0.0060723591595888,-0.0062144217081367,0.000466747675091
1783197543465435100,4.00743505859375,0.0024915976200252,0.0730995038066059,-0.0257499428063631,0.0021557426080107,0.0098585542291402,0.0034971586428582
1783197543475371800,4.017371826171875,0.0281741377459838,0.0374550667125731,-0.0333738618135452,3.61101701855e-05,0.0047713182866573,0.0004084636457264
1783197543485310000,4.02731005859375,0.0307335033725947,-0.0063861025742255,-0.0155552965283393,0.002721375785768,0.003228815505281,0.0009967559017241
1783197543495246800,4.037246826171875,0.0558876722428947,-0.0872098987562581,-0.0292944835454225,0.0030344976112246,0.0024530107621103,0.0046212812885642
1783197543505184800,4.047184814453125,0.0481712526466697,-0.1803229754080064,-0.0246457809567451,-0.002695026807487,-0.006849676836282,0.0021032630465924
1783197543515122000,4.057121826171875,-0.0171653255408629,-0.1608198180367238,-0.0434644631952047,-0.0030740583315491,0.0014800149947404,0.0007825091015547
1783197543525059800,4.067059814453125,-0.0233339311731979,-0.1597850681615062,-0.0334410818308591,0.0007587634027004,-0.0037413788959383,-0.0008809014689177
1783197543534997000,4.0769970703125,-0.016415018630214,-0.139711947148852,-0.0581225186228752,-0.0095317354425787,-0.0030523524619638,0.0054654972627758
1783197543544934100,4.08693408203125,-0.0134506523992866,-0.0355242447804659,-0.0183259302854537,-0.001134255900979,0.0022625182755291,0.004937925375998
1783197543554872000,4.0968720703125,0.0598931815572083,0.0403197536949999,-0.0627975246965885,-0.0028629843145608,0.0045442162081599,0.004442315082997
1783197543564809000,4.10680908203125,0.120907329968363,0.0749693527990952,-0.0476730208009481,-0.0079610738903284,-0.0170508231967687,0.0007375911809504
1783197543574747000,4.116746826171875,0.0267313185265287,0.1812963322184979,-0.0515501544952392,0.0019325399771332,0.0083154840394854,0.0093581778928637
1783197543584683800,4.126683837890625,0.0416414490191265,0.0557291754792444,-0.0376385335206985,-0.003283261321485,0.0044584274291992,0.010590155608952
1783197543594622000,4.1366220703125,0.0307940013881772,0.0322074301163665,-0.035697920846939,-0.0044823139905929,-0.0135747976601123,0.0023570354096591
1783197543604558800,4.146558837890625,-0.002391717442125,-0.0203876120556145,-0.0624573329567909,-0.001272140070796,0.0061930487863719,0.0043916907161474
1783197543614497000,4.1564970703125,-0.0031175474986433,-0.1578781568279489,-0.0330956293940544,-0.0046365344896912,-0.005014369264245,0.0062236133962869
1783197543624434000,4.166433837890625,-0.0698533614922314,-0.1228828860913403,-0.0342968218773603,-0.0001690816134214,-0.0042716143652796,0.0033082508016377
1783197543634372000,4.1763720703125,-0.0949790349204093,-0.1812126177241094,-0.0667255117952823,-0.0102408807724714,0.0044818026944994,0.002732960274443
1783197543644308700,4.186308837890625,-0.1253556146141141,-0.0334850671030581,-0.0265133283942937,0.0045260805636644,0.0008484520949423,0.0006290629971772
1783197543654247000,4.196246826171875,-0.1057173596210777,-0.0453816949933767,-0.085460022881627,-0.0100035425275564,0.0113584799692034,0.0025011876132339
1783197543664183800,4.206183837890625,-0.0377207319114357,0.1793330510552041,0.0074088149517774,0.0046742027625441,-0.0001061623916029,0.0013709419872611
1783197543674122000,4.2161220703125,0.072255308067426,0.155193283391837,-0.1091471879392862,-0.0070235971361398,0.0168846361339092,-0.0007999292574822
1783197543684059000,4.226058837890625,0.1471211274268105,0.3199306767310947,0.0228057060480117,0.0046450421214103,-0.0072760926559567,-0.0006731629837304
1783197543693996800,4.235996826171875,0.2311189322687685,0.2846829108044505,-0.1018435869276523,0.0005177771672606,0.010642054490745,0.0009082851465791
1783197543703934000,4.245933837890625,0.2115913711085915,0.1542917314422316,0.0005459434449672,-0.000308602117002,-0.0118659175932407,-0.002146094571799
1783197543713872000,4.255871826171875,0.0522617733633145,0.1011668201772496,-0.0730406862914562,0.0025348858907818,0.0046039042063057,0.0020804081577807
1783197543723809000,4.26580908203125,-0.0524659541659057,-0.0200802448731847,-0.0232002583235502,0.0028089247643947,0.0004573627375066,0.0006838466506451
1783197543733747000,4.275746826171875,-0.0723526309620588,-0.1284179065278731,-0.0562386045724153,-0.0050853798165917,-0.0053665712475776,-0.001612268271856
1783197543743683800,4.285683837890625,-0.0841574523830786,-0.0911726101084612,-0.0347065717220306,0.0020569516345858,0.0094368755817413,0.0011904425919055
1783197543753621800,4.295621826171875,-0.0267041017260402,-0.113936742037069,-0.046554245904088,-0.001340421847999,-0.0032953666523098,0.0021707131527364
1783197543763559000,4.305558837890625,-0.001176642563939,-0.0164409933216869,-0.0314390943586826,-0.0041686994954943,-0.0073468331247568,-0.0027524065226316
1783197543773495800,4.315495849609375,0.007989537449181,0.0473293219298124,-0.0577934327989816,0.0047511681914329,0.0035034862812608,0.0016569655854254
1783197543783434000,4.32543408203125,0.026389702014625,0.0943383806630037,-0.0427139370888471,5.54826110601e-05,-0.0021000714041292,-0.0009329586755484
1783197543793371000,4.335370849609375,0.0433879273602738,0.0946713389444164,-0.0410574020534753,0.0012789601460099,-0.0004363292828202,0.000798056833446
1783197543803309000,4.34530908203125,0.0271903143404051,0.0581854095249436,-0.0483954898566007,0.0042374664917588,0.0020681074820458,0.0002414563205093
1783197543813246000,4.355245849609375,0.0039546924425289,0.0104866514945402,-0.0530196425259113,0.0003980789333581,-0.0014289221726357,0.0001082473900169
1783197543823184100,4.36518408203125,-0.0230051376102492,-0.0649597990307025,-0.0456686952412128,-0.0021439082920551,0.001312802080065,0.0010028034448623
1783197543833120800,4.375120849609375,-0.0668739803552627,-0.1081527883407659,-0.054057168880105,0.0019498690962791,0.0028044739738106,0.0005609099753201
1783197543843059000,4.385058837890625,-0.0530373973783105,-0.1319829420656897,-0.0480652349889278,0.0003253407776355,-0.0017199702560901,0.0001680937130004
1783197543852995800,4.394995849609375,-0.0346149844484403,-0.1182354256116785,-0.0347334597289562,-0.0011109709739685,-0.002698850352317,0.0024051612708717
1783197543862933800,4.404933837890625,-0.0497608599256724,-0.0374990885173901,-0.058089200875163,0.0035152053460478,0.0055676018819212,0.0011172562371939
1783197543872871000,4.414870849609375,-0.022424561243318,-0.0029332587066106,-0.0546621490359306,-0.003051595762372,0.0002008657902479,0.0022621108219027
1783197543882808800,4.424808837890625,0.0146276602894067,0.0552303043127059,-0.0456920761168003,-0.0020803408697247,0.0022040954791009,0.0015624985098838
1783197543892746000,4.43474609375,0.0274563813980668,0.039827312269248,-0.0573743306040763,0.0006891973316669,0.0012434967793524,-0.0006788033060729
1783197543902684000,4.444683837890625,0.0321486308675259,0.0125443877419456,-0.060357145807147,-0.002023764885962,-0.0032263528555631,0.0014903414994478
1783197543912621000,4.45462109375,-0.0012461276035755,-0.0305086451081559,-0.0595797316938638,0.0015991646796464,-0.0014182697050273,-0.0008592789527028
1783197543922559000,4.46455908203125,-0.0268595480160787,-0.0441859093375504,-0.0455091207653284,0.0003472128883004,0.0013767178170382,-0.0008142716251313
1783197543932496000,4.474495849609375,-0.0268584155049175,-0.0809963032047264,-0.0422170934826135,-0.0032018413767218,-0.0009553437121212,0.0031050783582031
1783197543942433800,4.484433837890625,-0.0300975435566157,-0.0595574285305105,-0.0450602079540491,-0.0018588099628686,0.0006484119221568,0.0016315514221787
1783197543952371000,4.494370849609375,-0.0279338992493227,-0.0270234333408996,-0.0589747515380382,-0.002631114795804,-0.0012286845594644,0.0012313921470195
1783197543962308900,4.504308837890625,-0.0185917416147887,-0.0166584719972684,-0.0495417372822761,0.0008291313424706,-0.0030489549972116,-0.0006437392439693
1783197543972246000,4.51424609375,-0.0041128421463072,-0.003430741633661,-0.0511748914420604,0.000446937046945,-0.0023059686645865,0.0031890159007161
1783197543982184000,4.524183837890625,-0.0169111681167036,0.0147451857218518,-0.0555126283854246,-0.0012931721284985,-0.0026479186490178,0.0015229426790028
1783197543992121000,4.53412109375,-0.0289316781150177,0.0613564773091115,-0.0523708232283592,3.76710668206e-05,0.0014229901134967,0.0001017544418573
1783197544002058000,4.54405810546875,-0.0016747282791882,0.0641949521380476,-0.0570183567732572,0.002008942887187,-0.0008401637896895,-0.0006231579463928
1783197544011996000,4.553995849609375,-0.0101258188255131,0.0361884991091676,-0.0649789603888988,-0.0056016445159912,-0.0436415933072567,-0.011570069938898
1783197544021932800,4.563932861328125,-0.6413752651564777,0.3732800626680255,-0.1050730703681707,-0.0129016358405351,-0.0452903546392917,-0.0226299129426479
1783197544031870700,4.57387060546875,-1.2975029860258105,0.5616385152924805,-0.0410164855211973,0.0971548184752464,0.4282370805740356,0.0140934735536575
1783197544041808000,4.583807861328125,2.2944211432382464,-1.1055000394191592,0.1559767436534166,0.0469353236258029,-0.1789974868297577,0.0132921282202005
1783197544051745800,4.593745849609375,2.4035148474246264,-0.1194235759503208,-0.5931108543336391,-0.1664307117462158,-0.291015088558197,0.0081708393990993
1783197544061683000,4.603682861328125,-0.5507385702893137,-1.4923611028678714,0.906044000327587,-0.074258454144001,-0.1716892421245575,-0.0046506840735673
1783197544071620900,4.613620849609375,-2.869302221137285,0.6921519510611891,-0.7110907525479793,0.1148753762245178,0.3105895519256592,0.0024391985498368
1783197544081558000,4.62355810546875,-1.6628054939433932,0.226650426818896,-0.1206476561188697,0.0536322630941867,0.1619787365198135,-0.004523635841906
1783197544091496000,4.633495849609375,0.6001460867326707,-0.1122141377618536,0.2498094580829143,-0.0519027709960937,-0.1314340233802795,-0.0082492344081401
1783197544101433000,4.64343310546875,1.759840949936956,0.6030350131072104,-0.1720364825725555,-0.0265356265008449,-0.0609484054148197,0.0044825403019785
1783197544111371000,4.65337109375,0.7919571640290319,0.4733102800307795,-0.0709498514920473,0.035731267184019,0.0321055687963962,0.0082875480875372
1783197544121308000,4.663307861328125,-0.0214361712604761,0.2452354646982625,-0.0157411744892597,-0.0173591151833534,-0.048072624951601,0.0006919468287378
1783197544131245800,4.673245849609375,-0.5550137633904815,0.0833328746598213,0.0428512997329235,-0.0054393038153648,0.0084215775132179,-0.0054074255749583
1783197544141183000,4.683182861328125,-0.5989206731235608,-0.2039734799833968,-0.2248147175580263,0.0277010723948478,0.0707467347383499,-0.0003591373097151
1783197544151121000,4.693120849609375,0.0553018717115744,-0.2396778305711224,0.0062649056136608,-0.0045058876276016,-0.0215177442878484,-0.00057188491337
1783197544161058000,4.70305810546875,0.4055616722654551,-0.2552184044543653,0.0364098685085773,-0.0215336084365844,-0.0529150813817977,0.0035064797848463
1783197544170996000,4.712995849609375,-0.0246680658537894,-0.058543209986668,-0.1384405024409294,0.0035107592120766,0.0233711674809455,0.0044385860674083
1783197544180933000,4.72293310546875,-0.3714596057752147,0.0862839430177584,-0.0665969169795513,0.0118794767186045,0.0168770477175712,0.0005879215896129
1783197544190871000,4.73287109375,-0.2046233221942558,0.0784326997944153,-0.0236959328860044,-0.0061156237497925,0.0039838855154812,-0.0021586113143712
1783197544200808000,4.742807861328125,0.1371814788231626,0.0663030303332023,-0.0576964021652936,0.0090438872575759,0.0064118895679712,0.0020550421904772
1783197544210745900,4.752745849609375,0.3244190741915255,0.1057075506131164,-0.1165063185304403,0.0009220149368047,-0.0087220221757888,-0.0012414935044944
1783197544220682800,4.762682861328125,0.2349037115044891,0.0802012438368983,0.0219949741870164,-0.0037821931764483,-0.0195898506790399,-0.00010432372801
1783197544230620000,4.772619873046875,-0.0224053085535764,0.0412877950095571,-0.0683569123893976,0.0006299372762441,0.0079138465225696,0.0009316343348473
1783197544240557800,4.782557861328125,-0.2343606906689703,-0.0163049823844805,-0.080519643869996,0.0015204977244138,0.0048594670370221,0.0006080602761358
1783197544250495000,4.792494873046875,-0.1988950442079454,-0.0698367939499206,-0.0346019423037767,0.0018666386604309,0.0018248944543302,-0.0019722648430615
1783197544260433000,4.802432861328125,-0.0159701609395444,-0.0593518960210494,-0.0416489382058382,0.0046805338934063,0.0067522749304771,-0.0004412136040627
1783197544270370000,4.8123701171875,0.1263082026312127,-0.0488021892276592,-0.0705196433812379,-0.0020308373495936,-0.0061536687426269,0.0016495084855705
1783197544280308000,4.822307861328125,0.1257362844947725,0.0382374857945367,-0.0263368027836084,-0.0036814641207456,-0.0077656800858676,-0.001675980631262
1783197544290244900,4.832244873046875,-0.0250182675309479,0.1421412201223895,-0.0359895972698926,0.0105238119140267,0.0311275925487279,-0.0008362471126019
1783197544300182800,4.842182861328125,0.098308106277883,-0.0165214746793732,-0.0490600912451744,-0.0027310065925121,-0.0215659793466329,-0.0027039218693971
1783197544310120000,4.852119873046875,0.093374997257255,0.0251774584143422,-0.0403097985565662,-0.0083072315901517,-0.0050963945686817,-0.002005694899708
1783197544320057900,4.862057861328125,0.0189391668129712,0.0473471133148297,-0.0260901345461606,0.0103173181414604,0.010984038002789,-0.0061999070458114
1783197544329995000,4.8719951171875,0.0198316586732864,0.0427113432729616,-0.0558703557819128,-0.0020758574828505,-0.0018299254588782,-0.0093185678124427
1783197544339933000,4.881932861328125,0.0830622044922783,0.020396434682887,0.0194540575325489,-0.0014076698571443,-0.0145683567970991,-0.0104831680655479
1783197544349870000,4.8918701171875,0.0901695157468319,0.0184727183450013,-0.0675923577576875,0.0034093242138624,-0.0048757125623524,-0.0110874641686677
1783197544359808000,4.90180810546875,0.0087357527066022,-0.0494422772294841,-0.0715706137388944,0.0008217971771955,-0.0198280289769172,-0.0081875473260879
1783197544369745000,4.911744873046875,-0.1936026368882507,-0.1417780310994945,-0.0985585739076137,-0.0001880433410406,-0.0104558411985635,0.0001686234027147
1783197544379683000,4.92168310546875,-0.3774209618650376,-0.1837916013666428,-0.1171416938245296,0.0021997466683387,0.0144713465124368,0.0030096834525465
1783197544389619700,4.93161962890625,-0.3068027900127694,-0.1275169573664665,-0.1315799690216779,0.0005620848387479,0.0108435917645692,0.0008827727288007
1783197544399558000,4.941557861328125,-0.0837691471852362,-0.0870284960410557,-0.0684989512085914,-0.0001633604988455,0.010437992401421,0.0045131933875381
1783197544409494800,4.951494873046875,0.156382036518678,-0.025757559857238,-0.0386000720292329,-5.30397519469e-05,-0.0002546687610447,0.0070113879628479
1783197544419433000,4.961432861328125,0.2376500145379453,0.067389419064112,-0.0602934329211711,-0.0056605916470289,-0.0071397386491298,0.0020528486929833
1783197544429369900,4.971369873046875,0.100637426008284,0.1134480269383639,-0.0298708221286535,-0.0016186442226171,-0.000207389704883,0.0020311034750193
1783197544439308000,4.98130810546875,-0.0322799290969967,0.0011543576668947,-0.0161386493742465,0.0011329343542456,-0.009008870460093,-0.0019489909755066
1783197544449245000,4.991244873046875,-0.0982575451344251,0.0850702929116785,-0.0894061301589012,-0.0017988076433539,0.0120966099202632,-0.0005105934105813
1783197544459183000,5.00118310546875,-0.0832275511218234,-0.0805106020470149,0.0112958855181932,0.0023221680894494,-0.0043396218679845,-0.0011556108947843
1783197544469120300,5.011120361328125,-0.006695771311596,0.0878172535322606,-0.0916536168247461,0.0038239248096942,0.0141264703124761,-0.0050515495240688
1783197544479057200,5.02105712890625,0.1316645785652101,-0.0195853009630925,-0.0175900172263383,-0.0008046496659517,-0.0031851413659751,-0.0024674842134118
1783197544488995000,5.0309951171875,0.1806256298827007,-0.0217370539031922,-0.056474166893959,-0.0003978377208113,-0.0086211878806352,-0.0020754816941916
1783197544498932200,5.04093212890625,0.1040652815651148,0.0022431575505994,-0.0558452213406562,-0.002344075590372,-0.0066539118997752,-0.0042121359147131
1783197544508870100,5.0508701171875,-0.0782031105559319,-0.0183692031715996,-0.0458095650166273,0.0005691358819603,-0.0043953512795269,-0.0021982146427035
1783197544518807300,5.060807373046875,-0.1957737338496372,-0.0141815056907944,-0.0591331569701433,-0.0011217053979635,0.0087990146130323,0.0009749417658895
1783197544528745200,5.0707451171875,-0.1515366788467392,-0.0494681423231028,-0.0479302104324102,0.0005814572796225,0.0007492448203265,-0.0015140604227781
1783197544538682000,5.08068212890625,-0.077962287537381,-0.0355043345035985,-0.0774018041104078,0.0005058236420154,0.0005684164352715,-0.00046530761756
1783197544548620300,5.090620361328125,-0.0443099010434001,-0.0584242597821168,-0.0501911411017179,0.001459295861423,0.0021121827885508,0.0020318219903856
1783197544558557200,5.10055712890625,0.0118807362014427,-0.0197498073424212,-0.0739946260154247,-0.0009540608152747,0.0028075340669602,0.0016936005558818
1783197544568495400,5.110495361328125,0.0729781059166416,-0.0262832094328477,-0.0443745637774467,-0.0026234723627567,-0.0054147080518305,-0.0008297297172248
1783197544578432000,5.120431884765625,0.0845569730946794,0.0213357978922314,-0.060808396705985,-0.0031542405486106,-0.0092299524694681,-0.0017485201824456
1783197544588370200,5.1303701171875,0.005772153660655,0.0778713030519895,-0.0422416434019803,-0.0008167000487446,0.0023347665555775,0.0032177958637475
1783197544598307000,5.14030712890625,-0.0070206924170255,0.0302990757443942,-0.060172436890006,0.0011820020154118,0.0012165051884949,0.0024308315478265
1783197544608245200,5.150245361328125,-0.0154188837323337,-0.0006732048201374,-0.0287327580094337,0.0009543551132082,-0.0087031098082661,-0.0005216263234615
1783197544618182100,5.16018212890625,-0.0397842768451198,0.0213310851844958,-0.0683779551774263,0.0039908913895487,0.0143580008298158,0.0007148792501538
1783197544628120000,5.1701201171875,-0.0043755847357213,-0.055509650977049,-0.0219961432307958,0.0016453899443149,-0.00678590266034,-0.0038669630885124
1783197544638057200,5.18005712890625,0.0051763431919738,0.0230823310323059,-0.0795902540653944,0.0025242334231734,0.0052143009379506,0.0009973004925996
1783197544647995100,5.1899951171875,-0.0094540935764089,-0.0479262283770367,-0.0285685073584318,0.0006813015788793,-0.0014212960377335,-0.0020048420410603
1783197544657932300,5.199932373046875,-0.0207039114631712,0.0389325371203012,-0.0575935263127088,-0.001496098935604,0.0004426506347954,-0.0006940341554582
1783197544667870200,5.2098701171875,-0.0180393318964168,0.0384109609316103,-0.0594008679956197,0.0009736493229866,0.0016405144706368,-0.0024309838190674
1783197544677807000,5.21980712890625,-0.0052643137363716,0.0302147219291888,-0.0442833783626556,0.0005225101485848,-0.0002926741726696,-0.0005896743386983
1783197544687745000,5.2297451171875,0.0007039470182731,0.0474874716335907,-0.0517646740287542,0.0031354716047644,0.0027421922422945,-0.0004519647918641
1783197544697682200,5.23968212890625,-0.0098472941450774,0.0072556519503705,-0.0588099163651466,0.0002035973593592,0.0041667171753942,-0.0010184191633015
1783197544707620000,5.2496201171875,-0.0119933662630617,-0.0082844835414551,-0.0673380907356739,0.0044565163552761,-0.0009960564784705,0.0001183943822979
1783197544717557200,5.25955712890625,-0.0067902081293985,-0.0144357909791171,-0.0592564910888671,-0.0001214575022459,0.0035933689214289,-0.0015098622534424
1783197544727495200,5.2694951171875,0.0034079818125814,-0.0138433049786835,-0.0495505051106214,0.0002607749775052,0.0035527909640222,-0.0004304952453821
1783197544737432300,5.279432373046875,0.0188443646689876,-0.0018731917270459,-0.0546451979011297,0.0016195196658372,0.0007740487344563,9.7609590739e-05
1783197544747370200,5.289370361328125,0.0245840773647651,0.0030752061942592,-0.0437187302172183,0.000543107278645,-0.0038963728584349,-0.0009039302822202
1783197544757307400,5.299307373046875,0.0231876180376857,0.0150663074349984,-0.0618102672249078,0.0015140958130359,-0.0016654427163302,0.001137648941949
1783197544767245000,5.3092451171875,0.0242034440167248,0.0059173342850059,-0.0407049353539943,0.0007444014772772,-0.0028978888876736,-0.0017515275394544
1783197544777182200,5.31918212890625,0.0012058686584234,0.0004834178690798,-0.0598451046317815,0.000201117247343,-0.0028097382746636,0.0003377222456037
1783197544787119000,5.329119140625,-0.020014504426904,-0.0093606248729862,-0.0565507392615079,-0.0009252680465579,0.0019471012055873,0.0006499732844531
1783197544797057000,5.33905712890625,-0.0277865997331216,-0.0101632647590711,-0.0495183564066886,-0.0002339119091629,-0.000752811320126,4.80988528579e-05
1783197544806994200,5.348994140625,-0.0238920765126124,-0.0058431365376338,-0.0590951630473136,0.0007189055904746,-0.0002375175245106,-0.0026161633431911
1783197544816932000,5.35893212890625,-0.0258458409288898,-0.0135187857320532,-0.0532575429350137,0.0005082497373223,-0.0019123791716992,0.0010792389512062
1783197544826869200,5.368869140625,-0.0292060746096074,-0.0075971405981108,-0.0545972671061754,0.0014884369447827,-0.000163918826729,-0.0018503669416531
1783197544836807200,5.37880712890625,-0.0203195883207023,0.0113610414425842,-0.0572936665832996,0.0015289168804883,0.0020640818402171,-0.0011515533551573
1783197544846744000,5.388744140625,-0.0088914547249674,0.0069887446424923,-0.0481681108415126,0.0016441270709037,-0.0013259886763989,0.0002087263856083
1783197544856682000,5.398681884765625,0.0106081224497407,8.6308310274e-05,-0.0469563969641923,0.0013296082615852,-0.0004386235959827,0.0008351020514965
1783197544866619100,5.408619140625,0.0151714848425239,0.0092783351507037,-0.0562280831784009,6.38356432318e-05,-0.001310069579631,0.0002464565914124
1783197544876557000,5.41855712890625,0.0116170072313398,-0.0017725808967836,-0.0481418073564767,0.0008686427026987,-0.0028302017599344,0.0002938606776297
1783197544886494200,5.428494140625,0.0065614774074405,-0.0166599515683017,-0.0502326421558856,0.0018474999815225,0.0003315964713692,2.39540822803e-05
1783197544896432000,5.43843212890625,-0.0033622064420953,-0.0211240913703106,-0.0554722963750362,0.0011095376685261,0.0013507883995771,-0.0006349119357764
1783197544906369300,5.448369384765625,-0.0188599640969187,-0.0170611527803353,-0.0580167201608419,0.0031185587868094,0.0017797974869608,-0.0001981896348297
1783197544916307200,5.45830712890625,-0.0202133879998698,0.0062392597157508,-0.0583136572808027,0.001598160713911,0.0020056338980793,-0.0002746223472058
1783197544926244400,5.468244384765625,-0.0071100146682932,-0.0077499748059548,-0.0548649781316518,-1.098960638e-06,-0.001017231028527,-0.0007843691855669
1783197544936182300,5.478182373046875,-2.47691150754e-05,0.0079416066542267,-0.0514209751576185,0.0009270124137401,-0.0007365341298282,0.000873981276527
1783197544946119200,5.488119140625,0.0111877489686012,0.0076808550924994,-0.0412403574049472,-0.0003812881186604,-0.0021953112445771,-0.0011120371054857
1783197544956057000,5.49805712890625,0.0071096128094941,0.0099807477990165,-0.0539519549399614,0.0016773361712694,-8.47564078867e-05,-0.0013594445772469
1783197544965994200,5.507994140625,-0.0063723115108907,0.0161140446559526,-0.0609860913604497,-0.0028114859014749,0.0006196228787302,0.000120171578601
1783197544975932200,5.51793212890625,-0.007038191541098,0.0294023643666878,-0.0544061284482479,0.0006586117669939,-0.0007425840012729,0.0009782419074326
1783197544985869000,5.527869140625,-0.0071842124156653,0.0197208917751908,-0.0588940875172615,0.0013484228402376,-0.0007504457607865,-0.0013425138313323
1783197544995807200,5.53780712890625,-0.0090872330253943,0.0259286421078257,-0.0455722491294145,0.0017103468999266,0.0006818021647632,-0.0003222569357603
1783197545005744000,5.547744140625,-0.0147261522278189,0.0188365466887131,-0.0520101732224225,0.0003394316881895,0.0031668650917708,0.0018402286805212
1783197545015682300,5.557682373046875,-0.0132857806937769,0.0024508089519105,-0.0529091678887605,0.0008835149928927,7.9195946455e-05,0.0005560526624321
1783197545025619200,5.567619140625,-0.0224633223511278,-0.0003859123113565,-0.0613005641371011,-0.0017899507656693,0.0009067077189683,0.0010276404209434
1783197545035557400,5.577557373046875,-0.0114039855351671,0.0003394976200535,-0.0482914449602365,0.0006495043635368,0.0014396063052117,0.0017786519601941
1783197545045494000,5.587493896484375,-0.0003436258058995,-0.0018440569641068,-0.0459054266065359,0.0019123759120702,-9.46410000324e-05,0.0004801286850124
1783197545055432200,5.59743212890625,-0.0039003684394061,0.0089697075929492,-0.0524865585625171,0.0004971716552972,0.0005285390652716,-0.0029681324958801
1783197545065369000,5.607369140625,0.002765994114615,0.0063294039509259,-0.0484399135202169,0.0019003478810191,-0.000787662807852,0.0031322550494223
1783197545075307000,5.61730712890625,0.0082116557672619,0.0022331293469294,-0.0605588058590889,0.0006513260304927,0.0022446122020483,-0.0003215984907001
1783197545085244200,5.627244140625,-0.0054424102496355,-0.0123017380924895,-0.0488981786817312,0.000819400884211,0.0034620107617229,0.0006137897726148
1783197545095182000,5.63718212890625,-0.0074983198661357,-0.0196275509359315,-0.051897360497713,-0.0014144582673907,0.0020294962450861,0.0005725107621401
1783197545105119200,5.647119140625,-0.0118206035120412,-0.0186398733391426,-0.0701700992912054,0.0020792428404092,0.0031836768612265,0.0019654599018394
1783197545115057200,5.65705712890625,-0.0013929156631231,-0.0271480643675662,-0.0514677369087934,-0.0007895147427916,0.0011407658457756,0.0019175228662788
1783197545124994300,5.666994384765625,0.0022446371216326,-0.0145859035069122,-0.0546077885001897,0.0007123397663235,-0.0024796361103653,-0.0029633322264999
1783197545134932200,5.67693212890625,-0.0067890756182372,0.0020051475436426,-0.0469751016646623,-0.0012291045859456,-0.0010282131843268,0.0014239593874663
1783197545144869000,5.686869140625,-0.0115958183128386,0.002185837872792,-0.0566933626025915,0.0010456461459398,-0.0028435890562832,0.0022432871628552
1783197545154807000,5.69680712890625,-0.0094352062128484,0.0028188020140863,-0.0539952095597982,0.0013007773086428,-0.0017908415757119,0.0023942885454744
1783197545164744200,5.706744140625,-0.0120308121966198,-0.0015263875833712,-0.04964636670053,0.0018922248855233,-0.0010176948271691,0.0004683907609432
1783197545174682000,5.71668212890625,-0.0135797586716711,0.0017231522644869,-0.0562263296127319,-0.0004564169794321,0.0008214842528104,-0.0001236300449818
1783197545184619300,5.726619384765625,-0.0234473284197971,-0.0066891223751008,-0.0572790535360574,-0.0013440949842333,0.0004774401895701,0.0015445288736373
1783197545194557200,5.73655712890625,-0.0131872522227466,-0.006548837121576,-0.0500999556869268,-0.0010551419109106,0.0008161943405866,-0.0007228862959891
1783197545204494300,5.746494384765625,-0.0104145726390182,-0.0101142745181918,-0.0547422285348176,0.0011682957410812,-0.0003072922118008,-0.0008495848160237
1783197545214431200,5.75643115234375,-0.0082004037208855,0.0012221439397893,-0.0547328761845827,-0.0004383893683552,-0.0004734736867249,0.0004644189029932
1783197545224369400,5.766369384765625,-0.0051849648898467,0.0102312702276743,-0.055487493944168,1.31037086248e-05,0.0005505797453224,0.0019787217024713
1783197545234306000,5.77630615234375,-0.0090398502197116,0.0100211894072592,-0.0569791938066482,0.0007436089217662,4.08506020903e-05,-0.0008940298575907
1783197545244244200,5.786244140625,-0.0143528619360178,0.0008618409937247,-0.049793666216731,-0.0010531628504395,0.0012119691818952,1.1972151696e-06
1783197545254181000,5.79618115234375,-0.0094263653192669,-0.0095620839955285,-0.0512929648637771,-0.0012358557432889,0.0003355229273438,0.0028273437637835
1783197545264119000,5.806119140625,-0.0020037410378456,0.0011279263176955,-0.0520341386198997,0.0020996984094381,-0.0018108915537595,0.0027848929166793
1783197545274056200,5.81605615234375,0.0033518677111715,-0.0012887063699774,-0.0423065253317356,0.0013510845601558,-0.0003661266528069,0.0015004505403339
1783197545283994000,5.825994140625,-0.0050132615847513,-0.006049089172203,-0.0367681804269552,0.0003096591681241,0.0018011974170804,0.0015276947524398
1783197545293931300,5.83593115234375,-0.0002876213023439,0.0039847770535387,-0.0346767611056566,-0.001192363910377,0.001996939536184,-0.0019437356386333
1783197545303869200,5.845869140625,0.0016628186456859,0.0040400326384231,-0.0411135161548852,-0.0022113770246505,0.0008571906946599,-0.0002136523835361
1783197545313806000,5.85580615234375,-0.0042612376410514,-0.0001831014819443,-0.0481435609221458,-0.0011349273845553,-0.0003388347104191,0.0024822656996548
1783197545323744000,5.865743896484375,-0.0061906348010525,-0.0053489780788309,-0.0361702145338058,-0.0003358172252774,-0.0005089789628982,-0.000499699730426
1783197545333681200,5.87568115234375,0.0013281798638403,-0.0108423695970326,-0.0373638082325458,-0.0001597823575139,-0.0027447026222944,-0.0022270260378718
1783197545343619000,5.885619140625,-0.0073293930400162,-0.0060239912635646,-0.0393073435157537,-0.0012344745919108,0.000734138302505,0.0025442265905439
1783197545353556200,5.89555615234375,-0.0121585302295163,-0.0015516498887911,-0.0363210211813449,-0.0033333115279674,-0.0002712048590183,0.0005327407270669
1783197545363494100,5.905494140625,0.001538461613655,-0.0007869125939905,-0.0330360081613063,0.0011364361271262,0.001833114773035,0.0012158663012087
1783197545373431300,5.915431396484375,-0.0107175011083483,-0.0007001476259902,-0.0391769951343536,0.0011300453916192,-0.0019704117439687,-0.0013468933757394
1783197545383369200,5.925369140625,-0.0046816915428265,-0.0022622093109413,-0.0360416197180748,-0.002246762625873,0.0016576214693486,0.0010318967979401
1783197545393306400,5.935306396484375,-0.0001914674514904,-0.0029499358467757,-0.0239233119010925,-0.0008845562115311,-6.01173378527e-05,-0.001424603164196
1783197545403244300,5.945244384765625,0.0055751697838306,0.0052852651928551,-0.0324596695780754,-0.0030362419784069,0.0004992284812033,-0.0022281056735664
1783197545413181200,5.95518115234375,0.0061471244528889,0.009432648929581,-0.0302180281311273,-0.0005738828331232,-0.0006693666800856,0.0003367846366018
1783197545423119000,5.965119140625,0.0006816986538469,0.0059984366971999,-0.0212356802523136,-6.52372837066e-05,-0.0019054124131798,-0.0006696376949548
1783197545433056000,5.975055908203125,-0.0013944500330835,0.0001313895610161,-0.0312608151823282,-0.0002135755494236,-0.0009394837543368,-0.0004970650188624
1783197545442994200,5.984994140625,-0.0013444734115153,-0.002629800514318,-0.0237742588192224,-0.0007868977263569,-0.0010938635095953,0.0007952731102705
1783197545452931000,5.99493115234375,-0.0058899348214268,-0.0021864406609907,-0.0302069222152233,-9.44761559367e-05,-0.0005085007287561,0.0026432406157255
1783197545462869200,6.004869140625,0.0007732493948191,-0.007384758222755,-0.0183837979525327,-0.0008731000125408,0.0029074535705149,-0.001596413552761
1783197545472806000,6.014805908203125,-0.0086613722961395,-0.0013798004532232,-0.0227320562899112,0.0017687557265162,-0.0008433423936367,0.0017679578159004
1783197545482744000,6.024744140625,-0.0124203595034778,0.0031619346296414,-0.0282680631071329,-0.0016067214310169,-0.0004290849901735,-0.0005962026771157
1783197545492681000,6.034680908203125,-0.007880012660101,0.0024417123300023,-0.0179600195825099,-0.0003893906250596,-0.0006043212488293,0.0012003658339381
1783197545502619100,6.044619140625,-0.0055027986673638,0.0012024163260124,-0.0272311212748289,0.0004303753376007,-0.001074946951121,0.0004252712242305
1783197545512556000,6.05455615234375,-0.0051135801540687,0.0030636070880107,-0.0308072261959314,0.0008655358105897,-0.0017612432129681,-0.0010527831036597
1783197545522494000,6.064493896484375,-0.018087226158753,0.0018523316021077,-0.0233282686173915,0.0008918978273868,0.0025027464143931,-8.90176743268e-05
1783197545532431000,6.07443115234375,-0.0064881199102848,0.0065667381044477,-0.0218342306673526,0.0008322428911924,0.0012446693144738,0.0011605373583734
1783197545542368000,6.084367919921875,-0.0003984247330576,0.0128424391067586,-0.0242272632837295,-0.0003625126555562,0.0008268463425338,-0.0017334227450191
1783197545552306000,6.094305908203125,-0.0022796719023957,-7.19875239767e-05,-0.0279658652901649,-0.0010336292907595,0.000456400681287,0.0005467755254358
1783197545562243000,6.1042431640625,-0.0087439360130578,-0.0027419008529745,-0.0246662392228841,0.0002483800053596,-0.0005808719433844,-0.0009587071835994
1783197545572181000,6.114180908203125,-0.0108837975859642,-0.000403082641866,-0.0243710556685924,0.0017213746905326,0.0030133302789181,0.0001486353576183
1783197545582118100,6.1241181640625,-0.0048063773684203,-0.0073835709126666,-0.0294523044556379,0.0005924236029386,-0.0015547233633697,0.0007411579135805
1783197545592056000,6.13405615234375,-0.0076279741277918,-0.0034315453512594,-0.0159855046391487,-0.0038372110575437,-0.0021752398461103,0.0012069449294358
1783197545601993000,6.143992919921875,-0.002924728340283,0.0069723049643449,-0.0180862763106822,-0.0033958246931433,9.58926975727e-05,0.000591219170019
1783197545611931100,6.15393115234375,-0.0081708853654563,0.0048636970462277,-0.018245266264677,0.0001986445859074,0.0005355803295969,0.0009531427640467
1783197545621868000,6.163867919921875,0.0053875747898593,0.0103526498513296,-0.0230260708004236,0.0015904875472187,-0.0020663528703153,-0.0010670232586562
1783197545631806200,6.17380615234375,-0.002003887168318,-0.0006721088415943,-0.0207698163062334,-0.0010726740583777,-0.0020791352726519,-0.0016459944890812
1783197545641742800,6.183742919921875,-0.0037325375918298,0.0026050131329335,-0.0078980597734451,-0.0007624803110957,-0.0003363057039678,-0.0001740611623972
1783197545651681000,6.193680908203125,0.0035419103905558,0.0023778715798631,-0.0227086754143238,-0.000208543613553,0.0001286822371184,-0.0024441396817564
1783197545661618000,6.203617919921875,8.68380332365e-05,0.0003796104347333,-0.0155278239995241,0.0014253230765461,0.0001784348860383,0.0014173442032188
1783197545671556000,6.21355615234375,-0.0024296382997184,0.0006685103787109,-0.0055009355038404,-0.0017246641218662,0.0005893604829907,-0.0004229000769555
1783197545681493000,6.223492919921875,0.0018275076881051,-0.0057965574495494,-0.0150835873633623,0.000964636914432,0.0014653354883193,-0.0001752420794218
1783197545691431200,6.23343115234375,-0.0015258943930268,-0.0045779937063343,-0.0171849435567855,-0.0041619483381509,0.0014277850277721,-0.0019190799212083
1783197545701368000,6.2433681640625,-0.0062247197337448,0.0032382147362455,-0.0203296713232994,0.0008205706253647,-0.0008787368424236,0.0009633121080696
1783197545711306000,6.253305908203125,-0.0040731311904266,0.0070696461252868,-0.0222732066065073,-0.0025469977408647,0.0021085310727357,-0.0003925031051039
1783197545721243100,6.2632431640625,-0.0041642070073634,0.0078735098540782,-0.0142003747880458,-0.0009075300768017,-0.0005175219848752,-8.23212321847e-05
1783197545731180000,6.273179931640625,0.0018997692067176,-0.0049412009955383,-0.0146434423804283,-0.0003376137465238,0.0014092749916017,-0.0022147144190967
1783197545741118000,6.283117919921875,0.015896218920499,-0.013460844999738,-0.0080547116398811,-0.001212797127664,-0.0030008587054908,0.0005317993927747
1783197545751055000,6.29305517578125,-0.0001601589977741,0.0010763787935487,-0.0134387427657842,-0.0007925499230623,-0.004951091017574,0.000678006792441
1783197545760993000,6.302992919921875,-0.0203526138074696,0.0143684248313307,-0.0060895490467548,-0.001913908869028,-0.0016223122365772,-0.0006223460659384
1783197545770930200,6.31293017578125,-0.0442102400612086,0.0090641992096789,-0.0155225633025169,-9.60351899266e-05,0.0022025196813046,-0.0011781477369368
1783197545780868000,6.3228681640625,-0.0225760985432192,0.0088252758872695,-0.0086444942265748,-0.0020164316520094,1.89556740224e-05,0.0018663955852389
1783197545790805000,6.332804931640625,-0.0050587812269106,0.000226666629035,-0.0074485624402761,-0.0007815239951014,-0.0002367077395319,-8.25058668851e-05
1783197545800743200,6.3427431640625,-0.0064404813762754,0.0033477395253255,-0.0059551090121269,-0.0004651332274079,2.07675620913e-05,0.0009653822053223
1783197545810680000,6.35268017578125,-0.0180607034780085,-0.0030515330577269,-0.0159767368108034,0.001192950643599,-0.0011142715811729,0.0006295575294643
1783197545820618200,6.3626181640625,-0.0242911588327959,0.0080518255630508,-0.011035188755393,0.0002127978950738,0.0003605694510042,0.0008475198410451
1783197545830555000,6.372554931640625,-0.0269973490515723,0.0078605225083418,-0.0053466217249631,0.0006895037367939,-0.001101772300899,-0.0003421143628656
1783197545840493000,6.3824931640625,-0.0209765178594738,0.0180673889471217,-0.0152285487920045,-0.0003512157127261,0.0010724742896854,-0.0006189956329762
1783197545850430000,6.392429931640625,-0.0189545835778117,0.0130321895251981,-0.0093956048548221,0.0037164967507123,0.0033715812023729,-0.0011630794033408
1783197545860367000,6.4023671875,-0.0124624450795352,0.0176923998885788,-0.0005763385832309,0.0005900552496314,0.0027727941051125,-0.0016045693773776
1783197545870305000,6.412304931640625,-0.004376534583792,0.0230966152859851,-0.0046329204976558,0.0001943102106451,0.0028436342254281,-0.0013707438483834
1783197545880242200,6.4222421875,0.0018592910658568,0.018159652074147,-0.0048024318456649,0.0002884408459067,0.0015962277539074,-0.0001210065092891
1783197545890180000,6.43218017578125,0.0037973464563488,0.0119401565047912,-0.0077940148770809,0.0002658041194081,-0.0008645327761769,-0.0001332571264356
1783197545900117200,6.4421171875,0.0004362725254148,0.003162135559041,-0.0149789579451084,0.0003128116950392,0.0021036812104284,0.0016029644757509
1783197545910055200,6.45205517578125,-0.00122271019537,-0.0205778921970166,-0.0021183073282241,-0.0003798762336373,0.0024954322725534,-0.0001065188553184
1783197545919992000,6.461991943359375,-0.0060152782341465,-0.0353711365779861,-0.0133528180480003,-0.0001760981976985,-0.0003357916139066,-2.74002086371e-05
1783197545929930000,6.471929931640625,-0.0042753392316401,-0.0376221303751692,-0.0160498020470142,-0.0014578774571418,0.0016964664682745,0.0023100562393665
1783197545939867100,6.4818671875,-0.0009929930927231,-0.0389978939740918,-0.0090180037140846,-0.0005237413570284,0.0001032431609928,0.0014464575797319
1783197545949804000,6.491803955078125,-0.0028713907178491,-0.0215965677202679,-0.0088724577635526,-0.0004832614213228,0.0041544437408447,0.0010461844503879
1783197545959742000,6.501741943359375,-0.0018313801456242,-0.0063001047912053,-0.00438274512887,0.0008588200435042,-0.0029537673108279,0.0039052192587405
1783197545969679000,6.51167919921875,-0.0018173516202718,0.0090970237670466,-0.0007873509854078,-0.0009246990084648,0.0012031611986458,0.0028942835051566
1783197545979617000,6.521616943359375,0.0026829920062795,0.0046455242509022,-0.0010848726272583,-0.0011484716087579,0.0011418662033975,0.0002243989147245
1783197545989554000,6.531553955078125,0.0047098581913858,0.0094384576158598,-0.0039233109235763,0.0006414391100406,-0.0013194270431995,0.0006393194198608
1783197545999491800,6.541491943359375,0.0051617666773498,-0.0060218906380236,-0.0048100306302309,0.0027325758710503,0.0009511816315352,0.0008229515515267
1783197546009429000,6.551428955078125,0.0123493400938808,-0.0096472963272593,-0.0145247844368219,0.0005040429532527,-0.0002046301960945,0.0024642581120133
1783197546019367000,6.561366943359375,0.0153101991934701,-0.0047215668954886,-0.0052408232629299,-0.0005809441208839,-5.2447430789e-06,-0.0007637462113052
1783197546029304000,6.571303955078125,0.0039977643992751,0.0008899893759749,-0.0007587094128131,-0.0018685823306441,0.0023034496698528,-0.0011938468087464
1783197546039241000,6.581240966796875,0.0052971565600484,-6.58135115168e-05,-0.0089928692728281,0.0003735683858394,0.0007463218644261,0.0021346134599298
1783197546049179100,6.59117919921875,0.0043542862193658,0.0031761275517754,0.0007300678402185,-0.0002554701641201,0.0008115693926811,0.0014584369491785
1783197546059116000,6.601115966796875,0.0057651393979787,0.0050328978669829,-0.0001753565669059,0.0006861286237835,0.0006541074253618,-0.0012584652286022
1783197546069054200,6.61105419921875,-0.0004849705053493,0.0041673122799023,0.002670680513978,0.0001396480947732,0.000345712993294,0.0001064050011336
1783197546078990800,6.620990966796875,-0.0046331396933645,-0.0111927904698997,-0.0015156652599573,0.0014104377478361,-0.0007081506773829,-0.0001946571283042
1783197546088929000,6.630928955078125,-0.0062719929415732,-0.0141744183628819,-0.0003138882547616,0.0015148343518376,0.0010346216149628,0.0019060443155467
1783197546098866000,6.640865966796875,-0.0042060733877122,-0.0097986692303791,-0.0062953007519245,-0.0005429349839687,-0.0028972155414521,0.0015008922200649
1783197546108803000,6.650802978515625,-0.0073673869628459,-0.0096961221713572,-0.0128816934049129,-0.0010159127414226,0.0001198793761432,0.0010478885378688
1783197546118741000,6.660740966796875,-0.0044915392655879,-0.0053520468187518,-0.011242109504342,0.0001582084223628,0.0019011483527719,0.0020746630616486
1783197546128678100,6.67067822265625,-0.0159396562034264,-0.0095285653184168,-0.0057131169497966,0.001651176251471,0.0009280294179916,0.0015092743560671
1783197546138616000,6.680615966796875,-0.010688969133608,-0.0204074675335548,-0.0031762919485569,-0.0007623024284839,0.0025108566042035,0.00300183147192
1783197546148553200,6.69055322265625,-0.0085576196607202,-0.0102922796999104,-0.0030260698229074,-0.0002879928797483,-0.0013765594922006,-0.0036371629685163
1783197546158489900,6.70048974609375,-0.0117646720737218,-0.0179036862853914,0.0026619126856327,-0.0009090472012758,-0.0006018388085067,0.0010715932585299
1783197546168428000,6.710427978515625,-0.008028335089609,-0.0176240656264126,0.0073000938802957,-0.0012784274294972,-0.0017440686933696,0.0023871948942542
1783197546178365000,6.720364990234375,-0.0197526020877063,-0.0100045487997122,-0.0085480481147766,8.06571915745e-05,-0.0010023545473814,0.0005008256994187
1783197546188303000,6.73030322265625,-0.0181972624044865,-0.0084656305283308,0.0014823475122451,-0.0003877924755215,-0.0012582843191921,-0.0028590185102075
1783197546198240000,6.740239990234375,-0.0232941471520811,0.0012339805080555,-0.0007546177595853,-0.000171017833054,-0.0008323155343532,-0.00058851740323
1783197546208178000,6.750177978515625,-0.0117222211714833,0.000188910168223,-0.0058399581998586,0.0006734700873494,-0.0004775826819241,0.0011345481034368
1783197546218115000,6.760114990234375,-0.0071772712182253,0.0014865122307091,-0.0037356793969869,0.002512770704925,0.0014678612351417,7.23665580153e-05
1783197546228052200,6.77005224609375,-0.0046539267530664,0.002429145109374,-0.000589198064804,-0.000212974846363,-0.0018736068159341,0.0002193730324506
1783197546237990100,6.779990234375,-0.0012723580233752,0.0090513214617967,-0.0013350479960441,-0.0011754855513572,-0.0002695606090128,0.0011367334518581
1783197546247927000,6.789927001953125,-0.0105038583576679,0.0091236012467183,-0.0019330138891935,-0.0008172905072569,0.0008556246757507,0.000790522666648
1783197546257865000,6.799864990234375,-0.0099101667808368,0.010610296140518,0.0037526305317878,0.0017012851312756,-0.0002994281239807,0.0023278598673641
1783197546267802000,6.809802001953125,-0.0073507646216079,0.001731152907852,-0.0079109192550182,-0.0019821329042315,-0.0020270203240215,-0.0008655365090817
1783197546277740000,6.819739990234375,0.0116388537369668,0.0008976794920861,0.0024199206233024,3.1285919249e-05,-0.0015369919128715,0.0007914977613836
1783197546287677000,6.829677001953125,0.0029352132016792,0.0032173728776164,0.005861585509777,0.001820663921535,-0.0005987603217363,0.000792829087004
1783197546297614000,6.839614013671875,0.0012887977015227,0.0078251589340157,0.0034667993277311,0.0004714718088507,-0.0005684732459485,-0.0023138758260756
1783197546307552000,6.849552001953125,-0.001936995944567,0.0180874453544616,0.0006295300751924,0.0006791977211833,-0.0001588789746165,-0.000697337090969
1783197546317489200,6.8594892578125,0.000627666911669,0.02722145839734,-0.0049058922201395,-0.0018756557255983,-0.0006359862163662,0.0003346898593008
1783197546327427000,6.869427001953125,-0.0020082710824906,0.0312254698743112,-0.0052063364714384,-0.0012724502012133,-0.0007861885242164,0.0008388264104723
1783197546337364000,6.879364013671875,0.001120491929911,0.0249202505165711,-0.0023521160840988,0.0009062960743904,-0.0024289595894515,-0.0014119266998022
1783197546347301000,6.889301025390625,-0.0071135217996314,0.0181614604387432,0.0057271454751491,-5.3038820624e-06,0.0013532619923353,-0.0024913058150559
1783197546357239000,6.899239013671875,-0.0036229032048955,0.0065769855038262,0.0130558809280395,-9.08346846699e-05,0.0036720144562423,-0.0003903652541339
1783197546367176000,6.909176025390625,-0.0024430457705631,0.0116129703770391,0.0055634793460369,0.0013592569157481,0.002782518742606,-0.0020604336168617
1783197546377114000,6.919114013671875,-0.0054041971310973,-0.001910674193222,0.0028653263032436,0.0008724564686417,4.49586659669e-05,-0.0022071660496294
1783197546387051000,6.929051025390625,0.013483020298928,-0.0048828036054968,0.0003238251268863,0.0012008240446448,-0.0002075089141726,0.0023047616705298
1783197546396988200,6.93898828125,0.0087091204280033,0.0167810937299393,-0.0022159224838018,0.0025691576302051,0.0012638284824788,0.0017917880322784
1783197546406926000,6.948926025390625,0.0004215864129364,0.025609200895112,0.0009264671951532,0.0011009573936462,0.0014529130421578,-0.001335828565061
1783197546416863000,6.958863037109375,0.0151422952806577,0.025048461739812,-0.0047638534009456,0.0011095972731709,1.60122290253e-05,0.0006306949071586
1783197546426801000,6.96880078125,0.0102075422922149,0.0225042571497149,-0.0056616790235042,-0.0001538069918751,0.0019750334322452,0.0005742358043789
1783197546436738000,6.978738037109375,0.0021778920283541,0.0074652761130593,0.0009188684105873,0.0028399331495165,-0.0016066660173237,-0.0035943835973739
1783197546446675000,6.988675048828125,-0.0031238676415756,-0.0003269303994253,0.004667991811037,0.0010039499029517,0.0007217358797788,-0.0003498545847833
1783197546456613000,6.998613037109375,-0.0091878438556566,-0.0003682305241934,0.0025759879678487,-0.0029760096222162,-0.0024692369624972,0.0004155542701482
1783197546466550000,7.008550048828125,-0.0195603674512356,-0.0056551214185543,0.0001899696141481,0.0018456447869539,0.0008890093304216,0.0010219560936093
1783197546476488700,7.01848876953125,-0.0184364779878407,-0.0054151751828379,0.0042284313499927,0.0009097503498196,0.0011074687354266,0.0015349006280303
1783197546486425600,7.028425537109375,-0.0041853228606283,-0.0114939105746336,0.0097685298204421,-0.0007733674719929,-0.0007005515508353,-0.0015711442101746
1783197546496362800,7.03836279296875,-0.0025606442682445,8.67467016912e-05,0.0046808512926101,0.0016544619575142,0.0008170893415808,0.0012486483901739
1783197546506300700,7.04830078125,-0.0049705914868041,0.0097572047088295,0.0001847089171409,0.0003322027623653,0.0011100373230874,-0.0022222492843866
1783197546516237800,7.05823779296875,-0.0007162585105746,0.0094780955065041,0.0085638302057981,0.0033877938985824,0.0009966203942894,0.0010773201938718
1783197546526175700,7.06817578125,-0.0022143881138414,0.0063924775160849,0.0030237317353487,0.0008503347635269,0.0026584330480545,0.0008924969006329
1783197546536113000,7.07811279296875,-0.0108529275236651,-0.0101163020784966,0.0049649289309978,0.0004916973412036,0.0009694159962236,0.0006888932548463
1783197546546049500,7.088049560546875,-0.0153646693270653,-0.0169674283485859,0.0037795185387134,-1.59004703164e-05,-0.0025563426315784,-0.0018512295791879
1783197546555987700,7.09798779296875,-0.0062987348180264,-0.0153753551178611,0.0048345805495977,0.0009235329926013,0.0028184347320348,-0.0005036303773522
1783197546565924600,7.107924560546875,-0.0117804541647434,-0.0188026444191113,0.0105243166238069,0.0004036836326122,-6.97635114192e-05,0.0007549794390797
1783197546575861800,7.11786181640625,-0.0089334672357887,-0.0323116394095122,-0.00518470916152,0.00074062962085,0.0012731691822409,-0.0002647661603987
1783197546585799700,7.127799560546875,-0.0100465430442243,-0.0243105393867008,-0.0065250178545713,-0.0004487382248044,-0.0008269995450973,-0.0019582700915634
1783197546595736800,7.13773681640625,-0.0094247578840702,-0.0219974401387386,0.0108270989626646,0.0009318934753537,0.0038625982124358,-0.0019020730396732
1783197546605674800,7.1476748046875,-0.0043079993922263,-0.0164796630979515,0.00214461081326,-0.001302764751017,-0.0001124357804656,0.0015611015260219
1783197546615611600,7.157611572265625,0.0019015593050047,-0.0144116429185494,0.0030459435671567,-6.85816630721e-05,0.0014414596371352,0.0018478212878108
1783197546625548500,7.167548583984375,-0.0105616529595106,-0.0031543906440027,-0.0006967500925064,0.0008952161297202,-0.0018965462222695,-4.59528528153e-05
1783197546635486700,7.17748681640625,-0.0077343571117147,-0.0023170995696447,0.0058972413450479,-0.0004338594153523,-0.001117771025747,-0.0019252288620918
1783197546645423600,7.187423583984375,0.0089906042505055,-0.0064803932615555,0.0053057051926851,-0.0009931232780218,0.0002023577690124,0.0007166268769651
1783197546655360800,7.19736083984375,0.0013448022050783,-0.0129252037530764,0.0062152212530374,-0.0015606814995408,-0.0036782450042665,0.0006680095102638
1783197546665298700,7.207298583984375,-0.0053484118232503,-0.0128528691692277,0.0060831193059682,-0.0016088848933577,-0.0001487578265368,-0.000635341508314
1783197546675235800,7.21723583984375,-0.0119753191497176,-0.0021191475784406,0.0072936641395092,-7.32680782675e-05,-0.0019455305300652,0.0034804795868694
1783197546685173800,7.227173828125,-0.0199510107366368,0.0021715718854218,-0.0021370120286941,-0.0004152180626988,-0.0001020901836454,0.0001147766597568
1783197546695110700,7.237110595703125,-0.0112152945626527,0.0059511086904443,-0.0097644381672143,-0.0002548145130276,0.0007622800767421,0.0021579123567789
1783197546705047600,7.247047607421875,-0.0031873978644609,0.0065441244138404,0.0050549453020095,0.0007601156830787,-0.0007099150680005,0.000738181406632
1783197546714985700,7.25698583984375,0.0028743498599156,0.0109486064504832,0.0083493106722831,-0.0010023182258009,-0.0001276959665119,0.0016732418444007
1783197546724922600,7.266922607421875,0.0031752325026318,-0.0008144216554239,0.0116308165609836,0.0008629597723484,0.0002997415140271,0.0005754868034273
1783197546734859800,7.27685986328125,-0.0017830109592527,0.0165865027396008,0.0046095396220684,0.0027280636131763,-0.0006661443039774,-0.0007787670474499
1783197546744797700,7.286797607421875,-0.0012967252796515,0.0309229615300893,-0.0045130935102701,0.0007224371656775,-0.000150023959577,-0.001402213005349
1783197546754734800,7.29673486328125,0.0013058219015598,0.0401740068150684,0.0023725743502378,0.0003933580592274,-0.0013376581482589,0.0017747359815984
1783197546764672800,7.3066728515625,0.0064484454870223,0.0425737431668676,0.0074637600094079,-0.0006434107199311,-0.0015626950189471,0.0025510473642498
1783197546774609700,7.316609619140625,0.0096126086063683,0.0471253420566208,0.0103179803967475,0.0016427151858806,-0.0008394885808229,0.0001529478468
1783197546784546600,7.326546630859375,0.0061970280092209,0.0393947112719528,0.0010433715730905,0.0018794704228639,0.0014785267412662,-0.0008017953950911
1783197546794484700,7.336484619140625,0.0003205371912568,0.0322006898483261,0.0070177698075771,0.0004683462902903,0.000946145504713,0.001127237221226
1783197546804421600,7.346421630859375,0.0036977220067754,0.0293812302471138,0.0052104281246662,0.0032745199277997,0.0021581503096967,0.0020058138761669
1783197546814358800,7.35635888671875,0.0039127529969438,0.0199041759202256,0.0117839612960815,0.0013891831040382,0.0008650054223835,-0.0017882179236039
1783197546824296700,7.366296630859375,0.0017935688858851,0.0058523062247782,0.0066951137244701,0.0001609325408935,-0.0008407495915889,-0.0017509337048977
1783197546834233900,7.37623388671875,0.0021741291686892,0.0071323908968828,-0.0004933364748954,0.0002009533345699,-0.0004006936214864,0.0002939684782177
1783197546844170500,7.38617041015625,0.0054890989355742,0.0086261548522859,0.0013040683358907,-0.0002421969547867,-0.0019999216310679,0.0003344484139233
1783197546854108700,7.396108642578125,-0.0025228695411235,-0.0029514884830452,0.0075993690878152,0.0001006731763482,-0.0037694657221436,-1.8429942429e-05
1783197546864045600,7.406045654296875,0.0017327420767396,0.0042679048438556,0.0017681787163019,0.00127406232059,0.0008902675472199,-0.0008352214936167
1783197546873983700,7.415983642578125,0.0021990809468552,-0.0006138758483342,0.0155412680029869,0.0040960414335131,-0.0010767285712063,0.0012638573534786
1783197546883920600,7.425920654296875,0.0001799231441691,-0.0040335480987094,0.013903437668085,0.0010176934301853,-0.0006828466430306,-0.0019764108583331
1783197546893857800,7.43585791015625,0.0028142902357503,-0.0076722516609355,0.010311550655961,0.0019851783290505,-0.0015123947523534,-0.0019585224799811
1783197546903795700,7.445795654296875,0.0022290011610835,-0.002236088488996,0.0028314240336418,-9.28863883018e-05,-0.000890546478331,0.0009445890318602
1783197546913732900,7.45573291015625,0.0016457944456487,-0.0138150652648881,0.0112193131506443,-0.0010026842355728,-0.0024673929437994,-0.0012643130030483
1783197546923669500,7.46566943359375,-0.0189359519425779,-0.0068346865919418,-0.0077823244392871,-0.0013206657022237,0.0008282684721052,-0.0013455394655466
1783197546933607700,7.475607666015625,-0.0171563019841909,-0.0123050990933552,0.006741875475645,-0.00068343244493,-0.0003806753084063,0.0011199996806681
1783197546943544600,7.485544677734375,-0.0090981197455897,-0.0153603584781289,0.0007703998506069,0.0010928958654403,-0.0008539194241166,-0.0006848243065178
1783197546953481700,7.495481689453125,-0.0178897673578932,-0.02292259215964,0.0085591540306806,0.0040778927505016,-0.0003745290450751,0.0003312407061457
1783197546963419600,7.505419677734375,-0.0116110524145886,-0.0239236954935826,0.0030319150418043,-0.0027105044573545,-0.0005308566614985,-0.0013721170835196
1783197546973356800,7.515356689453125,-0.0171132665600627,-0.0234695585179142,0.0112684129893779,0.0008365614339709,-0.002095638308674,-0.0020065619610249
1783197546983293700,7.525293701171875,-0.0153909728121012,-0.0102593820773065,0.0004915829092264,-0.0004175212234258,0.0018279966898262,0.004198869690299
1783197546993232000,7.53523193359375,-0.0062923050772398,-0.0048829862685874,0.0027343933999538,0.0001044990494847,-9.96608287096e-05,-0.0001083314418792
1783197547003168500,7.54516845703125,0.0043316725287586,-0.0077052588813938,0.00676993252635,0.0009492533281445,0.0030567178037017,-0.0016154141630977
1783197547013105700,7.555105712890625,-0.0065396309018135,-0.0130299245028756,0.0058767830789089,-0.0003982419148087,-0.0019787601195275,-0.0005586007609963
1783197547023043600,7.565043701171875,-0.0180396241573616,-0.0088574245912022,0.0126151514232158,0.0004521058872342,0.0011635036207735,0.0016630080062896
1783197547032980700,7.574980712890625,-0.0187656734095886,-0.0061635641310364,0.0028898762226104,-0.0013394020497798,-0.0015757926739752,-0.000759843038395
1783197547042917600,7.584917724609375,-0.0073118939159438,-0.016455916896183,0.0025958617120981,-0.0003497712314128,-0.002454103436321,-0.0009393400978296
1783197547052855800,7.594855712890625,0.0098410470673814,-0.0141701623128727,0.0061900868117809,-0.0004143565893173,0.0005788444541394,-4.41460870206e-05
1783197547062792700,7.604792724609375,0.0025961539730429,-0.0025559315605089,0.0072527476072311,0.000911365263164,-0.0027762060053646,0.0013745198957622
1783197547072729600,7.6147294921875,0.0003653992462903,0.0036202545900829,0.0045697921335697,0.0016257986426353,0.0001305150799453,-0.000785349169746
1783197547082667500,7.62466748046875,0.0031167803136631,0.0078236245640553,0.0104097503334283,-0.0009470805525779,-0.0011195726692676,-0.001071905484423
1783197547092604700,7.634604736328125,-0.0032918446196243,0.0167883637209422,0.0045662850022315,0.0021870918571949,0.0007178313098847,-0.0018709971336647
1783197547102541600,7.64454150390625,-0.003619615269266,0.0214207362293265,0.0053203182399272,0.004739997908473,-0.0013258787803351,0.0008891029283404
1783197547112479700,7.654479736328125,-0.0022498978186398,0.0230288655457086,0.0045756373524665,-0.0009484039619565,0.0021383587736636,-0.0008118250407278
1783197547122416600,7.664416748046875,0.0110673374593257,0.0083619144255295,0.0030792613148689,-0.0008565252646803,-0.0019128420390188,-0.0004951751325279
1783197547132354800,7.674354736328125,0.0158408720040693,0.0108649832876399,0.0026408698976039,0.0017438316717743,-0.0004252777434885,-0.0001261229626834
1783197547142291700,7.684291748046875,0.01308170948904,0.0068461030350998,0.0129711252540349,0.0012785773724317,-0.0026833717711269,0.0004443258512765
1783197547152228600,7.694228515625,0.0166291728375479,0.0154634535264223,0.0010047931283712,0.0011263703927397,-0.0001939851790666,-0.0027324752882122
1783197547162166500,7.70416650390625,0.0162548596324399,0.0383034089039079,0.0134311439812183,4.19318675994e-05,-0.0001857294701039,-0.0023718832526355
1783197547172103700,7.714103759765625,0.0233854421647265,0.0357520439206622,0.0102940149992704,0.0008521759882569,-0.0009099734015762,-0.0003942756447941
1783197547182040600,7.72404052734375,0.015262670257315,0.0418247696967795,0.0005792611926794,0.0038040233775973,1.60075724124e-05,-0.0017239918233826
1783197547191978800,7.733978759765625,0.0062477718157693,0.0422014392557553,0.0038712884753942,0.0006801495328545,-0.0013832347467541,-0.0002184591721743
1783197547201915600,7.74391552734375,-0.0042712110457941,0.0255086265974678,0.0007400047123432,0.0029108133167028,-0.0006950739771127,-0.0027404725551605
1783197547211852800,7.753852783203125,-0.0168796039346605,0.0125797878488898,0.0014963760375976,0.0023541515693068,0.0016842018812894,0.0019341283477842
1783197547221789700,7.763789794921875,-0.005240165675804,0.0165174926239997,0.0029909985095262,0.0025709327310323,-0.0006657713092863,-0.0008866919670253
1783197547231727600,7.7737275390625,-0.0006313932387158,0.0054478901423513,0.0073322425842285,0.0031703561544418,-0.0005263118073344,6.65786210447e-05
1783197547241664800,7.783664794921875,-0.0024568916328251,0.001829571781028,0.0083931498140096,0.0041024629026651,-0.0003047371283173,0.0015986955258995
1783197547251602700,7.793602783203125,0.0064619260231032,0.0015938633290119,0.007053425642848,0.003155524842441,-0.0004091127775609,-0.0011942801065742
1783197547261539600,7.80353955078125,-0.006796966663748,-0.0013311390059068,0.0079512512654066,0.001527801156044,0.0002649333328008,-0.0016725839814171
1783197547271476700,7.813476806640625,-0.0148659625573083,-0.0202436552739702,0.0075052610635757,0.0010625608265399,0.0001933621242642,-0.0006850271020084
1783197547281413600,7.82341357421875,-0.008126425169222,-0.0154947985127568,0.007504676541686,-0.0015734359622001,0.0011268001981079,-0.0008109947666525
1783197547291351600,7.8333515625,-0.006060870941542,-0.0185538207571953,-0.004179331511259,-0.0002794787287712,0.0008922177366912,-0.0003785891458392
