time,seconds_elapsed,ax,ay,az,gx,gy,gz
1783206734522565600,0.103565673828125,0.0050260845337063,0.0124603992529213,-0.0741933634579181,-0.0005768025293946,0.0038238922134041,0.0021325314883142
1783206734532502500,0.11350244140625,0.0033301308033987,0.0091829119522124,0.0045236149042844,-0.0013067750260233,0.0015215897001326,-0.0002669764216989
1783206734542439700,0.123439697265625,0.0061900502791628,0.0115920919857919,-0.0180839382231235,0.0003388952463865,0.0033939215354621,-0.0002728579565882
1783206734552376800,0.133376953125,-0.0042525063453242,0.0042126492589712,-0.0559545269340276,0.0033282935619354,-0.0011054892092943,-0.0019407956860959
1783206734562313500,0.1433134765625,0.0014737258143723,0.0168620682779699,-0.0441436776310205,-0.0005727168172597,0.0064120353199541,0.0033161353785544
1783206734572250600,0.153250732421875,-0.0025564795497804,0.0108623164065182,-0.0145148475646972,-0.0017016306519508,0.0001765103079378,-0.0007603650446981
1783206734582187800,0.163187744140625,-0.0023937267361208,0.0013585019368678,-0.0386012410730123,-0.0001153293997049,0.0035717482678592,-0.0009401822462677
1783206734592123600,0.17312353515625,-0.0046258331697434,0.0100542148940265,-0.0582335777819156,0.0018897643312811,0.0025091469287872,-0.0039942953735589
1783206734602060500,0.183060546875,0.0024367986928671,0.0121338707122951,-0.0398667309641838,0.0004742834717035,0.00907270796597,-0.0002755450550466
1783206734611997700,0.192997802734375,0.0064328825917094,0.0137485393673181,-0.040977907076478,0.0059715802781283,0.01042106654495,-0.0032859824132174
1783206734621934600,0.2029345703125,0.0094158073926344,0.0092507895566523,-0.0475046784967184,0.0057637495920062,0.0124281402677297,-0.0022792243398725
1783206734631871700,0.212871826171875,-0.0005046981191262,0.0120363286219537,-0.0378857862800359,0.0073813535273075,0.0150220589712262,-0.0034028119407594
1783206734641808400,0.222808349609375,-0.0175770481469109,0.0155121149737387,-0.0489291583418846,0.0067853452637791,0.0156178930774331,-0.0057338513433933
1783206734651745500,0.23274560546875,-0.0164127901405096,0.0138835639238357,-0.0508498972713947,0.0106759574264287,0.0183801241219043,-0.0077986000105738
1783206734661682700,0.2426826171875,-0.003863945419155,0.0147246909230947,-0.0522001428365707,0.0143466889858245,0.0128386840224266,-0.0065566105768084
1783206734671619600,0.25261962890625,0.0200219205483794,0.021575141339749,-0.0520563504517078,0.0128462640568614,0.0153279406949877,-0.0073438407853245
1783206734681556700,0.262556640625,0.0032717882122844,0.0260244488988071,-0.0344037893831729,0.0134752951562404,0.0185500755906105,-0.0077584367245435
1783206734691492600,0.27249267578125,-0.0028877207981422,0.0299368000369519,-0.0379945073515176,0.0122020374983549,0.0142823597416281,-0.0053370906971395
1783206734701429500,0.282429443359375,0.0058576765196397,0.027499416822195,-0.0508534044027328,0.0100824926048517,0.0129230711609125,-0.0070581836625933
1783206734711366700,0.29236669921875,-0.0255666221287101,0.0788864166449755,-0.0313911635637283,0.0099085886031389,0.0166797265410423,-0.008341827429831
1783206734721303800,0.3023037109375,-0.02612042008657,0.034566359533742,-0.0347732072174549,0.0067034089006483,0.0032150608021765,-0.0055807698518037
1783206734731240400,0.312240478515625,0.0296930544089525,-0.04619381509386,-0.0465068996310234,0.00475690420717,0.0079293884336948,-0.0004451302811503
1783206734741177600,0.322177490234375,0.0446818030957132,-0.0443909303903579,-0.0125631289750337,0.0001976983621716,0.0013974290341138,-0.0029304448980838
1783206734751114500,0.332114501953125,-0.0177901794409379,0.0347360900774598,-0.0413350499510765,0.0076897027902305,0.0105730835348367,-0.0056652450002729
1783206734761051600,0.3420517578125,-0.035154826946184,0.0514925060238689,-0.0758259330958127,0.0090043954551219,-0.0087788878008723,-0.0030375439673662
1783206734770988800,0.35198876953125,0.058000828471966,-0.0650297407280653,-0.0584878448039293,0.0052895518019795,-0.0015172464773058,-0.00056559802033
1783206734780925400,0.361925537109375,0.0637705709798261,-0.0320588336922228,0.0023953707039356,-0.0009261593222618,-0.0013216803781688,-1.02289486676e-05
1783206734790861600,0.371861572265625,-0.0005445186728611,-0.0117131610821932,-0.0195820678263902,0.0032752435654401,0.0053492719307541,-0.0026137351524084
1783206734800798700,0.381798828125,-0.101046372135356,0.0852331553231924,-0.0845849936127662,0.0072758458554744,-0.004577865358442,0.0005898659583181
1783206734810735600,0.391735595703125,-0.0421870636705309,-0.0139908236905932,-0.0510907202899456,-0.0001895269379019,0.0065882364287972,0.0018330297898501
1783206734820672500,0.401672607421875,-0.032746852489002,0.0343817967470735,-0.0419791930735111,-0.00349888112396,-0.0001993314363062,0.0004730108194053
1783206734830609700,0.411609619140625,0.032082141502574,-0.039600992700085,-0.0421048652797937,0.0018029389902949,0.0016989698633551,-0.0024479441344738
1783206734840546600,0.421546630859375,0.0077339917855337,0.0082810677416622,-0.0529074143230915,0.0029478883370757,0.0015860167331993,0.000507531221956
1783206734850483700,0.431483642578125,-0.0105863490093499,0.0118418289631605,-0.0448386741578578,-0.0002276645973324,-0.0004944447427988,0.0014596115797758
1783206734860420600,0.441420654296875,-0.0034216084791347,0.0064441346380859,-0.0520271243572235,-0.0014007855206727,0.0023874035105109,0.0011026265565305
1783206734870357500,0.451357421875,-0.0069828080920502,0.0285788095567375,-0.0360141471892595,0.0021073967218399,-0.003555973060429,0.0014933121856302
1783206734880294700,0.461294677734375,0.0036838030792772,0.0064124243255704,-0.0620528438091278,-5.45587390661e-05,1.50180421769e-05,0.0001743698958307
1783206734890230500,0.47123046875,-0.0127297907788306,-0.0002555821962654,-0.057843117159605,-0.0066448170691728,-0.0024585258215665,0.0009735845960676
1783206734900167700,0.481167724609375,-0.0330319165080785,0.022729206745699,-0.0452443323493003,-0.0028810761868953,0.0007469905540347,-0.0027159368619322
1783206734910104600,0.4911044921875,-0.0342785555683076,0.0390595792997628,-0.0428425319045782,-0.0005223145708441,0.0012663067318499,0.0021754913032054
1783206734920041500,0.50104150390625,-0.0185472083533182,0.0334985111065208,-0.0543617047846317,-0.0027677882462739,-0.0014997264370322,0.0003584781661629
1783206734929978600,0.510978515625,0.0133254185844212,0.0163157595068216,-0.0531441456884145,-0.0021113185212016,0.000623345375061,0.0008418415673077
1783206734939915800,0.520915771484375,0.0322281989097595,0.0001792290244251,-0.03606909224689,-0.0021708104759454,0.0016418127343058,-0.0019785074982792
1783206734949852700,0.530852783203125,0.0304353972088545,0.009507175470516,-0.0469914682775735,-0.0005731806159019,0.0011893417686223,4.36308328062e-05
1783206734959789600,0.54078955078125,0.0079871262963861,0.0129277245037257,-0.0640659371972084,0.0015361988916993,3.33357602357e-05,-0.0005308769177645
1783206734969726500,0.5507265625,-0.0015587006840854,-0.0034922990951687,-0.0515156677037477,0.0040672672912478,0.0017987452447414,-0.0004797440487891
1783206734979663600,0.56066357421875,0.0048526641955599,0.0013690233308821,-0.044638767671585,-0.0012103682383894,0.0009223781526088,-0.0014198587741702
1783206734989600800,0.570600830078125,0.0075199471760541,0.0061122723352164,-0.0603600684165954,0.0020525371655821,0.0024947086349129,0.0018169472459703
1783206734999536600,0.58053662109375,0.0031286899471655,0.0115035369195044,-0.057686465293169,0.0011741193011403,0.0009997244924306,0.0009275339543819
1783206735009473500,0.5904736328125,0.0065941741006448,0.0193337921537458,-0.0582826776206493,-0.0026893280446529,0.000600516796112,-6.1297789216e-05
1783206735019410700,0.60041064453125,0.010402370744571,0.024684213270992,-0.0525976177215576,-0.0024695172905921,-0.0002488209865987,0.0014497791416943
1783206735029347600,0.61034765625,0.0079498630259186,0.0210927646502852,-0.051563598498702,0.0005113584920763,0.0001519843935966,0.0042540878057479
1783206735039284700,0.62028466796875,0.0050240021744742,0.0181501353271305,-0.0508224247425794,0.000219696201384,0.0022492222487926,0.0002691594418138
1783206735049221600,0.6302216796875,-0.0034453181482851,0.0206857912845909,-0.0566553686797618,-0.0009749978780746,-5.28139062225e-05,0.0006808841135352
1783206735059158500,0.640158447265625,-0.0005810147583484,0.0108444884888827,-0.0415437242656946,-0.0009210128337144,-0.001159475184977,0.0010451998095959
1783206735069095700,0.650095703125,0.0073472574902698,0.0022836539577692,-0.0446773461163043,0.0004310738295316,0.0001398813910782,0.0004590379539877
1783206735079032600,0.660032470703125,0.0025339023917913,0.0008865005109459,-0.0541021770656108,-0.0014584735035896,0.0011468268930912,-8.56148544698e-05
1783206735088969700,0.6699697265625,0.000857420546934,0.0193147221270948,-0.0445393989503383,0.0011943010613322,-5.13289123773e-05,-0.0011269107926636
1783206735098906600,0.67990673828125,0.0002829451272264,0.00958827788271,-0.0535164861321449,-0.0019044177606701,-0.000446377787739,-0.0011776199098676
1783206735108842500,0.689842529296875,0.0089912618376314,0.0139859283197671,-0.0479834019243717,0.0032144440338015,-0.0014139045961201,-0.0007882656063884
1783206735118779600,0.699779541015625,0.0063256593575701,0.0061551616288721,-0.046798576053977,0.0008017858490347,0.0009678578935563,0.000124278711155
1783206735128716800,0.709716796875,0.0028849443191662,0.0029688597429543,-0.0442629200965166,0.0007208259776234,0.0002413475885987,-0.0015164948999881
1783206735138653400,0.7196533203125,0.0010952113581821,0.0171516258090734,-0.0542857169389724,0.0016634277999401,-0.0015457463450729,-0.0002835325431078
1783206735148590600,0.729590576171875,-0.0081119217198342,0.0139277683917433,-0.0559340686678886,0.0013803346082568,0.0004731956869363,-0.0005208200309425
1783206735158527500,0.739527587890625,-0.0067481956185773,0.0190897542648017,-0.0574351208806037,0.0029141223058104,-0.0005485224537551,-0.000949646346271
1783206735168464600,0.749464599609375,0.002362235619314,0.0103961601994931,-0.0590922404378652,-0.000857712700963,0.0004413747228682,-0.0016407365910708
1783206735178401800,0.75940185546875,0.0091130250537768,0.0133729109879583,-0.0513093314766883,0.0008597001433372,-0.0006064837798476,-0.0013356208801269
1783206735188338400,0.76933837890625,0.0010308043524622,0.0150556764431297,-0.0553524693876504,0.0022237710654735,0.001967994030565,-0.0010309552308171
1783206735198275600,0.779275634765625,-0.0081633596461266,0.0078659110695123,-0.0573112022399902,0.0017051994800567,0.000823956914246,-0.0009542154148221
1783206735208212700,0.789212646484375,-0.0107544355852529,0.0226393365051597,-0.0541793339550495,0.0015568621456623,0.0018993415869772,-0.0003214483149349
1783206735218149600,0.799149658203125,-0.0050018268752843,0.0055584378447383,-0.0546475359886884,0.000826796516776,0.0035823131911456,-0.0005597514100372
1783206735228085500,0.80908544921875,-0.0001484685599803,0.0075024115193635,-0.0625818361192941,4.8354268074e-05,0.0003111525438725,0.000453581335023
1783206735238022700,0.819022705078125,0.0059665071889758,0.0024301497563719,-0.0497147557616233,-0.0006645852699875,-0.0018090158700942,-0.000711990520358
1783206735247959600,0.82895947265625,0.0030225992241874,0.0072098583135753,-0.0525549476236104,-9.7136944532e-06,-0.0007253750227391,-0.0023961733095347
1783206735257896700,0.838896728515625,0.0020896657556295,0.0173939101323485,-0.050761634466052,0.0009403144940733,-0.0003770785406231,0.000824584858492
1783206735267833600,0.84883349609375,-0.0031508652463555,0.0178814013883471,-0.0492798714756965,0.0021259542554616,0.0007939133793115,-0.0003898167051374
1783206735277770500,0.8587705078125,-0.0028822043728083,0.0066913143321871,-0.0581184269696474,-0.0012138420715928,0.0024953172542154,0.0003450370859354
1783206735287707600,0.868707763671875,-0.0001174523672088,0.0074302230659872,-0.0518424154400825,-0.0011203652247786,0.0004713148809969,0.0012459845747798
1783206735297644500,0.87864453125,-0.0009351984908804,0.0095204733435064,-0.0421235699802637,0.0031545320525765,-0.0004972601309418,0.00416075065732
1783206735307581700,0.888581787109375,-0.0068334992818534,0.0137914286609739,-0.0588981791704893,-0.0024524880573153,0.001161356922239,-0.0020095272921025
1783206735317518600,0.8985185546875,-0.0006855711113661,0.0230384918905794,-0.0579974309384822,0.0007912218570709,0.001661795657128,0.0001554933842271
1783206735327455500,0.90845556640625,0.0019694734420627,0.0224789583116769,-0.0581517447173595,0.0008231792598962,0.001096140127629,0.0010484512895345
1783206735337392600,0.918392578125,0.0006495499499142,0.0105419984109699,-0.047397126469016,0.0010212073102593,0.0011710873804986,-0.0004308542702347
1783206735347328800,0.928328857421875,0.0046003334023058,0.014838453495875,-0.0536935962647199,0.0012284005060791,0.001310636755079,0.000601120525971
1783206735357265700,0.938265625,0.0003244827140122,0.0158860628526657,-0.0568394930750131,-0.0007115881890058,0.0018761651590466,4.62774187326e-05
1783206735367202600,0.94820263671875,-0.0020251491520553,0.0139007342543452,-0.0544464604586362,0.000192554667592,0.0010388670489192,0.0006750496104359
1783206735377139500,0.958139404296875,-0.0071506389396265,0.0175627638932317,-0.0577455020040273,0.0003114594146609,0.0033493002410978,0.0010679373517632
1783206735387076600,0.96807666015625,-0.001371397951059,0.0170105368379503,-0.0577577769637107,0.0008510155603289,0.0013995999470353,-0.0010042681824415
1783206735397013800,0.978013671875,0.0061677288495004,0.0168944361776113,-0.060308630490303,-0.0006702756509184,-0.0019921218045055,0.0005319633055478
1783206735406950700,0.98795068359375,-0.0006736980104818,0.0109931031793355,-0.0547650248885154,-0.0002079512923955,0.0019797165878117,0.0017250592354685
1783206735416887600,0.997887451171875,-0.0023985490417107,0.0246886702504009,-0.0564022707015275,-0.0019538514316082,-0.001557960640639,3.58433462679e-05
1783206735426824400,1.007824462890625,0.0089726302023977,0.0041680063996464,-0.0558025512427091,0.000266958028078,-0.0006559477187693,0.0014329375699162
1783206735436761600,1.01776171875,-0.0004734627306461,0.0075385788112878,-0.0535644169270992,-0.0007654950022697,0.001727360766381,0.0015726049896329
1783206735446698800,1.02769873046875,-0.0012233312498778,0.0101528529629111,-0.0583586654663085,-0.0012121070176362,2.87964940071e-05,0.002171283820644
1783206735456635600,1.0376357421875,-0.0063851344598457,0.0196071292024105,-0.051779871597886,-0.0008794581517577,-0.0003385781310498,0.0001997414510697
1783206735466572500,1.047572509765625,-0.0024366525623947,0.0169023272231221,-0.0519148961544036,-0.0007881112396717,0.0010510594584047,0.0003792385105043
1783206735476509700,1.057509765625,0.001949490099959,0.0143845722485333,-0.0544587354183197,0.0003750203177332,-6.0997903347e-05,-0.0012300945818424
1783206735486446600,1.067446533203125,0.0013551409360021,0.0115519791711121,-0.0471270773559808,0.0019020764157176,0.0027875192463397,-0.0016764402389526
1783206735496382700,1.0773828125,0.0078667147871106,0.0153900960292667,-0.0492389549434185,0.0018364116549491,0.0001274268142879,0.0011419751681387
1783206735506319600,1.087319580078125,-0.0036969548217952,0.0155924136683344,-0.0555114593416452,0.0021631810814142,-0.001016667112708,-0.0007254334632307
1783206735516256500,1.097256591796875,-0.0057155281025916,0.0118601683374494,-0.0631517449617385,0.0022684847936034,-0.0004538246430456,0.0002396460622549
1783206735526194200,1.107194091796875,0.0002532806413248,0.0025835867524147,-0.0501291817814111,0.0003206487745046,0.0025265191216021,-0.0013840831816196
1783206735536130800,1.117130859375,-0.0044753187831491,0.0054386108573526,-0.0516302339941263,0.0004910407587885,7.50902108848e-05,0.0008387113921344
1783206735546068000,1.12706787109375,-0.0007947305742651,0.0132033265747129,-0.0448977108687162,0.0016098339110612,0.001126772724092,-0.001010587438941
1783206735556005000,1.137005126953125,-0.0056289457976818,0.0185337278172373,-0.0534422518521547,-0.0021746000275015,0.0052597406320273,0.0002644832711666
1783206735565942000,1.14694189453125,-0.0032621070684865,0.013388400818035,-0.0573299069404602,-9.46717336773e-05,-0.0015270593576133,-0.0021629880648106
1783206735575879200,1.156879150390625,-0.0023617972278967,0.0144827719260007,-0.0550713143587112,-0.0022145714610815,-0.0019235420040786,-0.0014569428749382
1783206735585815800,1.16681591796875,0.0060018707633018,0.0151786452356725,-0.0501122306466102,-0.0024406742304563,0.0016448278911411,-0.0012606680393218
1783206735595753000,1.1767529296875,-0.0066955886485055,0.0198269824981689,-0.0457610496997833,-0.0014165826141834,-0.0014189155772328,-0.0004801820032298
1783206735605690000,1.186690185546875,-0.0108848570318892,0.0155945325601845,-0.0593745645105838,0.0002204626798629,0.0013595605269074,0.0016820386517792
1783206735615627000,1.196626953125,-0.0055129912678152,0.0196036951363086,-0.0510047955721616,0.0003607543185353,0.0008112653158605,0.0009448938071727
1783206735625564200,1.206564208984375,0.002316167987883,0.0053648880340158,-0.0510007039189338,-9.33138653635e-05,0.0003585279919207,0.001418403815478
1783206735635500800,1.216500732421875,-0.0025927929721772,0.0049221857678145,-0.0490548305481672,-0.0004410045221447,0.0022857361473143,-0.000956951174885
1783206735645437000,1.22643701171875,0.0075873863890767,0.0113819563664495,-0.0498112018734216,0.0024131052196025,0.001478265505284,0.0004982000682502
1783206735655374000,1.2363740234375,-0.006508980035223,0.012742065738514,-0.0607481909513473,0.0009820880368351,-0.0027649905532598,0.0007915194146335
1783206735665311000,1.24631103515625,-0.0047550855726003,0.0140584820993244,-0.0522235237121582,0.0036843977868556,0.0005282741039991,-0.0015099842566996
1783206735675247900,1.256247802734375,-0.00143134797737,0.0133340402822941,-0.053570262145996,0.0002161869779229,4.81479801237e-05,0.0016763245221227
1783206735685185000,1.26618505859375,-0.0061507777146995,0.0190954533532261,-0.0531195957690477,0.0002976795658469,0.0034159815404564,0.0001442078500986
1783206735695122000,1.276121826171875,-0.0074877984721213,0.0093274349894374,-0.0502905098229646,0.0021386668086051,0.0007359804585576,-0.0015032009687274
1783206735705059000,1.28605908203125,-0.0056829410072416,0.0110207218386232,-0.0483487281054258,-0.0005311528220772,-0.0010936111211776,-0.0008451340254396
1783206735714996200,1.295996337890625,0.0024123949039727,0.012844284003973,-0.0606266103982925,-0.0021125711500644,0.001900487113744,0.0015744608826935
1783206735724932900,1.305932861328125,0.0076583327334374,0.0131031541358679,-0.0513455718338489,0.0025532869622111,-0.0014468403533101,0.0014098775573074
1783206735734870000,1.3158701171875,-0.0050611923797056,0.0183672852091491,-0.05643500392735,-0.0003142086789011,0.0011394512839615,0.0003764277789741
1783206735744807000,1.325806884765625,-0.0055140507137402,0.0146401544447988,-0.0521031122028827,-0.0003917068243026,0.0022896705195307,-0.0009503590408712
1783206735754744000,1.335744140625,-0.0102925536945462,0.0132511112391948,-0.0580915389627218,-0.0018530823290348,-0.0010290788486599,0.0030543599277734
1783206735764681200,1.34568115234375,-0.0043660862550139,0.0140505179885774,-0.0585340220332145,0.0007203305140137,-0.0015017897821962,-0.000513477018103
1783206735774617900,1.355617919921875,-0.0039710955880582,0.0080666943386197,-0.0531371314257383,-6.61630183458e-05,-0.0038114297203719,0.000411822926253
1783206735784555000,1.365554931640625,-0.0027191227655857,0.0137963970970362,-0.0510252538383007,-0.0005788216367363,-0.0013530659489333,0.0006278050132095
1783206735794492000,1.375491943359375,-5.98404284566e-05,0.0199276663936674,-0.0510199931412935,0.0016786642372608,-0.001262217760086,-0.0013767823111265
1783206735804429000,1.385428955078125,0.0004195405863225,0.0145464117467403,-0.0409936891674995,-0.0002428069710731,-0.0004233219660818,0.0014456356875598
1783206735814365000,1.395364990234375,-0.0064419061483815,0.0111430330440402,-0.0553553919970989,-0.0007533384487032,0.0023802143987268,0.0003899238072335
1783206735824302000,1.405302001953125,0.0079628686379641,0.0185438108198344,-0.0598369213253259,0.0019875867292284,0.0005556824617087,0.001022158190608
1783206735834239000,1.415239013671875,0.0039923941044136,0.0088963500957936,-0.0607440992981195,-0.001744027249515,0.0001552077010273,0.0009713028557598
1783206735844176100,1.425176025390625,-0.0075238561661913,0.0102590167511254,-0.0475718985140323,-0.0013051377609372,0.0028548541013151,0.0013814293779432
1783206735854113000,1.435113037109375,-0.0061608241846784,0.0158266608156263,-0.0421755924284458,-0.0032407687976956,-0.0015651932917535,-0.0045008026063442
1783206735864050000,1.4450498046875,0.0001186214109882,0.0113560912728309,-0.0529506689429283,0.001514570787549,-0.0014738463796675,0.002184797078371
1783206735873987000,1.454987060546875,0.0007335384389385,0.0111248398002237,-0.0543020835518836,-0.000125260092318,-0.0009965039789676,-0.0005267474334686
1783206735883924000,1.464924072265625,-0.0023497414639219,0.0062364101715385,-0.0614858575761318,0.0005431938916444,-0.0021270154975354,0.0008224099874496
1783206735893861000,1.474861083984375,0.0024306246804073,0.0101087215602397,-0.0595393996834754,-0.0013565244153141,0.0005188030190765,0.0005012319888919
1783206735903798000,1.484798095703125,0.0003822407832369,0.0131952163334935,-0.0595510901212692,0.0001119431108236,0.0002876408398151,-0.0012194362934678
1783206735913735000,1.49473486328125,0.0017365049364045,0.0132193278614431,-0.0460737689107656,-0.0036962917074561,0.0006062914617359,0.0021571549586951
1783206735923672000,1.504672119140625,-0.0021568492403253,0.0144447049379348,-0.052494157347083,-0.0013361973688006,-0.0003854692913591,-0.0002271733246743
1783206735933609000,1.51460888671875,0.0050929392248392,0.0139683195978403,-0.0450140307247638,-0.0007618283852934,0.0014496971853077,-0.0004687116015702
1783206735943546000,1.524546142578125,-0.0052875119488686,0.0164697079595178,-0.0498012650012969,0.0014438014477491,3.07648442685e-05,0.0002165196929126
1783206735953483000,1.53448291015625,-0.0044311873804777,0.0105696170702576,-0.0516004233777523,0.0009752353653311,0.0002972399815917,-0.0010792021639645
1783206735963420000,1.544419921875,-0.0002936857169494,0.0107379593744874,-0.055936991277337,9.71909612417e-05,-0.0004106285050511,-6.08093105256e-05
1783206735973357000,1.554357177734375,-0.00276705356054,0.0113907972600311,-0.0464887794524431,-0.002591086551547,-0.0005531064234673,0.0005010976456105
1783206735983294000,1.5642939453125,-0.0033810207404196,0.0090155925612896,-0.0520095887005329,-0.0015244903042912,-0.0004851957783102,-0.0003588367253541
1783206735993231000,1.574231201171875,-0.0020502835933119,0.0059611003614962,-0.0529097524106502,0.0015405779704451,-3.83905135095e-05,-0.0026606714818626
1783206736003168000,1.58416796875,-0.0075406977031379,0.0022963673088699,-0.06203004745543,-0.0014008833095431,-0.000934278126806,-7.20787793397e-05
1783206736013103900,1.594103759765625,-0.0040504809672012,0.0069634092718362,-0.0347960035711526,5.37391752004e-05,-0.0012786779552698,0.0002468053717166
1783206736023041000,1.604041015625,-0.0011577186677604,0.0069899319525808,-0.0445177716404199,-0.0026435106992721,0.0044702878221869,0.0007514744065701
1783206736032978200,1.613978271484375,-0.0017346417728811,0.010882701607421,-0.0590332037270069,-0.0004566684365272,0.0022366736084222,-0.0015271522570401
1783206736042915000,1.6239150390625,0.005128229733929,0.0093416096452623,-0.0392787019431591,-0.0010201940312981,-0.0013053310103714,-0.0009399252012372
1783206736052852000,1.63385205078125,-0.0003302548676729,0.0081446549456566,-0.0448112016290426,-0.0008840048685669,0.0017481027171015,0.0027889700140804
1783206736062788900,1.643788818359375,-0.0044257805529981,0.0134865274302661,-0.0537824435919523,-0.0007913270965218,-0.0037992619909346,-0.0005101538263261
1783206736072726000,1.65372607421875,0.0010062179004773,0.0132493576735258,-0.0519780245184898,-0.0011574067175388,0.0006487471982836,-0.0012031919322907
1783206736082663200,1.6636630859375,-0.0123814522651955,0.0042679596427828,-0.0563204376369714,-0.0001928089186549,-0.0009355670772492,-0.0028077464085072
1783206736092600000,1.67360009765625,-0.0123609574664384,0.0090913612112402,-0.0545265399575233,0.0018510464578866,0.0004476988688111,-0.0001018152106553
1783206736102537000,1.683536865234375,0.0031572584545239,0.0159227416012436,-0.0593242956280708,0.0005482276901602,0.000551295466721,0.0014034032355993
1783206736112473900,1.693473876953125,0.0014690131066367,0.0080767042759805,-0.046446109354496,0.0015351399779319,-0.0010915198363363,-0.0020911714527755
1783206736122411000,1.703410888671875,-0.0014803016856312,0.0019287761054933,-0.0554214429706335,0.0011505791917443,0.0007892046123743,-0.0016432277625426
1783206736132348200,1.71334814453125,-0.002243358479999,0.0160207220830023,-0.0477922632664442,-0.0012757135555148,0.0008751358836889,-0.0004866493400186
1783206736142285000,1.72328515625,-0.0018196897078305,0.0150141023237258,-0.0425543626129627,-0.0018200641497969,0.0027366853319108,-0.000740981195122
1783206736152222000,1.733221923828125,-0.0010321925919502,0.0221218885023146,-0.0464437712669372,0.0017951317131519,-0.0013899388723075,-0.0007181975524872
1783206736162158800,1.743158935546875,-0.0080236954471096,0.0246680658537894,-0.0527267970591783,0.0019208332523703,-0.0012956629507243,-0.0016026333905756
1783206736172096000,1.753095947265625,-0.006343304612115,0.0097897918041795,-0.052139937081933,0.0002542817965149,0.002818954642862,0.0025281503330916
1783206736182033200,1.763033203125,-0.0017525427557528,0.0135219640698283,-0.0623164631813764,-0.0007409416139125,0.001206676941365,-0.0020471604075282
1783206736191970000,1.772969970703125,0.0041181759085506,0.01789002308622,-0.0476525625348091,-0.0004670936614274,0.0013319528661668,-0.0008651064708828
1783206736201907000,1.782906982421875,-6.33475597947e-05,0.0112449590485543,-0.0531844776988029,-0.0005539134144783,-0.0002020276151597,-0.0013897491153329
1783206736211843800,1.79284375,-0.0103901323175057,0.0144761960547417,-0.0468950221657753,-0.0020077005028724,-0.0019346671178936,0.0010684744920581
1783206736221781000,1.802781005859375,-0.0088048724200576,0.0129319622874259,-0.0509282232046127,-0.0021227495744824,0.0012656538747251,-0.0009264992550015
1783206736231718100,1.81271826171875,-0.0043154885789379,0.0140182231541723,-0.0510690929800271,-0.0017379904165863,-0.0035637933760881,0.000422962475568
1783206736241655000,1.822655029296875,-0.001396349729225,0.012893164646998,-0.0531552516043186,-0.003280758857727,-0.0012849261984229,0.0010820948518812
1783206736251591000,1.8325908203125,-0.0063570408765226,0.0176966194059699,-0.0564379265367984,-0.0006880331784486,0.0023497170768678,-0.0004606649745255
1783206736261528000,1.842528076171875,-0.0091061203889548,0.0108941728495061,-0.0525444262295961,-0.0019205445423722,0.0020019081421196,0.0010437546297907
1783206736271465000,1.85246484375,0.0004457344735041,0.0048074733469635,-0.0502934324324131,0.0015915082767605,0.0003850753419101,0.0005994846578687
1783206736281402000,1.862402099609375,0.0005248641243204,0.0144327953044325,-0.0474567477017641,-0.0017970977351069,0.0009576547890901,0.0028602422680705
1783206736291339000,1.872339111328125,-0.0031920375069603,0.0100275460828095,-0.0516407553881406,0.0017648842185735,0.0005156341940164,-0.0008442508988082
1783206736301276000,1.88227587890625,-0.0005763385832309,0.0092293814424425,-0.047611646002531,0.0033316221088171,9.1008841991e-06,-0.0012533124536275
1783206736311213000,1.892213134765625,0.0076381667282432,0.0060660951059311,-0.04865794018507,1.07251107692e-05,9.26465727388e-05,-0.000282360939309
1783206736321150000,1.90214990234375,-0.0042982817158102,0.0108838706512004,-0.0513408956587314,-0.0007163174450397,-0.0011132326908409,0.0007552066817879
1783206736331087000,1.912087158203125,-0.0040434301719069,0.0113068453036248,-0.0466957002013921,0.0007884129881858,-5.72926364839e-05,-0.0012771803885698
1783206736341024000,1.92202392578125,-0.0040112814679741,0.0123277127839624,-0.0532704024165868,-0.0013631545007228,-0.0026339013129472,-0.0009533402044326
1783206736350961000,1.9319609375,-0.0073434215653687,0.0198645380295813,-0.0513245290458202,-0.0002395408228039,0.0001419372856616,-0.0027428362518548
1783206736360898000,1.94189794921875,-0.005754143079929,0.0089551676109433,-0.0519265865921974,0.0010896427556872,-8.62954184412e-05,0.0005632122047245
1783206736370835000,1.9518349609375,-0.0100503789691254,0.0056206894259899,-0.0410088867366313,0.0002228720113635,-0.0016943579539656,9.6238218247e-06
1783206736380772000,1.961772216796875,-0.0028917028535157,0.0123484633110463,-0.0426554848998785,-0.0009529134258627,0.0006151357665657,-0.0008873287588357
1783206736390709000,1.971708984375,-0.0043538843605667,0.0103199531581252,-0.0481955833703279,0.0008132606744766,0.0020691542886197,0.0005962960422039
1783206736400646000,1.98164599609375,-0.011001578746736,0.0153187112934887,-0.0526858805269002,7.02384859323e-05,-0.0001354105770587,0.0040743839927017
1783206736410583000,1.9915830078125,-0.0146428578585386,0.0228865161992609,-0.053286769029498,0.0021365545690059,-0.0019861841574311,-0.0019495635060593
1783206736420520200,2.001520263671875,0.0055632601503282,0.0119690355394035,-0.0465583375573158,0.0015738289803266,-0.0006247758865356,-0.0020451708696782
1783206736430457000,2.01145703125,0.0069714099152013,0.0044103637881577,-0.0434188704878091,0.0007611028850078,0.0019154036417603,-0.0006978616584092
1783206736440394000,2.02139404296875,-0.0011133315367624,0.014404226797074,-0.0495516741544008,-0.0005704769864678,-7.1325339376e-06,0.0006683401297777
1783206736450331000,2.031330810546875,-0.0057822366632521,0.0181119222085922,-0.0510468811482191,0.0013128500431776,0.0040476056747138,-0.0004975486081093
1783206736460268000,2.04126806640625,-0.0016166048837825,0.0113078682169318,-0.0509042578071355,0.0014175120741128,0.0006962837651371,-0.0010738566052168
1783206736470205200,2.051205078125,0.0008050327725708,0.0069791182976216,-0.0374362889468669,0.0017437059432268,-0.0035053812898695,0.003131981473416
1783206736480142000,2.06114208984375,0.0105182156765833,0.0078375617578625,-0.0498474422305822,0.0002741739153861,-0.0010360986925661,4.53777611255e-05
1783206736490079000,2.071078857421875,-0.0011620295166969,0.0104105540510267,-0.0609235475182533,0.0007798932492733,0.0014888276346027,0.0010300099384039
1783206736500015900,2.081015869140625,-0.0016273820061236,0.0060143649186939,-0.0534200400203466,-0.0025732927024364,-0.0021365331485867,-0.0008307406678795
1783206736509953000,2.090953125,0.0001693652175366,0.0170645320475101,-0.046074937954545,-0.0022368356585502,0.0028785231988877,0.0008231576066464
1783206736519890200,2.10089013671875,0.0024057825000956,0.018116671448946,-0.0535462967485189,-0.0032999692484736,0.0012838225811719,0.0001674871891736
1783206736529826600,2.11082666015625,0.0049327436944469,0.0134415192447602,-0.0508504817932844,-0.0008796527981758,-0.0013747275806963,-0.0011486378498375
1783206736539763700,2.120763671875,-0.0110385862888768,0.0086181176763027,-0.0456201799243688,0.0019662007689476,0.0011882986873388,0.000132076209411
1783206736549699800,2.130699951171875,-0.0067529813915491,0.0132509651087224,-0.0460772760421037,-0.0005776714533567,0.0011581052094697,0.0030531061347573
1783206736559636700,2.14063671875,0.0002386310614645,0.0071031100034713,-0.0628489626228809,-0.0006130915135145,0.0020526610314846,-0.0002801059745252
1783206736569573600,2.15057373046875,-0.0029976109134033,0.0130718822147697,-0.0416033454984426,0.000688886269927,-0.0024888426996767,-0.0012253664899617
1783206736579510800,2.1605107421875,-0.0040471930315718,0.0133604168325662,-0.0455044445902109,0.0016257856041193,-0.0012358254753053,7.13265035301e-05
1783206736589447700,2.17044775390625,-0.0056492579333484,0.0101009766452014,-0.0461035795271396,-0.0009873090311884,-0.0001270473003387,0.0029148790054023
1783206736599384800,2.180384765625,0.0027956586005166,0.0113586485560983,-0.0517915620356798,-0.0006775837391614,0.000489474274218,0.0008890121243894
1783206736609321700,2.19032177734375,0.0064272565685212,0.0071907152216881,-0.0434118562251329,-0.0016654599457979,0.0004187175072729,0.0026762457564473
1783206736619258600,2.200258544921875,0.0034600773259997,0.0130397335108369,-0.0538747980505228,-0.0016574710607528,-0.0003251037560403,2.8797192499e-05
1783206736629195800,2.21019580078125,-0.0033779520004987,0.0106610947459936,-0.0541799184769392,0.0019818786531686,0.0004741488955914,0.0016394569538533
1783206736639132700,2.220132568359375,-0.0070190119165927,0.0043443858798593,-0.0473135398387908,0.0015326030552387,0.0012161056511104,-0.0001147673465311
1783206736649069800,2.23006982421875,-0.0069489423550665,0.007921952105686,-0.0556897385179996,-0.0003461893647909,0.0009952657856047,-0.0015742320101708
1783206736659006700,2.2400068359375,-0.0092332538999617,0.0158933693762868,-0.0468657960712909,0.0013086991384625,0.0012008617632091,-0.0009731564205139
1783206736668943600,2.249943603515625,-0.0006933890916407,0.013080650043115,-0.0438572619050741,0.0004304479807615,-0.0003683548420667,0.0010743539314717
1783206736678880800,2.259880859375,-0.0019653087235987,0.009400427160412,-0.039657472127676,-0.0019381670281291,0.0006548315286636,-0.0006774733774363
1783206736688817700,2.269817626953125,-0.0023575594441965,0.0146302175726741,-0.0457896912723779,0.0008460395038127,-0.0009980504401028,-0.0023088930174708
1783206736698754800,2.2797548828125,0.0008181479824706,0.0054832537166774,-0.0442968223661184,-0.0008858144283294,0.0030598081648349,-2.01722141355e-05
1783206736708691700,2.289691650390625,-0.0071260159550234,0.0136038701996207,-0.0502858336478471,-0.0002761073410511,0.0011882525868713,0.0010225351434201
1783206736718628600,2.299628662109375,-0.0054831806514412,0.0079859572526067,-0.0613707067638635,0.0005611907690763,-0.000278350431472,-0.0011844267137348
1783206736728565800,2.309565673828125,-0.0045891178885474,0.0125443512093275,-0.0453647438585758,0.00098742172122,0.0005634045228362,-0.0026970345061272
1783206736738502700,2.319502685546875,-0.0003806333480402,0.01082622217983,-0.0462678301781415,0.0008318936452269,-6.16391189396e-05,0.0003775851801037
1783206736748439800,2.329439697265625,-0.0072730962755158,0.0062610331561416,-0.0540548307925462,0.0012581767514348,-0.0004670820198953,0.0001462716609239
1783206736758377000,2.339376953125,-0.0003673354750499,0.0150746734045445,-0.0483662637621164,-0.0004358598962426,0.0005720830522477,-0.0006955536082386
1783206736768313600,2.349313720703125,-0.0004032105060294,0.0155013013187795,-0.0516582910448312,0.0018076160922646,0.0004983311519026,0.0014248776715248
1783206736778250800,2.359250732421875,-0.0014096841348335,0.0054372226178646,-0.0462777670502662,-0.0008299788460135,-0.0028095818124711,0.0013061005156487
1783206736788187600,2.369187744140625,0.0029100422278046,0.0062312225397676,-0.0410451270937919,0.0002891197800636,-0.0002801814116537,0.0002135878894478
1783206736798124800,2.379124755859375,-0.0042478301702067,0.0149004858814179,-0.0414917018175125,-0.0003114230930805,-0.0001060105860233,0.0012149363756179
1783206736808062000,2.38906201171875,-2.78013223782e-05,0.013976210643351,-0.0396931279629468,-0.000780077651143,0.0008218637667596,0.0004470937419682
1783206736817998600,2.39899853515625,-0.0011091668182983,0.0112529962245374,-0.0598994651675224,-0.0018812948837876,-6.3795596361e-06,0.0026356794405728
1783206736827935700,2.408935791015625,-0.0013956190768629,0.0178861506287008,-0.043131870239973,-0.0008996296674013,0.0001380634494125,0.0007366095669567
1783206736837872600,2.41887255859375,-6.13017331808e-05,0.0159459763463586,-0.0444686718016862,-0.0030309567227959,-0.0005626142956316,-0.0015561059117317
1783206736847809800,2.428809814453125,-0.000609291004762,0.0159090784020721,-0.0452069229483604,-7.81873241066e-05,0.0042864200659096,-0.0004582882393151
1783206736857747000,2.438746826171875,-0.0024739158328622,0.0187803960546851,-0.0496896213203668,0.0011873468756675,-0.000160526484251,1.52217689901e-05
1783206736867683600,2.44868359375,-0.0036923517119139,0.0086748893648386,-0.0514917023062706,-0.0008842851966619,-0.0002317819744348,0.0003583149518817
1783206736877620700,2.458620849609375,-0.0026215076100081,0.007183408698067,-0.0454945077180862,-0.0004312815144658,0.0007226946763694,-0.0007575494237244
1783206736887557600,2.4685576171875,-7.63166392222e-05,0.0059334086369723,-0.0447480732649564,0.0010010413825511,0.0003425772301852,6.74705952405e-05
1783206736897494800,2.478494873046875,0.0012632248688489,0.0105387835405766,-0.0495458289355039,0.0020495280623435,-0.0003935205750167,0.0001007602550089
1783206736907432000,2.488431884765625,-0.0023670579249039,0.0156445091817528,-0.0450596234321594,0.0017326967790722,0.002034671138972,-0.0003335431683808
1783206736917368600,2.49836865234375,-0.0081143328726291,0.0146359166610985,-0.0580833556562662,0.0003593051806092,0.0019126986153423,-0.0007324847392737
1783206736927305700,2.5083056640625,-0.0057352922489866,0.0136063544176518,-0.0546387681603431,-0.0005210293456912,0.0022438848391175,-0.0027886559255421
1783206736937242600,2.51824267578125,-0.0053122079987078,0.0088759648948907,-0.0498451041430234,-0.0006131744012236,-0.0002006306312978,-0.0011023422703146
1783206736947179800,2.5281796875,-0.0009193068020045,0.0059629269924014,-0.0543377393871545,0.0005958043038845,-0.001385151874274,-0.0024964339099824
1783206736957117000,2.538116943359375,-0.0061592532820999,0.0106358141742646,-0.0510486347138881,0.0017236536368727,-0.0003465190529823,-0.001938235363923
1783206736967053600,2.548053466796875,-0.0072812430493533,0.0127272334955632,-0.0503144752204418,0.0019657863304018,0.0010180613026022,0.0007674440275877
1783206736976990700,2.55799072265625,-0.0030856545230373,0.0173618344936519,-0.0581125817507505,0.0011082477867603,0.0012074122205376,0.0021658700425177
1783206736986927900,2.567927978515625,0.0029996202073991,0.0084122198406606,-0.0515326188385486,0.0003637792542576,0.0001681195572018,2.6307534426e-06
1783206736996863700,2.57786376953125,-0.0005259235702455,0.0092896602623164,-0.0458422982424497,-0.0011526253074407,-0.0009189825505018,-0.0024653207510709
1783206737006800600,2.587800537109375,-0.0015570567162707,0.0162446670319885,-0.0434416668415069,-0.0011069281026721,-0.0008549713529646,0.0016086790710687
1783206737016737800,2.59773779296875,0.0067486705426126,0.0080330843299627,-0.043894671306014,0.0014449134469032,0.0007908623665571,0.0009247795678675
1783206737026674700,2.6076748046875,-0.0052019525572657,0.0111231592997908,-0.0452367335647344,0.0003667492419481,-8.75028781592e-05,-0.0007135346531867
1783206737036611800,2.61761181640625,-0.0011765694987028,0.0107390553530305,-0.0464279891759157,-0.001026882790029,0.0016667209565639,0.001548554515466
1783206737046548700,2.627548828125,-0.0041035628613084,0.0131415133848786,-0.054351767912507,-0.0004106182605028,-0.0001501990482211,0.0014467416331171
1783206737056485600,2.637485595703125,-0.0051255993854254,0.0133554483965039,-0.0414928708612918,0.0036954432725906,0.0026557075325399,0.0004469910636544
1783206737066422800,2.6474228515625,-0.0050916971158236,0.0191167153369635,-0.0428501306891441,0.0008395668119192,0.0015364838764071,0.0003415150567889
1783206737076359700,2.657359619140625,-0.0084752020742744,0.0234929576598107,-0.0471855295449495,-0.0018949666991829,0.0045064408332109,0.0021215716842561
1783206737086296800,2.667296875,-0.0024343875400722,0.0182283881951123,-0.0447930814504623,0.0005418667569756,-0.000751590821892,-0.0002141487784683
1783206737096233700,2.677233642578125,-0.0058406157869845,0.0028233868576586,-0.0497299533307552,-8.82372260093e-05,-0.0011396133340895,-0.0005347933620214
1783206737106170600,2.687170654296875,0.000338255511038,0.0095666505727916,-0.0479331330418586,0.0018417742103338,-0.0013000476174056,-0.0007121479138731
1783206737116107800,2.697107666015625,-4.8551849462e-05,0.0090986677348613,-0.0486713841885328,0.0013613393530249,-0.0014302763156592,0.00112463417463
1783206737126044700,2.707044677734375,-0.003424129229784,0.0088068451814353,-0.0501654221385717,-0.0002025421708822,6.6556967794e-06,0.0012907809577882
1783206737135981800,2.71698193359375,1.36266665533e-05,0.0149690941382199,-0.0402916783779859,0.0022659422829747,0.0010559414513409,-0.0005486647132784
1783206737145918700,2.726918701171875,-0.0050160015311092,0.013427929110825,-0.0453846176028251,-0.0020546084269881,-0.0004143216647207,-0.0016365374904125
1783206737155855600,2.736855712890625,9.80535469949e-05,0.0178919227823615,-0.0488233598798513,6.76643103361e-05,-0.0023978436365723,-0.0006831258069723
1783206737165792800,2.746792724609375,-8.16504014655e-05,0.0094428049974143,-0.0375964479446411,-0.0002352567389607,0.0031684709247201,0.0012480767909437
1783206737175729700,2.756729736328125,-0.0011741218132898,0.0022698446281254,-0.0416390013337135,-0.0018872153013944,-0.0007253368385136,-0.0017751436680555
1783206737185666800,2.766666748046875,-0.0048258492538705,0.0120290220983326,-0.0471568879723548,-0.0008263364434242,-0.0022445674985647,-0.0005863883998245
1783206737195604000,2.77660400390625,-0.0081598525147885,0.0091815967779606,-0.0526771126985549,-0.0013784104958176,-0.0002860790118575,0.0026128671597689
1783206737205540600,2.78654052734375,-0.0079278703898191,0.0083480685632675,-0.0499742834806442,-0.0005816211923956,-0.0015265075489878,0.0003456051927059
1783206737215477800,2.796477783203125,-0.0028515169735997,0.0084807550322264,-0.0513198528707027,0.0018343990668654,0.0010801944881677,-1.63184013217e-05
1783206737225414700,2.80641455078125,-0.0006660992259159,0.021252119930461,-0.048932080951333,-0.0010819351300597,0.00090599572286,0.0034359286073595
1783206737235351800,2.816351806640625,-0.0040072628799825,0.0170231040585786,-0.0514753356933593,0.0006730873137712,0.0013486132957041,-0.0007494951132684
1783206737245289000,2.8262890625,-0.0052996407780796,0.008391542378813,-0.0408469741731882,0.0023703230544924,2.86381691694e-05,0.0015831070486456
1783206737255225600,2.8362255859375,-0.0028008096996694,0.0074698974892497,-0.041457215026021,-0.0002321181818842,0.0007687304168939,0.0007687124889343
1783206737265162800,2.846162841796875,0.0004150836069136,0.0094415628883987,-0.0380208108365535,0.000671618618071,-0.001500753685832,-0.000987394247204
1783206737275099600,2.856099609375,-0.0048299043744802,0.0072761284828186,-0.0372726228177547,-0.0013840747997164,-0.0020150104537606,0.000706376042217
1783206737285036800,2.866036865234375,0.0032097923593595,0.0147234488140791,-0.0432505281835794,-0.0019294237717986,-0.0013531986624002,-0.0012631951831281
1783206737294974000,2.875973876953125,0.0015265154475346,0.0156157945439219,-0.0507335774153471,0.0013550519943237,0.0001972937025129,-0.0009974115528166
1783206737304910600,2.88591064453125,0.0012255962722003,0.0079771163590252,-0.0517746109008789,-0.0005861343815922,0.0011485749855637,0.0009780908003449
1783206737314847700,2.89584765625,0.0025653935085982,0.0099079382911324,-0.0523719922721385,-2.58050858974e-05,0.0002343114465475,0.0017219120636582
1783206737324784600,2.90578466796875,-0.0050358752753585,0.0143571727849543,-0.0498240613549947,0.0001958757638931,0.0006514168344438,-0.0025445902720093
1783206737334721800,2.9157216796875,-0.000226319569163,0.0069670625336468,-0.0487777671724557,-0.0008629970252513,0.0004290430806577,-0.0011733286082744
1783206737344659000,2.925658935546875,-0.0028817294487729,0.011452829645574,-0.0397924966841936,-0.0013192817568778,0.0014421474188566,-0.000873374287039
1783206737354595600,2.935595703125,-0.014091945977509,0.0126264034695923,-0.0442857164502143,0.0013811634853482,0.0015316298231482,-0.0014544760342687
1783206737364532700,2.94553271484375,-0.0050843540595844,0.0100214086029678,-0.0417535676240921,0.0004432052373886,0.0014868648722767,-0.0005491275805979
1783206737374469600,2.9554697265625,0.0038526568401604,0.0099931323565542,-0.0432563734024763,0.0010559987276792,0.0021896730177104,0.0009739340748637
1783206737384406800,2.96540673828125,0.0031230639239773,0.0100347064759582,-0.0499918191373348,0.0008496707305312,-0.0003251023590564,0.0008285630028694
1783206737394344000,2.975343994140625,-0.0029631606545299,0.014447554482147,-0.0561129323661327,-0.0016302652657032,-0.0020881150849163,0.0008658475708216
1783206737404280600,2.985280517578125,-0.0014096476022154,0.0166784553393721,-0.055810150027275,0.0017994567751884,0.0005164807662367,-0.0001410157419741
1783206737414217700,2.9952177734375,-0.0057401876198127,0.007757336128503,-0.0445797309607267,-0.0016029980033636,-0.0009258869104087,-0.0019620852544903
1783206737424155000,3.00515478515625,0.0015096008453518,0.011000555833429,-0.0511573557853698,-0.0009809536859393,-0.0007043881341814,0.0021418177057057
1783206737434091800,3.015091796875,-0.0045401276476681,0.0095201080173254,-0.057589434659481,0.0004449021071195,-0.0007605804130434,0.0005548398476094
1783206737444029000,3.02502880859375,-0.0066065586581826,0.0100750384863466,-0.0406873996973037,0.0011599184945225,0.0002170638181269,0.0001603541895747
1783206737453965600,3.034965576171875,-0.0086287852007895,0.0069466042675077,-0.0417506450146436,0.000877889804542,-0.0005222298204898,0.0016208316665142
1783206737463902700,3.04490283203125,-0.0021413228776305,0.0164625475663691,-0.0544739329874515,0.0001555634662508,0.0018528434447944,0.0015521093737334
1783206737473839900,3.05483984375,-0.0018467238452285,0.0123464905496686,-0.0454904160648584,-0.0011334065347909,-0.0010611871257424,-0.0001413945574313
1783206737483776800,3.06477685546875,0.0053780032439157,0.0140178578279912,-0.0442816247969865,-0.0009699845686554,0.0006907558999955,-0.0004987192805856
1783206737493714000,3.0747138671875,0.002900836008042,0.0057915890134871,-0.0517675966382026,0.0016119498759508,0.0009184563532471,-0.0006909994408488
1783206737503650600,3.084650634765625,-0.0048823652140796,0.0070581748832017,-0.0460866283923387,-0.0010389545932412,-0.001053296495229,-0.0009025828912854
1783206737513587700,3.094587646484375,0.0004794175473973,0.0096192575428634,-0.0465267733752727,-0.0005920762196183,0.0036109639331698,0.00085643469356
1783206737523524900,3.10452490234375,0.0024116642516106,0.0136982704848051,-0.0532704024165868,0.000554546713829,-8.4978993982e-05,-0.0010409404058009
1783206737533461500,3.11446142578125,-0.0011371873363852,0.004096840859577,-0.0456353774935007,-0.001671589910984,-0.0016202912665903,0.0009231406729668
1783206737543398700,3.124398681640625,-0.0038694618444889,0.0081821374118328,-0.0505780945926904,0.0008341968059539,0.0051002013497054,0.0008477168157696
1783206737553335600,3.13433544921875,-0.0013717998098582,0.0109694300428032,-0.0438601845145225,0.0006773369386792,0.0015550013631582,0.0008599674329161
1783206737563272400,3.1442724609375,-0.0104882223971188,0.0160169226907193,-0.0482025976330041,-0.0036472957581281,-0.0002475637011229,-0.0006525665521621
1783206737573209600,3.154209716796875,-0.0053003714304417,0.0098114921793341,-0.0478822796374559,-0.0019711013883352,-0.0037301797419786,0.0016047286335378
1783206737583146500,3.164146484375,-0.0101765991646796,0.0119067108929157,-0.0529676200777292,0.001949205994606,0.001832025591284,0.0003259195946156
1783206737593083600,3.174083740234375,0.0024012159228324,0.0039151276171207,-0.0519260020703077,-0.0016103750094771,-0.0017997273243963,-7.14238267391e-05
1783206737603020500,3.1840205078125,-0.0073033452833071,0.0126707540679723,-0.0472808066129684,0.0007752627134323,0.0004730927757918,0.0008077484089881
1783206737612957400,3.19395751953125,-0.0142231346091255,0.0082324062943458,-0.0490752888143062,0.0005190661177039,-0.002780757844448,0.0009702013339847
1783206737622894600,3.20389453125,-0.0055480991138145,0.0134944184757769,-0.0505675731986761,0.0003120442852377,-0.0010561253875494,-0.0017927195876836
1783206737632831500,3.21383154296875,-0.0037192397188395,0.0098358229029923,-0.0475800818204879,-0.000320722348988,-0.0012792982161045,-0.0010291913058608
1783206737642768600,3.2237685546875,-0.0017359569471329,0.0131741735454648,-0.0557937834143638,-0.0015652514994144,-0.0029991748742759,0.0007533649913966
1783206737652705500,3.23370556640625,-0.0026500761173665,0.0093396368838846,-0.0526385342538356,0.0005311891436576,0.003474170807749,-0.0002160256262868
1783206737662642400,3.243642333984375,-0.0023285890780389,0.010226648851484,-0.0524871430844068,-0.0002640914171934,-0.003218819387257,-2.84872949123e-05
1783206737672579600,3.25357958984375,0.0035770547691732,0.0132540338486433,-0.0457470211744308,-0.0008204253390431,-0.0013088006526231,-0.0006604553200304
1783206737682516500,3.2635166015625,-0.0001079538865014,0.0096497257463634,-0.041703298741579,0.0001139538362622,-5.67836686968e-05,-0.0006759194657206
1783206737692453600,3.27345361328125,0.0023196020539849,0.0111227939736098,-0.0485837059050798,-0.0018935371190309,0.0003685234114527,0.0023142779245972
1783206737702390500,3.283390625,-0.0009417378295212,0.0093421211019158,-0.0457405914336442,0.0003145569935441,-0.0008902424015104,0.0001533345784991
1783206737712327400,3.293327392578125,-0.0033253084978088,0.006543284163624,-0.0518786557972431,0.000908974558115,-0.0015741419047117,-0.0003489374648779
1783206737722264600,3.3032646484375,0.0039122050076723,0.0149411832179874,-0.0447013115137815,0.0017034234479069,0.0020912545733153,0.0019445135258138
1783206737732201500,3.313201416015625,-0.0003725596394389,0.0125004390023648,-0.0445458286911249,-0.0012905020266771,-0.0003854855895042,0.0023168232291936
1783206737742138400,3.323138427734375,-0.0104343367854133,0.0061587418254464,-0.0490320341944694,-0.0004599671810865,-0.001554540824145,0.0008954727090895
1783206737752075500,3.333075439453125,-0.0024542247517034,0.0117517395269125,-0.045586277654767,-5.99604099988e-05,-8.58074054121e-05,-0.0003210592549294
1783206737762012400,3.343012451171875,-0.0036906346788629,0.0071861121118068,-0.0548421817779541,-0.0026981765404343,-0.0011856048367917,6.07701949775e-05
1783206737771949600,3.352949462890625,-0.0007325520582497,0.0035311698008328,-0.0471960509389638,-0.0025210762396454,0.0002908515743911,0.0016932878643274
1783206737781886500,3.362886474609375,-0.0007449000831693,0.0127170043624937,-0.0410544794440269,0.0013168947771191,-0.0023981076665222,-0.0019222503760829
1783206737791823400,3.3728232421875,-0.0013498802389949,0.0073673138976097,-0.0482400070339441,-0.000157430768013,0.001377722248435,-1.96881592273e-05
1783206737801760500,3.382760498046875,0.0035708807567134,0.0132888129010796,-0.0510790298521518,0.0015455391258001,-0.0005685384385287,0.0014963515568524
1783206737811697400,3.392697509765625,0.0005654883956536,0.0134717682525515,-0.0516740731358528,0.0012539234012365,-8.25114548206e-05,0.0009261684026569
1783206737821634600,3.402634521484375,-0.0012276786314323,0.0098657065846025,-0.0440413863003253,9.70130786299e-05,-4.23928722739e-05,-0.0023742581252008
1783206737831571500,3.412571533203125,-0.0021774536369368,0.0116630383301526,-0.0522737925946712,-0.0004521301016211,-0.0005808840505778,-0.0024999594315886
1783206737841508400,3.42250830078125,-0.002441255672276,0.00849032657817,-0.0515220974445343,0.0007571931928396,-0.0013223169371485,-0.0002546859905123
1783206737851445500,3.432445556640625,-0.0013461539119482,0.0094476273030042,-0.0513747979283332,0.0005904790014028,-0.0005955402739346,-0.0001172667834907
1783206737861382400,3.44238232421875,-0.0070152855895459,0.008494491296634,-0.0444867919802665,-0.0009265756234526,-0.0002447268925607,0.00020656385459
1783206737871319600,3.452319580078125,0.0011430325552821,0.0105517891526222,-0.0441810870319604,-0.0012269802391529,0.000476723536849,-0.0001971712335944
1783206737881256700,3.462256591796875,-0.0020961685616523,0.0114415045339614,-0.0441845941632986,-5.07747754454e-05,0.0020681088790297,-0.0006145553197711
1783206737891193300,3.472193359375,0.0041586905820295,0.0176372173689305,-0.0459925203680992,0.0030462155118584,0.0004433146677911,-0.0004385204520076
1783206737901130500,3.482130615234375,-0.0036146833658218,0.0063126902781426,-0.0581342090606689,0.0014889976009726,0.0030887515749782,-0.0001603602431714
1783206737911067400,3.4920673828125,-0.0035304026158526,0.0100398941077291,-0.0496177251279354,0.0007198760285973,-0.0015816339291632,0.0010668246541172
1783206737921004500,3.502004638671875,-0.0087967987114563,0.0065608198203146,-0.0526028784185647,0.0016145976260304,-0.0011570542119443,0.00091034010984
1783206737930941700,3.511941650390625,-0.0047957829091697,0.017207301519066,-0.0659177025437355,-0.0001833019778132,-0.0012990008108317,-0.000382624566555
1783206737940878300,3.52187841796875,-0.0040291824508458,0.0044637014105916,-0.0502028315395116,-0.0012883255258202,0.0008072946220636,-0.0013348697684705
1783206737950815500,3.5318154296875,0.0019670257566496,0.0056365445822477,-0.0499012182444334,-0.0021392060443758,-0.0014332230202853,0.0009645035024732
1783206737960752400,3.54175244140625,-0.007498100670427,0.0129611153166741,-0.0477946013540029,0.0006530536338686,-0.0020431247539818,-0.0018957775318995
1783206737970689500,3.551689453125,-0.0013753434738144,0.0074570380076766,-0.0525859272837638,0.0020725177600979,-0.0005142046138644,-0.0006142642814666
1783206737980626700,3.561626708984375,0.0019669892240315,0.0094314068205654,-0.046750060737133,0.0010526729747653,3.68379987776e-05,-0.0011725563090294
1783206737990563300,3.571563232421875,-0.0071892539169639,0.0107723000355064,-0.0464513700515031,0.0003059227019548,-0.0015823640860617,0.0016413398552685
1783206738000500500,3.58150048828125,-0.0072296589925885,0.0140341513756662,-0.0395616105377674,0.0002845162525773,-0.0020087608136236,0.0012682806700468
1783206738010437400,3.591437255859375,-0.0016118191108107,0.009053513418883,-0.0474853892743587,0.0007343236356973,0.0001971353776752,-0.0001453254371881
1783206738020374500,3.60137451171875,-0.007331731127575,0.0061919865079224,-0.0420984355390071,8.92393290996e-05,-0.0016027321107685,-0.0008775207679718
1783206738030311700,3.611311767578125,-0.0015148615423589,0.0054799657810479,-0.0516787493109703,-0.0004114350304007,0.0001557529903948,0.0003723006229847
1783206738040248300,3.621248291015625,0.0043896132610738,0.0156358144186437,-0.0539192217141389,-0.0010824156925082,-0.0010453672148287,-0.0019019360188394
1783206738050185500,3.631185546875,0.0059312897451221,0.0128399731550365,-0.0455412694692611,0.0018348107114434,-0.001027790363878,-0.0017144494922831
1783206738060122400,3.641122314453125,2.73263983428e-05,0.0047007981020957,-0.0462812741816043,-0.0001550279557704,-0.0025328788906335,-0.0011404769029468
1783206738070059500,3.6510595703125,-0.0021301438964903,0.0165783559657633,-0.0420984355390071,0.0004042359068989,0.0001846109516918,0.0024987324140965
1783206738079996700,3.66099658203125,0.0016981822200119,0.0082934157665818,-0.0455500372976064,0.0004624230787158,0.0007311156950891,0.0006630606949329
1783206738089933300,3.670933349609375,0.0053227659253403,0.0036751813814044,-0.0494353542983531,-0.0022071292623877,0.0020120963454246,0.0015991614200174
1783206738099870500,3.680870361328125,0.0034864173436537,0.0106141868643462,-0.0471972199827432,0.0009011188521981,-0.0008645970374345,-0.0017193442909047
1783206738109807600,3.6908076171875,-0.0043827816614881,0.0062179977320134,-0.0473462730646133,-0.0005223406478762,0.0003378205001354,0.0005669796373695
1783206738119744500,3.70074462890625,-0.009348075918667,0.0095705230303108,-0.0471907902419567,-0.0012302203103899,0.001352725084871,-0.0004701360594481
1783206738129681700,3.710681640625,-0.0020633257379755,0.0123366998080164,-0.0462894574880599,-0.000389726832509,-0.0016119056381285,-0.0019231566693633
1783206738139618300,3.720618408203125,-0.0054717459419742,0.0143933400768786,-0.0456862308979034,-0.0006310297176241,0.000910579226911,-3.08807939291e-05
1783206738149555500,3.730555419921875,-0.0002936491843312,0.0077395082108676,-0.0464320808291435,0.0001026708632707,0.0012597199529409,-0.0003454000689089
1783206738159492600,3.74049267578125,-0.0031012904835864,0.015735037009418,-0.0455436075568199,-0.0004532784223556,0.0001375898718833,-0.0020605996251106
1783206738169429500,3.750429443359375,-0.0023948957799002,0.0143071230981498,-0.0506271944314241,-0.0008173324167728,0.0015762294642627,-0.0005710935220122
1783206738179366700,3.76036669921875,-0.0024989041436463,0.0151896050211042,-0.0455424385130405,0.0007603140547871,-0.0002572243101894,0.0018841747660189
1783206738189303300,3.77030322265625,-0.002195537282899,0.011641703281179,-0.0525789130210876,0.0024447636678814,0.0015742317773401,-0.0015073609538376
1783206738199240400,3.780240478515625,0.0001431713303551,0.0096416885703802,-0.0552817422389984,-0.0012949202209711,0.0005160830914974,-3.84373124688e-05
1783206738209177600,3.790177490234375,-0.0002962430002167,0.005742708370462,-0.0548316603839397,-0.000647772103548,-0.0001840619370341,0.0006667678244411
1783206738219114500,3.800114501953125,0.0023531389974057,0.0130542004276067,-0.0482534510374069,0.0013267081230878,-0.0022886735387146,0.0011346994433552
1783206738229051600,3.8100517578125,-0.0054471229573711,0.0098224519647657,-0.0494441221266984,-0.000862143933773,5.35761937499e-05,-0.0018605578225106
1783206738238988300,3.81998828125,-2.40384627133e-05,0.0121869891390204,-0.0440600910007953,0.0011685714125633,0.0003739483654499,-0.0003007496707141
1783206738248925400,3.829925537109375,0.0028560104856267,0.0033888387206941,-0.0466109445273876,0.0003344696015119,0.0010522557422518,0.0003961995244026
1783206738258862600,3.839862548828125,-0.0009952946476638,0.0132035457704216,-0.053344636696577,-0.0026992866769433,0.0008116248063743,0.0016507140826433
1783206738268799500,3.849799560546875,0.0003841039467602,0.0061249126210808,-0.0522989270359277,0.0001684045419096,-0.0005007809959352,-0.0013080581557005
1783206738278736600,3.859736572265625,-0.0027469971532002,0.0104771895464509,-0.0463198526263236,-0.0003300746902823,0.0008825594559311,-0.0042687682434916
1783206738288673300,3.86967333984375,-0.0004764584053307,0.0139288643702864,-0.0507926141262054,-0.0027378387749195,-0.0005081431008875,0.0030013953801244
1783206738298610400,3.8796103515625,-0.005256459223479,0.0075425973992794,-0.0443435841172933,0.0025336872786283,-0.0037321145646274,0.0026297830045223
1783206738308547600,3.889547607421875,-0.0045946708464995,0.0045971185319125,-0.0486953495860099,0.0046908482909202,-0.0004455079324543,-0.0018094403203576
1783206738318484500,3.899484375,-0.0051058717716485,0.0039609395202249,-0.0452647906154394,0.0004440518096089,0.0022175288759171,0.0012037914711982
1783206738328421600,3.909421630859375,-0.0104593981614336,0.0123405722655355,-0.0566425091981887,-0.0020188391208648,0.0008814209140837,0.0031737315002828
1783206738338358500,3.919358642578125,0.0005969064472243,0.0143697400055825,-0.0488683680653572,0.0030432743951678,0.0023117889650166,0.0008607050403952
1783206738348295400,3.92929541015625,-0.0016670929620042,0.0159453187592327,-0.0355570510715246,0.0008520251139998,0.0009959209710359,-0.0014381355140358
1783206738358232600,3.939232666015625,0.0018946546401828,0.0091235829804092,-0.0511252070814371,-0.0011802436783909,0.0004329574294388,0.0010141825769096
1783206738368169500,3.94916943359375,-0.0046843218913301,0.0098410835999995,-0.0565045620322227,-0.0036918707191944,0.0022441730834543,0.0009864859748631
1783206738378106600,3.959106689453125,0.0027012583153322,0.0136621031928807,-0.0499199229449033,0.0016999514773488,-2.0298175513e-06,0.0012683516833931
1783206738388043500,3.96904345703125,0.0047853345803916,0.0041959173198789,-0.044081133788824,-0.0028151730075478,0.0004304675385355,0.0001239913981407
1783206738397980400,3.97898046875,-0.0056031537692993,0.0170277802336961,-0.0518558594435453,-0.0002151485532522,0.0002649901434779,0.0015861405991017
1783206738407917600,3.98891748046875,-0.0043109220016747,0.0053344928957521,-0.0558908140480518,0.0019020643085241,-0.0009099966846406,-0.0007971220184117
1783206738417854500,3.9988544921875,0.0014248086387291,0.0210571088150143,-0.0500485177606344,-0.0007039261981844,0.0033686407841742,0.0009275269694626
1783206738427791600,4.00879150390625,-0.0072721829600632,0.0200286425501108,-0.0398819285333156,-5.78435137867e-05,-0.0026937793008983,0.0004039492923766
1783206738437728500,4.018728515625,0.0036516543753445,0.0097593236006796,-0.0485538952887058,6.90249726176e-05,0.0009793867357075,-0.0009418905247002
1783206738447665400,4.02866552734375,-0.0061617740327492,0.0138492963280528,-0.0520025744378566,0.000938014127314,-0.0020877760834991,0.0013862447813153
1783206738457602600,4.0386025390625,-0.0087264368889853,0.0108149701334536,-0.0467681809157133,0.0013830931857228,-0.0046380134299397,0.000712223118171
1783206738467539500,4.04853955078125,-0.0055040407763794,-0.0007356938634067,-0.0388315426975488,-0.0021514547988772,-0.0004983958788216,-0.0011045855935662
1783206738477476600,4.0584765625,-0.0047121232137084,0.0116859077490866,-0.0470487514227628,-0.0011276770383119,0.0004929206334054,-0.0018019659910351
1783206738487413500,4.06841357421875,-0.0067045756725594,0.0068265580844134,-0.0431546665936708,-4.69665974378e-05,0.0001730751246213,-0.0003319010138511
1783206738497350400,4.078350341796875,-0.0016145955897867,0.0148098119232803,-0.0524245992422103,-0.0011936286464333,-1.55097804963e-05,-0.0002314113080501
1783206738507287600,4.08828759765625,-0.0103844332290813,0.0103682492792606,-0.0533013820767402,-0.0020437091588974,-0.0012456239201128,-4.12615481764e-05
1783206738517224400,4.098224365234375,-0.0031692776858806,0.004966024909541,-0.0455126278966665,-0.0010762643069028,0.0003500399179756,-0.0007722259033471
1783206738527162600,4.10816259765625,-0.0076207041367888,0.0063404550679028,-0.0500023405313491,0.0009232377633452,0.0013495241291821,0.0009945151396095
1783206738537099500,4.118099609375,-0.0112508408000692,0.0096297058716416,-0.0459632942736148,0.0010896511375904,-0.0008296347223222,0.0012141801416873
1783206738547036700,4.12803662109375,-0.0026652006212621,0.0050249885551631,-0.0525479333609342,7.15246424078e-05,-0.0016464260406792,-0.0006098188459873
1783206738556973600,4.1379736328125,-0.0115435766689479,0.0049170712012797,-0.0495604419827461,0.0031145736575126,-7.11590982973e-05,3.5312725231e-05
1783206738566910700,4.14791064453125,-0.0032766470504924,0.0037460546605288,-0.050907180416584,0.0001632589846849,-0.0004525240510702,-4.32506203651e-05
1783206738576847600,4.15784765625,-0.0089892890762537,0.0125608639527112,-0.0504588521271944,-0.000563183799386,-0.0006892969831824,6.53138849884e-05
1783206738586784500,4.167784423828125,0.0047954541156068,0.012634952102229,-0.0540612605333328,-0.0007059294730424,0.0005711773410439,-0.0039896150119602
1783206738596721700,4.1777216796875,-0.0060208677247166,0.0120067372012883,-0.0497211855024099,0.0019235052168369,0.0017325934022665,0.000236463965848
1783206738606658800,4.187658935546875,-0.0032825653346255,0.0050722617629915,-0.0326788652867078,0.0031158020719885,0.002212228719145,-0.0013968527782708
1783206738616595700,4.197595703125,-0.0017119184844195,0.0069724693611264,-0.0337263285130262,-0.0018314672634005,-7.28499144315e-05,-0.0023092594929039
1783206738626532600,4.20753271484375,-0.0034939065303653,0.0136398913610726,-0.0350736514687538,-0.0007763225585222,0.0012994771823287,-0.002155861351639
1783206738636469500,4.217469482421875,-0.0086973203923553,0.0036936668861657,-0.0482353308588266,-2.04052776098e-05,-0.0013964534737169,-0.0005478451494127
1783206738646406700,4.22740673828125,-0.0069340735794976,0.0071557169735431,-0.0518412463963031,0.0013410029932856,0.0015580574981868,-0.0021268334239721
1783206738656343800,4.23734375,-0.0068778864128515,0.0082963383760303,-0.0515349569261074,-0.0020152833312749,0.0001279939897358,-0.0007696009706705
1783206738666280700,4.24728076171875,-0.0034115254765376,0.0091991324346512,-0.0462853658348321,-7.67689198255e-05,0.0011367998085916,-0.0012191426940262
1783206738676218600,4.257218505859375,-0.0070496993158012,0.0151987381756305,-0.0494312626451253,-0.0005040317773818,-0.0002497402019798,-8.45866743475e-05
1783206738686154500,4.267154541015625,-0.0048958092175424,0.0124150988064706,-0.0552753124982118,0.0018555289134383,0.0018885117024183,0.0034313187934458
1783206738696092700,4.2770927734375,-0.005327149839513,0.0082321870986372,-0.0518394928306341,-0.0013717357069253,0.0027072262018918,-0.0031270536128431
1783206738706029600,4.287029541015625,-0.0090072631243616,0.0112624947052448,-0.0472030652016401,-0.000969598069787,0.0030888570472598,0.0003627527039498
1783206738715966700,4.296966796875,-0.0045436713116243,0.0100834409885108,-0.0504974305719137,-0.0008626459166407,0.001738685183227,0.0012671370059251
1783206738725903600,4.306903564453125,-0.0096453418321907,0.0099035543769598,-0.044803018322587,0.0024332823231816,-0.0007204776629805,-0.0009294382762163
1783206738735840500,4.316840576171875,-0.0060587520496919,0.0104370767317712,-0.044510172855854,0.0026309294626116,-0.0007917108014225,0.0010744659230113
1783206738745777700,4.326777587890625,0.0009747633162885,0.012604483898729,-0.0446656556785106,0.0001640431582927,-0.0004915725439786,0.0023160316050052
1783206738755714600,4.336714599609375,-0.0072754343630746,0.008925283929333,-0.0573836829543113,0.0024771811440587,0.0006302627734839,0.0005201268941164
1783206738765651700,4.346651611328125,-0.0010489610636606,0.0069867170821875,-0.0584340687900781,-0.0002850499004125,0.0001700688153505,0.0005150670185685
1783206738775588600,4.356588623046875,-0.0013001593457534,0.0043969928499311,-0.0497673627316951,0.0010995240882039,0.0003365520387887,-0.0002068881876766
1783206738785525500,4.366525390625,-0.0067860068783164,0.0111146106671541,-0.0449818820208311,-0.0013220878317952,0.0003272308968007,0.0021657219622284
1783206738795462700,4.376462646484375,-0.0073174103412777,0.0098409374695271,-0.0503776035845279,0.0019480483606457,0.00034831603989,-0.0005848205182701
1783206738805399600,4.386399658203125,-0.0092426062501966,0.0132546183705329,-0.0438023168474435,-0.0001755561679601,0.0010378081351518,-0.0009600599296391
1783206738815336700,4.396336669921875,-0.0083335285812616,0.0173915720447897,-0.0428998150497674,-7.83884897828e-05,0.0013190479949116,0.0011174357496201
1783206738825273600,4.406273681640625,-0.0048968321308493,0.0144987001474946,-0.0508271009176969,0.0006811451166868,-0.000506549142301,0.0017371531575918
1783206738835210500,4.41621044921875,0.0012045900167897,0.0136123457670211,-0.0520265398353338,-0.0019787503406405,0.0023660908918827,-0.0034544132649898
1783206738845147600,4.426147705078125,-0.0033596491588279,0.0142548083890229,-0.0455874466985464,0.0001392615959048,-0.0010917573235929,-0.0014764835359528
1783206738855084500,4.43608447265625,-0.0060456733724102,0.0136916215483099,-0.0509767385214567,0.0013634655624628,-0.0002842834219336,-0.0008200134616345
1783206738865021700,4.446021728515625,-0.0072530033355578,0.0070922232832759,-0.0479945078402757,0.0003551933914422,-0.0010145222768187,0.0008343423251062
1783206738874958600,4.45595849609375,-0.0008249065168201,0.0014083324279636,-0.0447030650794506,0.0008278926834464,0.0005030580796301,0.0012661826331168
1783206738884895500,4.4658955078125,-0.0012147095520049,0.0047641456618905,-0.0417184963107109,0.0008060541003942,-0.0013520997017621,0.0011772329453378
1783206738894832600,4.47583251953125,-0.0038294586276635,0.0048320963315665,-0.0442640891402959,0.0005272179841995,0.0006507202051579,0.0025515959132462
1783206738904769500,4.48576953125,-0.0065783189443871,0.0013783026158809,-0.0408241778194904,-4.45628538727e-05,0.0004919958300888,-0.000448188977316
1783206738914706700,4.495706787109375,-0.0066281129028648,0.006982406233251,-0.0481634346663951,-0.0001168055459856,0.0022692123893648,-0.0025441292673349
1783206738924643600,4.5056435546875,-0.007045132738538,0.0101494188968092,-0.042926703056693,-0.0007660835981369,-0.000712995417416,-0.0016197460936382
1783206738934580500,4.51558056640625,-0.0127980337094515,0.0115910690724849,-0.0521966357052326,-0.000406626611948,-0.0019853860139846,-0.0004278160631656
1783206738944517600,4.525517578125,-0.0089532313821837,0.0072276131659746,-0.0529448237240314,0.0003265412524342,0.0014351778663694,-0.0011881485115736
1783206738954454800,4.535454833984375,-0.0029320713965222,0.0136479285370558,-0.048747372034192,-0.0008653029799461,-6.64740800857e-05,-0.0010750330984592
1783206738964391700,4.5453916015625,0.0007800444617867,0.0070108286101371,-0.0436632006376981,-0.0002855323255062,0.0037825924810022,-0.0004196290392428
1783206738974328600,4.55532861328125,-0.0072702832639217,0.0124992699585855,-0.0503986463725566,-0.0018621012568473,-9.62037593126e-05,0.0005221033934503
1783206738984265500,4.565265380859375,-0.0040806569097563,0.0083193539254367,-0.0508463901400566,-0.000800565816462,-0.0026954486966133,-0.0016957772895693
1783206738994202600,4.57520263671875,-0.0060557563750073,0.0079882222749292,-0.0608645108073949,-0.0004762774333357,-0.0016583907417953,-0.0006357172969728
1783206739004139800,4.585139892578125,-0.0051152241218835,0.0154513246972113,-0.0445621953040361,0.0009953854605555,-0.0011651730164885,0.0026058824732899
1783206739014076700,4.59507666015625,-0.0011246931809931,0.0192135267749428,-0.0354202729493379,0.0009721964597702,-0.0005132686346769,-0.0005732658319175
1783206739024013600,4.605013671875,-0.0017926190378144,0.0085562314212322,-0.0479839864462614,0.0018073637038469,0.0011280374601483,0.0012201068457216
1783206739033950500,4.614950439453125,-0.0018176073485985,0.0024582798723131,-0.0473778372466564,-0.0006348742172122,-0.0005402797833085,-0.0029576674569398
1783206739043887600,4.6248876953125,-0.0054670697668567,0.0127433809127658,-0.0511181928187608,-0.0008995924144983,-0.0001794211566448,0.0023654587566852
1783206739053824800,4.63482470703125,0.0028667876079678,0.0155216134544461,-0.0538262827336788,0.0007250374183058,0.0026460876688361,0.0003948828671127
1783206739063761700,4.64476171875,0.0001000263083726,0.0056214931435883,-0.0457476056963205,-0.0004046754911541,0.0005698874592781,0.0007339033763855
1783206739073698600,4.654698486328125,-0.0087279712589457,0.0085731825560331,-0.0533756163567304,0.0009754486382007,0.0007261843420565,0.0008409589063376
1783206739083635500,4.664635498046875,-0.0137801400819793,0.0067209057528525,-0.0423147086381912,0.0019421763718128,0.0011152722872793,0.0026652242522686
1783206739093572600,4.674572509765625,-0.0103503482963889,0.0183895701061934,-0.041410453274846,-0.0009244037792086,-0.0013298359699547,0.0012600177433341
1783206739103509800,4.684509765625,0.0010783698212355,0.0089127167087048,-0.0515735353708267,0.001715587452054,-0.0003002579323947,0.0001851657871156
1783206739113446700,4.69444677734375,-0.003486526941508,0.0140226801335811,-0.0482797545224428,0.0007729930803179,-0.0003271964378654,-0.0005960147827863
1783206739123383600,4.704383544921875,-0.0040571299036964,0.0118370797228068,-0.0559147794455289,0.0012350510805845,-0.0002052239142358,0.0003579296171665
1783206739133320400,4.714320556640625,-0.0095755279989913,0.0045630701318383,-0.0550204609543085,-0.0005146088078618,-0.0004836088046431,-9.95891168713e-05
1783206739143257600,4.724257568359375,-0.0016182488515973,0.0070180620685219,-0.0509837527841329,-0.0002325801178812,-0.0024972246028482,-0.0004820190370082
1783206739153194800,4.73419482421875,-0.0051958516100421,0.009359875954315,-0.0366074369072914,0.001704016700387,-0.0022686314769089,-0.0017298958264291
1783206739163131600,4.744131591796875,-0.0068292614981532,0.0135406687702983,-0.0417056368291378,0.0018616756424307,0.0009300913661718,0.0009423198644071
1783206739173068500,4.754068603515625,-0.0065984484169632,0.0098470018841326,-0.0454465769231319,0.0032474817708134,0.0029599673580378,0.0011846255511045
1783206739183005700,4.764005615234375,0.0004725128825753,0.0061174599669873,-0.0417173272669315,-0.0010276902467012,0.0030691570136696,-0.0002430952154099
1783206739192942600,4.773942626953125,-0.0011354337707161,0.0102208766978234,-0.0488981786817312,-0.0010572485625743,0.0010811383835971,-0.0005075703375041
1783206739202879700,4.783879638671875,-0.0045972646623849,0.0105756814848631,-0.0485930582553148,-0.0007041133940219,0.0013863365165889,-0.0008412646129727
1783206739212816600,4.793816650390625,-0.0018287132645025,0.0079991820603609,-0.050838206833601,0.0007553491741418,-0.0007566181011497,-0.0009290077723562
1783206739222753500,4.80375341796875,-0.0018592180006206,0.0099546269770711,-0.0397667777210474,0.0003241831436753,0.0028940429911017,-0.0008152907248586
1783206739232690700,4.813690673828125,-0.0015092355191707,0.0072054743994027,-0.036175475230813,-0.0001653973013162,0.0016795881092548,0.0010114416945725
1783206739242627600,4.823627685546875,-0.0075648822963237,0.0006729308255016,-0.0527858337700366,0.0012673838064074,-0.0011886362917721,0.000344852451235
1783206739252564700,4.833564697265625,-0.0069973115414381,0.0040597237195819,-0.0399257676750421,-0.0006561940535902,-0.0007656104862689,-0.0005855960771441
1783206739262501600,4.843501708984375,-0.0030801380977034,0.0103588969290256,-0.0387222371041774,-0.0001406054943799,0.0011606537736952,-0.0019065239466726
1783206739272438500,4.8534384765625,-0.0088799104176461,0.0152402392297983,-0.0503945547193288,0.0009828824549913,0.000938928220421,-0.0017307287780568
1783206739282375700,4.863375732421875,-0.0037120793256908,0.0086151950668543,-0.0435159011214971,0.0020625283941626,-0.0028813760727643,0.0010338989086449
1783206739292312600,4.8733125,-0.0043863618580624,0.0096754447095096,-0.0453092142790555,-0.0002731513231992,-0.0001914305612444,-0.0021269302815198
1783206739302250500,4.88325048828125,-0.0023395488634705,0.0073479516100138,-0.0466629669755697,0.0002176696434617,0.0022597429342567,-0.0031226861756294
1783206739312187600,4.893187744140625,6.2836103141e-06,0.0121474608462303,-0.046056233254075,-0.0019756639376282,0.0009767203591763,0.0030059835407882
1783206739322124800,4.903124755859375,0.0011409501960501,0.0162120799366384,-0.0539800119906663,-0.0002874862402677,0.0010771215893328,0.0010538867209106
1783206739332061400,4.9130615234375,-0.0048995720772072,0.0196788061991333,-0.0433598337769508,8.51806253194e-05,-0.0004495638422667,-0.0011456338688731
1783206739341998600,4.92299853515625,-0.0045814460387453,0.0064358052011579,-0.0444008672624826,-0.0011153724044561,0.0004231538623571,0.0022038239985704
1783206739351935700,4.932935791015625,-0.0045739933846518,0.0070713266257196,-0.0363058236122131,-0.0003686379641294,-0.0006984886713325,0.0006144910585135
1783206739361872600,4.94287255859375,-0.0013834171824157,0.006192205703631,-0.0406394689023494,-1.17747113108e-05,0.0012599998153746,-0.0001445095986127
1783206739371809800,4.952809814453125,-0.0041008229149505,0.0011197247449308,-0.0482733247816562,-0.0003182739019393,0.0001102010719478,-0.0006856007967144
1783206739381746400,4.962746337890625,-0.0048921924883499,0.0093116528984159,-0.0454290412664413,-0.0011156238615512,9.63527709245e-05,0.0005698134191334
1783206739391683600,4.97268359375,-0.0063264265425503,0.0110883802473545,-0.0433364529013633,0.0014257691800594,-0.000311782117933,2.2165477275848389e-07
1783206739401620700,4.982620849609375,-0.0088538991935551,0.0026739684496074,-0.0464928711056709,0.0008113775402307,0.0028949303086847,-0.000862109940499
1783206739411557600,4.9925576171875,-0.002443009237945,0.0093901249621063,-0.052777650463581,-0.0013228887692093,0.0018091849051415,0.0011918959207832
1783206739421494800,5.002494873046875,0.0042225495984777,0.0114674426928162,-0.0476800350636243,-0.0019077183678746,0.0005918540991842,-0.0012994913849979
1783206739431431400,5.012431396484375,-0.0045998219456523,0.0231075385387986,-0.0325707287371158,0.0011787069961428,0.0025052956771105,-0.0009583397768437
1783206739441368600,5.02236865234375,-0.0017013970904052,0.0125274731397628,-0.0523299066960811,0.0007033329457044,-0.0008867727592587,9.186565876e-06
1783206739451305700,5.0323056640625,0.0026705343835055,-0.0027890461966395,-0.0536713844329118,-0.0005920995026826,-0.0017046011053025,-0.000744666904211
1783206739461242600,5.04224267578125,-0.0090449282536283,0.0028838848732411,-0.045429625788331,0.0018907655030488,-0.0028223297558724,0.001114752376452
1783206739471179800,5.0521796875,-0.0092381492707878,0.0075543609023094,-0.0445294620782136,0.0013118172064423,-0.0004625441506505,0.0002662045881152
1783206739481116400,5.062116455078125,-0.008649754923582,0.0091056819975376,-0.0491729039698839,0.0012337863445281,-0.0001858416944742,-0.0015447449404746
1783206739491053600,5.072053466796875,-0.00755319185853,0.0043785804104059,-0.0433346993356943,-0.0006942097097635,0.0009872037917375,-0.000909773632884
1783206739500990700,5.08199072265625,-0.0120595998996868,0.0110210871648043,-0.0505225650131702,0.0016035661101341,-0.0006405203603208,0.0017094451468437
1783206739510927600,5.091927734375,-0.0091553298255428,0.0070277066797018,-0.050828854483366,0.0015984438359737,-0.0001581497490406,0.0009863846935331
1783206739520864800,5.10186474609375,-0.0052439650680869,0.0046085167087614,-0.043954292538762,0.0016375919803977,-0.0005160789005458,-0.0022296488750725
1783206739530801200,5.11180126953125,-0.0022166166035458,0.008198869350925,-0.0562339283972978,0.0033733965829014,-0.0002917498350143,-0.0017284722998738
1783206739540738000,5.121738037109375,0.0002248947970569,0.0119954851549118,-0.0523456887871027,-0.0015310812741518,0.001198555342853,0.0002281521447002
1783206739550675200,5.13167529296875,-0.0017648907806724,0.000724368751794,-0.0415875634074211,0.0006982497870922,0.0021630791015923,0.000588682712987
1783206739560612000,5.141612060546875,-0.0014968874942511,0.0078065820977091,-0.0397971728593111,-0.0018677059561014,0.0003606514073908,-0.0013722027651965
1783206739570549200,5.15154931640625,-0.0021754078103229,0.0079278703898191,-0.0487701683878898,0.0004697330296039,-0.0004722843877971,0.0009898219723254
1783206739580486100,5.161486083984375,-0.0002507598906755,0.007162950431928,-0.040539515659213,0.0005722651258111,0.0013506491668522,0.0011775747407227
1783206739590423000,5.171423095703125,-2.71802678704e-05,0.005875102578476,-0.0471428594470024,0.0024681994691491,-0.0001651854254305,4.64327167719e-05
1783206739600360200,5.181360107421875,-0.0074349723063409,0.0108870124563574,-0.0455056136339902,0.0010324893519282,0.0011786455288529,-0.000999656971544
1783206739610297000,5.191297119140625,-0.0056236485680565,0.0103971831128001,-0.0529839866906404,-0.000540804117918,0.000201788265258,-0.0003689907025545
1783206739620234200,5.201234130859375,-0.0042054158005863,0.0141006407406181,-0.050146132916212,0.0007649436593055,-0.0023362040519714,0.001109329983592
1783206739630171100,5.211171142578125,-0.0067864452697336,0.0117785544686019,-0.0467114822924137,0.0014723660424351,0.0003917594440281,-0.0008437745273113
1783206739640108000,5.22110791015625,-0.0083405063113197,0.0119729810621589,-0.0561444965481758,0.0007999185472726,-0.0009243749082088,-3.87011095881e-05
1783206739650045200,5.231045166015625,-0.0064122051298618,0.0082554949089884,-0.0432715709716081,-0.0001123482361435,0.0002338103950023,0.0025697441305965
1783206739659982000,5.240982177734375,-0.0043052229132503,0.0127559481333941,-0.0471627331912517,-0.0005062296986579,0.002120659686625,0.0018589466344565
1783206739669919200,5.250919189453125,-0.007946538557671,0.0119025461744517,-0.048353988802433,8.33021476864e-05,-0.0003779316321015,0.0014783525839447
1783206739679856000,5.260856201171875,-0.004115545560047,0.0184208420272916,-0.0470049122810363,-0.0006053913384675,0.0004676221869885,1.17500312626e-05
1783206739689793000,5.27079296875,-0.0068033598719164,0.0128618927258998,-0.0501385341316461,-0.0005987007170915,0.0006814561784267,0.0020269900560379
1783206739699730200,5.280730224609375,-0.008217574051395,0.007767711392045,-0.0411632005155086,2.873968333e-05,-0.0002794126048684,-0.0008580123540014
1783206739709667300,5.290667236328125,-0.0006093275373801,0.0147523826476186,-0.0508867221504449,0.0014504548162221,-0.000309691298753,-0.002235660329461
1783206739719604200,5.300604248046875,0.0043451165322214,0.0140699533414095,-0.043708208823204,0.00083286780864,-3.93805094063e-05,-0.0024409899488091
1783206739729541000,5.310541015625,0.0012364464597776,0.0102146661527454,-0.0447632708340883,0.0007587019354104,0.0034523461945354,6.75315968692e-05
1783206739739478000,5.32047802734375,-0.0110485231610015,0.0193096075605601,-0.0396849446564912,0.0007437886670231,-0.0023472197353839,-0.0003540467005223
1783206739749415200,5.330415283203125,-0.0092187139179557,0.0155170834098011,-0.0419242480158805,-0.001541125588119,0.0005296063609421,0.0009879090357571
1783206739759352300,5.340352294921875,-0.0044578927243128,0.0108306060940027,-0.0467103132486343,7.64783471822e-05,0.0015685055404901,0.0011993639636784
1783206739769289200,5.350289306640625,-0.0022941753517836,0.0193819421444088,-0.0411789826065301,0.0002843476831912,0.0007106289267539,0.0001112255267798
1783206739779226000,5.36022607421875,-0.0054781391501426,0.0120628513026982,-0.0456704488068819,-0.000183836556971,-0.0016441382467746,0.0011242919135838
1783206739789163000,5.3701630859375,-0.0094511709669604,0.0137122259449213,-0.0494201567292213,0.0008072098717093,6.63874670863e-05,-0.0032106551807373
1783206739799101200,5.38010107421875,-0.0101987744638696,0.0173907683271914,-0.0414957934707403,0.0020810002461075,-0.0002393433824181,-0.0026687020435929
1783206739809038000,5.3900380859375,-0.0109453185148537,0.0169887633975595,-0.0437438646584749,0.0013048639521002,0.0006290371529757,5.00238966196e-05
1783206739818975200,5.399975341796875,-0.0065234104193747,0.0099696784157305,-0.0440472315192222,-0.0014411211013793,-0.0006258441135287,-0.0012719694059342
1783206739828912400,5.409912353515625,-0.0077890464410185,0.0051502223700284,-0.0449392119228839,0.0006227055564522,0.0020624720491468,0.000284956768155
1783206739838849000,5.41984912109375,-0.0030131372760981,0.019034078554809,-0.051222237715125,-0.0006545465439558,-0.0012859203852713,-0.0001976080238819
1783206739848786200,5.4297861328125,-0.0065157751021906,0.0107502343341708,-0.044187516772747,-0.0005188575014472,-0.0005557285621762,0.0018811547197401
1783206739858723000,5.43972314453125,-0.0107856344411149,0.0072022595290094,-0.0545019900381565,-0.0010536201298236,0.0020650885999202,-0.0027378317900002
1783206739868660200,5.44966015625,0.0002036693459376,0.0028287936851382,-0.0521083728998899,0.0009471755474805,-3.20086255669e-05,0.0017754449509084
1783206739878597400,5.459597412109375,-0.0076432812947779,0.0062880672935396,-0.0515080689191818,0.0005889805033802,-0.0008147116750478,-0.000836316961795
1783206739888534000,5.469533935546875,0.0011439824033528,0.0125664899758994,-0.0459662168830633,7.85198062658e-05,-6.99320808053e-05,-0.001666166470386
1783206739898471200,5.47947119140625,0.0024867387818172,0.0085300740666687,-0.0456499905407428,-0.0030245957896113,-0.0019884733483195,0.000209764111787
1783206739908408000,5.489407958984375,-0.0107494671491906,0.0083361589297652,-0.0493839163720607,0.0010128114372491,0.0020531280897557,0.0021666020620614
1783206739918345200,5.49934521484375,-0.0035232056900858,0.0140731682118028,-0.0447469042211771,0.001915356144309,-0.0009037796407938,0.0015940226148813
1783206739928282400,5.509282470703125,-0.0117624435840174,0.0170185009486973,-0.0481856464982032,-2.91559845209e-05,0.0015459768474102,-0.0007300968281924
1783206739938219000,5.519218994140625,3.21852365508e-05,0.0140380968984216,-0.0456499905407428,-0.0001873476430773,0.0022375998087227,-0.0018102750182151
1783206739948156200,5.52915625,-0.0015702815240249,0.0042170331731438,-0.0453483772456645,-0.0014972100034356,-3.7769787013e-06,-0.0013018548488616
1783206739958093000,5.539093017578125,0.0005807590300217,0.0148364807344973,-0.048932080951333,-0.0009842850267887,0.0007778606377542,0.0014912686310708
1783206739968030200,5.5490302734375,-0.0002684416778385,0.0137089380092918,-0.045037996122241,0.0001173131167888,-0.0016076280735433,-0.0004814581479877
1783206739977967400,5.55896728515625,-0.0051009764008224,0.0086341920282691,-0.0534030888855457,-0.00029041711241,-0.0002214526757597,7.16804061084e-05
1783206739987904000,5.568904052734375,-0.0024268983533605,0.0075089873906224,-0.0505418542355299,6.90519809722e-05,-0.0029303226619958,0.0006951440591365
1783206739997841200,5.578841064453125,-0.0035495822403579,0.0005796265188604,-0.0484404980421066,0.0008914368227124,0.0001722602173686,0.0002820878289639
1783206740007778000,5.588778076171875,-0.0017146584307774,0.0063216042369604,-0.0500888497710227,0.0009918259456753,6.51269219815e-05,-0.0005616198759526
1783206740017715200,5.598715087890625,-0.0029847514318302,0.0168571729071438,-0.0487497101217508,0.0005494747310876,0.000549822114408,0.0013502635993063
1783206740027652400,5.60865234375,-0.0025721155103296,0.01577317706272,-0.0517412931531667,0.0012464085593819,0.0003075958229601,0.0022036349400877
1783206740037589000,5.618589111328125,-0.0031037381689995,0.013446633811295,-0.0480091208875179,-0.0004004901275038,0.0001656492240726,0.0014150729402899
1783206740047526100,5.628526123046875,-0.0092798329880461,0.0034695027414709,-0.0456201799243688,0.001129069365561,-0.000863317400217,-0.0011736243031919
1783206740057463300,5.63846337890625,-0.0067495838580653,0.0110948830533772,-0.04487199190557,-0.0013380832970142,-0.0016260468401014,-0.0008726872038096
1783206740067400200,5.648400146484375,-0.0159076170973479,0.0124378220949321,-0.0414203901469707,0.0007313210517168,0.0009681601077318,0.0020903041586279
1783206740077337300,5.65833740234375,-0.0077244202395901,0.0066845192652195,-0.0450087700277566,-0.002036502584815,0.000787598080933,0.0008647171780467
1783206740087274000,5.66827392578125,-0.004238222091645,0.0086294427879154,-0.0527829111605882,-0.000712051987648,0.0011431435123085,-0.0016298702685162
1783206740097211100,5.678211181640625,0.0014640081379562,0.0051877779014408,-0.0500952795118093,0.0010767932981252,0.000409176107496,-0.0022266847081482
1783206740107148300,5.688148193359375,-0.0032831498565152,0.0118271428506821,-0.0429039067029953,-0.0004751440137624,1.88429839909e-05,0.0009102059993892
1783206740117085200,5.698085205078125,-0.0046850160110741,0.0141408996857702,-0.0461918423324823,-0.0021444130688905,0.0009940927848219,0.0001101922243833
1783206740127022300,5.708022216796875,-0.003775573015958,0.0112969814967364,-0.053374447312951,0.0011902432888746,0.0005592363886535,0.0001994119957089
1783206740136959000,5.717958984375,-0.0040298035053536,0.0189715347126126,-0.0515863948523998,-0.0030553685501217,-0.0008413200266659,-0.0023545594885945
1783206740146896100,5.727896240234375,-0.0105686306895688,0.0139157856930047,-0.0453016154944896,0.0013830950483679,0.0004496010951697,0.0008971572387963
1783206740156833300,5.737833251953125,-0.0033669191498309,0.0007242226213216,-0.042007250124216,-0.0008209366351366,-0.0005197892896831,-0.0017348447581753
1783206740166770200,5.747770263671875,-0.000322327289544,0.0031258038703352,-0.0511333903878927,-0.0001420006155967,0.0008712145499885,-0.0024464512243866
1783206740176707300,5.757707275390625,0.0006334390653297,0.0082882281348109,-0.0448404277235269,-0.0017494847998023,-0.0028976909816265,0.0041123814880847
1783206740186644000,5.76764404296875,0.0047463542768731,0.0106461894378066,-0.0322656083106994,-0.0007146410644054,0.0016817688010632,0.0008482509292662
1783206740196581000,5.7775810546875,-0.0035129765570163,0.0068785074673593,-0.0433376219451427,0.001341319642961,-0.0001922980882227,-0.0023121223784983
1783206740206518300,5.787518310546875,-0.011707535059005,0.0097539898384362,-0.0445358918190002,-0.0012725852429866,7.21523538231e-05,-0.0009778970852494
1783206740216455200,5.797455078125,-0.0092668639086186,0.0075949851736426,-0.0368973597645759,-0.0004038624465465,0.0006692330352962,-0.0013744416646659
1783206740226393300,5.807393310546875,-0.0120888990594074,0.0118967009555548,-0.0413829807460308,0.0007973434403538,0.0007340530864894,0.0006567579694092
1783206740236330200,5.817330322265625,-0.0016236556790769,0.0151926006957888,-0.0478244119703769,-0.0012857811525464,0.0004701339639723,-0.0005299465265125
1783206740246267100,5.82726708984375,-0.0028680662496015,0.0128825701877474,-0.0342108971595764,0.0003141788765788,0.0017789113335311,0.0008942459244281
1783206740256204000,5.8372041015625,-0.0013640914274379,0.0285719414245337,-0.0377823259055614,-0.0009936997666954,-0.0057831346057355,-4.55833505839e-05
1783206740266141200,5.84714111328125,0.0045007454853504,0.014375439094007,-0.0413677831768989,-0.0010124826803803,0.0002675121650099,0.0019601015374064
1783206740276078300,5.857078369140625,0.0022548297220841,0.011572729698196,-0.0250485165387392,-0.0023922659456729,0.0005745748057961,-0.0003137052990496
1783206740286015200,5.86701513671875,-0.0019291414316743,0.0142651836525648,-0.0340267727643251,0.001479560509324,0.0024174158461391,-0.0018026480684056
1783206740295952100,5.8769521484375,-0.0041794411091133,0.01507379662171,-0.0331400530576705,0.0001069670543074,0.0007396242581307,0.0017020718660205
1783206740305889000,5.886888916015625,-0.0071999945066869,0.0193479668095707,-0.0249064777195453,-0.0009459285065531,0.0013473448343575,0.0002298601903021
1783206740315826200,5.896826171875,-0.011159253526479,0.0075363137889653,-0.0204208567380905,0.001879951916635,0.0021548150107264,-0.002177104819566
1783206740325763300,5.906763427734375,-0.0054290393114089,0.0103106008078902,-0.0249140765041112,0.003675689920783,0.0009640329517424,-0.0015907471533864
1783206740335700200,5.9167001953125,0.004830196635425,0.0095188659083098,-0.0231295311748981,-6.44531100988e-05,-0.0003624875098466,-0.0017516020452603
1783206740345637000,5.92663720703125,0.0029980493048205,0.0175288616236299,-0.022676526710391,0.0008832952007651,-0.0004371418617665,-0.0002616578713059
1783206740355574000,5.936573974609375,-0.0025562603540718,0.0159739603318274,-0.025815409258008,-0.0013809241354465,0.001440386287868,-0.0047597368247807
1783206740365511200,5.94651123046875,0.0004080328116193,0.0123525549642741,-0.0226718505352735,0.000777400098741,0.0003872755914926,0.0017519064713269
1783206740375448300,5.9564482421875,-0.002959726588428,0.0149221131913363,-0.0228203190952539,0.0018700947985053,-0.0013480400666594,-0.0008590563666075
1783206740385385200,5.96638525390625,-0.0055373950567096,0.0085788816444575,-0.0231219323903322,0.0018758531659841,-0.0003227312117815,-0.0012014959938824
1783206740395322000,5.976322021484375,-0.0036443478517234,0.0023103227689862,-0.0157926124155521,-0.0007668016478419,0.0022352347150444,-0.001798843150027
1783206740405259000,5.986259033203125,-0.0077128393996506,0.0069723962958902,-0.0235766904205083,0.0002316422760486,0.0018947483040392,-0.0006156945601105
1783206740415196200,5.996196044921875,-0.0120339540017768,0.0118698860138654,-0.0253688345342874,-0.0016533425077795,-0.0003867815248668,0.0008362608496099
1783206740425133300,6.00613330078125,-0.0030292846933007,0.0079401453495025,-0.0186310507118701,-0.0015593934804201,-0.0015503554604947,-0.0002987484913319
1783206740435070200,6.0160703125,-0.0109113066473975,0.0083576401092112,-0.0199731129705905,0.0020968597382307,0.0009016166441142,-0.0004236507229506
1783206740445007000,6.026007080078125,-0.0094015962041914,0.0078403382368385,-0.0195300453782081,0.00024258159101,0.0001398520544171,0.0027997232973575
1783206740454944300,6.0359443359375,-0.0032939635114744,0.0060270052045583,-0.016387655699253,-0.0002559619024395,0.0019563944078981,-0.0014922268455848
1783206740464881200,6.045881103515625,-0.0085197353357449,0.0047752515777945,-0.0156412212461233,0.0017583528533577,0.0043465308845043,-0.0011759747285395
1783206740474818300,6.055818359375,-0.0061770081344991,0.0096139968458563,-0.0072673606544733,0.0012243892997503,-0.0009177397005259,0.0010357804130762
1783206740484755200,6.065755126953125,-0.0064928691506385,0.0065822279345244,-0.0244844529151916,0.0002959445118904,0.0001010014675557,0.0009377568494528
1783206740494692000,6.075692138671875,-0.0071575436044484,0.0067694941349327,-0.0220960964739322,0.0036177048459649,0.0002376218326389,0.0003782268613576
1783206740504629200,6.085629150390625,-0.0023813787112012,0.0025850480571389,-0.0095452424585819,0.0011050933972001,0.0008712541311979,-0.0029546036384999
1783206740514566100,6.095566162109375,-0.0029242168836295,0.0024034078799188,-0.0162853643685579,0.0011234693229198,-0.0006866948679089,-0.0008842621464282
1783206740524503300,6.10550341796875,-0.007253405194357,0.0056967503368854,-0.005205167427659,-0.000280587002635,-0.0025726044550538,0.0025851700920611
1783206740534440000,6.11543994140625,-0.0085522128332406,0.004353299838677,-0.003550970479846,0.0019170530140399,-0.0010889573022723,-0.0027470109052956
1783206740544377000,6.125377197265625,-0.0053693450134247,0.0117422410462051,-0.0050496846050024,0.0010774312540888,0.0002167341299355,0.0011444136034697
1783206740554314000,6.13531396484375,-0.0028018326129764,0.0119842331085354,0.0003308393895626,0.0012508025392889,-0.0012991372495889,0.0007239005062729
1783206740564251000,6.1452509765625,-0.0073929963281378,0.0211116885464638,-0.0047480713099241,-0.0022134045138955,-0.0015174662694334,0.0028263751883059
1783206740574188000,6.15518798828125,-0.0005831336501985,0.0086005089543759,-0.0072772975265979,-0.0012679826468229,0.0019568935967981,-0.0016741006402298
1783206740584125000,6.165125,-0.000983238883689,0.0016598960362374,0.0033469723403453,-0.0012771012261509,-0.0002668485976755,-0.0033684661611914
1783206740594062000,6.17506201171875,0.0013660276561975,0.0121295598633587,-0.0147603467583656,0.0005785897374153,-5.43282367289e-05,-0.0012738900259137
1783206740603999000,6.1849990234375,0.005530271196179,0.0214935274709016,-0.0167068046510219,0.0010761208832263,-0.0002851178869605,0.0014286991208791
1783206740613935900,6.194935791015625,0.0013711787553504,0.0170730076149106,-0.0037099604338407,0.0028042467311024,0.0008621718734502,-0.0006485665217041
1783206740623873000,6.204873046875,0.0087524115804582,0.0077525868881493,-0.0132926122933626,-2.97678634524e-05,-0.0002444391138851,-0.0005677728913724
1783206740633810000,6.214809814453125,-0.0011189575599506,0.015075184861198,-0.0104547585189342,0.001870397478342,0.0019460110925137,0.00259206793271
1783206740643747000,6.2247470703125,-0.0197505197284743,0.0041202948004007,-0.0007183774024248,0.0001459950581192,1.02082267403e-05,-0.0005517366807907
1783206740653684000,6.23468408203125,-0.0108949400344863,0.0078686875484883,-0.0230202255815267,0.0011681169271469,0.0025383471511304,-0.0010777108836919
1783206740663620900,6.244620849609375,-0.0048265433736145,0.018374883993715,-0.0053629883378744,-0.0018491055816411,0.0011000293307006,-0.0021995690185576
1783206740673558000,6.25455810546875,-0.004590359997563,-0.001442088567093,0.0073696519851684,-0.0018906509503722,-0.0012219808995723,-0.0007497440092265
1783206740683495200,6.2644951171875,-0.0029162893055006,-0.0020355244155973,-0.0053378538966178,-0.0006338637322187,8.6510553956e-06,-0.0001439955085515
1783206740693432000,6.27443212890625,-0.0178519560981541,0.0246628051567822,-0.0015893150180578,-0.0015579806640744,-0.0003820350393652,-0.0001080427318811
1783206740703369000,6.284368896484375,-0.0041252267038449,0.0099174367718398,-0.0096650694459676,-0.0013668974861502,0.0008524861186742,0.0004939134232699
1783206740713305900,6.294305908203125,0.0004744491113349,0.0043279462017118,0.004696048861742,0.0001074280589818,0.0001328997313976,6.43455423414e-05
1783206740723243000,6.304242919921875,0.0077699033491313,0.0027638386901468,0.0008043021202087,0.0013164738193154,-0.0002803807146847,-0.0001304084435105
1783206740733180200,6.31418017578125,0.003258125013113,0.0114998836576938,-0.0066945292025804,0.0028009191155433,0.0005095126107335,0.000203019240871
1783206740743117000,6.324116943359375,-0.011463570235297,0.0153127930093556,0.0033235914647579,0.0006385408341884,0.0031858172733336,-0.00263462215662
1783206740753054000,6.334053955078125,-0.0092016531853005,0.013151377191767,0.0021194763720035,0.0005884738638997,0.0001330357044935,-0.0002505604643374
1783206740762990800,6.343990966796875,-0.0058623161621391,0.0083058368567377,-0.0068698857694864,0.0014922954142093,0.0013657980598509,-0.0011256553698331
1783206740772928000,6.353927978515625,-0.0023913155833259,0.0113707773853093,-0.0001291793376207,-0.0027706259861588,-7.15102069079e-05,-0.0003591976128518
1783206740782865200,6.363865234375,-0.0006633958121761,0.0072148998148739,0.0007628010660409,0.0005959346890449,0.0010002558119595,0.0003559284377843
1783206740792802000,6.373802001953125,0.0043989290786907,0.0201985192243009,0.0025485154390335,0.0025261938571929,0.0010180990211665,-0.0001316964626312
1783206740802739000,6.383739013671875,0.0076767817055806,0.017993994917348,0.0004389759391546,0.000125216320157,0.0006848331540822,-0.0011009951122105
1783206740812675800,6.39367578125,0.0069058703983202,0.0169184746403247,-0.0013555062621831,-0.0002409676089882,0.0018249321728944,2.89841555058e-05
1783206740822613000,6.403613037109375,3.91994992271e-05,0.0217900992646813,0.0047615153133869,0.000264098867774,0.0008948948234319,0.0006120190955698
1783206740832550100,6.413550048828125,-0.0097752152895554,0.0183534758795052,-0.0052682957917451,0.0012071235105395,0.0013833185657858,-0.0028247903101146
1783206740842487000,6.423487060546875,-0.0104717461863532,0.0110294166017323,-0.0191956988573074,0.0010547153651714,0.0014241933822631,-0.0012993558775633
1783206740852424000,6.433423828125,-0.0095986896788701,0.0016161299597471,0.0123754974484443,-0.000150098465383,-8.23568552732e-05,-0.0011345061939209
1783206740862360800,6.44336083984375,-0.0135632824609056,0.0132868401397019,0.0244932207435369,0.0006906827911734,-0.0022336645051836,-9.32123512029e-05
1783206740872298000,6.453298095703125,-0.0162700206689536,0.0162140526980161,-0.0036503392010927,0.0006307614967226,-0.0011044847778975,-0.0023699486628174
1783206740882235100,6.463235107421875,-0.0168656119419261,0.0256825766585767,-0.0135357733994722,-0.0011584572494029,0.002186169847846,-0.003014407120645
1783206740892172000,6.473172119140625,0.0071935282332822,0.0179225371163338,0.000382277315855,-0.0007912078872323,0.0002148980274796,-0.0015664463862776
1783206740902109000,6.48310888671875,0.006488521769084,0.0179353235326707,0.0119037882834672,-0.0013403836637735,0.0058825965970754,0.0002809795551002
1783206740912046000,6.493046142578125,-0.0196446116685867,0.0409061570145189,-0.0020306290447711,0.0014271726831793,0.0045052096247673,-0.0015201161149889
1783206740921983000,6.50298291015625,-0.0227475095873698,0.0370269774936139,-0.0132896896839141,0.0052561704069375,0.0047879312187433,-0.0018420916749164
1783206740931920100,6.512920166015625,-0.0004077040180563,0.00387676836811,0.0013584288716316,-0.0011503305286169,0.0003801332786679,0.0009334550704807
1783206740941857000,6.52285693359375,0.0377867463523522,-0.0515863217871636,-0.0001303483814001,-0.0013059517368674,0.0098247667774558,-0.0019762022420763
1783206740951794000,6.5327939453125,-0.027345541434735,0.0498316601395606,0.0134860890388488,-0.0010910350829362,-0.0065342322923243,-0.0004251771606504
1783206740961731000,6.54273095703125,0.0123981476716697,-0.0462437917154282,0.0096171386510133,-0.0007038237527012,0.006380493286997,0.0010924777016043
1783206740971668000,6.55266796875,-0.0259945652171969,0.0523003883406519,0.0043622868627309,-0.0012417826801538,-0.0006720898672938,0.0007193689234554
1783206740981604000,6.56260400390625,-0.0131599258244037,0.0123696522295475,-0.006857610809803,0.00146000739187,0.0029913620091974,1.34455040097e-05
1783206740991541000,6.572541015625,-0.0113912356514483,0.0076912851549685,-0.0068751464664936,-0.0007386989891529,0.0071783838793635,-0.0034436038695275
1783206741001478000,6.582477783203125,-0.0087872636981308,0.0150335376765578,0.011818448087573,-0.0008004363626241,-0.0021709082648158,0.0007946277037262
1783206741011415000,6.5924150390625,0.0017897329609841,-0.0149657331373542,0.0059860886722803,0.0009332811459898,0.0027985505294054,0.0008580111898481
1783206741021352000,6.60235205078125,-0.0113191933285444,0.0013143705341964,0.0053857846915721,-0.0018914248794317,-0.0023045502603054,0.0007334486581385
1783206741031289000,6.6122890625,-0.0085890011796727,-0.0007115823354572,0.0082435122102499,0.0005994290113449,-0.0003591114655137,0.0001448898110538
1783206741041226000,6.62222607421875,0.0076480305351316,-0.0169607794120907,0.0070493339896202,-0.0010280283167958,-0.0008702739141881,0.0003043781034648
1783206741051163000,6.632162841796875,0.0100567356446757,0.0089894352067261,0.0121510410428047,0.0003349771723151,-0.0017483183182775,0.0030833866912871
1783206741061100000,6.64210009765625,0.0059191609159111,-0.0032726649951189,0.0058855509072542,-0.0025433534756302,-0.0030962619930505,-0.0012501548044383
1783206741071037000,6.652036865234375,-0.0051755029417574,-0.0131226625539362,0.0099514851719141,0.0009555080905556,0.0001187063753604,-0.000114316586405
1783206741080974000,6.66197412109375,-0.0055849605254828,0.0003227291483432,0.009822890356183,-0.0019805077463388,-8.69976356625e-05,0.0012472802773118
1783206741090911000,6.671910888671875,0.0003204275934025,-0.0115288174912333,0.0041530280262231,0.0006672069430351,-0.0001224176958203,0.0014046728610992
1783206741100847900,6.681847900390625,-0.0122467565022408,0.0068128218200057,-0.0049696051061153,0.0005966974422335,0.0004261811263859,-0.0008151943329721
1783206741110785000,6.691784912109375,-0.0182747480874881,0.0165161774497479,0.0153811090052127,-0.0015388913452625,0.0016307290643453,-0.0020245357882231
1783206741120722200,6.70172216796875,-0.0092936423176899,0.0181589031554758,0.0067068041622638,0.0018606297671794,0.0008642286993563,-0.0002095075324177
1783206741130659000,6.7116591796875,0.001960559483245,0.0255750246308743,-0.0073749126821756,0.0026446646079421,-0.0003232746385037,-1.72273721545e-05
1783206741140596000,6.721595947265625,0.0171886333512142,0.0188619368582963,-0.0006552490383386,-0.0005239648744463,0.0004306663759052,-0.0005298857577145
1783206741150532900,6.731532958984375,0.0007844283759593,0.0195911279156804,0.0099660982191562,-0.000294666737318,0.0020972723141312,-0.0012430802453309
1783206741160470000,6.741469970703125,-0.0106320878472179,0.0106672322258353,0.0187999775379896,-0.001002175733447,0.000399446580559,-0.0002065447624772
1783206741170407200,6.7514072265625,0.0035652912661433,0.0119314069427549,0.0050210430324077,0.0006987852975726,0.0016378164291381,0.0006230301223695
1783206741180344000,6.761343994140625,0.0096106723776087,-1.67319390922e-05,0.0009819967746734,0.0007670484483242,-0.0009021423757076,-0.0004106927663087
1783206741190281000,6.771281005859375,-0.0055192748781293,0.0072085431393235,0.0051607437640428,0.0013880971819162,0.0012435661628842,0.0014165022876113
1783206741200217900,6.7812177734375,-0.0126692196980118,0.012722995711863,0.0089051909893751,-0.0006233267486095,-0.0009703324176371,0.0033917995169758
1783206741210155000,6.791155029296875,-0.006830941998586,0.0242801625147461,-0.0065104048073291,-0.0007769912481307,0.0004169079475104,-0.0006476833950728
1783206741220091100,6.801091064453125,-0.0125228334972634,0.0211368960529565,0.004862053078413,0.0009671403095126,-0.0014502424746751,-0.0024410902988165
1783206741230028000,6.811028076171875,-0.0102506142489612,0.0122873807735741,0.0081570029705762,-0.0008203731849789,0.0007716324180364,0.000362419290468
1783206741239965000,6.82096484375,0.000406900300458,-0.0011984890695661,0.0157914433717727,-0.0004543485119938,0.0007680966518819,-0.0008584263268858
1783206741249902000,6.830902099609375,-0.0027236528102308,0.0090592855725437,0.0026285949379205,0.0022982945665717,0.0002205511555075,-0.0007673462387174
1783206741259839000,6.8408388671875,-0.0091728654822334,0.0212570883665233,7.89104551076e-05,-0.000318132340908,-0.0023532737977802,-0.000383922830224
1783206741269776100,6.850776123046875,-0.0130505471657961,0.0165817900318652,-0.0017255086183547,0.0016704499721527,0.0032678600400686,-0.0017107096500694
1783206741279713000,6.860713134765625,-0.0045861587464809,0.0188851716034114,0.0031879823863506,0.000298224389553,-0.0014308309182524,0.0012585625518113
1783206741289650000,6.87064990234375,-0.0023546003021299,0.017672727073729,0.0063373863279819,-0.0003694305196404,-0.002540836110711,-0.0005318806506693
1783206741299587000,6.880587158203125,-0.0011666326265782,0.0148037475086748,0.0049988312005996,-0.0009422618895769,-0.0020058415830135,-0.0022210411261767
1783206741309524000,6.89052392578125,-0.0038755262590944,0.0233479231659322,0.0003647416591644,-0.0024237791076302,0.0002629049122333,-0.0013123706448823
1783206741319461000,6.900461181640625,-0.007283215810731,0.0056832332681864,-0.0008189151674509,-0.0019694622606039,0.0011308821849524,0.0018691606819629
1783206741329398000,6.91039794921875,-0.010050232838653,0.0088408935815095,0.0069692544907331,0.000915540382266,-0.0001074876636266,-2.64775007963e-05
1783206741339335000,6.9203349609375,-0.0122444549473002,0.0095817750766873,0.0147527479737997,0.0018635354936122,-0.0006373757496476,-0.00054766330868
1783206741349272000,6.93027197265625,-0.0056601081209257,0.0104985245954245,0.008922142124176,-0.0004211906343698,0.0023482940159738,0.0023083104752004
1783206741359209000,6.940208984375,-0.0005796630514785,0.0086349226806312,-0.0030617256581783,0.0013168640434741,0.0008059898391366,-0.0006797290407121
1783206741369144800,6.950144775390625,-0.0022618805173784,0.0207007696580141,-0.0011140987217426,0.0016678683459758,-0.0002914988435804,-0.0009841283317655
1783206741379082000,6.96008203125,0.0031703005991876,0.0160725253354758,0.0021609774261713,0.0020084455609321,0.0019165705889463,-0.0001655532978475
1783206741389019100,6.97001904296875,-0.0013219327861443,0.0069895666263997,4.50081855058e-05,8.27144831418e-05,0.0002265283837914,6.24132808297e-05
1783206741398956000,6.9799560546875,-0.0128750079357996,0.0100181206673383,0.0103776016294956,0.0009911740198731,-0.0006334618665277,0.0004866733215749
1783206741408893200,6.98989306640625,-0.0121521004887297,0.0046278789963573,-0.001594575715065,7.3448754847e-05,0.0005287411622703,-0.0017216197447851
1783206741418829800,6.999829833984375,-0.0080193115329369,0.0011423749681562,0.0013993454039096,0.000239866785705,0.0009474172256886,0.0010312909726053
1783206741428767000,7.00976708984375,-0.0097051091954112,0.0011812456738203,0.012318214303255,0.0019948901608586,0.0016787210479378,0.0025173348840326
1783206741438704000,7.0197041015625,-0.0051759778657928,0.0068462856981903,0.0007879355072975,0.0012924196198582,-0.0005948888137936,0.0002228710800409
1783206741448641000,7.02964111328125,-0.000107442429848,0.0161940328232944,0.0058761985570192,-0.0009907083585858,-0.0022084978409111,-0.0001542326062917
1783206741458578200,7.039578125,-0.0111013493267819,0.0191756789825856,0.0106686935305595,0.0008697593584656,0.0002030073665082,0.0002818803768604
1783206741468514800,7.049514892578125,-0.0061813189834356,0.0085202833250164,0.0079722940534353,0.0009829439222812,-0.0004763649776577,-6.19336497038e-05
1783206741478452000,7.059451904296875,-0.0035852746082469,0.010308774176985,0.0082177932471036,0.0632488131523132,-0.0354352444410324,0.0010342027526348
1783206741488389000,7.06938916015625,0.0097516517508775,0.0171278065420687,0.3468845154345035,0.0244441609829664,0.07048000395298,-0.0043954499997198
1783206741498326000,7.079325927734375,-0.0456457527570426,0.0140639619920402,-0.004130816194415,-0.0361727066338062,-0.0863031297922134,0.0006159888580441
1783206741508262000,7.089261962890625,-0.0112684860546141,0.0353474999740719,-0.6446434731721877,0.0264344811439514,0.0770924538373947,-0.0006372947245836
1783206741518199000,7.099198974609375,-0.0273396962158381,0.007056567448005,0.5312170004785061,0.0162185952067375,-0.0194303803145885,-0.0004611266776919
1783206741528136000,7.109135986328125,-0.0212328307081013,0.031908830762282,0.0256254396438598,-0.0134170595556497,-0.0251290127635002,-0.0013900373596698
1783206741538074000,7.11907421875,0.0355470776667818,-0.007760112607479,-0.5595587133437395,-0.0026027616113424,0.008230541832745,0.0012984711211174
1783206741548011000,7.129010986328125,-0.0212678289562463,0.0079669602911919,0.2310258471578359,-0.0059769880026578,-0.0109450165182352,-0.0011974433436989
1783206741557948200,7.1389482421875,0.0265169816561043,-0.0059027943029999,0.1616477750271558,-0.0150136789306998,0.0020390157587826,-0.0008823841344565
1783206741567884800,7.148884765625,-0.0092928751327097,0.0147848966777324,-0.1605132180392742,-0.0162344723939895,-0.0108994208276271,0.002408217638731
1783206741577822000,7.158822021484375,0.0018440204314887,0.0091704908620566,-0.0200812495201826,-0.0110905217006802,0.0275221951305866,0.0013043435756117
1783206741587759000,7.168759033203125,-0.0257206436466425,0.0177945268224924,0.1626420467615127,-0.0170096643269062,0.0055090370588004,0.0021762622054666
1783206741597696000,7.178696044921875,-0.0135215622110292,0.0251323954299092,-0.0226736041009426,-0.0103705627843737,0.0042271637357771,-0.0015744853299111
1783206741607633200,7.188633056640625,-0.0076361209016293,0.0120834556993097,-0.0931324572056531,0.0061919018626213,-0.0017439094372093,0.0020271737594157
1783206741617569000,7.198569091796875,-0.0037482100849971,0.0123089350182563,0.113004447889328,0.0054332176223397,0.0085489228367805,-0.0001401219051331
1783206741627506000,7.208505859375,0.0017356646861881,0.0112660749018192,0.0733592507213354,-0.0069835046306252,-0.0099858790636062,-0.0006482528988271
1783206741637443000,7.218443115234375,-0.0054544660136103,0.0145632167510688,-0.1007663130849599,0.0017777029424905,0.0049065924249589,0.0013079249765723
1783206741647380200,7.228380126953125,-0.0098872242966666,0.0216480604454874,0.0352039998501539,0.0060970839112997,0.002114800736308,0.0009294899646192
1783206741657316900,7.23831689453125,-0.0072581179020926,0.0201928201358765,0.0684258859723806,-0.0020595975220203,-0.0064161419868469,0.0009009314235299
1783206741667254000,7.24825390625,-0.0004276142949238,0.0127943073824048,-0.0569382772743701,-0.0028734588995575,0.0005980916321277,-0.0012319944798946
1783206741677191000,7.25819091796875,-0.007319273504801,0.0054939943064004,0.0174286891847848,0.0038708895444869,-0.0015567201189696,-0.0020997733809053
1783206741687128000,7.268128173828125,-0.0115488738985732,0.0083200845777988,0.0476432101845741,-0.0026930039748549,0.0003202753141522,-0.0008339730557054
1783206741697065200,7.278065185546875,-0.0096770886773243,0.0101356826324015,-0.0285088861256837,-0.0024892799556255,-0.0020062862895429,-0.0002539346460253
1783206741707001900,7.288001953125,-0.009414967142418,0.0117687637269496,-0.00936228710711,0.0005632359534502,0.0027370699681341,-0.0015935045666992
1783206741716938000,7.29793798828125,-0.0050693391535431,0.0202775027446448,0.050644145566225,-7.8298151493e-05,-0.0035308338701725,0.0012152690906077
1783206741726875100,7.307875244140625,0.0036682767165824,0.0219080265559256,0.000538929182291,0.0001994697377085,-0.0048909103497862,0.0025417895521968
1783206741736812000,7.31781201171875,-0.0017816227197647,0.0124666097979992,-0.0076928925901651,-0.0012075006961822,0.000943430699408,-0.0005053440108895
1783206741746749000,7.3277490234375,0.0013992723386734,0.012455430816859,0.0294195712298154,-0.0007883189246058,-0.0014938940294086,-0.0034484034404158
1783206741756686000,7.33768603515625,-0.0058566536063328,0.0191406076692044,0.0069745151877403,0.0026863748207688,-0.0002230438403785,0.0007401483599096
1783206741766623000,7.347623046875,-0.0079646952688694,0.0114727033898234,-0.0165215112119913,0.000645593740046,0.0002177092246711,-0.0006220587529242
1783206741776560000,7.35756005859375,-0.0060097618088126,0.017083894335106,0.0190805480450391,0.0009094551205635,0.0001900470815598,-0.0011391015723347
1783206741786497000,7.3674970703125,-0.0087818203380331,0.0229185918379575,0.0059095163047313,0.0005211662501096,0.0002244017086923,-0.0002275013830512
1783206741796434000,7.377433837890625,-0.003898614873737,0.0112395522210747,-0.0029208558827638,0.0001190090551972,0.001218244433403,-0.0009506396017968
1783206741806371000,7.38737109375,-0.008028335089609,0.0014426730889827,0.0162339264422655,-0.0004304014146327,0.0010243663564324,0.0023237166460603
1783206741816307000,7.397306884765625,-0.0052725701080635,0.0096923958443105,0.022812720310688,8.79559665918e-05,-0.0001735151745378,0.0002891677431762
1783206741826244000,7.407244140625,-0.0046333588890731,0.0096883772563189,0.0018722236126661,0.0029655015096068,-0.0019668880850076,-0.0007241652347147
1783206741836181000,7.417180908203125,0.00240106979236,0.0092285777248442,0.0099485625624656,0.0014251573011279,-0.0006489781662821,0.0014595387037843
1783206741846118000,7.427117919921875,0.0012719926971942,0.0079494976997375,0.0088987612485885,0.0015977304428815,-0.0009885313920676,0.0019767244812101
1783206741856055000,7.437054931640625,-0.0123308180565014,0.0171890352100133,0.0041138650596141,-0.000286528840661,-0.0011179139837622,-0.0008827024139463
1783206741865992200,7.4469921875,-0.0157422339351847,0.0234035988759249,0.0111538466989994,-0.0012535229325294,0.0015226104296743,-0.001431313692592
1783206741875929000,7.45692919921875,-0.0132599156001582,0.0202295719496905,0.0086094229131937,-0.0010117962956428,-0.0027520488947629,-0.0012939923908561
1783206741885866000,7.466865966796875,-0.0189727768216282,0.0185753019366413,0.0030786767929792,0.0002239104360342,-0.0016479026526212,-0.0001498982310295
1783206741895803000,7.476802978515625,-0.0023550021609291,0.0166864925153553,0.0021884499549865,-0.0014272350817918,5.49494288861e-05,0.0010067569091916
1783206741905739000,7.486739013671875,0.0051273894837126,0.0038267186813056,0.0168634565174579,-0.0003270832821726,-0.0011876812204718,-0.0014297693269327
1783206741915676200,7.49667626953125,0.0005116393165662,0.001666691103205,0.0032411738783121,0.0029522534459829,-0.0007077758200466,-0.0003249663859605
1783206741925612800,7.50661279296875,0.0023490473441779,0.0063034109931439,0.0008376198679208,0.0006052097305655,7.30631873011e-05,0.0012774576898664
1783206741935550000,7.516550048828125,-0.0014314210426062,0.0110489250198006,0.0113198509156703,0.0019219564273953,-0.0001601101830601,-0.0005449065938591
1783206741945487000,7.526487060546875,-0.0054540641548112,0.0124566729258745,0.0111491705238819,0.0032111927866935,0.0011395122855901,-0.0016309437341988
1783206741955424000,7.536424072265625,-0.009883205708675,0.0107932697582989,0.0102484222918748,0.0008978517726063,0.0022325622849166,-4.96725551784e-05
1783206741965361200,7.546361083984375,0.0015695874042809,0.0093584146495908,0.0006640168666839,0.001665374264121,-0.0010023796930909,-0.0013293216470628
1783206741975298000,7.556298095703125,-0.0071756272504106,0.0053788434941321,-0.0056394671916961,0.0012831129133701,0.0008907141163945,-0.0001116844359785
1783206741985234000,7.56623388671875,-0.0064287909384816,0.0132240040365606,0.0114209732025861,0.0012170672416687,0.0002150698564946,-0.0015050504589453
1783206741995171000,7.576171142578125,0.0027784517373889,0.0152715111508965,0.0128998135834932,0.001208814792335,0.0022613224573433,0.0007900681812316
1783206742005108200,7.586108154296875,-0.0105295042555779,0.0225452284809201,0.0087035309374332,0.0023901928216218,-0.0017973352223634,-0.0001939698122441
1783206742015044900,7.596044921875,-0.0042893312243744,0.0151654934931546,0.0097480715543031,-0.0006243120878934,-0.0001497543416917,-0.0012452015653252
1783206742024982000,7.60598193359375,0.0054001420104876,0.0175705818735063,0.0049573301464319,-0.0011090077459812,0.0005549183115363,0.0011665569618344
1783206742034919000,7.6159189453125,-0.0035980610245838,0.0174598880406469,0.0163309570759534,-0.0001187045127153,0.0043189711868762,0.0010337517596781
1783206742044856000,7.62585595703125,-0.0083769293315708,0.0070843322377651,0.0095832363814115,0.0012080818414688,0.0013815043494105,-0.0012352613266557
1783206742054793200,7.635793212890625,0.000208637782,0.0172087628237903,0.0107692312955856,0.00195590313524,0.0002947361208498,0.0008125305175781
1783206742064729000,7.64572900390625,-0.0097555607410147,0.0157026691097766,0.0071750061959028,-0.0007160464301705,0.0010723788291215,-0.0002071936614811
1783206742074666000,7.655666015625,-0.0047572044644504,0.0127522218063473,0.0095680388122797,0.0019931159913539,-0.0013432661071419,0.0017632856033742
1783206742084603100,7.66560302734375,-0.0090798899691551,0.0079635992903262,0.0079050740361213,0.0019081607460975,0.0012455927208065,-0.0006402172148227
1783206742094540000,7.6755400390625,-0.0101798140350729,0.0158401048190891,0.0139040221899747,-0.0030788788571953,0.0002086786553263,0.0009797064121812
1783206742104477000,7.685476806640625,-0.0040786841483786,0.0140355396151542,0.0086772274523973,-0.0004545990377664,0.0004073502495884,0.0011621329467743
1783206742114414000,7.6954140625,-0.0013754530716687,0.0100268884956836,0.0219932206213474,0.0025803176686167,-0.000462734606117,0.001105495262891
1783206742124351000,7.70535107421875,0.0006191548116505,0.011030001123622,0.0088186817497014,0.0010519297793507,-0.000495757907629,-0.0027496963739395
1783206742134287000,7.715287109375,-0.006314553441666,0.0088504651274532,0.0118108493030071,1.36597082018e-05,-0.0002895616926252,0.0005544733721762
1783206742144224000,7.72522412109375,-0.0025363135445863,0.0140751409731805,0.0143576111763715,-0.0008571939542889,-0.0017276685684919,0.0006724514532834
1783206742154161000,7.735160888671875,0.0025586715068668,0.0142024206146597,0.0052314709126949,-0.000818277709186,-0.0006216224282979,6.98748044669e-05
1783206742164098000,7.74509814453125,0.0040923108149319,0.0188180246513336,-0.0020972645401954,-8.85715708136e-05,0.0011432543396949,-0.0002813960891216
1783206742174035200,7.75503515625,-0.0034128406507894,0.0136268857490271,0.0119756844758987,-0.000401054508984,0.0012672115117311,-0.0010190089233219
1783206742183972000,7.76497216796875,-0.0051435003682971,0.0085855305809527,0.0130161334395408,-0.0003941301256418,-0.000405519735068,4.78534493595e-05
1783206742193909000,7.774908935546875,-0.0056445452256128,0.0146165543735027,0.0047866497546434,0.0007306933403015,-0.0005402155220508,-0.0006044458132237
1783206742203846000,7.784845947265625,-0.007237476972863,0.01388020292297,0.0098754973262548,-0.0004091402515769,-0.0024635503068566,0.0011883941479027
1783206742213782000,7.794781982421875,-0.0055935091581195,0.0091871497359126,0.010634206739068,-0.0010078186169266,0.0002605970948934,-9.96969174593e-05
1783206742223719200,7.80471923828125,-0.0060457099050283,0.0113576256427913,0.0015115736067295,-0.0027644392102956,-0.0013005477376282,-0.0011311389971524
1783206742233655800,7.81465576171875,-0.004646510631591,0.0051299102343618,0.0170832367479801,-0.0011188220232725,-0.0006220676004886,-0.0002945596352219
1783206742243593000,7.824593017578125,-0.0057992973959073,0.0188340259380638,0.0170896664887666,0.0006894646212458,0.0008445354178547,-0.0016722129657864
1783206742253530000,7.834530029296875,-0.0029406565617769,0.0093527155611664,0.0091460140079259,-0.0005203923210501,0.0008868318982422,-0.0005055270157754
1783206742263467000,7.844467041015625,-0.010675123271346,0.0178219262860715,0.0101934772342443,0.0003981310874223,0.0022972417064011,0.0003259119112044
1783206742273403000,7.85440283203125,-0.0050139557044953,0.0157832600653171,0.0062976388394832,0.0014519328251481,-0.0023370366543531,0.0010796000715345
1783206742283340000,7.864340087890625,-0.0068775210866704,0.0179730251945555,0.0078080434024333,0.0006623053923249,-0.0015013366937637,0.0022753591183573
1783206742293277000,7.87427685546875,-0.0063227732807397,0.0084829469893127,0.0119961427420377,0.0014944905415177,-0.0012360918335616,0.0001368902157992
