time,seconds_elapsed,ax,ay,az,gx,gy,gz
1783197569872359400,0.102359375,0.0083055445957928,-0.0019826617171987,-0.0451151530116796,-0.0017863605171442,-2.56584025919e-05,-0.0024372448679059
1783197569882296600,0.112296630859375,0.0128571434855461,-0.0028746969197876,-0.0633762013673782,0.0017715664580464,0.0008311686106026,-0.0010314080864191
1783197569892233700,0.122233642578125,0.0087968352440744,0.0015455672078765,-0.0189361711382865,-0.00079146027565,-0.0009699272923171,0.0018421427812427
1783197569902170400,0.13217041015625,-0.0034592736084014,-0.0010339826902374,-0.0289490311086177,-0.0028275987133383,-0.0020333747379481,-0.0007478820625692
1783197569912107500,0.142107421875,-0.0185411804713308,-0.0030569398852065,-0.0699503190606832,0.0018134918063879,0.001094773877412,0.001065464457497
1783197569922044400,0.15204443359375,-0.0175425978880375,0.0144526873149909,-0.0287988089829683,-0.0006302809342741,0.0036911135539412,-0.0005787210538983
1783197569931981600,0.161981689453125,-0.0097927144136279,-0.0001844714551232,-0.0338876565545797,-0.002048147842288,-0.0001286584883928,-0.0010777972638607
1783197569941918700,0.171918701171875,-0.000653312809579,-0.0011533530198968,-0.0563344661623239,7.97742977738e-05,0.0008127451874315,0.0007070910651236
1783197569951855400,0.18185546875,-0.0052254430307075,-0.0099523802210576,-0.04765080896914,-0.0009543308988213,0.0026681695599108,-0.0015480736037716
1783197569961792500,0.19179248046875,-0.0102576285116374,-0.0060284299766644,-0.0346323374420404,-0.0015053246170282,-0.0038092234171926,0.0013173804618418
1783197569971729400,0.2017294921875,0.0061601665975525,0.0010761961304582,-0.0506429765224456,-0.0026728538796305,0.000540517270565,0.0015615923330187
1783197569981667600,0.21166748046875,0.0112463838206604,0.0038824309239163,-0.0419599038511514,0.0001024696975946,-0.0010999464429914,0.0002486887387931
1783197569991604500,0.2216044921875,0.0057080023832619,0.0100558771281503,-0.0386672920465469,-0.0008283052593469,-0.0005782335065305,-0.0025867789518088
1783197570001541600,0.231541748046875,-0.0054599459063261,0.0011358538958244,-0.0471960509389638,-0.0013122800737619,-0.0007352316752076,3.46340239048e-05
1783197570011478500,0.241478515625,-0.0114363899674266,-0.0144977685657329,-0.0488432336241006,0.0005535306409001,0.0026352652348577,0.0011491668410599
1783197570021415400,0.25141552734375,-0.0155849610142409,-0.0076844900880008,-0.0570773934841156,-0.0010701203718781,8.06325115263e-05,0.0007380302995443
1783197570031352600,0.2613525390625,-0.0040826662037521,-0.0093816128620877,-0.038387306061387,-0.0015803817659616,0.0019626887515187,-0.0017379106720909
1783197570041289500,0.27128955078125,-0.0033658962365239,0.0021605755673721,-0.0455751717388629,-0.0003059767186641,0.0011382973752915,0.0011158976703882
1783197570051226600,0.2812265625,0.0073500339692458,0.0082032167324796,-0.0437765978842973,-0.0010801572352647,-0.0009903674945235,0.0015313508920371
1783197570061163500,0.29116357421875,0.0088450582999736,0.0058214544287882,-0.0496118799090385,0.0018531763926148,-0.0006621493957936,-0.0015706937992945
1783197570071100400,0.301100341796875,0.005920841416344,-0.009169248753041,-0.0505237340569496,-0.0020712576806545,0.0043051782995462,-0.0004803957417607
1783197570081037600,0.31103759765625,-0.0005859831944108,-0.0071618909860029,-0.0538303743869066,0.0004660738632082,0.000470376573503,-0.0017318206373602
1783197570090974500,0.320974365234375,0.0020744681864976,-0.0012354966117069,-0.044851533639431,-0.0002508489415049,0.000806201249361,-0.0004146210849285
1783197570100911600,0.33091162109375,-0.0080572689231485,0.0054716546104289,-0.0411170232862234,-0.0001574801281094,0.0001073335297405,-0.0006229397840797
1783197570110849500,0.340849609375,-0.0185140002034604,-0.0057582712657749,-0.0372340443730354,0.0005125710740685,0.0022429225500673,-0.001022147713229
1783197570120786400,0.350786376953125,-0.0099662808822467,-0.018487879381515,-0.050575171983242,-0.0025258287787437,0.0045697265304625,-0.0005542302969843
1783197570130723600,0.3607236328125,-0.0095833825118839,-0.0077668711418285,-0.0597124181628227,-0.0021292846649885,-0.0013582040555775,-0.0023910123854875
1783197570140660500,0.370660400390625,-0.0034909108556807,-0.0045509961015544,-0.0429401470601558,0.0012807119637727,-0.0057968711480498,-0.001184795750305
1783197570150597600,0.38059765625,-0.006154102182947,-0.0079469952153973,-0.0363449865788221,0.0007691178470849,0.0011206893250346,-0.0033129279036074
1783197570160534500,0.390534423828125,-0.0138824314126744,-0.014063176540751,-0.0480213958472013,-0.0007716650143265,8.39219428598e-05,-0.0016567287966609
1783197570170471400,0.400471435546875,-0.0098245343239977,-0.00646044645207,-0.0523643934875726,-0.0022515831515192,0.0035779892932623,-0.0021499460563063
1783197570180408600,0.41040869140625,-0.007460325943306,-0.0083500413246452,-0.0332236396878957,-0.0012172413989901,0.000843359157443,-0.0021509462967514
1783197570190345500,0.420345458984375,-0.017097776729986,-0.0055909884074702,-0.0467009608983993,0.0046126842498779,0.0076330881565809,0.0013974497560411
1783197570200282600,0.43028271484375,-0.043944209536165,0.0208269715872593,-0.0522556724160909,-0.0017452593892812,-0.0020520067773759,0.0011876632925122
1783197570210219500,0.440219482421875,-0.0046184535808861,-0.0023617789615876,-0.058255205091834,-0.0012592328712344,0.0041691376827657,0.0004960405640304
1783197570220157700,0.45015771484375,0.0223564279105514,0.0019055413603782,-0.0289472775429487,0.0009415755048394,0.0086063994094729,-5.80982305109e-05
1783197570230094300,0.46009423828125,0.0468727007361128,0.0044158254145644,-0.0483972434222698,-0.0053765084594488,-0.01075398363173,-0.0001784730702638
1783197570240031500,0.470031494140625,0.0247913634398952,0.0035824250640347,-0.047044659769535,0.0023851552978157,0.0065923994407057,-0.0003188278060406
1783197570249968600,0.47996875,-0.022772534430772,0.016097203119006,-0.0415308647841215,0.0033169956877827,-0.0004902775399386,-0.000116161070764
1783197570259905500,0.489905517578125,0.0192719058986753,-0.006487480589468,-0.060974400922656,-0.0046463934704661,-0.0070167686790227,-0.0012317320797592
1783197570269842400,0.499842529296875,0.0237298351556062,0.005705262436904,-0.0398620547890663,0.0025691762566566,0.0031405275221914,-0.0027505327016115
1783197570279779300,0.509779296875,0.0282243700958788,0.0028609423890709,-0.070696753513813,0.0014965655282139,-0.0014748275279998,-0.0034465969074517
1783197570289716500,0.519716552734375,0.0218823441253975,-0.0222584291624836,-0.0105021047919988,-0.0047424230724573,-0.0112848468124866,-0.0035563192795962
1783197570299653600,0.529653564453125,-0.0125117275813594,-0.0091373192448168,-0.0606172580480575,-0.0010316334664821,0.0021375089418143,-0.0005913714412599
1783197570309590500,0.539590576171875,-0.0386929014118388,0.0009400390627793,-0.0618295564472675,-0.0017112717032432,0.0002080486156046,-0.0006803211290389
1783197570319528700,0.54952880859375,0.0089531948495656,0.0082809581438079,-0.0344125572115182,-0.000538308173418,-0.0145030822604894,-0.0039900112897157
1783197570329465300,0.55946533203125,0.0367205418929457,0.0201488531299866,-0.0515852258086204,0.0009573232382535,-0.0025737187825143,-0.000368112232536
1783197570339402500,0.569402587890625,-0.0058496028110384,0.016706494123768,-0.0726759446322918,-0.0001954929903149,-0.0025920681655406,0.0012913751415908
1783197570349339400,0.57933935546875,-0.0435622244812548,0.0092502415673807,-0.0999134956479072,-0.001408296637237,-0.0009662080556154,0.0012799235992133
1783197570359276500,0.589276611328125,-0.0714873924348503,0.039431864944566,-0.0577267973035573,0.0013214433565735,0.0039830105379223,-0.0026831261347979
1783197570369213700,0.599213623046875,-0.0656228477830067,0.030968609036412,-0.0700356592565774,0.0011312942951917,0.0085671097040176,-0.0004772299434989
1783197570379150300,0.609150390625,-0.0644078094374388,0.0222235222458839,-0.0497071569770574,0.0005181916058063,0.0015457565896213,0.0015751314349472
1783197570389087500,0.61908740234375,-0.0066082026259973,0.0055076757718808,-0.0308621712535619,0.0028463266789913,0.0055365031585097,-0.0009127939119935
1783197570399024400,0.6290244140625,0.0400055549129843,-0.0122451125344261,-0.0218915138125419,0.0015262607485055,-0.0019200537353754,0.0002385631669312
1783197570408962600,0.638962646484375,0.0787696218648925,-0.0196062889521941,-0.0434141943126916,-0.0001824228093028,-0.0103148706257343,-0.0004309555515646
1783197570418899500,0.6488994140625,0.0680179992912337,-0.0094782781695947,-0.0400765743225812,0.0004324372857809,-0.0020092972554266,-0.0001324876211583
1783197570428836600,0.658836669921875,-0.0264355504503473,0.0211917497790418,-0.0481464835315942,0.0020596291869878,-0.000277976039797,0.0007551438175141
1783197570438773500,0.6687734375,-0.0943168081520125,0.0303886902566067,-0.0457440985649824,0.0037079025059938,0.0015400927513837,-0.0009680504444986
1783197570448710400,0.67871044921875,-0.0682282810410484,0.0114494869110174,-0.0719265875697135,0.0036865966394543,0.0018681939691305,0.0010178685188293
1783197570458647600,0.6886474609375,-0.0190234840955585,-0.0095859763277694,-0.065787938684225,0.0022138031199574,0.0005217781290411,0.0018420240376144
1783197570468584400,0.69858447265625,0.0014223244206979,-0.0356513965577818,-0.0593453384160995,-0.0007066186517477,0.0005023372359573,0.0006284217815846
1783197570478521600,0.708521484375,-0.0141521517321467,-0.0481360534691251,-0.0475344891130924,0.0013497937470674,0.0050293705426156,0.0021976712159812
1783197570488459500,0.71845947265625,-0.0086474533686414,-0.0515839836996048,-0.0622176789820194,-0.0016467943787574,0.000346734188497,0.0018716999329626
1783197570498397000,0.72839697265625,0.0188340624706819,-0.0332737624399364,-0.045588031220436,-0.0025191493332386,-0.0134248305112123,0.0020014829933643
1783197570508333800,0.738333740234375,0.0332442075518891,0.0127788358186371,-0.0456751249819993,-0.0080140503123402,-0.0061791688203811,-0.0014166843611747
1783197570518270700,0.748270751953125,-0.1661607954721898,0.1756010979852639,-0.02928045502007,0.0150334658101201,0.0115815661847591,-0.000420986674726
1783197570528208000,0.758207763671875,-0.0342961642902344,-0.0693498872158117,-0.0344528892219066,-0.0034874873235821,0.0171544961631298,0.0009593295399099
1783197570538144800,0.768144775390625,-0.0470247494926676,0.0804909109658561,-0.0861702169775962,0.009318676777184,-0.0087779182940721,6.0781603679e-05
1783197570548082000,0.77808203125,0.2041920546375215,-0.2363325204649008,-0.0734118576914071,-0.010701635852456,0.0109087023884058,0.0004812947008758
1783197570558018800,0.788018798828125,0.1530289997637272,-0.1530897352413274,-0.0534895981252193,0.0035747224465012,-0.0182134173810482,-0.0006650614086538
1783197570567957000,0.79795703125,0.0350052624076604,-0.1068550401478074,-0.0645733021974563,-0.0030866414308547,0.0168236643075943,0.0018367117736488
1783197570577893600,0.8078935546875,-0.0765370770398527,0.0059193253126926,-0.0557534514039754,-0.0003161504864692,-0.0073030912317335,0.0022793877869844
1783197570587830800,0.817830810546875,-0.0806932103386148,0.1008010556047782,-0.043933834272623,-0.0017997976392507,0.0043825930915772,0.0011534029617905
1783197570597768000,0.827767822265625,-0.0105880295097827,0.0850528668528422,-0.0433487278610467,0.0032351911067962,0.002010881435126,-0.0013692071661353
1783197570607704800,0.837704833984375,0.0028171032473444,0.0746362118545919,-0.0449713606268167,-0.0027033919468522,-0.0055578225292265,0.0029927843715995
1783197570617642000,0.84764208984375,0.0201411995464935,0.0115867947561666,-0.0518488451808691,0.0010797688737511,0.0027390394825488,6.44733663648e-05
1783197570627578600,0.85757861328125,-0.008181187563762,-0.0353289414040744,-0.032995676150918,-0.0007221261039376,-0.0029622558504343,-0.0007062454242259
1783197570637515800,0.867515869140625,0.0125189610397443,-0.0409128790162503,-0.0728016168385744,-0.0045860465615987,-0.0034022429026663,0.0001067626290023
1783197570647453700,0.87745361328125,0.0186059528032317,-0.010547916695103,-0.0255021055251359,-0.0017343340441584,0.0006974274292588,7.32066109776e-05
1783197570657390800,0.887390869140625,0.0120901046358048,0.0456171659833751,-0.0792377873659133,-0.0001727528870105,0.0040253046900033,-0.0007087204139679
1783197570667328000,0.897327880859375,0.0007859992785379,0.0699628314823843,-0.0407780005902051,-0.0020428244024515,-0.0011859689839184,0.0028900089673697
1783197570677265000,0.907264892578125,0.0014861469045281,0.087908895604778,-0.0647270314544439,0.0022194366902112,0.0022511563729494,-0.0003586802631616
1783197570687201800,0.917201904296875,-0.0036154140181839,0.078027772255335,-0.0514145454168319,-0.0011819526553153,5.03198243677e-05,0.0031412462703883
1783197570697138700,0.927138671875,0.040754035192728,0.0557597715469077,-0.0551508093357086,-0.0008635772392153,-0.0043229069560766,-0.000115101924166
1783197570707075800,0.937075927734375,0.0617938275467604,0.0323192564603872,-0.0516939468801021,0.0001191291958093,0.0005738474428653,-0.0004290887154638
1783197570717013800,0.947013671875,0.0181319786159321,0.0001276084350422,-0.0548316603839397,0.0009416295215487,-0.0023522228002548,-0.0014419939834624
1783197570726951000,0.956950927734375,-0.0073244976691901,-0.0242550828724168,-0.0527203673183917,0.0001501385122537,0.0004877718165516,-0.0006382518913596
1783197570736887800,0.9668876953125,-0.0435791025508195,-0.0267817518058232,-0.0536240381598472,-7.15786591172e-05,0.0006604674272239,-0.0016865046927705
1783197570746824700,0.97682470703125,-0.0414816188149154,-0.0461160188836045,-0.0590203442454338,0.000187280587852,-0.0004159822128713,0.0002618639264255
1783197570756761900,0.986761962890625,-0.0220617558129131,-0.037876817522291,-0.0536386512070894,-0.0018988838419318,0.0017955852672457,0.0011853526812046
1783197570766698800,0.99669873046875,-0.0034327874602749,-0.0260014698820188,-0.0545510898768901,0.0002478901296854,0.001745784189552,-0.0014301380142569
1783197570776637000,1.006636962890625,-0.004679755314067,-0.0229067735360004,-0.0505149662286043,0.0008908426389098,0.0003172396682202,0.0009184530936181
1783197570786573800,1.01657373046875,-0.0115751773836091,-0.0217319941355846,-0.0699777915894985,0.0007555540651082,0.0002189688384532,0.0037965313531458
1783197570796511000,1.026510986328125,-0.0257552400359883,-0.0228629526605829,-0.0539624763339757,0.0004544639959931,0.0015327204018831,0.0003919734153896
1783197570806447900,1.03644775390625,-0.0155909158309921,-0.0188065534092485,-0.0538093315988779,-0.0015903115272521,-0.0015205941163003,-0.0023145971354097
1783197570816384800,1.046384765625,0.0005845584223046,-0.0204692441907711,-0.061727849638462,0.0024393610656261,-0.0005246610380709,-0.000190908787772
1783197570826322000,1.056322021484375,-0.0202354171685874,-0.0211331149269826,-0.0608288549721241,-0.0010970504954457,0.000195191707462,0.0002019074745476
1783197570836258800,1.0662587890625,-0.0351388256594538,-0.02726580899572,-0.0548486115187406,-0.003133232705295,0.0021940725855529,5.39238099008e-05
1783197570846197000,1.076197021484375,-0.0249150994174182,-0.0204544850130565,-0.0612818594366312,-0.0011473130434751,-0.0025090700946748,-0.0016233350615948
1783197570856134000,1.0861337890625,-0.0195285110082477,-0.0176700967252254,-0.0660632484942674,0.0003317156806588,0.0001519080251455,-0.0036596860736608
1783197570866070800,1.09607080078125,-0.0045105362270027,-0.0005078033916652,-0.0551379498541355,-0.0008643101900815,0.0008262204937636,0.0017436016350984
1783197570876007700,1.106007568359375,0.0002394347790628,0.0026505327750928,-0.0534855064719915,0.0023490758612751,-0.001641159877181,0.0002586971968412
1783197570885944800,1.11594482421875,-0.0155068908093497,0.001468081524875,-0.0578267505466938,6.91432505846e-05,0.0004922985099256,0.0008797461632639
1783197570895882000,1.125882080078125,-0.0182274383470416,0.0063047444337047,-0.0671042819797992,0.0023608598858118,0.0002539199776947,-0.0006185988895595
1783197570905820000,1.13581982421875,-0.0157505633721128,9.24640564247e-05,-0.0624625936537981,-0.001437340863049,-0.000886445865035,0.0004144411068409
1783197570915757000,1.145757080078125,0.0079045625794678,0.0043128947630524,-0.0519902994781732,-0.0030157892033457,-0.0002689212560653,0.0004830232355743
1783197570925693700,1.155693603515625,0.0234940536383539,0.0149828852015547,-0.05363748216331,0.0024538114666938,0.0016365707851946,-0.0006048781797289
1783197570935630800,1.165630859375,0.0142033339301124,0.0200252267503179,-0.0620066665798425,-0.0002881791442632,-0.0011048875749111,-0.0016222057165578
1783197570945567700,1.175567626953125,0.0090291096299886,0.0121822946975938,-0.0629027386367321,-0.0011129602789878,0.0004173754714429,0.0011757111642509
1783197570955505000,1.1855048828125,0.015365253848955,0.0127306675616651,-0.0452402406960725,0.0009530466049909,5.2060931921e-06,0.0008099714759737
1783197570965442800,1.19544287109375,0.0073816712165251,0.0183810397398658,-0.0609434212625026,0.0014894073829054,0.0003873696550726,0.000138855073601
1783197570975380000,1.2053798828125,0.0155626761171966,0.0163536620981059,-0.0509141946792602,-0.000316540710628,-0.0016808775253593,0.0003228019922971
1783197570985316900,1.21531689453125,0.0242407803524285,0.0153370689340867,-0.056591655793786,0.0005007833242416,-0.0020425347611308,0.0010889936238527
1783197570995253800,1.225253662109375,0.025166297699511,0.0034475101053714,-0.063624623170495,-0.0011230101808905,0.0010948390699923,-0.0005815466865897
1783197571005191000,1.23519091796875,0.016717216447182,0.0072521082864142,-0.0489747510492801,-0.0003160731866955,0.002503384836018,-0.001169572584331
1783197571015127800,1.2451279296875,0.0032039106078445,-0.0013926051358692,-0.0492792869538068,2.430751919746399e-07,3.85101884603e-05,-0.0011708640959113
1783197571025066000,1.25506591796875,-0.0007199483050033,0.0040327443811111,-0.0512257448464632,0.0015257019549608,-0.0001929188147187,0.0011679241433739
1783197571035003000,1.2650029296875,-0.0087112027872353,0.0081521806649863,-0.0498801754564046,0.0032774647697806,0.0004793312400579,-0.0004327767528593
1783197571044939800,1.274939697265625,-0.0142963094431906,0.0120750531971454,-0.0649918198704719,0.001266511157155,0.0018748277798295,0.0005938718095421
1783197571054877000,1.284876953125,-0.0131079033762216,-0.0037241533559747,-0.0525742368459701,-0.0018312772735953,-0.001343335956335,-7.53805506974e-05
1783197571064813800,1.294813720703125,-0.0069725424263626,-0.0110396822674199,-0.0494277555137872,0.0017690500244498,-0.0002285367809236,-0.0001030776184052
1783197571074751700,1.304751708984375,-0.0062859849343076,-0.016112802546937,-0.0625906039476394,0.0001318696886301,-0.00321751460433,0.00013451394625
1783197571084689000,1.31468896484375,0.0120197428133338,-0.015912147141993,-0.0597474894762039,-0.0001522898674011,0.0009607188403606,0.0011515752412378
1783197571094626000,1.3246259765625,0.0043711277563124,-0.0155166267520748,-0.0549614242434501,0.0006100907921791,0.0005275970324873,0.0006064882036298
1783197571104562700,1.334562744140625,-0.0143622508188709,-0.0169855850597843,-0.0576519785016775,0.0013190237805247,0.001851188018918,-0.0013884857762604
1783197571114499800,1.344499755859375,-0.0086093498479574,-0.0116703631200827,-0.05166062913239,-0.0002095531672239,-0.0011980989947915,-0.0005902596749365
1783197571124436700,1.354436767578125,-0.0112953740615397,-0.0055185624920763,-0.0528524692654609,-0.0017198314890265,-0.0009139394387602,0.001149317016825
1783197571134375000,1.364375,-0.0189748591808602,-0.0097930249408818,-0.055388709744811,0.0010310104116797,-0.00054048653692,1.15833245217e-05
1783197571144311800,1.374311767578125,-0.0020506123868748,0.0003114223030395,-0.0480535445511341,0.0042584957554936,0.000321312341839,0.0004512711893767
1783197571154249000,1.3842490234375,0.0042502047903835,0.0090239037319086,-0.0568804096072912,-0.0007416615262627,-0.0005047381855547,-0.0011981853749603
1783197571164185900,1.394185791015625,-0.0023973069326952,0.0133088327758014,-0.0526870495706796,-0.0001323297619819,-0.0011564139276742,0.0035009626299142
1783197571174122800,1.404122802734375,-0.0056526919994503,0.0046511868067085,-0.0474473953515291,0.0021010367199778,0.0012041637673974,0.0002681221812963
1783197571184061000,1.41406103515625,-0.0147488024510443,-0.0035968006492592,-0.0547784688919782,3.30917537212e-05,-0.0002555148676037,0.0001458830665796
1783197571193997800,1.423997802734375,-0.0240965130435302,-0.0041154359621927,-0.0670540130972862,-0.0002388292923569,-0.0018794746138155,-0.0020184384193271
1783197571203935000,1.43393505859375,-0.0213111566413193,-0.0131956729912199,-0.0589794277131557,-0.0012636138126254,0.0011402834206819,1.06240622699e-05
1783197571213871900,1.443871826171875,-0.0123598614878952,0.0032272366845048,-0.0515086534410715,0.0001964028924703,0.0018051993101835,0.0023290093522518
1783197571223808800,1.453808837890625,0.0033722163794562,0.0046065256810747,-0.0518102667361497,0.0015482231974601,-0.0003271936438977,0.0012871806975454
1783197571233746700,1.46374658203125,0.0089293390499427,0.0001416734930127,-0.0591407557547092,-0.0011700587347149,0.0020777801983058,-8.62497836351e-05
1783197571243683800,1.473683837890625,0.0007132263032719,0.0117641240844503,-0.0518090976923704,-0.0012653991580009,-0.0008018957450985,-0.0006055661942809
1783197571253620700,1.483620849609375,-0.0056159036530181,0.0073187620481476,-0.0534480970710515,0.0001900410279631,-0.0011311098933219,0.0004837103188037
1783197571263558000,1.493557861328125,0.0085150956932455,0.0133179659303277,-0.0561339751541614,0.0014430582523345,-0.0017665401101112,-0.0004987297579646
1783197571273494800,1.503494873046875,0.0061467591267079,0.0157778897704556,-0.0604705430537462,0.0014485130086541,0.0001213308423757,0.0016121708322316
1783197571283431700,1.513431640625,-0.0066113444311544,0.003047404871881,-0.059271688657999,-0.0001483187079429,0.0013642278499901,0.0009375920053571
1783197571293369900,1.523369873046875,-0.005530271196179,0.0131360882910899,-0.0538899956196546,0.000496638007462,0.0013427347876131,0.0008526323363184
1783197571303306800,1.533306640625,-0.0082576868660748,0.016685688797757,-0.0537391889721155,0.0005717389285564,0.0018053259700536,-0.0037519731558859
1783197571313244000,1.543243896484375,-0.0049935705035924,0.0084633289733901,-0.0550876809716224,0.0001176642253994,0.0014735241420567,0.0007106033153831
1783197571323180800,1.553180908203125,0.0058056906040757,0.0138086720567196,-0.0594353547871112,0.0003112759441137,6.23152591288e-05,0.0011460301466286
1783197571333119000,1.563118896484375,-0.0009662877488881,0.0179663762580603,-0.061520928889513,0.003578096628189,-0.0007936707697808,-0.0004055253230035
1783197571343055600,1.5730556640625,-0.0027963892528787,0.0100992596121504,-0.0657072746634483,-9.44025814533e-05,0.0005259257741272,-0.0015437602996826
1783197571352992800,1.58299267578125,0.002285992045328,0.0080897829532623,-0.0520884991556406,0.0014647236093878,-0.0003946614451706,0.0007223966531455
1783197571362930000,1.592929931640625,0.0032119477838277,-0.0044690899717621,-0.0556862313866615,0.0015763100236654,0.0028048602398484,0.0006174682639539
1783197571372866800,1.60286669921875,-0.0078568144476041,-0.0089496146529912,-0.0574900659382343,-0.0015287101268768,-0.0001688748598098,-0.0015834704972803
1783197571382804000,1.612803955078125,-0.0003157879509031,-0.0051314446043223,-0.0624345366030931,-1.94972380995e-05,0.0019344901666045,0.0018424200825393
1783197571392742000,1.622741943359375,-0.0022033187305554,-0.001218892536778,-0.0537520484536886,-0.0004916545003652,-0.0016408627852797,0.0003986838273704
1783197571402678800,1.6326787109375,0.0008187325043603,-0.0077204199179075,-0.0594464607030153,0.0007608300074934,-0.0016251499764621,0.0009992267005145
1783197571412615700,1.64261572265625,0.0012746230456978,-0.0015488734098151,-0.0591378331452608,0.0002763289958238,-0.0028863665647804,-0.0006509665399789
1783197571422552800,1.652552734375,0.0017816957850009,-0.0156014189586974,-0.0540466474860906,-0.0008003870025277,0.0019797612912952,-0.0023511284962296
1783197571432490800,1.66249072265625,-0.0032673312328755,-0.017210388525296,-0.0479120902538299,-0.0021505458280444,-0.0017591631039977,0.0004672829527407
1783197571442428000,1.672427978515625,-0.0066816697210073,-0.0077235617230646,-0.0522521652847528,-0.0011646440252661,-0.0006385049782693,0.0012803459540009
1783197571452364800,1.68236474609375,-0.0151108406964689,-0.0125846832197159,-0.0565840570092201,0.0002233423292636,-0.0005926182493567,-0.000929852714762
1783197571462301700,1.6923017578125,-0.0172557072380557,-0.0143265584509819,-0.0496978046268224,0.0001903194934129,-0.0021292618475854,-0.0015136175788939
1783197571472238800,1.70223876953125,-0.0107075642362236,-0.007947945063468,-0.0513432337462902,0.0013950616121292,0.0004816609434783,0.001469581387937
1783197571482176800,1.7121767578125,-0.0051910658370703,-0.0010774199731647,-0.049411388900876,-0.0021615903824567,0.0008611613884568,-0.0027888130862265
1783197571492114000,1.722114013671875,-0.0104021515488624,-0.0011177702498622,-0.0504582676053047,-0.0004384443163871,0.001042116433382,0.0008664939086884
1783197571502051000,1.732051025390625,-0.006857610809803,0.0166497955004684,-0.0513601848810911,0.0001551741734147,0.0010109576396644,-0.0008957197424024
1783197571511988200,1.74198828125,-0.0059433089764788,0.0107223416802473,-0.0422293684422969,-0.0012141363695263,-0.0005211299285292,0.0012356708757579
1783197571521925000,1.751925048828125,-0.0052882426012307,0.0012683029027655,-0.0579389787495136,-0.0025995122268795,-5.90714626014e-05,-0.000489258673042
1783197571531863300,1.76186328125,0.0067386240726336,0.0075731021353974,-0.04746434648633,-0.0005610100924968,-4.26340848207e-05,-0.0004247843753546
1783197571541800000,1.771800048828125,-0.0010134878914803,-0.0067732569945976,-0.0510574025422334,0.000303185544908,-0.0002168044447898,-0.0007478257175534
1783197571551737000,1.781737060546875,-0.0211766070088371,-0.0204812999547459,-0.0568979452639818,-0.0002786787226796,0.0009728418663144,0.0023014845792204
1783197571561674200,1.79167431640625,-0.0235754117788746,-0.0100592746616341,-0.0631809710562229,-0.0008123768493533,-0.0002370323054492,0.0011840218212455
1783197571571612200,1.801612060546875,-0.0017092881359159,-0.0155110189951956,-0.0580938770502805,-0.0002455124631524,-0.0012245494872331,0.0008438336662948
1783197571581549000,1.811549072265625,-0.001434124456346,-0.0003407579953782,-0.0554039073139429,-0.000162155367434,-0.0016581118106842,0.0007189312018454
1783197571591486200,1.821486328125,-0.0067637585138902,0.0024549188714474,-0.053764323413372,0.0006693787872791,0.002623927546665,0.001249463064596
1783197571601423000,1.831423095703125,-0.0095373514130711,0.0140285618850961,-0.0545154340416193,0.0006169145926833,-0.0007273941300809,-0.0007870560511946
1783197571611360000,1.841360107421875,-0.0038283626491203,0.0288692621369846,-0.0488274515330791,-0.0008542472496628,-0.0004083523526787,-0.0016500889323651
1783197571621298200,1.851298095703125,0.011464264355041,0.0259103392661549,-0.0579565144062042,0.0021210359409451,-0.0019748234190046,0.0009427645709365
1783197571631235000,1.861235107421875,0.0209016625249758,0.0205655989710241,-0.0576554856330156,-0.0004388447850942,-4.90080565214e-05,-7.48327001929e-05
1783197571641172200,1.871172119140625,0.0043801147803664,0.0163954188806004,-0.0491290648281574,0.000737739726901,0.0008900226093828,-0.0003866888582706
1783197571651109000,1.881109130859375,-0.0039586379652842,0.0174773140994831,-0.041057986575365,-0.0010810177773237,0.0005803583189845,0.0017439499497413
1783197571661047300,1.89104736328125,-0.0120080523755401,0.0099641437240876,-0.0425619613975286,-0.0006399983540177,0.0018296469934284,0.0021407613530755
1783197571670984000,1.90098388671875,-0.0006003405133262,0.0183402876043692,-0.0482464367747306,0.0007281228899955,-0.0008957893587648,0.0005095324013382
1783197571680921000,1.910921142578125,0.0038503918178379,0.0321935477214865,-0.0539361728489398,-5.27156516909e-05,0.001554318703711,0.0009119361639022
1783197571690858200,1.920858154296875,0.0028532705392688,0.041653742245119,-0.0530395162701606,0.0017290944233536,-0.0003478117287158,3.9157224819e-05
1783197571700795100,1.930795166015625,0.0171433694373816,0.0412137616589665,-0.0431587582468986,0.0014084503054618,-0.0010988232679665,0.0008767214603722
1783197571710733000,1.940733154296875,0.0148776895277202,0.0293384505513124,-0.0463040705353021,0.0002213222905993,-0.0007341667078435,-0.0013952564913779
1783197571720670200,1.950670166015625,0.0060769087608903,0.0086962609464302,-0.0516892707049846,0.0001896303147077,-0.0018188725225627,-0.0003481016028672
1783197571730607000,1.960607177734375,0.0039655791627243,-0.003748885938432,-0.0431610963344573,-0.0009190952405333,0.0006682011298835,0.0003104067873209
1783197571740544000,1.9705439453125,-0.0064555328149348,-0.0123346174487844,-0.0515396331012249,-0.0021092621609568,0.0006239926442503,0.0008755296003073
1783197571750482200,1.980482177734375,-0.0084875135665759,-0.0089913349028676,-0.0542366171002388,0.0014348924160003,0.0022002437617629,-0.0007585436105728
1783197571760419000,1.990419189453125,-0.0125963736575096,-0.0016608458843082,-0.0540992544561624,0.0004620403051376,0.0011858455836772,0.0010073983576148
1783197571770356200,2.000356201171875,-0.0063910527439787,-0.0067628269321285,-0.0490074842751026,0.0003318404778838,0.0038896824698895,0.0034057786688208
1783197571780293000,2.010293212890625,-0.0058809477973729,0.0019855843266472,-0.0590489858180284,6.87204301357e-05,0.0018475707620382,0.0001612496562302
1783197571790231300,2.020231201171875,0.0021734350489452,-0.005702504224237,-0.0569528903216123,0.0002081841230392,0.0021215011365711,0.0007553568575531
1783197571800168000,2.03016796875,-0.0091062665194273,-0.0039356041495688,-0.0512672459006309,0.0003810226917266,0.0031175231561064,0.0017132957000285
1783197571810105000,2.04010498046875,-0.0089239687550812,-0.0109174075946211,-0.0467950689226388,-0.0013075601309537,0.0011218963190913,0.0023542940616607
1783197571820042200,2.050042236328125,-0.0148933254882693,-0.0175286606942303,-0.0571323385417461,-0.0016958490014076,0.0005290769040584,-0.0004918263293802
1783197571829979100,2.059979248046875,-0.0147552321918308,-0.017245423306059,-0.0508487282276153,0.0004968494176864,0.0015957197174429,0.0007491926662623
1783197571839917000,2.0699169921875,-0.0204757652631029,-0.0077622132330201,-0.0475567009449005,0.0005237478762865,-0.0001667602919042,0.0026168678887188
1783197571849854200,2.079854248046875,-0.0032468729667365,-0.0108929124741815,-0.0598258154094219,-0.0022151777520775,0.0006287251599133,0.0013710239436477
1783197571859791000,2.089791015625,-0.0107556411616504,-0.0148617247736081,-0.0453144749760627,0.0002434523776173,0.00132567435503,-0.0006354013457894
1783197571869728000,2.09972802734375,-0.0106157577669247,-0.0054715815451927,-0.0551917258679866,0.0006784759461879,-0.000957298092544,0.0012045009061694
1783197571879666200,2.109666259765625,-0.0124476859018206,-0.0051879970971494,-0.0460667546480894,-0.0001436416059732,0.0007039820775389,0.0019379355944693
1783197571889603000,2.11960302734375,-0.0068955316673964,-0.0012219247440807,-0.0516004233777523,-0.0009756796061992,-0.0005820109508931,0.0015832083299756
1783197571899540200,2.129540283203125,-0.0082706194128841,-0.0094405399750918,-0.0488999322474002,0.0004075663164258,-0.0025892360135912,-0.0009422674775123
1783197571909477000,2.13947705078125,-0.0088738094704225,0.0001626249494962,-0.049489714834094,0.0009587602689862,-0.0017150361090898,0.0033163549378514
1783197571919415300,2.149415283203125,-0.0051819326825439,-1.47957103326e-05,-0.0533674330502748,0.0044810567051172,0.0030166020151227,0.0026598856784403
1783197571929352000,2.15935205078125,-0.0001725070226937,0.009202511701826,-0.0592056376844644,0.0013222564011812,0.0009210440330207,0.001142528373748
1783197571939289000,2.1692890625,0.0008475202074274,0.0028418723624199,-0.0529202738046646,0.0005869576707482,0.0007772333920001,-0.0038655458483844
1783197571949226200,2.179226318359375,0.0028005905039608,0.0087312409282661,-0.0476934790670871,5.1200389862e-05,-0.0004856772720813,-0.0008276877924799
1783197571959164200,2.1891640625,-0.0041261765519157,0.0061023171967826,-0.0499304443389177,0.0002868901938199,-0.0017839688807725,-0.0002077037934213
1783197571969101300,2.199101318359375,0.0006407090563327,-0.0128641394819132,-0.0559200401425361,-0.0014538094401359,0.0007110056467354,-0.0006473516114056
1783197571979038200,2.2090380859375,-0.0028851269822567,-0.0054500273005105,-0.0554728808969259,-0.0021632760763168,-0.0011486797593533,-0.0024622960481792
1783197571988975000,2.21897509765625,-0.0103012849902734,-0.0065642904190346,-0.0485959808647632,-7.72783532738e-05,0.0019455342553555,0.002084131585434
1783197571998912000,2.228912109375,-0.0088807141352444,0.0022574966032058,-0.0483060580074787,0.0001839781180024,0.0017985277809202,0.0011216651182621
1783197572008850200,2.23885009765625,0.0059289516575634,0.0092238650171086,-0.0411170232862234,-0.0029210858047008,-0.0018023033626377,-8.74563120305e-05
1783197572018787000,2.248787109375,0.002823204194568,0.0252721326941624,-0.0566711507707834,-0.0002203742042183,0.0001071826554834,0.0001508966088294
1783197572028724200,2.25872412109375,0.0013142974689602,0.0176315182805061,-0.0496393524378538,-0.0003900686278939,-0.0002182452008128,0.0013057987671345
1783197572038661000,2.2686611328125,0.0076581135377287,0.0190826304042711,-0.0497954197824001,0.0004839804023504,-0.0012225229293107,0.0012048648204654
1783197572048599300,2.278599365234375,-0.0016508724795654,0.0234484791972674,-0.0560813681840896,0.0004558973014354,0.0001655337400734,-0.0003959643654525
1783197572058536000,2.288535888671875,-0.0083315558198839,0.0200073988326825,-0.0417091439604759,0.0021241018548607,-0.0007442021742463,0.0018472161609679
1783197572068473000,2.29847314453125,0.0018441665619611,0.0032710027609951,-0.0499351205140352,0.0014058202505111,-0.0003527887165546,0.002445630962029
1783197572078410200,2.30841015625,-0.0055672056730836,0.0089390749926678,-0.0521720857858657,0.0012638736516237,0.0020650951191782,-3.5636126995e-05
1783197572088348200,2.31834814453125,-0.0066562430188059,0.0127527515293098,-0.0496323381751775,0.0005962923169136,0.0011290358379483,0.0006553239654749
1783197572098285300,2.328285400390625,0.0037491234004497,0.0094824063554406,-0.0490372948914766,0.0015180120244622,0.0009106565266847,0.002447630977258
1783197572108222200,2.33822216796875,0.0004090557249262,0.0113754170278087,-0.0547241083562374,0.0012593585997819,0.0012188800610601,0.0034471061080694
1783197572118159000,2.3481591796875,0.0043680224837735,0.0180051921647973,-0.0435083023369312,-0.001759068109095,-0.0008637118153274,-0.000512481899932
1783197572128097000,2.358096923828125,0.0007737243188545,0.0149880180343985,-0.0483060580074787,0.0005634138360619,0.0017977054230868,-0.0007977343630045
1783197572138034200,2.3680341796875,0.0001896773532032,0.0039219957493245,-0.0396340912520885,0.0022345473989844,-0.0003469381481409,-3.84671147912e-05
1783197572147971000,2.37797119140625,-0.0030095936121419,0.0066906202124431,-0.0559375757992267,6.6319480538e-06,-0.0019499124027788,0.0022773093078285
1783197572157908200,2.387908203125,-0.0074058558097109,9.93321886286e-05,-0.0456079049646854,-0.0004812600091099,-0.0004542814567685,0.0016464067157357
1783197572167846100,2.39784619140625,-0.011652078544721,-0.0066800622858107,-0.0459071801722049,0.0022587496787309,-0.0006125788204371,-0.0019463567296043
1783197572177783000,2.407782958984375,-0.0115411655161529,-0.0094720493582077,-0.0496457821786403,0.0026076240465044,0.0008574859239161,0.0002699259202927
1783197572187720000,2.417719970703125,-0.015949921869114,-0.0096680651206523,-0.0542892240703105,-5.24977222084e-05,0.0012754411436617,0.0013909009285271
1783197572197657000,2.427656982421875,-0.0062390405200421,-0.0023196751192212,-0.0620832389473915,-0.0008847350254654,0.0016133962199091,0.0005850284360349
1783197572207595000,2.437594970703125,-0.0090831779047846,-0.0055195488727651,-0.0477314729899168,-0.0005418229848146,0.0001101046800613,0.0001589730381965
1783197572217532200,2.4475322265625,-0.0044223099542781,-0.0074049607605673,-0.0432394222676753,0.0017708661034703,-0.0021280162036418,0.0003810806665569
1783197572227469300,2.45746923828125,0.0014509294606745,-0.0030817455329,-0.0608954904675483,-0.0021288637071847,-0.0018272157758474,0.0016012501437216
1783197572237407200,2.4674072265625,-0.0083436115838587,-0.0046765404436737,-0.0487689993441104,0.0007223160937428,-2.07941047847e-05,-1.82182993739e-05
1783197572247344000,2.47734423828125,-0.0035913755554705,-0.0054207829397171,-0.0595446603804826,-0.0010669082403182,0.000160289928317,0.0001145415008068
1783197572257281000,2.487281005859375,-0.0016514935340732,-0.0040940095816738,-0.051464814299345,0.0002015549689531,-0.0004900540225207,0.0007686140015721
1783197572267218200,2.49721826171875,-0.0035439927497878,-0.0019091032906435,-0.0525070168286561,-2.43438407778e-05,-0.0017983359284698,0.0010170305613428
1783197572277156000,2.507156005859375,-0.0016610285473987,-0.0045226833225227,-0.0432265627861022,-0.000193721614778,0.0005210107192397,0.0001320622395724
1783197572287093200,2.51709326171875,-0.0057310179326683,-0.0022441439312882,-0.0527922635108232,0.0002895770594477,0.0006801174022257,-0.0018591020489111
1783197572297030100,2.527030029296875,-0.0017062193959951,-0.0034606618478894,-0.0448708228617906,1.71363353729e-05,-0.0004405407235026,0.0009438751731067
1783197572306967000,2.536967041015625,-0.0094209950244054,0.0038972996994853,-0.0417243415296077,0.0022450564429163,0.0003715781494975,-0.0008121922146528
1783197572316905000,2.546905029296875,0.0025522417660802,0.0032173180786892,-0.0483066425293684,-0.0009494051337242,-0.0016415053978562,-0.0013762495946139
1783197572326842000,2.556842041015625,-0.0117484150586649,-0.0006379325773566,-0.0514478631645441,0.0002180701121687,-0.002616100013256,-0.00127306394279
1783197572336779000,2.566779052734375,-0.0096238971853628,-0.0012638459233567,-0.0442559058338403,0.001669492572546,-0.0013748011551797,-0.0005540105048567
1783197572346716200,2.576716064453125,-0.0079779200766235,-0.0060990475274622,-0.0500929414242506,-0.0013431161642074,6.2491744756e-06,9.48270317167e-05
1783197572356654000,2.586654052734375,-0.0065668111696839,-0.0047436508631333,-0.0590676905184984,-7.01248645782e-05,-0.0005120015703141,0.0011116219684481
1783197572366591200,2.59659130859375,-0.0026106574224308,0.0059705075106583,-0.045157238587737,-0.0016870917752385,0.000744657125324,-0.0002677179872989
1783197572376528100,2.606528076171875,-0.0043877866301685,0.0033710290693677,-0.0439607222795486,0.0012671528384089,-6.20144419372e-05,0.0012513489928096
1783197572386465000,2.616465087890625,-0.0053325931996107,0.0077383939660154,-0.0551852961272001,0.0005127843469381,0.001054364722222,0.0008703675121068
1783197572396403200,2.6264033203125,0.0065366717597469,0.008986969255004,-0.0460574022978544,0.0006086574867367,-0.0005467277951538,0.0020360327325761
1783197572406340000,2.636340087890625,0.0023692133493721,0.0100969945898279,-0.0448491955518722,0.0004787314683198,-0.0011264053173363,-0.0004590428434312
1783197572416277200,2.64627734375,-0.0025054434822872,-0.0014069076558575,-0.0590565846025943,0.0002683419734239,0.0005889367312192,0.0018595054280012
1783197572426214100,2.656214111328125,0.0012230389889329,0.0055641917320899,-0.0449848046302795,-0.0028780493885278,-0.0007481989450752,-0.0003795642405748
1783197572436152300,2.66615234375,-0.0075492828683927,0.0056318684071302,-0.0512684149444103,0.0007909871637821,-0.0031639519147574,-0.0011486851144582
1783197572446089000,2.6760888671875,-0.0055727220984175,0.0022015103659592,-0.0509586183428764,0.0008383765816688,-4.1258521378e-05,0.0024305984843522
1783197572456026000,2.686026123046875,0.0002081993905827,0.0081090356430038,-0.0445253704249858,0.0004751216620206,0.0003363778814673,0.0010803758632391
1783197572465964000,2.695964111328125,-0.0115787210475653,0.0199014907727949,-0.0508089807391166,-0.000874638557434,0.0003041294403374,-0.001724793575704
1783197572475901200,2.705901123046875,-0.0045023894531652,0.0226564703030511,-0.0538064089894294,0.0004494851455092,0.0015542171895503,0.0010928309056907
1783197572485838000,2.715838134765625,0.0013884221510961,0.0216737063433974,-0.041244449058175,-0.0003257822245359,0.0007967185229063,0.0005047295708209
1783197572495775000,2.72577490234375,0.0036208573782816,0.0154676730438135,-0.0524573324680328,0.0003072516992688,-0.0031620706431567,0.0002844862174242
1783197572505713000,2.735712890625,0.0005190554380416,0.0137787518424913,-0.0541103603720664,-0.0019706711173057,0.0045830532908439,-0.0015236607287079
1783197572515650000,2.745650146484375,-0.0006797624250873,0.0061910549261607,-0.0475374117225408,-0.0008521433919668,0.0016229497268795,3.90822533518e-05
1783197572525587200,2.755587158203125,-0.012350436072424,0.0033032610627822,-0.0521738393515348,0.0017479658126831,0.0002167890779674,0.0017828354611992
1783197572535524000,2.765524169921875,-0.0075458853349089,0.0085867361573502,-0.0532230561435222,9.38763841986e-05,-0.0005667125806212,-0.0012595595326274
1783197572545462000,2.7754619140625,0.0096296328064054,0.0108379491502419,-0.0479787257492542,0.0018787160515785,0.0007492615841329,-0.0002479334361851
1783197572555399200,2.785399169921875,0.0030597163641825,0.0095377167392522,-0.0520253707915544,-0.0004970896989107,0.0006211637519299,0.0015835224185138
1783197572565336000,2.795336181640625,-0.0062798474544659,0.0075233264432288,-0.0441080217957496,-0.0009962618350982,0.0042380867525935,-0.0002844363916665
1783197572575273000,2.80527294921875,-0.011050459389761,0.0033531463528051,-0.0507078584522008,-0.0012271581217646,0.0020385822281241,-0.0013515648897737
1783197572585211100,2.815211181640625,-0.0111492435891181,-0.0007593304673209,-0.0444219100505113,-0.0015687840059399,-0.0025295177474617,-0.0024586427025496
1783197572595148000,2.82514794921875,-0.0129747419832274,0.0079050009708851,-0.0441243884086608,-0.002676660194993,0.0019251517951488,0.0029797984752804
1783197572605085200,2.835085205078125,-0.0129191028058528,-0.0032097923593595,-0.0501081389933824,-2.7576461434e-06,-8.24043527245e-05,-0.0013098476920276
1783197572615023000,2.845023193359375,-0.0085666797500103,0.0008060191532596,-0.0475642997294664,0.0018337583169341,0.0018140329048037,-0.0020150528289377
1783197572624960300,2.854960205078125,-0.0093178634434938,0.0072227908603847,-0.0466752419352531,-0.0001662578433752,0.0002065631560981,-0.0005209669470787
1783197572634897000,2.86489697265625,-0.0102905078679323,0.0066798796227201,-0.0403933851867914,0.0004414757713675,-0.0014022523537278,0.0019312717486172
1783197572644834000,2.874833984375,-0.0105192751225084,0.0069883427836932,-0.0450239675968885,0.001446159556508,-0.0004585743881762,0.0008248854428529
1783197572654772000,2.88477197265625,-0.0035868455108255,0.0113414964918978,-0.0484627098739147,0.0017620101571083,-0.0017392886802554,-0.0020108486060053
1783197572664709000,2.894709228515625,-0.0109413729920983,-0.0048756980112753,-0.0514542929053306,0.0009018406271934,-0.0004514162428677,-0.0012556384317576
1783197572674646000,2.90464599609375,-0.017525792883709,-0.0080898560184985,-0.0548942042261362,-0.0005863336846232,-0.0012101507745683,-0.0006841241847723
1783197572684584200,2.914584228515625,-0.0056256943946704,-0.0152868731168098,-0.0469593195736408,0.0006755711510777,0.0029317568987607,-0.0027118721045553
1783197572694521000,2.92452099609375,0.0021532325111329,-0.004023355498258,-0.0512976410388946,-0.0018011685460805,0.0007173386402428,0.0009928510989993
1783197572704458000,2.9344580078125,-0.0046042789250612,-0.0012242810979485,-0.0535486348360776,-0.0017834408208727,-9.23192128539e-05,-0.0025624861009418
1783197572714395100,2.94439501953125,-0.0041814869357272,0.0029312676789239,-0.0562356819629669,0.0012965044006705,-0.0011794217862188,0.0005131987854838
1783197572724333000,2.9543330078125,0.0009803528068587,-0.0048183783334679,-0.0532417608439922,-0.0008581615984439,-5.88963739573e-05,-0.0011936472728848
1783197572734270200,2.964270263671875,-0.0079291124988347,-0.0050310895023867,-0.0502384873747825,0.0005194917321205,-0.002714067697525,-0.0007475677412003
1783197572744207000,2.97420703125,0.0008030965438112,0.0002661401228979,-0.045595630005002,0.0020527895539999,0.0018750983290374,0.0046622855588793
1783197572754145000,2.98414501953125,-0.0095475805461406,-0.004680449433811,-0.0599661006629467,-0.0012031914666295,0.0002428470179438,0.0004414420109242
1783197572764082200,2.994082275390625,-0.018051533790864,-0.0056009983448311,-0.0427653750151395,-0.0004624295979738,0.0016312198713421,0.0012953651603311
1783197572774019000,3.00401904296875,-0.010549304934591,-0.0014508929280564,-0.0463648608118295,-8.87876376509e-05,0.0017199032008647,-0.0007323655299842
1783197572783956000,3.0139560546875,-0.0004350304163992,-0.0005907689673826,-0.0538508326530456,-0.002494647167623,-0.0030319597572088,-0.000733972294256
1783197572793894100,3.02389404296875,-0.0072160688586533,-0.0043828181941062,-0.039032618227601,0.000802612863481,-0.0030727060511708,0.0001925413962453
1783197572803831000,3.0338310546875,-0.004082629671134,-0.0001684701683931,-0.0536883355677127,-1.601874828338623e-07,-0.0015281443484127,-0.0014030961319804
1783197572813768200,3.043768310546875,0.00344425870236,0.0059574105670675,-0.0478501309335231,0.0003700191155076,5.29745593667e-05,0.001854482339695
1783197572823705000,3.053705078125,0.0056153191311284,0.005755513053108,-0.0512888732105493,4.74248081445e-05,-0.0004376624710857,-0.0015889343339949
1783197572833643300,3.063643310546875,-0.0041909854164347,0.001662179324869,-0.045899581387639,-0.0001059733331203,-0.0008911988697946,-0.0001332503743469
1783197572843580000,3.073579833984375,-0.0070320905938744,0.0005558072518557,-0.0529337178081274,0.0006942879408597,-0.0003708712756633,-0.001136839389801
1783197572853517000,3.08351708984375,-0.0021847236279398,0.0021666034493595,-0.045000586721301,-0.0022080251947045,0.0008211596868932,0.0032595070078969
1783197572863455000,3.093455078125,-0.0029820114854723,0.003945394891221,-0.0396165555953979,0.001171720214188,-0.0003478890284895,0.001679495209828
1783197572873392000,3.10339208984375,-0.0032585634045302,0.0122622645986266,-0.0553337646871805,0.0009208507835865,-0.0017939852550625,-0.0001628797035664
1783197572883329300,3.113329345703125,-0.0053129021184518,0.0088673249307088,-0.0571259088009595,-7.05337151885e-05,-6.05336390435e-05,0.0001111526507884
1783197572893266200,3.12326611328125,-0.0049163770815357,0.0096072565778158,-0.0508358687460422,-0.0006833262741565,-0.0030384808778762,-3.0968803912e-06
1783197572903204000,3.1332041015625,0.0024317937241867,0.0022065153346396,-0.050379357150197,0.0004352182149887,-0.0003916844725608,-0.0004128261934965
1783197572913141000,3.14314111328125,-0.0045561289343982,0.0100105766816996,-0.054566287446022,-0.000654281117022,0.0002240380272269,-0.0001246721949428
1783197572923078100,3.153078125,0.0079878569487482,0.0016212079936638,-0.0403524686545133,-0.0007572602480649,-5.61624765396e-05,-0.0050455704331398
1783197572933016000,3.16301611328125,0.0039214112274348,-0.0009238368466496,-0.0479851554900407,0.0006440952420234,0.0017976639792323,0.0006570564582943
1783197572942953200,3.172953125,-0.0014500161452218,0.0034192155926488,-0.051584056764841,0.0020412346348166,-0.0014971946366131,0.0023645642213523
1783197572952890000,3.18289013671875,-0.0125171709414571,0.0051534007078036,-0.0479898316651582,-0.0013428442180156,-0.0019233007915318,-0.0001824831124395
1783197572962828000,3.192828125,-0.0037527766622602,0.0014398052784614,-0.0397585944145917,-0.0022757947444915,-0.0001000794582068,-0.0002488605678081
1783197572972765000,3.202764892578125,-0.0123315852414816,0.0058921998437494,-0.0369189870744943,-0.0011287713423371,0.0019034165889024,0.0003780473489314
1783197572982702000,3.2127021484375,-0.0072651321647688,-0.0018885536929592,-0.0470955131739377,-0.0005003390833735,0.0014794506132602,-0.0005555590614676
1783197572992639000,3.222638916015625,0.0049711029434576,0.0082331004140898,-0.0553285039901733,0.0011870404705405,-0.0020660157315433,-0.0002836503554135
1783197573002577200,3.2325771484375,-0.0019296894209459,0.0064539619123563,-0.0460480499476194,0.0007165726274251,0.001268255058676,-0.0022899946197867
1783197573012514000,3.24251416015625,-0.0042123935306444,-0.0012296148601919,-0.0429091674000024,-0.0012813303619623,-8.70274379849e-05,0.0014653289690613
1783197573022451200,3.252451171875,-0.0034770284608006,0.0022314488464966,-0.0426098921924829,0.000997107475996,-0.0007535717450082,-0.0014059860259294
1783197573032389000,3.26238916015625,-0.0063565294198691,-0.0003872640182264,-0.054584992146492,0.0005702031776309,0.0004664221778512,0.000804970273748
1783197573042326000,3.272325927734375,-0.0058461687449365,-0.002294668542128,-0.0517459693282842,-0.0008028773590922,0.0002799350768327,0.0007003715727478
1783197573052263000,3.282262939453125,-0.0082859265798702,0.0040923656138591,-0.0541401709884405,0.0029156943783164,0.0028075412847101,0.0010604311246424
1783197573062200000,3.292199951171875,-0.0119574912320822,-0.0092619137388654,-0.0530944613277912,-0.0004185670986771,0.0008010105229914,-0.000970269087702
1783197573072138000,3.302137939453125,-0.006619893063791,-0.0030051001001149,-0.045616088271141,0.0005814498290419,-0.0002938145771622,-0.0003500189632177
1783197573082075100,3.3120751953125,-0.004311031599529,0.0124554856157861,-0.0542898085922002,0.0017357086762785,0.0011630067601799,-0.0004092326853424
1783197573092012300,3.32201220703125,-0.0123586924441158,0.0056104237603023,-0.0572837297111749,0.0017615417018532,-0.0032250834628939,0.0006099592428654
1783197573101950200,3.3319501953125,-0.0083677961770445,0.0043839872378855,-0.0572790535360574,-0.001738148741424,-0.0004835152067244,-0.0014032728504389
1783197573111887000,3.34188720703125,0.0006171820502728,0.0052119442283175,-0.0379734645634889,-0.0007029781118035,0.0018126624636352,0.0007661383133381
1783197573121824000,3.351823974609375,-0.0046613428745418,-0.0027145927209407,-0.0474023871660232,-0.0006872499361634,0.0001706206239759,-0.0013823742046952
1783197573131761200,3.36176123046875,-0.008957834492065,0.0068327320968732,-0.0509919360905885,-0.0016438569873571,0.0001455866731703,-9.36705619096e-05
1783197573141699000,3.371698974609375,-0.0051007572051137,-0.0053906435297802,-0.0490513234168291,-0.0002405494451522,0.002976834308356,-0.0008885206189006
1783197573151636200,3.38163623046875,-0.0048668753840029,-0.0025411906491033,-0.0439671520203351,0.0002883542329072,0.0017789443954825,0.0002750144340097
1783197573161573000,3.391572998046875,-0.0058252355547621,-0.0083669011279009,-0.0501139842122793,0.0002996819093823,0.0043708486482501,0.0007174150086939
1783197573171511300,3.40151123046875,-0.009719941438362,-0.0096888339140452,-0.0540039773881435,-0.0022425716742873,-0.0006481446325778,-0.0002072346396744
1783197573181448000,3.411447998046875,-0.0055333034034818,0.0025634572798386,-0.0501093080371618,-0.0014874348416924,-0.0017089983448386,-0.0017726628575474
1783197573191385000,3.421385009765625,-0.0171536716356873,0.0083240118342451,-0.0439735817611217,0.0010209968313574,-0.0017590657807886,-0.0013441604096442
1783197573201323000,3.431322998046875,-0.0027525501111522,-0.0010747530920431,-0.0504050761133432,0.0010175528004765,-0.0017849374562501,0.0027478651609271
1783197573211260200,3.44126025390625,0.001019625371322,0.009614252574183,-0.0436678768128156,0.0006130179390311,-0.0009172791615128,-0.0015856304671615
1783197573221197000,3.451197021484375,-0.0021790976047515,-0.005984974427428,-0.0508545734465122,-3.55029478669e-05,0.0005855388008058,-0.0027882463764399
1783197573231134200,3.46113427734375,-0.0044337446637451,0.010204126492422,-0.0542962383329868,-0.0004064813256263,-0.0009127552621066,-0.0002324106171727
1783197573241072000,3.471072021484375,-0.0080846683867275,0.001906491208449,-0.0469692564457654,-0.0002757105976343,-0.0029187179170548,0.0005643034819513
1783197573251009000,3.481009033203125,-0.0112512426588684,-0.00299439604301,-0.0412748441964387,-0.000163591466844,-3.23834829032e-05,-0.0007973706815391
1783197573260946000,3.49094580078125,0.0001546791050583,-0.0039862566245719,-0.0433703551709651,-0.0033588567748665,-0.0017591984942555,0.0016877064481377
1783197573270884000,3.500884033203125,0.0048887218896299,-0.0051035519503988,-0.0424602545887231,0.0002681026235222,-0.0008646426722407,-0.0019919830374419
1783197573280821000,3.510821044921875,-0.0057431832944974,-0.0047669038745574,-0.0481458990097045,0.0013388860970735,0.0006619375199079,0.0015793291386216
1783197573290758100,3.520758056640625,-0.0022768588908016,-0.0041975795540027,-0.0464957937151193,0.0011958740651607,-0.0008597928099334,-3.00188548862e-05
1783197573300696000,3.530696044921875,-0.0028844693951308,-0.0099985574503429,-0.0472433972120285,-0.0004562810063362,0.0020771888084709,-0.0009461408481001
1783197573310633200,3.54063330078125,-0.0096476068545132,0.0079812445448711,-0.0418576125204563,-0.001231794245541,0.0005858186632394,0.0007311177905648
1783197573320570000,3.550570068359375,-0.0002794379958882,0.0053150940755382,-0.0518856700599193,-0.0001601064577698,-5.03892078995e-05,0.0001275187823921
1783197573330507000,3.560507080078125,0.0002875117044895,0.016521419880446,-0.057266778576374,0.0015267394483089,-0.0024461685679852,-0.0016496086027473
1783197573340445000,3.57044482421875,0.0015553396832197,0.0105367011813446,-0.0463438180238008,0.0013657389208674,0.0017257360741496,0.0022375243715941
1783197573350382000,3.580382080078125,-0.000201733117178,-0.0023966128129512,-0.0518763177096843,0.0018336558714509,-0.0027616899460554,0.0003908886574208
1783197573360319200,3.5903193359375,0.0005636982973664,-0.0067413640189915,-0.0596563040614128,-0.0004975898191332,0.0002563172020018,-0.0009904422331601
1783197573370257200,3.600257080078125,-0.009818725637719,-0.0149915434320457,-0.0446878675103187,-0.0005833432078361,-0.0002632653340697,-0.0017845968250185
1783197573380194300,3.6101943359375,-0.0055957011152058,-0.0118933582209981,-0.0524684383839368,0.0001051733270287,-0.0011043297126889,0.0027351800817996
1783197573390131000,3.620130859375,-0.0120739937512204,-0.001768580575101,-0.0506681109637022,-0.001884208060801,-0.0012745056301355,0.0016251744236797
1783197573400069000,3.630069091796875,-0.0041206601265817,0.0058920537132769,-0.0442319404363632,0.0004192711785435,0.0009872149676084,-0.0027162036858499
1783197573410006000,3.640006103515625,-0.0032527547182515,0.0079895739817991,-0.0448404277235269,0.0001846468076109,0.0034748737234622,-0.0014317610766738
1783197573419943200,3.649943115234375,-0.0034716946985572,0.0065956902042962,-0.048286768785119,0.0019027441740036,-0.003385707270354,0.0005049395840615
1783197573429880000,3.659880126953125,-0.0013135668165981,0.0023135011067613,-0.0485766916424036,-0.000196891836822,-0.0014746226370334,0.0018698095809668
1783197573439818200,3.669818359375,0.0025551278429105,0.0007079290736466,-0.0490296961069107,0.0007732473313808,-0.0005563553422689,-0.0010670502670109
1783197573449755100,3.679755126953125,-0.0039147257583215,0.0099992515700869,-0.0657867696404457,5.9902667999e-06,-0.0022823503240942,-0.0006289600860327
1783197573459692000,3.689692138671875,-0.0125848293501883,0.0018892843453213,-0.0550046788632869,0.0004101553931832,-0.0019498439505696,0.0024996176362037
1783197573469630000,3.6996298828125,-0.0094970924679189,0.0058774771986529,-0.0515589223235845,0.0003265319392085,-0.0009988290257751,-0.0007017685566097
1783197573479567000,3.709567138671875,-0.0089415044117718,0.0057424343758262,-0.05783376480937,0.0007334789261221,-0.0007013310678303,0.000173092354089
1783197573489504000,3.71950390625,0.0043327685073018,0.006769603732787,-0.0496066192120313,0.0002964539453387,0.0009935046546161,-8.70984513312e-05
1783197573499441700,3.729441650390625,0.0031038112342357,-0.0001285217504948,-0.0520113422662019,0.0033662496134638,0.0018196115270256,0.0015810674522072
1783197573509378600,3.739378662109375,-0.0044919045917689,-0.0058967664210125,-0.0517167432337999,-0.0001533841714262,0.0003050719387829,0.0001445584930479
1783197573519315700,3.749315673828125,-0.0066571928668767,-0.0047014191566035,-0.0460346059441566,0.0011421330273151,0.0028061682824045,-0.0023630307987332
1783197573529253600,3.759253662109375,-0.0040730581251904,0.0040127062400802,-0.0427355643987655,0.0019456082955002,-0.0002322322688996,-0.0016032310668379
1783197573539190800,3.769190673828125,-0.0052734103582799,0.0056147528755478,-0.0500654688954353,0.0007857671007514,0.0018053264357149,0.0002813776955008
1783197573549128000,3.7791279296875,-0.002907740672864,0.0129522196241654,-0.0472235234677791,0.0011397013440728,-0.0008469158783555,-0.0004832160193473
1783197573559065900,3.78906591796875,-0.0095123265696689,0.0088787413738667,-0.0461696305006742,0.0008086021989583,-0.0020121466368436,0.0002041500993072
1783197573569002800,3.799002685546875,-0.0059931029349565,0.008995974545367,-0.0380856927663087,-0.001017527654767,0.0004914910532534,-0.0006371424533426
1783197573578939600,3.808939697265625,-0.0069321738833561,-0.0052990562561899,-0.052904491713643,-0.0011656330898404,-0.0003366922028362,-0.0001511559821665
1783197573588876800,3.818876708984375,-0.01055588080585,-0.0060193150884471,-0.0540939937591552,-0.0006862636655569,-0.0025212834589183,-6.19401689618e-05
1783197573598814700,3.828814697265625,-0.0055509486580267,-0.004805920710694,-0.0555985531032085,-0.0012063840404152,0.0017998199909925,0.0003689569421112
1783197573608751900,3.838751953125,-0.0040755788758397,0.0003703859486617,-0.0488759668499231,-0.000153636559844,0.0021886413451284,0.0021612644195556
1783197573618688800,3.848688720703125,-0.0010129033695906,0.0085114972303621,-0.0485831213831901,0.0008498337119817,0.0014052996411919,0.0005813082680106
1783197573628627000,3.858626953125,-0.0036175694426521,0.0112969632304273,-0.0476864648044109,-0.0003901347517967,0.0013879891484975,-0.0004639825783669
1783197573638563600,3.8685634765625,0.0020272680439054,0.0077807900693267,-0.0517225884526968,-0.0009003933519124,-0.0023576011881232,0.0002951871138066
1783197573648500700,3.878500732421875,-0.0017159370724111,0.0103530151775106,-0.0436415733277797,0.0006586210802197,-0.001127487514168,0.0013756316620856
1783197573658438700,3.888438720703125,-0.0002688800692558,0.0007702902527526,-0.0446837758570909,-0.0013813879340887,0.0008253762498497,0.0001794870477169
1783197573668375800,3.898375732421875,0.0037196050450205,0.005950980826281,-0.0464800116240978,0.0015558125451207,0.0009518763981759,0.0014218515716493
1783197573678312700,3.908312744140625,-0.0006955079834908,0.0009876227978616,-0.0397428123235702,0.0003561666235327,-0.0012092315591871,-0.0009406572207808
1783197573688251000,3.9182509765625,-0.0118817956473678,0.0013933905871585,-0.0455775098264217,-0.0002038953825831,-2.30595469474e-05,0.0002729452680796
1783197573698187800,3.928187744140625,-0.0059055707819759,0.0014638985401019,-0.0502151064991951,0.0019839275628328,0.0001146499998867,0.0001052927691489
1783197573708124700,3.938124755859375,0.0016370996825397,-0.0067559953325428,-0.0461795673727989,0.0006515476852655,0.0021053629461675,-0.0008952568750828
1783197573718062600,3.9480625,-0.0060218175727874,-0.0039350378939881,-0.0340612595558166,-0.0020934538915753,-0.0004660957492887,0.0007125327829271
1783197573727999700,3.957999755859375,-0.0101963998436927,-0.0028132673224434,-0.0455757562607526,0.0015542777255177,-0.0031417733989655,0.0028507846873253
1783197573737936600,3.9679365234375,-0.0106894440576434,-0.0050268517186865,-0.0539402645021677,-0.0009993081912398,-0.0015774150379002,-0.0019804751500487
1783197573747873800,3.977873779296875,-0.0087341087387874,-0.013188439532835,-0.0522831449449062,0.0005700923502445,0.0006433948874473,-0.0016414546407759
1783197573757811700,3.987811767578125,-0.002443009237945,-0.0070487677340395,-0.0503290882676839,0.0008863601833581,-0.002809839323163,-0.0001926114782691
1783197573767748600,3.99774853515625,0.0044920141896232,-0.0014187624904327,-0.0399988329112529,-0.0001299018040299,0.001989709213376,0.0008867678698152
1783197573777685800,4.007685791015625,1.4247721061e-06,-0.0020299166587181,-0.0540653521865606,-0.0007766978815197,-0.0009823306463658,0.0014976826496422
1783197573787623700,4.017623779296875,-0.0121886331068351,0.0036099341254681,-0.056610360494256,0.0024097748100757,-0.0008507706224918,-0.0028089149855077
1783197573797560600,4.027560546875,-0.0067041738137602,-0.0133679425518959,-0.0516734886139631,0.0006979489699006,0.0016092252917587,0.0028449958190321
1783197573807497700,4.037497802734375,-0.0050811391891911,-0.0023874613921158,-0.0498690695405006,0.0001171138137578,-0.0003247624263167,-0.0007563971448689
1783197573817435600,4.047435546875,-0.0071859294487163,-0.0001346044314093,-0.0411865813910961,0.0012349365279078,0.0010329377837479,-5.96570316702e-05
1783197573827372800,4.057372802734375,3.97474884986e-05,0.0036289310868829,-0.0419406146287918,-0.0010716272518038,0.0017535891383886,0.0005720446351915
1783197573837309700,4.067309814453125,-0.0031616423686966,0.0082949501365423,-0.043443420407176,-0.0009209476411342,-0.0009177955798804,-0.0007863184437155
1783197573847247600,4.07724755859375,-0.0099807477990165,0.0036925709076225,-0.047033553853631,-0.0014495849609375,0.002217277418822,0.0006696316413581
1783197573857184800,4.087184814453125,-0.0046165538847446,0.0030403358102776,-0.0537748448073863,0.0025533009320497,0.0006081331521272,0.001053337007761
1783197573867121700,4.09712158203125,-0.002219466147758,0.0134032147946767,-0.0533247629523277,0.0029482478275895,0.0001862882636487,0.0003771604970097
1783197573877059600,4.1070595703125,-0.0038300796821713,0.0155333221585489,-0.0467424619525671,-0.0008591506630182,0.0026464574038982,-0.0019115115283057
1783197573886996700,4.116996826171875,-0.0019518647201359,0.0187946985746733,-0.0537795209825038,0.0009185094386339,-0.0006271000020205,0.0005662934854626
1783197573896934000,4.126933837890625,-0.0054959670677781,-0.0010977686414495,-0.0573719925165176,-0.0021158065646886,0.0007238024845719,0.0001334850676357
1783197573906871800,4.136871826171875,-0.007889730336517,-0.0029892814764752,-0.0543821630507707,0.0007628044113516,-0.000428014434874,0.003433674108237
1783197573916808700,4.14680859375,-0.0101558851702138,0.0076512271392159,-0.0477946013540029,-0.0021483143791556,0.0002143229357898,0.000415603397414
1783197573926745600,4.15674560546875,-0.0046758097913116,0.0065351008571684,-0.0594715951442718,0.0008914181962609,-0.0005377540364861,-0.0005002578254789
1783197573936683800,4.166683837890625,-0.0023699440017342,0.0011770626890473,-0.0410614937067031,-0.0005323188379406,-0.0025278674438595,-0.0014324022922664
1783197573946620700,4.17662060546875,-0.0022883301328867,0.0052893203134648,-0.0471942973732948,-0.0025616474449634,-0.0017760568298399,-0.0028856894932687
1783197573956557800,4.186557861328125,0.0011383563801646,0.0041313093847595,-0.0480956301271915,0.0008762897923588,0.0006835316307842,-0.0003510327078402
1783197573966495700,4.196495849609375,0.0038865225771442,0.0067978799792006,-0.0503425322711467,0.0027980264276266,0.0007045706734061,-0.0018352123443037
1783197573976433000,4.206432861328125,0.0053370501790195,0.0056199222410097,-0.0474894809275865,0.0012045791372656,-0.0009699915535748,-0.0012841925490647
1783197573986369500,4.21636962890625,0.0013739552343264,0.0019930735133588,-0.0495890835553407,0.0011851377785205,-0.0007271114736795,-0.0016908571124076
1783197573996306700,4.226306640625,-0.0050059550611302,0.0023160035911016,-0.0507826772540807,0.0002907430753111,-0.001709365285933,0.0003984922077506
1783197574006244600,4.23624462890625,-0.0096540731279179,0.0018032682959921,-0.0536240381598472,-0.0007955599576234,0.0018784450367093,-0.00154002266936
1783197574016181800,4.246181640625,0.0014618892461061,0.0003892367796041,-0.0438970093935728,0.0018276292830705,-0.002018210478127,0.0013553998433053
1783197574026118700,4.25611865234375,-0.0063080141030251,-0.0023503625184297,-0.0552577768415212,0.0016633123159408,-0.0014211297966539,-0.0004241240676492
1783197574036056800,4.266056884765625,-0.0051707537014037,0.0070945796371437,-0.0562999793708324,-0.0031726229935884,-0.0008458979427814,-0.0013617402873933
1783197574045993700,4.27599365234375,0.0039427828090265,0.0052385947732254,-0.0527022471398115,-0.0004423502832651,-0.0018017063848674,-0.0024941163137555
1783197574055930600,4.2859306640625,-1.81201785802e-05,-0.0009136442461982,-0.0538870730102062,-0.0004570167511701,0.0006011803634464,-0.0001589651219546
1783197574065868500,4.29586865234375,-0.0020231763906776,0.0049308987972326,-0.0582294861286878,-0.0006716679781675,0.001866181846708,-0.0012668401468545
1783197574075805700,4.3058056640625,-0.0025399302737787,-0.0022912344760261,-0.0585252542048692,0.0003804927691817,-0.0012914650142192,-0.0018638904439285
1783197574085742600,4.31574267578125,-0.0022988880595192,-0.0012333411872386,-0.048344636452198,-0.0008299136534333,0.0002206778153777,-0.0014052940532565
1783197574095680800,4.3256806640625,-0.0021893267378211,-0.0002914389609359,-0.0561187775850295,0.0025752317160367,-0.0019935024902224,0.0010765236802399
1783197574105617700,4.33561767578125,-0.0085893665058538,-0.002320296173729,-0.054909401795268,0.0003062179312109,-0.0018249247223138,-0.0012649276759475
1783197574115554800,4.345554931640625,-0.0055379795785993,-0.0014347820434719,-0.0391863474845886,1.05891376733e-05,-0.0004420136101543,-0.0019233749480918
1783197574125492700,4.35549267578125,-0.0023784195691347,0.0017195538016036,-0.0523567947030067,-0.0019148755818605,-0.0015086093917489,-0.0008871390018612
1783197574135429600,4.3654296875,-0.0007671484475955,0.0017367241321131,-0.0502554385095834,0.0011236444115638,-0.0015215906314551,0.0014142689760774
1783197574145366800,4.37536669921875,0.000198262518458,0.0038278146598488,-0.0427612833619117,-0.0002135289832949,-0.0015980233438313,-0.0005450185853987
1783197574155304700,4.3853046875,-0.0028686507714912,0.0115370921292342,-0.055025137129426,0.0016374597325921,-0.0017843823879957,-0.0020351607818156
1783197574165241600,4.39524169921875,-0.0022205986589193,0.0122254031869582,-0.0532248097091913,-9.78559255599e-05,-0.0014381711371243,0.0005813951138406
1783197574175178800,4.4051787109375,0.0011335340745747,0.0093402944710105,-0.0502297195464372,-0.0032328134402632,-0.0009534293785691,0.001981089124456
1783197574185116700,4.41511669921875,-0.0062390770526602,0.0009959887674078,-0.0524789597779512,0.0001126499846577,0.0012572607956826,0.0009059712756425
1783197574195053800,4.4250537109375,-0.0011727701064199,0.0036056232765316,-0.0475409188538789,9.86773520708e-05,0.0008076406084001,-0.0007367078214883
1783197574204990700,4.43499072265625,0.0023052812676876,1.4613047242e-06,-0.0390098218739032,0.0002965498715639,-0.002533028833568,-0.0017276700818911
1783197574214928600,4.4449287109375,-0.0018478563563898,-2.68149416893e-05,-0.0497819757789373,0.0009467080235481,-0.0003520464524626,-0.0007739807479083
1783197574224865800,4.45486572265625,0.0035306948767974,0.0092920531488023,-0.0488753823280334,-0.0003675622865557,-0.0003176913596689,-0.0004698478151112
1783197574234802700,4.464802734375,0.0001763064149767,0.0103753548734821,-0.0499170003354549,0.0010451786220073,-0.0008415919728577,-0.0052387956529855
1783197574244740600,4.47474072265625,-0.0030590222444385,0.0100300485671497,-0.0508130723923444,-0.0007399376481771,-0.0012178965844213,0.0016161808744072
1783197574254677800,4.484677734375,-0.0001638122595846,0.0020667598040774,-0.0451285970151424,0.0005177836865186,-0.0010477323085069,0.0010380710009485
1783197574264615000,4.494614990234375,-0.0094653090901672,-0.0054368024927563,-0.0536596939951181,0.0001816926524043,-0.0015369551256299,0.0003682856913655
1783197574274552800,4.504552734375,-0.00034033787027,0.002873436544463,-0.0466249730527401,-1.10566616058e-05,0.0018556066788733,0.0002834440674632
1783197574284489700,4.51448974609375,-0.0025278014445677,0.0021833353884518,-0.0544049594044685,0.000245938077569,-0.0024477946572005,-0.0013016692828387
1783197574294426600,4.524426513671875,0.0071450494490563,0.0012511143059469,-0.0461789828509092,-0.0003558686003088,0.0011573643423616,0.0005852959584444
1783197574304364800,4.53436474609375,0.0023021759951487,0.0089019761189818,-0.0481184264808893,0.00267587415874,-0.0011569224298,-0.000490887556225
1783197574314301700,4.5443017578125,0.0036332419358193,0.0111013310604728,-0.0457142879486083,0.000217386521399,0.001510146073997,0.0007073406595736
1783197574324238800,4.55423876953125,-0.0049354836408048,0.0162575265135616,-0.0527513469785451,0.0009201942011713,-0.0023141531273722,0.0001888230908662
1783197574334176800,4.5641767578125,-0.0032820173453539,0.0164753887816332,-0.0416758262127637,-0.0011198641732335,-0.0008885562419891,-0.001979969907552
1783197574344114000,4.574114013671875,0.0005014832487329,0.0056209999532438,-0.0434714774578809,-0.000219183973968,-0.000789220444858,-0.0004318743012845
1783197574354050600,4.584050537109375,-0.0027711452137678,0.0012798654763959,-0.0473608861118555,0.0005597090348601,0.0021092854440212,-4.55500558018e-05
1783197574363988700,4.59398876953125,-0.0034479119641706,0.0061550702973268,-0.0582867692738771,-9.01026651263e-05,0.0002261642366647,0.0014620656147599
1783197574373925600,4.603925537109375,-0.0006410013172775,0.0026844167783856,-0.046613867136836,0.0004895972087979,0.0011727497912943,-0.0016949938144534
1783197574383862800,4.61386279296875,0.0016128420241177,0.0120397809543646,-0.0513952561944723,-0.0007128193974494,-0.0030217287130653,-0.0028497404418885
1783197574393800700,4.62380078125,0.0065960007315501,0.0024112623928114,-0.0518348166555166,1.47391110658e-05,0.0004499149508774,-0.00039774319157
1783197574403737900,4.63373779296875,0.0037129561085253,0.0046203350107185,-0.0464466938763856,0.0012975838035345,0.0010794862173497,0.0028947228565812
1783197574413674800,4.6436748046875,0.0041541240047663,0.0094470427811145,-0.0585585719525814,-0.0007127216085791,-0.0018709995783865,-0.0001135545317083
1783197574423612700,4.65361279296875,0.0015452566806226,0.0007578874289058,-0.0500245523631572,-0.0008179163560271,-0.0005631209351122,-0.0028736547101289
1783197574433549600,4.663549560546875,0.0041899259705096,0.0036188846169039,-0.0533189177334308,0.0016934955492615,0.002128473483026,0.0012738783843815
1783197574443486700,4.67348681640625,-0.0032884105535224,-0.0002325301142409,-0.0453951389968395,0.0015523480251431,0.0004147291183471,-0.0004310773219913
1783197574453424600,4.683424560546875,-0.0007955342918634,0.0014634236160665,-0.0419517205446958,0.0010306229814887,0.0009429706260561,0.001056910958141
1783197574463361800,4.69336181640625,-0.0047763110237196,-0.0008130151496268,-0.0513806431472301,0.0014447448775172,0.0009594825096428,0.0002643540501594
1783197574473298700,4.703298583984375,-0.0012065993107855,0.0021710604287683,-0.0446533807188272,0.002867423929274,-0.0003272350877523,-0.0006000020075589
1783197574483236900,4.71323681640625,-0.0009640227265655,-0.0126770376782864,-0.045547114688158,-0.0007613990455865,0.0004996764473617,-0.0004452723078429
1783197574493173500,4.723173583984375,-0.0043144291330128,-0.0035613092107698,-0.056474166893959,-0.0001336764544248,0.0032552564516663,-0.0009713375475257
1783197574503110400,4.7331103515625,0.0021864041283726,-0.0016167144816368,-0.0513911645412445,-3.7141144275e-06,0.0012035574764013,-0.0013076947070658
1783197574513048300,4.74304833984375,0.0036162177357822,0.0006198489313945,-0.0481026443898677,0.0006978837773203,-0.0013237711973488,-0.0016998224891722
1783197574522985200,4.752985107421875,-0.0055158773446455,0.0010353891960345,-0.063516486620903,0.000436894595623,-0.0003818115219473,-0.0009911553934216
1783197574532922400,4.76292236328125,0.0024320494525134,0.002439191579353,-0.0485503881573677,3.89665365219e-05,-0.001410907600075,-0.0016799899749457
1783197574542860300,4.7728603515625,0.0056562721960246,0.0049485075191594,-0.0436047484487295,0.0017969189211726,-0.0005070306360721,0.0005536035168915
1783197574552797400,4.78279736328125,-0.0090334935441613,0.0080733798077329,-0.0401613299965858,0.0006562173366546,-0.0001032380387187,6.17252662777e-05
1783197574562734300,4.792734375,-0.0047153746167197,0.002816938850563,-0.0522837294667959,-0.0015038726851344,0.0010571014136075,-0.0002927414607256
1783197574572672300,4.80267236328125,-0.0027242738647386,-0.0033387890338897,-0.0573690699070692,0.0019382014870643,-0.0005287416279315,-0.0005932599306106
1783197574582609400,4.812609375,0.0061359454717487,-0.0012767419375479,-0.0447948350161314,0.0003626756370067,-3.97851690649e-05,-0.0006153641734272
1783197574592546300,4.82254638671875,0.0029055852483958,0.00240454039108,-0.0483843839406967,-0.0014174347743391,0.0007113157771527,-0.0009536175057291
1783197574602484200,4.832484130859375,0.000321998495981,-0.0097040862821042,-0.0536152703315019,0.0003455784171819,-0.0007363785989582,-0.0010580134112387
1783197574612421400,4.84242138671875,-0.0072191375985741,-0.0031842743256129,-0.0452367335647344,0.0021769860759377,0.0010688710026443,-0.0024778703227639
1783197574622358300,4.852358154296875,-0.0156960932385176,-0.0032147607954218,-0.0564572157591581,-0.0009570224210619,0.0004789805971086,0.0020998374093323
1783197574632296400,4.86229638671875,-0.0081069532837718,0.0062327934423461,-0.0519733483433723,-0.0017009191215038,-0.0019618649967014,-0.000149417668581
1783197574642233300,4.8722333984375,0.0006986132560297,0.0078960322131402,-0.0477799883067607,-0.0016985218971967,-0.001182091422379,-0.0007217309903353
1783197574652170500,4.88217041015625,0.0050805546673014,0.0084153616458177,-0.0444873765021562,-0.0019994741305708,0.000115951988846,-0.0020311579573899
1783197574662108400,4.8921083984375,0.0080943860631436,0.004643021766562,-0.0362573082953691,0.0005267998203635,-0.0038143415004014,-0.0007355299312621
1783197574672045300,4.90204541015625,0.0050972866063937,0.0111394893800839,-0.0477694669127464,0.0004193922504782,0.000151487533003,-0.0010165101848542
1783197574681983200,4.911983154296875,0.0017067673852667,0.0082137381264939,-0.0471662403225898,-0.00149249099195,-0.0003968575038015,-0.0014375559985637
1783197574691920400,4.92192041015625,0.004487776405923,0.0165694968058727,-0.0509030887633562,0.0010440656915307,-0.0009179268963634,-0.0029846171382814
1783197574701857300,4.931857177734375,0.0035229499617591,0.017085976694338,-0.0435644164383411,-0.0008446481078863,0.0013050134293735,-0.0008040210232138
1783197574711795500,4.94179541015625,0.0045495530631393,0.0104810802702791,-0.0522539188504219,0.0028651915490627,0.001722655724734,-0.0010566220153123
1783197574721732400,4.951732421875,0.000577398029156,0.0153372333308681,-0.0447661934435367,-0.0017039943486452,0.0010563330724835,-0.0004345076158642
1783197574731669500,4.96166943359375,-0.0014668576821684,0.0071000595298595,-0.0437245754361152,-0.0018867114558815,0.0005252938717603,0.0016352133825421
1783197574741607400,4.971607421875,-0.0059878787705674,0.0067966561364941,-0.0500111083596944,0.0012100124731659,2.43536196649e-05,0.0025249752216041
1783197574751544300,4.98154443359375,-0.0057726651173084,0.000895907660108,-0.0540542462706565,0.0011477228254079,0.0006781136617064,-0.0006363745778799
1783197574761481200,4.991481201171875,0.0045970454666763,0.0015853694953024,-0.0521077883780002,-0.0015700329095125,-0.0034218225628137,-0.0018390581244602
1783197574771419400,5.00141943359375,0.0042585342273116,0.0067571826426312,-0.0594353547871112,0.0017146747559309,-0.0017148652113974,0.0014654751867055
1783197574781356300,5.011356201171875,0.0003950271995738,0.0069951195843517,-0.0583756166011095,0.0027056373655796,-0.0014181891456246,0.0004510772414505
1783197574791293400,5.02129345703125,0.0011098609380424,0.0051187129869125,-0.0540320344388484,-0.0003031510859727,0.0002143871970474,-0.0004698152188211
1783197574801231400,5.0312314453125,-0.003647672319971,-0.0017302578587085,-0.0574795445442199,0.0008409423753619,0.0029750200919806,-0.0014160361606627
1783197574811168500,5.04116845703125,-0.0030183249078691,0.0064375039678998,-0.0624257687747478,-0.0011797100305557,7.0347450673e-06,0.0031636352650821
1783197574821105200,5.051105224609375,-0.0001654927600175,0.0055097763974219,-0.0582359158694744,-0.0006478773429989,0.0027996257413178,-0.000282761408016
1783197574831043300,5.061043212890625,0.0029931174013763,0.002126929026097,-0.0516495232164859,0.0017322320491075,0.0026123253628611,-0.0019440576434135
1783197574840980200,5.070980224609375,0.0015615136956796,0.0026902254646643,-0.0537502948880195,-0.0010984418913722,0.0012756846845149,-0.0026386100798845
1783197574850917400,5.08091748046875,0.0005880290210247,0.002639518190734,-0.0483686018496751,-0.0011090906336903,0.0003363718278706,7.13905319571e-05
1783197574860855300,5.090855224609375,0.0047239963145926,0.0024833960472606,-0.0501589923977851,0.0017311703413724,-0.0007896129973232,-0.0019640633836388
1783197574870792400,5.10079248046875,0.0038737726934254,-0.0056988874950446,-0.0496978046268224,-0.0007795579731464,-0.0034960112534463,-0.0015101144090294
1783197574880729300,5.110729248046875,-0.0072128174556419,0.0007217749359086,-0.0493915151566267,0.0005664033815264,-0.0008272575214505,-0.0010179623495787
1783197574890667500,5.12066748046875,-0.0106469931554049,0.0075849387036636,-0.0480325017631053,0.0024931589141488,0.0002956860698759,0.0009534102864563
1783197574900604200,5.130604248046875,-0.0071283175099641,0.0069949917201884,-0.0483276853173971,-0.0014645643532276,-0.0007325606420636,-0.0014450326561927
1783197574910541300,5.140541259765625,-0.0034128771834075,-0.0021594065235927,-0.0529600212931632,0.0003929138183593,0.0001518563367426,-0.0037130725104361
1783197574920479200,5.150479248046875,-0.003127484370768,-0.0162041706248186,-0.058197337424755,0.0002901153638958,0.0009260373190045,-0.0011479158420115
1783197574930416400,5.16041650390625,-0.0070511606205254,-0.0161137523950077,-0.0504196891605854,0.0001771282404661,0.0010495632886886,-0.000679176300764
1783197574940354300,5.170354248046875,-0.0001673193909227,-0.0134236913271248,-0.0574526565372943,-0.0003626951947808,0.0001416914165019,-0.0008877017535269
1783197574950291500,5.18029150390625,0.0067800155289471,0.0015656966804526,-0.0481757096260786,0.0019392566755414,0.0011128573678433,5.69985713809e-05
1783197574960228400,5.190228271484375,0.0082062489397823,-0.0025541962611488,-0.047729134902358,0.0006111385300755,0.0010281689465045,-0.0005419463850557
1783197574970166500,5.20016650390625,0.0085068027889356,0.0119433713751845,-0.0499736989587545,0.000549666583538,0.0024416197557002,0.0001355034764856
1783197574980103200,5.210103271484375,0.0023563173351809,0.0048442982260137,-0.0426437944620847,-0.0006032157689332,-0.0014007887803018,-0.0002687643282115
1783197574990040300,5.220040283203125,-0.0047280514352023,-0.0019489786433055,-0.0466805026322603,-0.0002106223255395,-0.0007736007682979,0.00157908257097
1783197574999978200,5.229978271484375,-0.0108298023764044,0.0029135858917608,-0.0475783282548189,-0.0021142493933439,-0.0018646982498466,0.0030131950043141
1783197575009915400,5.239915283203125,-0.0006999649628996,0.0041363691523671,-0.0469815314054489,0.0001112138852477,0.0021333210170269,-0.0019107031403109
1783197575019852300,5.249852294921875,-0.0007614858917891,0.0011607691413722,-0.0531195957690477,0.0017192298546433,-0.0010369061492383,-0.0001109389122575
1783197575029790500,5.25979052734375,-0.001131232519634,0.0104951270619407,-0.046388241687417,0.0014282884076237,0.0019739381968975,-0.0026245410554111
1783197575039727400,5.269727294921875,0.0021752616798505,-0.0032358949149958,-0.0457879377067089,-0.0005400544032454,-0.0004857573658227,-0.0003198415506631
1783197575049664300,5.279664306640625,0.0080349840261042,0.0044892377106472,-0.0480289946317672,0.0016911569982767,-0.000320394989103,-0.0024155627470463
1783197575059602200,5.289602294921875,0.0051759413331747,0.0134255727569572,-0.0523667315751314,0.0017595998942852,-0.0008620820008218,-0.0023780120536684
1783197575069539300,5.299539306640625,0.0031854251030832,0.0065259129037149,-0.0611859978467226,0.0006360411643981,-0.0029624449089169,0.00079405028373
1783197575079476500,5.3094765625,-0.0038096214160323,0.0111373339556157,-0.0469692564457654,-0.0002681026235222,0.0011058002710342,-0.0003577668685466
1783197575089414400,5.319414306640625,-0.0106869963722303,0.0067590092735365,-0.0442728569686412,-0.0008771587163209,-0.0017035845667123,-0.0003695250488817
1783197575099351300,5.329351318359375,-0.0088596713472157,0.0092501319695264,-0.043972997239232,0.0013063671067357,0.0023665244225412,-0.0014622199814766
1783197575109288400,5.339288330078125,0.0034322394710034,0.0156728402270935,-0.0462251600801944,-0.001718989573419,0.0014408081769943,0.0041138147935271
1783197575119226400,5.349226318359375,0.0060271878676489,0.0155814904155209,-0.0463859035998582,-0.001904877834022,0.0032384418882429,0.0005654189735651
1783197575129163300,5.359163330078125,0.0027498101647943,0.0101002459928393,-0.0438520012080669,-0.0014471672475337,0.0004209838807582,-0.0009462188463658
1783197575139100400,5.369100341796875,-0.0012801394710317,0.0181351934863254,-0.0490863947302103,-0.0004117302596569,-0.0001641130074858,0.0008282456547021
1783197575149038300,5.379038330078125,0.0107845749951899,0.0024186602479778,-0.042359716823697,-9.7677111625e-06,-0.000631102360785,0.0009065226186066
1783197575158975500,5.3889755859375,-0.0009265402603894,0.0071912266783416,-0.0437087933450937,0.0012640226632356,0.001290634740144,0.0005800190847367
1783197575168913400,5.398913330078125,0.0061417176254093,0.003347885655798,-0.0489513701736927,0.0001442283391952,0.0007800366729497,-0.000923799816519
1783197575178850300,5.408850341796875,0.0042089229319244,0.0053341823684982,-0.0393728099673986,0.0018579727038741,-0.0013595470227301,-5.8805104345e-05
1783197575188787200,5.418787109375,0.0054976110355928,0.0034341209008358,-0.0543301406025886,0.0003807516768574,-0.0029321936890482,0.0017309337854385
1783197575198725000,5.42872509765625,0.008737067880854,0.0031047428159974,-0.0478998152941465,0.0004606461152434,0.0022556439507752,-0.0004272921942174
1783197575208662300,5.438662353515625,-0.0017719050433486,0.0100695951262488,-0.0450561163008213,0.0012712841853499,-0.0004531517624855,-4.041939973831177e-07
1783197575218599400,5.448599365234375,-0.0027571897536516,-0.0033864641005173,-0.0553857871353626,0.0019919360056519,0.0018334384076297,0.0003050605300813
1783197575228537300,5.458537353515625,-0.0034461583985015,-0.0034338651725091,-0.0528401943057775,-0.0017738239839673,-0.001679218839854,0.0001731130760163
1783197575238474500,5.468474609375,-0.0031975539322942,0.001292377898097,-0.041164369559288,-0.0003333203494548,-0.0012752171605825,-0.0011797728948295
1783197575248411400,5.478411376953125,-0.0018577566958963,0.010110876984708,-0.0372661930769681,-0.0005838749930262,-0.0025801276788115,-0.0019321427680552
1783197575258349300,5.488349365234375,0.0052288040315732,0.0102948004505597,-0.0392114819258451,0.0006275977939367,0.0003144624643027,0.0010471355635672
1783197575268286200,5.4982861328125,0.0025688641073182,0.0019447956585325,-0.0417523985803127,0.0003967322409152,0.0011972780339419,0.0006537523586302
1783197575278223400,5.508223388671875,-0.0042194443259388,-0.0015306801659986,-0.0425128615587949,-0.0031956052407622,0.0003061844035983,0.0005229909438639
1783197575288161300,5.518161376953125,0.0018897227367386,-0.0105864951398223,-0.0493996984630823,0.0021620923653244,-0.0005655507557094,-0.0032121278345584
1783197575298098400,5.528098388671875,-0.0061730626117438,0.0045587958155199,-0.0514928713500499,-0.0008006738498806,5.86942769587e-05,0.0001999139785766
1783197575308036400,5.538036376953125,-0.0037939123902469,0.0001755209636874,-0.0422089101761579,-0.0002031363546848,-0.0016012797132134,-0.0006017282139509
1783197575317973200,5.54797314453125,-0.013605733363144,-0.0001343852357007,-0.0483487281054258,-0.0003501428291201,0.0033109209034591,-0.0003045194316655
1783197575327910400,5.557910400390625,-0.0045194136532023,0.0009577391162514,-0.0519411996394395,0.0009909253567457,0.0009456141851842,-0.0012133701238781
1783197575337848300,5.567848388671875,-0.0073343980086967,0.0115167434609495,-0.0477519312560558,-0.0010485230013728,-0.0006112693808972,-0.0004362596664577
1783197575347785200,5.57778515625,-0.0136103730056434,0.0134534106119535,-0.0492354478120803,0.0036313189193606,-0.0017984588630497,-0.0009078707080334
1783197575357722400,5.587722412109375,-0.0182340507509186,0.0074191354163922,-0.0513274516552686,-0.0017815567553043,0.0022053373977541,-0.0002146498300135
1783197575367660300,5.597660400390625,-0.0346017961733043,0.007112718082033,-0.0601677607148885,0.0001362767070531,0.0038075209595263,-0.0009105955250561
1783197575377597400,5.607597412109375,-0.0460150975260883,0.0065352652539499,-0.0564402646243572,-0.0023125000298023,-0.0002018678933382,0.0019120890647172
1783197575387534300,5.617534423828125,-0.0299778992323204,0.0046407932768575,-0.0552571923196315,0.0014031641185283,0.0053798672743141,0.0010305196046829
1783197575397472300,5.62747216796875,-0.0106058574274182,-0.0133443607469089,-0.0512269138902425,-0.0005651777610182,0.0011750026606023,9.4685005024e-05
1783197575407409400,5.637409423828125,0.0154562566006556,-0.0304888078965246,-0.0549684385061264,-0.0008503971621394,0.0003459574654698,0.0028496766462922
1783197575417346300,5.64734619140625,0.0599628492599353,-0.0495789822864346,-0.0504816484808921,-0.0049993367865681,-0.0026532942429184,0.0023487363941967
1783197575427284200,5.6572841796875,0.0719771121805533,-0.0678477024919353,-0.0462929646193981,-0.0051300628110766,-0.0059729316271841,0.001915710279718
1783197575437221400,5.667221435546875,0.07046908223778,-0.0361161279927007,-0.0468657960712909,-0.0015366608276963,-0.0042242999188601,-0.0002116227988153
1783197575447159300,5.6771591796875,0.0264169553477317,0.0347283451624214,-0.0552262126594781,0.0014042546972632,-0.0019515277817845,0.0018387453164905
1783197575457096400,5.687096435546875,-0.0148064874550327,0.0812552646681666,-0.0374111545056104,0.0028202580288052,0.0002852613106369,0.0025583312381058
1783197575467033300,5.697033447265625,-0.0187369222391396,0.1101929341325536,-0.0469803623616695,0.0011347867548465,-0.0005849385634064,-0.0016303078737109
1783197575476971300,5.70697119140625,0.0014327727494761,0.0984877006284892,-0.0552010782182216,0.0030930088832974,0.0011602309532463,-0.000300591578707
1783197575486908400,5.716908447265625,0.0086298811793327,0.0675027067128568,-0.0567015459090471,0.0011641094461083,0.000990618020296,0.0019489310216158
1783197575496846300,5.726846435546875,0.0022548297220841,0.0385079550326801,-0.0561070871472358,-0.0013344679027795,0.0010177823714911,-0.0007890646811574
1783197575506784500,5.736784423828125,0.0050992228351533,0.0035029848859645,-0.0643453386604785,-0.0010780310258269,-0.0020087892189621,-0.0008173596579581
1783197575516721400,5.746721435546875,-0.0057950596122071,-0.0092713574206456,-0.0535755228430032,0.0014533037319779,0.0015087136998772,0.0036964321043342
1783197575526658600,5.756658447265625,-0.0085690909028053,-0.0163891170039773,-0.0483411293208599,-4.81186434626e-05,-0.0013202661648392,-0.0001458921469748
1783197575536596500,5.766596435546875,-0.0222562920043244,-0.0342191169986501,-0.053137715947628,0.0003862427547574,0.0004408820532262,-0.0006164726801216
1783197575546533600,5.77653369140625,-0.0138200702335685,-0.0237922511336393,-0.0396603947371244,-0.0005332399159669,-0.0016127508133649,-0.0015831312630325
1783197575556470300,5.78647021484375,-0.0151792297575622,-0.0046251207836903,-0.0534475125491619,0.0015954244881868,0.0042147780768573,-0.0019274780061095
1783197575566408400,5.796408447265625,-0.0142849112663418,0.0025609913281165,-0.0432721554934978,0.0005503911525011,-0.0025589535944163,-5.86349051445e-05
1783197575576345300,5.806345458984375,0.0118197632618248,-0.0048301053038798,-0.0579343025743961,-0.0005590813234448,0.002281607594341,0.0007522974628955
1783197575586283500,5.816283447265625,0.014441307404451,-0.0156767492172308,-0.036841245663166,-0.0031697023659944,0.0020124670118093,-0.004883836954832
1783197575596220400,5.826220458984375,-0.0055723202396184,-0.0154631247328594,-0.0548065259426832,0.000423434190452,-0.0013180822134017,0.0001697773113846
1783197575606157600,5.836157470703125,-0.0265337135951966,-0.0207161498902365,-0.0330979674816131,-0.0012633055448532,-0.0021313643082976,-0.0003091406542807
1783197575616095500,5.846095458984375,-0.027444654427655,-0.0214679181056097,-0.0314525383621454,-0.0033855782821774,0.0013392674736678,-4.44224569946e-05
1783197575626032600,5.85603271484375,-0.0213987983921542,-0.0241244056974537,-0.0305541282176971,9.26498323678e-05,-0.003710092511028,3.98475676774e-05
1783197575635969300,5.86596923828125,0.0019838307609781,-0.0237188205712474,-0.0326397023200988,0.0007784133777022,0.000763485673815,0.0008015115745365
1783197575645907500,5.875907470703125,0.0037387481369078,-0.0133316473958082,-0.0315928236156702,0.0002906005829572,0.0003764694556593,-0.0009333966299891
1783197575655844400,5.88584423828125,0.0109795495780184,-0.0128666054336354,-0.0440092375963926,-0.0019539119675755,0.0012137671001255,-0.0013515129685401
1783197575665781500,5.895781494140625,0.0216014082921668,-0.0187466399155557,-0.0428133058100938,2.65650451183e-05,-0.0004607453010976,-0.001558048883453
1783197575675719400,5.905719482421875,0.0128948451474308,-0.0330382183847017,-0.0366898544937372,-0.0007987488061189,0.0035001740325242,0.0006798054091632
1783197575685656600,5.915656494140625,0.0006661722911521,-0.0348753341513685,-0.0319002821296453,-0.0004811463877558,-0.000842347741127,-0.002450490836054
1783197575695594500,5.925594482421875,-0.0211105925679206,-0.0370325121852569,-0.0259124398916959,-0.0004097735509276,-0.0038780854083597,-0.0039519811980426
1783197575705531600,5.93553173828125,-0.0398756814556196,-0.0415432310753501,-0.0309960267663002,0.0005353232845664,6.72088935971e-05,0.0005279656033962
1783197575715468300,5.94546826171875,-0.0523781662845984,-0.0089844119717367,-0.0299544087588787,2.45291739702e-05,-0.0005674227140843,0.0009812356438487
1783197575725406500,5.955406494140625,-0.0402370621139183,0.0103776746947318,-0.0257622177660465,0.0003003729507327,0.0010741399601101,-0.0016377381980419
1783197575735343400,5.96534326171875,-0.0517050527960062,0.0460404328967444,-0.0428296724230051,0.0026772441342473,0.0020962613634765,-0.0007314644753932
1783197575745280500,5.975280517578125,-0.0633871246201917,0.0789620208981446,-0.0349164150804281,0.0011426089331507,0.0072530410252511,-0.0002427902072668
1783197575755218400,5.985218505859375,-0.0313084537163376,0.0976139865338802,-0.0243248784393072,0.0059682573191821,0.0038998548407107,-0.0007128382567316
1783197575765155600,5.995155517578125,0.020025939136371,0.0444747362162917,-0.0240396317571401,0.0025953669100999,0.0048092808574438,-0.0005320080090314
1783197575775092500,6.005092529296875,0.0819354289520531,0.0115049251589924,-0.0274812966436147,1.7145648598e-06,-0.0006427424959838,-0.0013943396043032
1783197575785030700,6.01503076171875,0.1042017674263566,-0.0171843042359687,-0.0207306533396244,-0.0041758054867386,-0.0038557942025363,0.0035406302195042
1783197575794967300,6.02496728515625,0.0496481202661991,-0.0399080128226429,-0.0174210904002189,-0.0015749623998999,-0.0027726865373551,0.0004119488876312
1783197575804904400,6.034904541015625,-0.0192498401973396,-0.0135754843553528,-0.0169675014138221,0.0014992943033576,-0.0015808613970875,0.0004989106673747
1783197575814842400,6.04484228515625,-0.0447814275452867,0.0269789914109744,-0.0187684133559465,0.0029200902208685,0.0013153264299035,0.0006914574187248
1783197575824779500,6.054779541015625,-0.0235868464883416,0.0641824397163465,-0.0147375504046678,0.0019597960636019,0.0042556361295282,0.0026085337158292
1783197575834717400,6.064717529296875,0.0256945593573153,0.0876782469203695,-0.0249228443324565,-0.0001036208122968,0.0011274870485067,0.0031877711880952
1783197575844654600,6.074654541015625,0.0696530896797776,0.0630595914325676,-0.0216308170497417,0.0001083044335246,-0.0013390132226049,-5.99944032728e-05
1783197575854591500,6.084591552734375,0.0733225719727575,0.0228259999173693,-0.0156406367242336,0.0004598414525389,-0.0013022613711655,0.0009248426649719
1783197575864529700,6.09452978515625,0.0487382388796657,-0.0144528517117723,-0.0237198982834815,0.0015787994489073,0.0006561670452356,-0.0010782922618091
1783197575874466300,6.10446630859375,0.019450988792628,-0.0419422037976793,-0.0123445177882909,-0.0031214142218232,-0.003120195120573,0.0008269329555332
1783197575884403500,6.114403564453125,-0.0048183235345408,-0.059947158500459,-0.0029068273574113,-0.0016849040985107,-0.0022392217069864,-0.0019504745723679
1783197575894341400,6.12434130859375,-0.0480740758825093,-0.0568839167386293,-0.016826047116518,0.000428314320743,0.0004694797098636,0.004155620932579
1783197575904278500,6.134278564453125,-0.0493002566765993,-0.0410345326345413,-0.0174263510972261,-0.0033118305727839,0.0007274183444678,0.0016230701003223
1783197575914215700,6.144215576171875,-0.0125714584119617,-0.0123038935169577,-0.003817512461543,0.0008554831147193,-0.0018396028317511,-0.0013354353141039
1783197575924153600,6.154153564453125,0.037303931271471,0.0170076142285019,0.0018710545688867,0.0003553060814738,-0.0022145179100334,-6.78568612784e-05
1783197575934090500,6.164090576171875,0.0708303898308426,0.0323422902761027,0.0018862521380186,-0.0015730885788798,-0.0039189415983855,-0.0002497509121894
1783197575944027400,6.17402734375,0.0509531384501606,0.0250756420076824,-0.0020955109745264,-0.0033779228106141,-0.0096660126000642,-0.0029115290381014
1783197575953965300,6.18396533203125,-0.1143573603356257,0.091896193408966,-0.0089010993361473,0.0038693379610776,-0.0066949906758964,-0.0002821902744472
1783197575963902500,6.19390234375,0.0027163462866097,-0.0978332005088217,-0.0146907886534929,-0.0046027479693293,0.0196460112929344,0.0012299206573516
1783197575973839600,6.203839599609375,-0.0636461408825591,0.0690724402476102,-0.014556348618865,0.003330809995532,-0.0194864775985479,-5.2535906434e-06
1783197575983777500,6.213777587890625,0.0545235808154568,-0.0816330119393765,-0.0172445647895336,-0.0044640181586146,0.0142343789339065,-0.0009678725618869
1783197575993714700,6.223714599609375,0.0148330101357772,-0.038715496836137,0.0176525610685348,-0.0008852630853652,-0.01739252358675,-0.0025431322865188
1783197576003651600,6.233651611328125,-0.0300901274351403,0.0184571371833793,-0.0384796605199575,0.000450849533081,0.0070013552904129,-0.0004156699869781
1783197576013589500,6.243589599609375,-0.0430443746196106,-0.0084114891882985,0.0237660755127668,0.0012732334434986,0.0013424041680991,0.0003300153184682
1783197576023526400,6.2535263671875,-0.0494438298657536,0.0285355549369007,-0.0395206940054893,-0.0019645243883132,-0.006120131816715,-0.0003725783899426
1783197576033463600,6.263463623046875,-0.024345628966391,0.0348083881286904,-0.0024175825357437,0.0058702286332845,0.0072715729475021,0.0011065411381423
1783197576043401500,6.2734013671875,-0.0491388190371915,0.0339314043647609,-0.003612345278263,0.0018445700407028,-0.0002455543726682,0.0050945086404681
1783197576053338600,6.283338623046875,-0.0429375532442703,0.0042219285439699,-0.012003157004714,0.0025819996371865,0.0025808587670326,0.0018459847196936
1783197576063276500,6.293276611328125,-0.0095752722706645,-0.0384802998407743,-0.0054343000084161,-0.0015896242111921,0.0027747089043259,-0.0009494686964899
1783197576073213700,6.303213623046875,0.0397750706253573,-0.0520961344728246,-0.0319254165709018,-0.0034879250451922,-0.0028341747820377,0.002981889527291
1783197576083150300,6.313150390625,0.0591460895169526,-0.0507289377728477,0.0179173494845628,-0.0042562698945403,-0.0035274843685328,0.0044267680495977
1783197576093088500,6.323088623046875,0.0517424621969461,-0.0170591252200305,-0.0076654200613498,-0.001234115101397,-0.0006265030242502,0.0045697800815105
1783197576103025400,6.333025390625,0.0001342573715373,0.0242951774207875,0.0017559037566184,0.0013349931687116,0.0040335836820304,-2.76744831353e-05
1783197576112962600,6.342962646484375,0.0271908623296767,0.037364922477398,-0.014392097967863,-0.0029905140399932,-0.0068076127208769,-0.0031323875300586
1783197576122900500,6.352900390625,0.0661240753034129,0.0531122527128085,-0.00734802467525,-0.0005585784092545,-0.001239504199475,4.51277010142e-05
1783197576132837600,6.362837646484375,0.0393100834621116,0.076656757896766,0.0150976158887147,-0.0009394101798534,0.0021339221857488,0.0010997394565492
1783197576142774500,6.3727744140625,0.0068907093618065,0.0468860899406485,0.0046136312752962,-0.0036753015592694,0.0010299538262188,-0.000471678096801
1783197576152712700,6.382712646484375,-0.0006192278768867,0.0222992178305983,-0.0004763853400945,-0.0008795158937573,0.0011133104562759,-0.0012213578447699
1783197576162649300,6.3926494140625,0.0023452844845131,-0.0128999414476566,-0.0015308628290891,0.0014710174873471,1.50841660797e-05,-0.0014693886041641
1783197576172586500,6.40258642578125,-0.0182817258175462,-0.0270736474244855,0.0057996261894702,-0.0020137289538979,0.0001194798387587,0.0010603480041027
1783197576182524400,6.4125244140625,-0.0166525902457535,-0.0266883927002549,0.0050572833895683,-0.0009512472897768,0.0010501476936042,8.6110085248e-06
1783197576192461600,6.422461669921875,-0.01857416942548,-0.0153666055558249,-0.0042161563903093,0.0011625038459897,-0.0003075320273637,0.0003747958689928
1783197576202398500,6.4323984375,-0.0091590926852077,0.0103300178944133,-0.0078138886213302,0.0008842963725328,0.0008379397913813,-0.0014748908579349
1783197576212336600,6.442336669921875,0.0046864773157984,0.0176788097546435,-0.0001858779609203,0.0012478176504373,0.0006057121790945,-0.0027699859347194
1783197576222273500,6.4522734375,0.0174594496492296,0.0129712348518893,-0.0138099141657352,0.0001721149310469,-0.0008807741105556,-0.0005031428299844
1783197576232210400,6.46221044921875,0.0012375424383208,0.0003851085937581,0.000704933398962,0.0014035608619451,0.0009775799699127,-0.0015124808996915
1783197576242147300,6.472147216796875,-0.0201913222985342,-0.0213328935490921,-0.0004945055186748,-0.0010266015306115,0.0007902719080448,0.0017785006202757
1783197576252085500,6.48208544921875,-0.0490272849541157,-0.0276354277594014,-0.0184574477106332,-0.0019784159958362,0.0001111659221351,-0.0031131936702877
1783197576262022400,6.4920224609375,-0.0394405779739841,-0.012659575086832,0.0041302316725254,0.0015348140150308,0.0018893093802034,-0.001413250574842
1783197576271959600,6.50195947265625,-0.0189811793237924,-0.0064688124216161,0.0002384849309921,-0.0001158136874437,-6.41192309558e-05,-0.0013426768127828
1783197576281897500,6.5118974609375,0.0136280547928065,-0.0027576464113779,-0.0187619836151599,0.0012933434918522,-0.0002436456270515,-0.0001994324848055
1783197576291834600,6.521834716796875,0.0136960785277187,0.004229216801282,-0.0027443302720785,0.0025325119495391,-0.0003150179982185,-0.0005448444280773
1783197576301771500,6.531771484375,0.0083284505473449,0.0094897859442979,-0.0100748192906379,0.0009864689782261,0.0001055244356393,-0.0011330861598253
1783197576311709400,6.54170947265625,0.0005985138824209,0.0096925237084738,0.0042898061484098,-0.000311822630465,0.0007641240954399,0.0001300512813031
1783197576321646300,6.551646240234375,0.0077641311954706,0.0138886967566795,-0.0011100070685148,-0.004374161362648,0.0003517507575452,0.0004659192636609
1783197576331583500,6.56158349609375,0.0113248924169689,0.0049163222826085,-0.0006663549542427,-0.0012271031737327,-0.0012357593514025,0.0002017335500568
1783197576341521400,6.571521484375,0.0180627127720043,0.0030280973832122,-0.0036532618105411,-0.0011000093072652,0.0001239576376974,0.0019569618161767
1783197576351458600,6.58145849609375,0.0134947838019579,0.001634451067727,-0.0036585225075483,0.0005876356735825,0.0022188001312315,0.0015716024208813
1783197576361395700,6.591395751953125,0.0110090314008295,0.0043055699731223,-0.0097872345209121,0.0003771670162677,-0.0027743317186832,0.0010556494817137
1783197576371333600,6.601333740234375,0.0276979716015979,0.0067487618741579,0.0087818568706512,0.0001681093126535,-0.0017455527558922,-3.35832592099e-05
1783197576381270500,6.6112705078125,0.0305352408541366,0.0189913536579348,0.0098369188815355,0.0010586502030491,-0.0007620258256793,0.0008944412693381
1783197576391207400,6.62120751953125,0.0113485655535012,0.0108029143694788,0.0028115502893924,0.0024139322340488,-0.0020986660383641,0.0010299962013959
1783197576401145300,6.631145263671875,0.0105968338707461,0.0041956981241703,-0.0004775543838739,-0.0020592790096998,0.0003929790109395,-0.0017823767848312
1783197576411082500,6.64108251953125,-0.0006506093958392,-0.0022821195878088,0.0084983637541532,5.12758269906e-05,-0.0018262327648699,-0.0006031291559338
1783197576421019600,6.65101953125,-0.0073855071414262,-0.0117277375968173,0.0025081834286451,-0.0025052363052964,-0.0011768317781388,0.0006355191580951
1783197576430957600,6.66095751953125,-0.0027869638374075,-0.0159766820118762,0.0007090250521898,-0.0011843079701066,0.0022626409772783,-0.0002510473132133
1783197576440894700,6.670894775390625,-0.0009574833879247,-0.0091615586369298,0.0044452889710664,0.0017427718266844,0.0026253634132444,-0.0005929972976446
1783197576450831400,6.680831298828125,-0.0053100891068577,-0.0045977943853475,0.0044464580148458,7.96280801296e-05,-4.7744251787e-06,-0.0015014014206826
1783197576460768500,6.6907685546875,-0.0056144058156758,0.0080235858492553,0.0117763625115156,-0.0018530171364545,0.0005854479968547,0.0003962770570069
1783197576470706400,6.70070654296875,-0.0014995909079909,0.0239302530985325,0.0048982934355735,0.0007342435419559,-0.0005471943877637,0.0002881528344005
1783197576480643600,6.7106435546875,-0.0083698420036584,0.0180080051763914,0.003856675428152,0.0020668199285864,0.0017323000356554,-0.0003646269906312
1783197576490580500,6.72058056640625,-0.0046951720789074,0.0086524218047037,-0.0010831190615892,-0.0001846170052886,0.0004502544179558,-0.0015342873521149
1783197576500518000,6.730517822265625,-7.82163353636e-05,-0.0030003508597612,-0.0081166709601879,0.0006772419437766,0.0010892520658671,-0.000169820850715
1783197576510454500,6.74045458984375,-0.0025166224634274,-0.0054163442266173,-0.0063245268464088,-0.0003989422693848,0.0008295937441289,-0.000169820850715
1783197576520391700,6.7503916015625,-0.0050528629427775,-0.0147630136394873,-0.0037900399327278,-0.0005949502810835,0.0027406783774495,-0.0010100482031702
1783197576530329600,6.76032958984375,0.0017168503878638,-0.0108851675591431,-0.0112783498615026,-0.0013821804895997,0.0029569270554929,-0.0031043582130223
1783197576540266800,6.770266845703125,0.0007038008878007,0.0003034216596744,-0.0070960957407951,0.001772497780621,0.0006130882538855,0.0007993783801794
1783197576550204000,6.780203857421875,0.0103017964469268,0.009104786948394,0.0035410336077213,0.001830288209021,-0.0029025510884821,0.0019519943743944
1783197576560140800,6.790140869140625,0.0120802042962983,0.0040964572670869,0.0074409636557102,-0.0009869579225778,-0.0021930276416242,-0.003404053626582
1783197576570079000,6.800078857421875,0.0081625559285283,0.0041020650239661,0.0044552258431911,-0.0002556536346673,-0.0010049915872514,0.0012546142097562
1783197576580015600,6.810015625,0.0071958297882229,0.0089019943852908,0.0069996496289968,-0.0020833043381571,0.0002317521721124,0.0012779987882822
1783197576589952800,6.819952880859375,0.0032097558267414,0.0041239115295931,0.0050537762582302,-0.0002912636846303,-0.0020612301304936,-0.0004594475030899
1783197576599890700,6.829890625,0.0004764949379488,0.003944682505168,0.0052092590808868,-0.0002196999266743,-0.0010230559855699,-0.0014554231893271
1783197576609827800,6.839827880859375,-0.004900887251459,0.015785981745366,-0.0009288052827119,-0.0012484788894653,0.0020731352269649,0.0013904306106269
1783197576619764700,6.8497646484375,-0.0146755180191248,0.0231106620776467,0.0089443539559841,0.000714536756277,-0.0024655680172145,0.0006838594563305
1783197576629703000,6.859702880859375,0.0019438275441527,0.0270662861019372,0.0050642976522445,0.0001752469688653,0.0009637847542762,0.0003309906460344
1783197576639639800,6.869639892578125,0.0201543147563934,0.0157187434617429,0.0047714521855115,0.000630366615951,-0.001049805432558,0.0017476631328463
1783197576649576700,6.87957666015625,-0.0014373758593574,0.0186825982360169,-0.0022609306693077,0.0016069477424025,6.936956197e-06,3.8978876546e-05
1783197576659513600,6.889513671875,-0.011583141494356,0.0095393241744488,-0.0001607435196638,0.0013821115717291,0.0016925050877034,0.00123145384714
1783197576669451800,6.89945166015625,-0.0314147271024063,-0.0115239951856434,0.0074713587939739,-0.0043623261153697,-0.0017179385758936,-0.0001837499439716
1783197576679388700,6.909388671875,-0.0274071719614788,-0.0442287255659699,0.0004348842859268,-5.87552785873e-05,0.000699714757502,0.0013320143334567
1783197576689325800,6.919325927734375,-0.0296344195568934,-0.0612978972559794,-0.0063064066678285,0.0024411538615822,0.0008885329589247,-0.0002738717012107
1783197576699263700,6.929263671875,-0.0311234160056337,-0.0571835024734027,0.0047568391382694,-0.001141813583672,0.0016627013683319,4.6805711463e-05
1783197576709201000,6.939200927734375,-0.0185526517134159,-0.0496523763162083,0.0078881229013204,-0.0011005345731973,0.0038733915425837,-0.0020261988975107
1783197576719137800,6.9491376953125,-0.0164237499259412,-0.0339746589845977,-0.0032008418679237,-0.0009492617100477,0.0022266651503741,0.0005248535890132
1783197576729074700,6.95907470703125,-0.0081381886722519,-0.0143794576819986,0.0078629884600639,0.0001266561448574,-0.0019441116601228,0.0023842726368457
1783197576739012600,6.9690126953125,0.0014686843130737,-0.0069007010328583,0.0099596684783697,0.0004825461655855,-0.0001695551909506,-0.0005167440976947
1783197576748949800,6.97894970703125,0.0022335312057286,0.0038111375196836,-0.0018622867405414,-0.0034285718575119,-0.0014073923230171,-0.0003471006639301
1783197576758887000,6.988886962890625,-0.0140847855843603,0.0092447251420468,0.008463292440772,-0.0007473221048712,-0.0005432730540633,0.0012040582951158
1783197576768824800,6.998824951171875,-0.0104857381790876,0.0092483236049301,-0.001262567281723,-0.000854380428791,-0.0013475478626787,4.931143485e-05
1783197576778762000,7.008761962890625,0.0061385392876341,0.0129523474883288,-0.0031996728241443,-0.0015826942399144,-0.0011495039798319,-0.0002519332338124
1783197576788698600,7.01869873046875,0.0032853052809834,0.0085276811801828,-0.0003588964402675,0.0001576812937855,-0.001887465827167,-0.0022658156231045
1783197576798635800,7.0286357421875,0.0045175504896789,0.0079849526056088,0.0042746085792779,-0.0016826819628477,0.002069734968245,0.0023024182301014
1783197576808573700,7.03857373046875,0.0175057364763692,0.0067392633934505,-0.0015723638832569,-0.0005529690533876,-0.0002842331305146,0.0002248862292617
1783197576818510800,7.0485107421875,0.0137969816189259,0.014508545688074,0.0030681553989648,0.0012513753026723,-0.0006199926137924,-0.0004778588190674
1783197576828447700,7.05844775390625,0.0214008807513862,0.0207403344834223,0.0095201080173254,0.0017978558316826,-0.0026152329519391,-0.0007273971568793
1783197576838385000,7.068385009765625,0.0187391872614622,0.0226018540389835,0.0093739775449037,0.0006563197821378,0.0001344829797744,0.0034262277185916
1783197576848322800,7.07832275390625,0.0149760353356599,0.0285130325778387,0.007728548425436,-0.0005548866465687,0.0009115934371948,0.0015950384549796
1783197576858259700,7.088259765625,0.0244713011726737,0.023794899748452,0.0059346507459878,-0.0025748116895556,0.0002022082917392,-5.36052975803e-05
1783197576868196600,7.098196533203125,0.0266514582233503,0.0158005947926081,-0.0013940847069025,0.0006694504991173,-0.0021395096555352,0.0020801192149519
1783197576878134800,7.108134765625,0.0154404379770159,0.0227944174690172,0.005488660544157,-0.0002291016280651,0.0010362868197262,0.0041452152654528
1783197576888071700,7.11807177734375,0.003214468534477,0.0248948238143697,0.0039864392876625,-0.0005758451297879,0.0031226072460412,-0.0002034604549407
1783197576898008800,7.1280087890625,0.0040426629869267,0.0102386863491497,0.0083183310121297,-0.0007642256096005,-0.0008734967559576,-0.0015785964205861
1783197576907946000,7.137946044921875,-0.002640541104041,0.0061398544618859,-0.0044078795701265,-0.0002997703850269,0.0002857772633433,-0.0002819034270942
1783197576917884000,7.1478837890625,0.0026696941332891,0.0057175008639693,0.0103945527642965,-7.50264152884e-05,0.0021971026435494,-0.0018897482659667
1783197576927820800,7.15782080078125,0.0055443362541496,0.0147071552664041,0.0108370358347892,-0.0007235063239932,0.0011877645738422,3.59835103154e-05
1783197576937757700,7.1677578125,0.0022884762633591,0.0123564456881023,0.0085872110813856,0.0002449322491884,0.0011848681606352,0.0008709374815225
1783197576947694800,7.17769482421875,0.0168249511379748,0.026603527428396,0.0087386022508144,-0.0007665362209081,0.0011691553518176,0.0002602743916213
1783197576957632800,7.1876328125,0.0254475257936865,0.0358731312833726,0.0100941085129976,0.000514649786055,-0.0026529552415013,0.000949096865952
1783197576967570000,7.19756982421875,0.000952040027827,0.0185806539651937,0.0150450089186429,-0.0003996137529611,-0.0019727842882275,-0.0014930218458175
1783197576977506600,7.207506591796875,-0.0009223755419254,0.019213928633742,0.0137029466599226,0.0005614012479782,-0.0007578106597065,-0.0020701612811535
1783197576987443700,7.217443603515625,-0.013280994920805,0.0039249731577001,0.0053173956304788,0.0005534123629331,0.0019215960055589,-0.0017822735244408
1783197576997381600,7.227381591796875,-0.0218824171906337,-0.0042304041113704,0.0135457102715969,-0.0029958151280879,-9.97665338218e-05,-0.0019237593514844
1783197577007318800,7.23731884765625,-0.0179684586172923,-0.0124757429525256,-0.0017079729616641,-0.0002322532236576,-0.0007011084817349,0.0007487228140234
1783197577017255700,7.247255615234375,-0.0130371762275695,-0.0191101029330864,0.0105517891526222,0.0008129989728331,0.0014460403472185,-0.0016300231218338
1783197577027193900,7.25719384765625,-0.0181583916988223,-0.0250531927138566,0.0118979430645704,0.0017158109694719,-0.0026182094588875,-0.0013304175809025
1783197577037130800,7.267130859375,-0.0112033849291503,-0.0146574343731626,0.0099462244749069,-0.0004220623522996,0.0021196035668253,-0.0017867572605609
1783197577047067600,7.277067626953125,0.0051693654619157,-0.0085362846117466,0.0166746559470891,-0.0010164799168705,5.96484169363e-05,-0.0019015395082533
1783197577057004800,7.2870048828125,0.0048605187084525,0.0055562276213429,-0.0006868132203817,-0.0008459761738777,0.0018909191712737,4.13884408771e-05
1783197577066942700,7.296942626953125,0.0099935342153534,0.0282087341353297,0.0138239426910877,0.001641415990889,0.0031442027539014,-0.00181909580715
1783197577076879600,7.306879638671875,0.0072858461592346,0.0058512650451622,0.0144154788434505,0.0010828860104084,-0.0002810833975672,-0.0007592400070279
1783197577086816800,7.316816650390625,0.0053331777215003,-0.0065577693467028,0.0142570734113454,0.0008618431165814,0.0028771592769771,-0.0022149239666759
1783197577096754000,7.32675390625,0.0063284723691642,-0.02008419039594,0.0191822548538446,-0.000656078569591,0.0028369261417537,-0.0037432902026921
1783197577106691800,7.33669189453125,-0.0017423136226832,-0.0260709914542734,0.0097474870324134,-0.0008472939953207,-0.0025533116422593,0.0010943417437374
1783197577116628700,7.346628662109375,-0.0034270518392324,-0.0205296326084993,0.0057137014716863,0.0003595864400267,-0.0030910107307136,-0.000491383485496
1783197577126565600,7.356565673828125,-0.0032410642804577,-0.0159218282857909,0.0045259529918432,0.0013356348499655,-0.0009740642271935,-0.0011398631613701
1783197577136502800,7.366502685546875,-0.0021808877030387,-0.0087511512051336,0.0105120416641235,-0.0023172749206423,-0.0007990128360688,0.0015513091348111
1783197577146440700,7.376440673828125,-0.0051111324686557,0.0041408809307031,0.0018248773396015,-0.0015577413141727,0.0016194037161767,0.0001419642940163
1783197577156377900,7.3863779296875,0.0027529154373332,0.0074106598489917,-0.0052203649967908,0.0008403388783335,0.0004548355937004,0.0003149250987917
1783197577166314800,7.396314697265625,0.0137990274455398,-0.0052705425477586,0.0073445175439119,-0.0009498381987214,-0.0008999141864478,-0.0005998709239065
1783197577176251600,7.406251708984375,-0.00260276637692,0.0011589242441579,0.0010632453173398,7.72606581449e-05,-0.0007779994048178,0.0008797103073447
1783197577186189600,7.416189453125,-0.0004644026413559,-0.0029296967763453,0.005703180077672,-0.0001243399456143,-0.0012533734552562,-0.001822599209845
1783197577196126700,7.426126708984375,-0.0091992785651236,-0.0084159644340164,0.010643559089303,-0.000756355933845,-0.0001665097661316,-0.0018403840949758
1783197577206063900,7.43606396484375,-0.0155898563850671,-0.0076714844759553,-0.0007218845337629,-0.0016892608255147,-0.002530331723392,-0.0011010905727744
1783197577216000800,7.446000732421875,-0.0148048069545999,-0.0057322600416839,0.0028641572594642,-0.003290026448667,-0.0004534386098384,-0.0008419908117502
1783197577225938700,7.455938720703125,-0.0045646775670349,-0.0014239135895855,0.0170820677042007,-1.99303030967e-05,0.0019295578822493,-0.0005274715367704
1783197577235875800,7.465875732421875,-0.0149943016447126,0.0135924720227718,0.0015197569131851,0.0005189040675759,-0.0013032252900302,0.0002946185413748
1783197577245812700,7.475812744140625,0.001021378936991,0.0132599703990854,0.0021177228063344,-0.0005516866222023,0.0003761639818549,-0.0014540131669491
1783197577255749600,7.48574951171875,0.0015155921947211,0.0110790278971195,-0.0010322656571865,-0.0011349916458129,0.0016437298618257,0.0016402399633079
1783197577265687800,7.495687744140625,0.0055276043150573,0.0131795803729444,0.0071878656774759,0.0004064459353685,0.0020506610162556,-0.000207727542147
1783197577275624700,7.505624755859375,0.0047069355819374,0.0157129895743913,0.0109247141182422,-0.0005742888897657,-0.0009500118903815,-0.0020707231014966
1783197577285561900,7.515561767578125,-0.0019437544789165,0.0152996230005286,0.0086935940653085,-0.0004986552521586,-0.0037071830593049,0.0011572942603379
1783197577295498800,7.525498779296875,-0.0150237469349056,0.0096018314840272,-0.0044826983720064,0.0029485579580068,0.0037985458038747,-0.0019285314483568
1783197577305437000,7.53543701171875,0.0018717121560126,0.0009827639596536,0.0154319624096155,-0.0019087819382548,-0.0023392410948872,-0.0012182663194835
1783197577315373600,7.54537353515625,0.0086382836814969,-0.0080299059921875,0.0006236848562955,0.0001013791188597,-0.0025133267045021,0.0022901934571564
1783197577325310700,7.555310791015625,-0.0054379898028448,-0.0302727174604311,0.0238262812674045,-0.0001976937055587,0.001431081444025,0.0005197240971028
1783197577335248000,7.565247802734375,-0.0320485680265352,0.0002865618564188,0.0060135612010955,0.0041774278506636,0.0004923995584249,0.0030071516521275
1783197577345184800,7.575184814453125,-0.0129156687397509,-0.0121259796667844,0.0069184010863304,-0.0012514265254139,-0.0028615854680538,-0.0006834568921476
1783197577355122700,7.585122802734375,0.0178909729342907,0.0044406675948761,-0.009393851289153,0.0007623704150319,-0.0003553265705704,0.0002581635490059
1783197577365059800,7.595059814453125,-0.0024821356719359,0.0179215324693359,0.0202419930398464,0.0025038113817572,0.0004995483905076,0.0012387393508106
1783197577374996700,7.604996826171875,-0.0190741913694888,0.0254075408431701,0.0036246202379465,0.0011162180453538,-0.0013511693105101,0.0007260001730173
1783197577384933600,7.61493359375,-0.0074141487140208,0.0139447012602351,0.0081149173945188,-0.0006638383492827,-0.0020103016868233,-0.0012119819875806
1783197577394871800,7.624871826171875,0.0126516475087031,0.0028863873575814,-0.0025081834286451,-0.0002479571849107,0.0012686429545283,-0.0011965676676481
1783197577404808700,7.63480859375,0.0018210779473185,0.0029634346491657,0.0114151279836893,0.0004037180915474,-0.0013790717348456,0.0015992189291864
1783197577414745900,7.644745849609375,0.0027662863755598,0.0067114438047632,0.0045347208201885,0.0001922361552715,0.0014747935347259,-0.0016688591567799
1783197577424682800,7.654682861328125,-0.0024603987641632,-0.0005714432124048,0.0042284313499927,0.0006825244054198,0.0018681422807276,-0.0019788509234786
1783197577434621000,7.664620849609375,-0.0089058120438829,0.0040273740862496,0.001076104798913,5.30555844306e-05,0.0020103952847421,0.0018651697319
1783197577444557600,7.6745576171875,-0.0092581326128914,0.0035966727850958,0.008110825741291,0.0053958888165652,-2.02651135623e-05,0.0015727544669061
1783197577454494700,7.68449462890625,-0.0030909517526626,0.0035039895329624,0.0051209962755441,-0.0006673745810985,-0.0002132370136678,0.0008544570300728
1783197577464431900,7.694431884765625,0.010169475304149,0.0088366192651912,0.005723638343811,0.0012429105117917,-0.0005192342214286,-0.0015618291217833
1783197577474368800,7.70436865234375,0.0067998892731964,0.0124813507094047,-0.0010135609567165,-0.0004372289404273,0.0025698086246848,0.0013772819656878
1783197577484306700,7.714306640625,-0.0005664382437244,0.0080983315858989,0.0109545247346162,-0.0016582878306508,-0.0007010856643319,-0.0004493803717195
1783197577494243800,7.724243896484375,-0.0086680577652528,0.0013550496044568,0.0064724108844995,-0.0012065060436725,-0.0020658350549638,0.0008370825089514
1783197577504180200,7.73418017578125,-0.0075932316079735,0.0122564193797297,0.0090174191921949,0.0011479947715997,-0.0002775224857032,0.0002013859339058
1783197577514117000,7.7441171875,-0.0078195877097547,0.007123787465319,0.0132137018382549,0.0017251325771212,-0.0011402699165046,0.0017454547341912
1783197577524055300,7.75405517578125,0.000562492720969,-0.0041798612342216,0.0022924948513507,0.0008473554626107,-0.0002369256690144,0.0008833894971758
1783197577533992200,7.7639921875,-0.0084743983566761,-0.0054767143780365,0.006779284876585,0.0009955093264579,0.0013187248259782,0.0009427862241864
1783197577543929000,7.77392919921875,-0.0141767747167497,-0.0042693661485798,0.0055734162181615,0.0006050895899534,0.0002518626861274,0.0011848676949739
1783197577553866200,7.7838662109375,-0.0107480058444663,-0.0048743097717873,0.0058715223819017,0.000668279826641,0.0011580255813896,-0.0002647249493747
1783197577563803100,7.79380322265625,-0.011295118333213,0.0068332618198357,0.0057259764313697,-0.0010388065129518,-0.0002039149403572,-0.0011680691968649
1783197577573741300,7.8037412109375,-0.0029400720398873,0.0010903890525922,0.0111100075572729,-0.0013447608798742,-0.0016784900799393,0.0018376903608441
1783197577583678200,7.81367822265625,-0.0122118678519502,-0.0002496639121323,0.0004863222122192,0.0006819050759077,-0.0003711441531777,0.0027964282780885
1783197577593615400,7.823615478515625,-0.0100168785583227,0.0031246165602467,0.0003442833930253,-0.0007152445614337,-0.0014983522705733,0.0032808466348797
1783197577603552000,7.833552001953125,0.0020299349250271,-0.0052848268014378,0.0097749595612287,0.0010373815894126,-0.0015673283487558,0.0002749366685748
1783197577613490200,7.843490234375,0.0088047262895852,-0.0002069938141852,-0.0028010288953781,-0.0018484042957425,-1.69472768902e-05,0.000555389560759
