time,seconds_elapsed,ax,ay,az,gx,gy,gz
1783205715636921900,0.087921875,-0.330934447434917,0.0379643679415807,-0.0254839853465557,-0.0067322412505745,-0.0006723110564053,0.0005746700335294
1783205715646859000,0.09785888671875,-0.326652532332018,0.0374365446751937,-0.021699206110835,-0.0037792343646287,-0.0008964743465185,-0.0022464899811893
1783205715656795000,0.107794921875,-0.3253825123962015,0.0669209978347644,-0.0902162774980068,0.0028773359954357,0.0005911672487854,-0.0009394105290994
1783205715666731800,0.117731689453125,-0.320759090379253,0.0592388458343222,-0.1154933420956134,-0.0008261892944574,-0.0004108087159693,0.001676739891991
1783205715676669000,0.1276689453125,-0.3055887015152722,0.0664660571414977,-0.0617395400762557,-0.0044821761548519,-0.0022039152681827,-0.0015044058673083
1783205715686605800,0.137605712890625,-0.3110064157150685,0.0551132172716781,-0.0352232890725135,-0.0029981294646859,-0.0010259039700031,-0.0021186582744121
1783205715696542700,0.147542724609375,-0.3214116725364699,0.0514779660418629,-0.065728317451477,0.0033433893695473,-0.0010485406965017,-0.0007079818751662
1783205715706478800,0.157478759765625,-0.3241406225763261,0.0432521721513941,-0.0956254430651664,-0.0008547753095626,-0.0023745093494653,0.002955675125122
1783205715716416000,0.167416015625,-0.3336104982437565,0.041896337095648,-0.077026541057229,-0.0017229663208127,-0.0044219475239515,-0.0001642182469367
1783205715726353000,0.177352783203125,-0.3377266648583114,0.0482603557022288,-0.0679880790770053,0.0002015810459852,-0.0072741205804049,1.5860190615e-05
1783205715736289800,0.187289794921875,-0.3276918122518807,0.0436844260888174,-0.0787076260119676,0.0015097260475158,-0.0107237119227647,0.0005287851672619
1783205715746226700,0.197226806640625,-0.3157532814485952,0.0550985676918178,-0.0955453635662794,0.0022754156962037,-0.0152665162459015,0.0005252675618976
1783205715756162800,0.207162841796875,-0.3061726388830691,0.0567261688936501,-0.0900514423251152,0.0045140692964196,-0.0212074965238571,-0.0024548096116632
1783205715766100000,0.217099853515625,-0.3260643571805208,0.0553753753392025,-0.0993745664656162,0.0061153722926974,-0.019691202789545,-0.0018075389089062
1783205715776036900,0.227036865234375,-0.3458876133516431,0.0477871486999094,-0.0778776049286127,0.0069369575940072,-0.0221082866191864,0.0011746687814593
1783205715785973800,0.236973876953125,-0.3307674933701753,0.0308194646229967,-0.0835907218784093,0.0075376634486019,-0.0227709598839283,0.0005646108184009
1783205715795911000,0.246910888671875,-0.3326007001467049,0.0347365650014951,-0.0686760613411665,0.0061821141280233,-0.0197133831679821,-0.001896949019283
1783205715805847800,0.256847900390625,-0.3284637464724481,0.0370933937933295,-0.0431388845026493,0.0023554833605885,-0.0233299229294061,-0.0008744052611291
1783205715815783700,0.26678369140625,-0.3235507669243961,0.0559988044671714,-0.0567956539332866,0.0070410487242043,-0.0231456328183412,-2.29927245527e-05
1783205715825720800,0.276720947265625,-0.3206954140258953,0.0444808736961334,-0.0784060127168893,0.0098452791571617,-0.0164658520370721,-0.000277493847534
1783205715835657700,0.28665771484375,-0.3214727916065603,0.0525437321098521,-0.0666705667376518,0.0051242937333881,-0.0159132443368434,-0.002493243664503
1783205715845595000,0.296594970703125,-0.3166734285008162,0.0406851346749812,-0.0465437245100736,0.0007421970367431,-0.0106623023748397,0.0027950522489845
1783205715855532000,0.306531982421875,-0.3162729579411447,0.0580705692399293,-0.0448380896359682,0.0013776272535324,-0.007484617177397,-0.0005088651087135
1783205715865468000,0.316468017578125,-0.3243574436647817,0.0507430758960545,-0.0513742134064435,0.0029531056061387,-0.0083511546254158,-0.0008771382272243
1783205715875404800,0.32640478515625,-0.30925186366532,0.0447628689752891,-0.0721323392748832,0.0033246167004108,-0.0076901572756469,-0.0003016293048858
1783205715885342000,0.336342041015625,-0.3113845283124595,0.0438444389561191,-0.0595312163770198,0.0013294611126184,-0.0034247711300849,0.000536186620593
1783205715895278800,0.34627880859375,-0.312605667605251,0.0547487678734585,-0.0347983416587114,-0.003833875991404,-0.0066139064729213,0.0017247553914785
1783205715905215700,0.3562158203125,-0.3103206619406118,0.0509844103712588,-0.0533218403428792,-0.0027211289852857,0.0023403991945087,0.0008495429065078
1783205715915153000,0.36615283203125,-0.3172595578256994,0.0450135192681103,-0.0648345834821462,-0.0007471945136785,0.0016117584891617,-0.0010125392582267
1783205715925088800,0.3760888671875,-0.3153669490121304,0.0314246639745309,-0.0610766922533512,-0.0022026067599654,4.46555204689e-05,0.0014898921363055
1783205715935026000,0.38602587890625,-0.3175736652761697,0.0362768532460555,-0.0546183098942041,-0.0032500270754098,0.0031512328423559,0.0020281169563531
1783205715944962800,0.395962890625,-0.3259360546257346,0.043518969861418,-0.0609013356864452,-0.0008524535223841,0.0044751334935426,0.0008279292378574
1783205715954899700,0.405899658203125,-0.3309713088465854,0.0584569382090121,-0.0873854379862546,-0.0029169358313083,0.0030519401188939,-0.001662126276642
1783205715964836900,0.4158369140625,-0.3226084811056032,0.0543030333999544,-0.0857283184289932,-0.0003467965871095,0.0011376179754734,0.0036451895721256
1783205715974773000,0.42577294921875,-0.3216433258678764,0.0422562564492225,-0.0701525636345148,-0.0010733073577284,0.0015938174910843,0.0011034687049686
1783205715984709600,0.435709716796875,-0.3110000955721363,0.0519469717931002,-0.0635533114999532,0.0001173233613371,-0.0020441180095076,-0.0022897077724337
1783205715994646800,0.445646728515625,-0.3106916872100904,0.0633451121093705,-0.0645785628944635,0.0017106924206018,-0.0030571836978197,0.002586273709312
1783205716004584000,0.455583984375,-0.3159210392309352,0.066386452566646,-0.0847504133075475,-0.0012850016355514,-0.0038017318584024,0.0026355292648077
1783205716014520800,0.465520751953125,-0.3178307818423956,0.0529096062801778,-0.0815758749246597,-0.0010162880644202,-0.0023907893337309,0.0002578587736934
1783205716024458000,0.4754580078125,-0.3196919726043939,0.0287799581520259,-0.0746621500134468,0.0025014542043209,-0.0057455883361399,-0.0028254929929971
1783205716034394600,0.48539453125,-0.3237919552691281,0.0279809532614424,-0.0708826314747333,0.000495028682053,-0.006010306533426,-0.0022771481890231
1783205716044330800,0.495330810546875,-0.3302845321588218,0.019528620606102,-0.0627700521677732,0.0001254575327038,-0.0038007227703928,0.0025686416774988
1783205716054268000,0.505267822265625,-0.3302442366810515,0.0302554740646854,-0.0691688132941722,-0.0006449948996305,-0.0062686745077371,-0.0015094566624611
1783205716064205000,0.515205078125,-0.3334022257879376,0.0463441833499819,-0.0645043286144733,0.0019667074084281,-0.0035295751877129,0.0007380179595202
1783205716074141700,0.5251416015625,-0.3233748258356004,0.0453984999977052,-0.0577291353911161,-0.0007177582010626,-0.0080007556825876,0.0003321522381156
1783205716084078800,0.535078857421875,-0.3184870537940412,0.0417990507336333,-0.0705477004319429,-0.0002814615145325,-0.0095162261277437,6.42710365355e-05
1783205716094015000,0.545014892578125,-0.3169929793113842,0.0358025502651929,-0.0853074626684188,-0.0007733479142189,-0.0122286546975374,-0.0007330793887376
1783205716103952000,0.554951904296875,-0.3283640124250203,0.0372610054451972,-0.0777758981198072,0.0029098633676767,-0.006912319920957,2.24902760237e-05
1783205716113888800,0.564888671875,-0.329919644369185,0.0224561984905973,-0.0632218875885009,0.0059487968683242,-0.0105422092601656,0.0037615685723721
1783205716123825700,0.57482568359375,-0.3373042381951585,0.0204430685698986,-0.0625748218566179,0.0010963575914502,-0.0087778866291046,0.0027616042643785
1783205716133762800,0.5847626953125,-0.3376662764405831,-0.0009910568639636,-0.0572936665832996,0.002319548279047,-0.0052550570107996,-0.0021050565410405
1783205716143700000,0.594699951171875,-0.3286819923330098,0.0123948597360402,-0.0584486818373203,0.0018136780709028,-0.0057406411506235,-0.0026037995703518
1783205716153635800,0.6046357421875,-0.3186902116833254,0.0224634684816002,-0.0599129091709852,-0.0018646800890564,-0.0042615220881998,0.0019307646434754
1783205716163572700,0.61457275390625,-0.2922930570146069,0.036452063682489,-0.0509013351976871,-0.0017268769443035,-0.0006201020441949,0.0012678948696702
1783205716173510000,0.624510009765625,-0.2877276487952098,0.0656739569157362,-0.0552098460465669,0.0009413445368409,-0.0063514914363622,-0.0031007546931505
1783205716183446800,0.63444677734375,-0.3091184100113809,0.0876443811833858,-0.0765899032056331,0.002784252166748,0.0020297430455684,0.0002188754733651
1783205716193384000,0.644384033203125,-0.2955038722872734,0.0625963030360639,-0.0665332040935754,-0.0034448821097612,-0.0067917117848992,3.08563467115e-05
1783205716203320800,0.65432080078125,-0.3120083227666094,0.0451217654155567,-0.0727788204848766,0.0021950928494334,0.0012338552623987,0.000586625887081
1783205716213257700,0.6642578125,-0.3417476274700835,0.0235032963907346,-0.0596042816132307,0.0003500543534755,-0.0018367697484791,-0.0027077044360339
1783205716223193900,0.67419384765625,-0.3384933383818715,0.0031155382046476,-0.0601741904556751,-0.0014032805338501,-0.0018085618503391,-0.0007833144627511
1783205716233131000,0.684131103515625,-0.3375849183000624,0.0158194273572415,-0.0745242028474807,-0.0014504184946417,-0.001266608480364,-0.0012754666386172
1783205716243067600,0.694067626953125,-0.3270403260732069,0.0348710781013593,-0.0602870031803846,-0.0003868425264954,-0.000689479522407,-0.0001478740014135
1783205716253004800,0.7040048828125,-0.2813299105821177,0.0451105864344164,-0.0695306323438882,-0.0050029000267386,0.0008460991084575,-0.0014943683054298
1783205716262942000,0.71394189453125,-0.3020913243861868,0.0832453425068408,-0.0732505296498537,6.44326210021e-05,0.0050210524350404,0.0004108643624931
1783205716272878800,0.72387890625,-0.2869990057270973,0.0949878027487546,-0.0521405216038227,0.0012993402779102,-0.0058366553857922,0.0006691908929497
1783205716282814700,0.733814697265625,-0.2960992078319192,0.0992491865202784,-0.0766623839199543,-5.4826028645e-05,0.0055752014741301,-5.97576145082e-05
1783205716292752000,0.743751953125,-0.3072943363893777,0.0541756076280027,-0.0581102436631917,0.0031540170311927,-0.0004235687665641,-0.0004850644618272
1783205716302688800,0.753688720703125,-0.3221499967483803,0.0247066808311268,-0.0696183106273412,0.0010198773816227,-0.0003344481810927,0.0001131466124206
1783205716312626000,0.7636259765625,-0.3429464453332126,0.0168213709414005,-0.0700689770042896,0.0023003257811069,0.0037170189898461,0.0021680416539311
1783205716322562800,0.773562744140625,-0.3357787456609308,0.0204669974347576,-0.0565893177062273,0.0002231048420071,-0.0007518273778259,-0.0024615798611193
1783205716332499700,0.783499755859375,-0.3274356455337256,0.0363433791436254,-0.0869680893570184,0.0011514825746417,0.0037555729504674,-0.0007843209896236
1783205716342436900,0.793436767578125,-0.3144786949355155,0.0313076499987393,-0.0642155748009681,-0.0012949891388416,0.0025274455547332,0.0017664185725152
1783205716352373000,0.803373046875,-0.3103626013861968,0.0517194831801578,-0.0734860919713974,-0.0014995206147432,0.0024944222532212,-0.0001521224621683
1783205716362310000,0.813309814453125,-0.2893374951446428,0.0486500491395592,-0.0609101035147905,-0.0011265203356742,0.0014287284575402,0.0014885270502418
1783205716372246800,0.823246826171875,-0.2842364091459661,0.0482896548619493,-0.0650841743290424,-0.001161141321063,0.0019682850688695,-0.0011695739813148
1783205716382183700,0.83318359375,-0.3006789733702317,0.0440196493925526,-0.0767448015064001,-0.0004322919994592,-0.0005392995662987,0.0013847651425749
1783205716392120800,0.843120849609375,-0.3095792324561625,0.0271690523566678,-0.0749281074732542,-0.0020099487155675,-0.0018596951849758,-0.0003340393304824
1783205716402058000,0.85305810546875,-0.3320789412949234,0.0370807900400832,-0.0737146400302648,-0.0022147009149193,0.0022713388316333,3.1630275771e-05
1783205716411995000,0.862994873046875,-0.3391065383767709,0.0452687361381948,-0.0654699587762355,-0.001593385823071,0.001373054459691,0.0001586629077792
1783205716421930800,0.8729306640625,-0.3321578882826492,0.0424456780740991,-0.0717377869993448,0.0005062688142061,0.0003951666876673,0.0013238240499049
1783205716431868000,0.882867919921875,-0.3460195691682398,0.0341503991439938,-0.0805599758803844,-2.31675803661e-05,-0.0009529259987175,0.0005515073426067
1783205716441804800,0.8928046875,-0.3242233689563348,0.0187063809704035,-0.063488429570198,-1.17160379886e-05,0.0010151546448469,0.0003389266785234
1783205716451742000,0.902741943359375,-0.3063659329654649,0.0179920586885884,-0.0546527966856956,-0.0019281264394521,0.0031715161167085,0.0013234973885118
1783205716461678800,0.912678955078125,-0.2826888143777847,0.039236397171393,-0.0558352844685316,-0.0025744810700416,-0.0006040623411536,0.0037215875927358
1783205716471615700,0.92261572265625,-0.291580561363697,0.0602299392309039,-0.0676414575964212,3.48845496773e-05,-9.85944643616e-05,-0.0013416142901405
1783205716481553000,0.932552978515625,-0.2886601438723504,0.0520562773864716,-0.0701636695504188,0.0007273526862263,-0.0007942733354866,0.001702663488686
1783205716491489000,0.942489013671875,-0.3021296105699613,0.0612706073902547,-0.0587748450517654,0.000171816907823,-0.0005814870819449,0.0026147961616516
1783205716501425700,0.95242578125,-0.3045681993611157,0.0434413015153259,-0.0684825845956802,-0.000262857414782,0.0001509659923613,0.0001984562259167
1783205716511362800,0.96236279296875,-0.3067752444187179,0.0426555579651147,-0.0581453149765729,0.0021110847592353,0.0018431385979056,0.0018738508224487
1783205716521299700,0.9722998046875,-0.3162163323830813,0.0489682847758755,-0.0651671764373779,-0.0012801811099052,0.0030865520238876,0.0015475896652787
1783205716531236600,0.982236572265625,-0.3101374143281951,0.0563730811396613,-0.0756347944378852,-0.0009089363738894,0.001894521061331,0.0036938309203833
1783205716541173800,0.992173828125,-0.3119178314715624,0.0800176856972277,-0.0748784231126308,0.0017214147374033,0.0006205318495631,0.0008230698294937
1783205716551110700,1.002110595703125,-0.2918907963566481,0.0768043496739119,-0.0627425796389579,-0.0029449760913848,0.0001787138171494,0.0016917928587645
1783205716561046500,1.012046630859375,-0.2977462809192016,0.0525425265334546,-0.0621235709577798,-0.0018904162570834,0.0027577690780162,0.0005669756792485
1783205716570983700,1.021983642578125,-0.3036400151329115,0.0440108084989711,-0.0555295795202255,-0.0029154671356081,-0.0006566699594259,0.0012695174664258
1783205716580920600,1.031920654296875,-0.3085170100521296,0.0588047287333756,-0.0679278733223676,-0.0032763481140136,-0.0007642973214387,-0.0001442627981305
1783205716590857700,1.041857666015625,-0.3164409349191934,0.0737584791719913,-0.0743546914994716,0.0017162794247269,-0.0002572312951087,0.002182540949434
1783205716600795000,1.051794921875,-0.3271503257863223,0.076787763865292,-0.0724257692635059,0.006498840637505,0.0041692005470395,0.0043081645853817
1783205716610731500,1.0617314453125,-0.3271317672163248,0.0537720683284103,-0.0565863950967788,0.0044820290058851,-0.0031475676223635,0.0062956814654171
1783205716620668700,1.071668701171875,-0.3347894423626363,0.0154522014800459,-0.0809802471190691,0.0053899628110229,-0.0006248108111321,0.0050567993894219
1783205716630605800,1.081605712890625,-0.3383530896609649,-0.0158378763293847,-0.0522404748469591,-0.0039406884461641,0.0008492488414049,0.0050144549459218
1783205716640541700,1.091541748046875,-0.3463520890582353,-0.0121960126956924,-0.0498205542236566,-0.0032895999029278,0.0004548886790871,0.0020527949091047
1783205716650478600,1.101478515625,-0.3377809157961979,0.0016973785024136,-0.0807692347168922,-0.0058912420645356,0.0036405618302524,0.0011321401689201
1783205716660415700,1.111415771484375,-0.3047653293684125,0.0594877425614744,-0.1008007998764514,-0.0027459850534796,-0.002824586816132,0.0027756583876907
1783205716670352600,1.1213525390625,-0.2741292219556868,0.1363040018688887,-0.0829559311062097,-0.0102635566145181,0.0056842123158276,0.0015197116881608
1783205716680289800,1.131289794921875,-0.2474200056631117,0.1786603942243382,-0.0656932461380958,-0.0104173831641674,-0.0018845959566533,0.0017890804447233
1783205716690226700,1.141226806640625,-0.2034258925706148,0.2023588478609919,-0.0623491964071989,-0.0083843246102333,-0.0027658357284963,0.0040652840398252
1783205716700163600,1.15116357421875,-0.1662980119857937,0.1315326592812314,-0.0723404290676116,-0.0016585169360041,0.0009261071681976,0.0032939712982624
1783205716710100700,1.161100830078125,-0.2316125610046088,0.0291803191138431,-0.089675010228157,-0.0009439904242753,-0.0015477030538022,0.0025118009652942
1783205716720036900,1.171036865234375,-0.296371558499895,-0.0988460125468671,-0.0921907924413681,-0.0003359066322445,-0.0006322120316326,0.0015061907470226
1783205716729973800,1.180973876953125,-0.4302401499154046,-0.1209877017281949,-0.0471294154435396,-0.0078252479434013,0.0015963213518261,0.0011791544966399
1783205716739910700,1.19091064453125,-0.4876673432178795,-0.1012013800339773,-0.0424491486728191,-0.0049492893740534,-0.0007765558548271,0.0028181257657706
1783205716749847600,1.20084765625,-0.4350158764172345,-0.0139451944505795,-0.0918131913006305,0.0009695850312709,0.0047401823103427,0.0016681728884577
1783205716759784700,1.21078466796875,-0.3676499843591824,0.0398440076757222,-0.0714724140614271,-0.001374727115035,0.005123886745423,0.0030666808597743
1783205716769721900,1.220721923828125,-0.2771222297592088,0.0697844609744846,-0.0513964252382516,-0.0030141687020659,-0.0040003699250519,0.0023239250294864
1783205716779658800,1.23065869140625,-0.2804186774887144,0.1142017679151147,-0.0488338812738657,-0.001127422787249,0.0040301834233105,0.0037774757947772
1783205716789595600,1.240595703125,-0.3288039747448638,0.0744300948232412,-0.0558633415192365,0.0030702510848641,-0.0024415641091763,0.0031130171846598
1783205716799531800,1.25053173828125,-0.3947327466718852,0.0330471140772104,-0.1066062712848186,0.0043349210172891,0.0039421385154128,0.0034763365983963
1783205716809468700,1.26046875,-0.4303306777430698,-0.0410296737963333,-0.0702665454030036,0.0013577733188867,0.0048340307548642,0.0071757338009774
1783205716819405800,1.27040576171875,-0.3893105024274438,-0.0851959651179611,-0.0532101966619491,-0.0008597504347562,0.0030823652632534,0.005260182544589
1783205716829342700,1.2803427734375,-0.3128711136084049,-0.0884566839469596,-0.0621849457561969,-0.0023127710446715,0.0057412651367485,0.0011179018765687
1783205716839279600,1.290279541015625,-0.2712424510056153,-0.0447970635058358,-0.0611222849607467,-0.0023748343810439,-0.0006644357927143,0.0027887066826224
1783205716849216800,1.300216796875,-0.2370099996013566,0.0208277570385485,-0.0706862321197986,-0.001071217469871,0.0036232532002031,0.0062867682427167
1783205716859153700,1.310153564453125,-0.2408562632333487,0.0904802256638184,-0.0700824210077524,-0.0006256587803363,0.0013555716723203,0.0027453596703708
1783205716869090800,1.3200908203125,-0.2519506713626906,0.1038023197799921,-0.0607797551333904,-8.61017033457e-05,-0.0010167718864977,0.0003602325450628
1783205716879027700,1.33002783203125,-0.2444379941776394,0.0300296294195577,-0.0751169080436229,-0.0018743705004453,-0.0007566348649561,0.0017785290256142
1783205716888963600,1.339963623046875,-0.296272774300538,-0.0455902597101405,-0.058480830541253,-0.0033505605533719,-0.000590187497437,0.0022563003003597
1783205716898900700,1.349900634765625,-0.3564556960519403,-0.0762585888920351,-0.040050855359435,-0.0023042503744363,-0.0003007049672305,-0.0001228903420269
1783205716908838000,1.359837890625,-0.3878070755945518,-0.0388034856468439,-0.0627864187806844,0.0021400321274995,0.0015728287398815,-0.0006595172453671
1783205716918774500,1.3697744140625,-0.3725047674465924,-0.0503071321642026,-0.0662310062766075,0.0044802259653806,0.0003610393032431,0.0001506386324763
1783205716928711700,1.379711669921875,-0.3666085124822333,-0.1144782833015546,-0.0661076721578836,0.0077417991124093,0.0014481418766081,0.0029235219117254
1783205716938648600,1.389648681640625,-0.336148236560449,-0.1156076891902834,-0.0598380903691053,0.0053940508514642,0.0011768629774451,-0.0007187265437096
1783205716948585700,1.399585693359375,-0.3217913195038214,0.0839593359950929,-0.05940028347373,-0.0016295034438371,0.0075402199290692,-0.0011472291080281
1783205716958523000,1.40952294921875,-0.1760254426108673,0.4385930773168802,-0.055084758362174,0.0052785286679863,0.0021715620532631,0.0045947371982038
1783205716968458800,1.419458740234375,0.0533952709052711,0.7264411741539836,-0.0922293708860874,0.012021386064589,0.0012354608625173,0.0077505828812718
1783205716978395600,1.429395751953125,0.1891352822158485,0.741342536818236,-0.1213122575074434,0.0125519037246704,0.0020040506497025,0.0050014648586511
1783205716988332800,1.439332763671875,0.1891429540656506,0.449983436185494,-0.0770107589662075,-0.0001164870336651,-0.011683264747262,0.0107022272422909
1783205716998269700,1.449269775390625,-0.0860202140476554,0.0194581126531586,-0.0407382531017065,-0.0091385534033179,0.0015529012307524,0.0182488393038511
1783205717008206600,1.45920654296875,-0.4500022139512002,-0.2214651148691773,-0.0303992299169302,-0.0042447270825505,-0.0026325229555368,0.0195447336882352
1783205717018143700,1.469143798828125,-0.5468344024576246,-0.387209292364493,-0.1057861870735883,0.0006551165133714,-0.0019470462575554,0.0184776112437248
1783205717028080600,1.47908056640625,-0.6246655378960073,-0.4047704488225281,-0.1018961938977241,-0.0046062245965003,0.0071732150390744,0.0091014206409454
1783205717038017800,1.489017822265625,-0.6014062793942168,-0.3133200264196842,-0.0432294853955507,-0.0067567722871899,-0.0017606485635042,-0.0023103475105017
1783205717047954700,1.49895458984375,-0.3837370496766641,-0.1547494668807834,-0.0681605130344629,-0.0094079496338963,-0.0026333667337894,-0.0027329912409186
1783205717057891600,1.5088916015625,-0.2373410581866279,0.0011840221527963,-0.0679816493362188,-0.0037909420207142,0.0016078217886388,-0.0013976640766486
1783205717067827700,1.51882763671875,-0.2427315555859357,0.1262784285474568,-0.0724532417923212,-0.0023544328287243,-0.0050370316021144,0.0007792038377374
1783205717077764900,1.528764892578125,-0.2433911154732108,0.1163453923476859,-0.0804886642098426,-0.005942054092884,-0.007489220239222,-0.0013220538385212
1783205717087701800,1.53870166015625,-0.3393648970520123,0.0224291643531993,-0.0518552749216556,-0.0046879723668098,-0.0041309744119644,0.0011158036068081
1783205717097638700,1.548638671875,-0.4649358714498579,-0.0374027885360643,-0.0489963783591985,-0.0029947338625788,0.0062345811165869,0.0002303028013557
1783205717107575600,1.558575439453125,-0.4759685029219835,-0.0273940202189609,-0.0644137277215719,0.000984295271337,-0.0006917682476341,-0.0002051240298897
1783205717117512700,1.5685126953125,-0.4026319024238735,0.009814926245436,-0.1027291375905275,0.0027080457657575,0.0033084654714912,-1.01346522569e-05
1783205717127449900,1.578449951171875,-0.3373056994998827,0.060572030666843,-0.0668272186040878,-0.0037399996072053,0.0016245488077402,-0.003199003636837
1783205717137386800,1.58838671875,-0.2100241217918693,0.0805003181150183,-0.0474888964056968,-0.0057483734562993,-0.0047031347639858,-0.0003155879676342
1783205717147323600,1.59832373046875,-0.162960976517573,0.1296096918620169,-0.0684124419689178,-0.0033118473365902,0.002538267057389,-0.0021233418956398
1783205717157260500,1.608260498046875,-0.2273519078854471,0.1507205036256462,-0.0468424151957035,0.0005921395495533,-0.0061660609208047,0.0015243499074131
1783205717167196700,1.61819677734375,-0.2477890947038307,0.0956451341463252,-0.0952887584567069,-0.0019386624917387,0.0007435106672346,0.0008630871307104
1783205717177133800,1.6281337890625,-0.3156483232367784,0.0266349454799667,-0.0702764822751283,-0.0029404060915112,0.0021610697731375,0.0014638432767242
1783205717187070700,1.63807080078125,-0.3454774251155555,-0.013189846038632,-0.0578179827183485,-0.0024165622889995,-0.0051692812703549,0.0012563832569867
1783205717197007600,1.648007568359375,-0.3515337294798344,-0.017399645753391,-0.0691670597285032,-0.0009413668885827,0.0040629981085658,0.0021989897359162
1783205717206944800,1.65794482421875,-0.3770145364886149,0.0013527297832071,-0.0618260493159294,0.0007726429030299,-0.000682754907757,0.0042613418772816
1783205717216881700,1.667881591796875,-0.3563647298328578,-0.007248546356149,-0.0743792414188384,-0.0027697701007127,-0.0016129692085087,0.0024953945539891
1783205717226818800,1.67781884765625,-0.3606746289212256,-0.0128620388563722,-0.0731739572823047,-0.0024014543741941,0.0045621027238667,0.0014226734638214
1783205717236755700,1.687755615234375,-0.3204985762795433,0.086999836202152,-0.043072249007225,-0.0004118354991078,-0.0017938036471605,0.0007086149416863
1783205717246692600,1.697692626953125,-0.2973623231029138,0.0906239815160632,-0.078376786622405,0.0002132076770067,0.002078965306282,0.0027776246424764
1783205717256629800,1.707629638671875,-0.3621846316253766,0.0266855066234245,-0.0580260725110769,0.0019460981711745,0.0030656598974019,0.003720584558323
1783205717266566000,1.71756591796875,-0.335535182696022,0.0333459874259308,-0.0672901599407196,9.41362231969e-05,-0.0021389555186033,0.0037615972105413
1783205717276502500,1.72750244140625,-0.3097302582994103,-0.0039261604677885,-0.0524585015118122,-0.0021178564056754,0.0006150254048407,0.0031592554878443
1783205717286439700,1.737439697265625,-0.3567294349594041,-0.0527402410626411,-0.0475087701499462,-0.0015593916177749,0.0050340089946985,0.0045012226328253
1783205717296376800,1.747376953125,-0.3128589482465759,-0.0307553498782217,-0.0944862099021673,-0.0009728502482175,8.44825990498e-05,0.0057260990142822
1783205717306313700,1.757313720703125,-0.2945127058254554,-0.0006601809417828,-0.08474573713243,-0.0011805770918726,0.0042717708274722,0.0027127328794449
1783205717316251000,1.7672509765625,-0.3007984350314364,0.0382680270632728,-0.059888943773508,-0.0022447118535637,0.0026377416215837,0.0007919466588646
1783205717326187500,1.7771875,-0.27093634419851,0.0470749453099444,-0.0703343499422073,-0.00270969979465,-0.0040494562126696,-0.0020485809072852
1783205717336124700,1.787124755859375,-0.2866218795103952,0.0456751249819993,-0.0815402190893888,0.0009175529703497,0.0023133088834583,0.0029561922419816
1783205717346061800,1.797061767578125,-0.2984039411103352,0.0437114967588335,-0.0574392125338315,-0.0007810117676854,0.0021066479384899,0.0014549682382494
1783205717355998700,1.806998779296875,-0.2902358322238549,0.0319924904577434,-0.0584738162785768,-0.0004853857681155,-0.0001691519282758,0.0037383504677563
1783205717365935900,1.816935791015625,-0.2769447908330708,0.0188582470638677,-0.0677279668360948,-0.0019831480458378,-0.0006618364714086,0.0013502936344593
1783205717375871700,1.826871826171875,-0.2964096254879608,0.033643070676364,-0.0612806903928518,-0.0024418663233518,0.0012112669646739,-3.76659445464e-05
1783205717385808600,1.83680859375,-0.2776539985483512,0.0575548748027533,-0.0561895047336816,0.0005754958838224,0.0019955681636929,0.0028119161725044
1783205717395745800,1.846745849609375,-0.2551535225246101,0.0738722782773897,-0.0772808080792427,-0.001085378229618,0.0023479382507503,0.0003788501489907
1783205717405682700,1.8566826171875,-0.2666653888810426,0.0808252026878297,-0.0591641366302967,-0.0017527658492326,-0.000268617644906,0.0002017498482018
1783205717415619600,1.86661962890625,-0.2560894882004708,0.0528605429740622,-0.0585498041242361,-0.0005827350541949,0.0018163975328207,-0.0011768599506467
1783205717425556700,1.876556640625,-0.2772115885430947,0.0488297165554016,-0.0609328998684883,-0.000291652046144,-0.0002906951121985,9.4266841188e-05
1783205717435493600,1.88649365234375,-0.2929750113967806,0.0420830553067848,-0.0642079760164022,0.0001152297481894,0.0004817424342036,0.0006300411187112
1783205717445430800,1.8964306640625,-0.2981622413089498,0.0450496865600347,-0.0661374827742576,-0.0015854649245738,0.0002836030907928,-0.0003518664743751
1783205717455367700,1.90636767578125,-0.2953532483028248,0.0440566569346934,-0.0626747750997543,-0.0009374683722853,-0.0013098870404064,0.0012990809045732
1783205717465304600,1.9163046875,-0.2903521886125206,0.0568150162208825,-0.072095514395833,-0.0018549272790551,0.0013138591311872,0.0025406465865671
1783205717475241700,1.92624169921875,-0.2702399959648028,0.0360385509781539,-0.0568178657650947,-0.0009430507197976,-0.0004474865272641,-0.0009226215770468
1783205717485178600,1.9361787109375,-0.2763533277459442,0.0490746312271803,-0.067723875182867,-0.0031867632642388,0.0006244354881346,0.0015541182365268
1783205717495114800,1.94611474609375,-0.2815798302225768,0.0530996489595621,-0.063370940670371,0.0019022598862648,0.0008158483542501,0.0006761674303561
1783205717505052200,1.95605224609375,-0.2981459477612748,0.0542195929002016,-0.0678472093015909,-0.0001345258206129,0.0001716292463243,0.0015073399990797
1783205717514989000,1.965989013671875,-0.3004561609324068,0.0502080191712826,-0.0708300245046615,-0.0017292508855462,-0.0002717259339988,0.0017436689231544
1783205717524926200,1.97592626953125,-0.3048610448278486,0.030597054043971,-0.0579378097057342,0.0007853060960769,-0.0011218069121241,0.0004509706050157
1783205717534863000,1.985863037109375,-0.3002259689057245,-0.0031056013325229,-0.0517880549043416,-0.0014568613842129,0.0009678290225565,-0.000125657999888
1783205717544800000,1.995800048828125,-0.3148595109466463,-0.0201495289834216,-0.0676414575964212,0.0022172359749674,-0.0012276810593903,0.0016032664570957
1783205717554737200,2.005737060546875,-0.2962889217177405,-0.0243892489124089,-0.0550561167895793,-0.0024902615696191,-0.000267035793513,-0.0012727072462439
1783205717564674000,2.015674072265625,-0.3328978929949924,-0.0213859389105811,-0.0569815318942069,-0.0020284699276089,0.0025026518851518,0.0025558529887348
1783205717574611200,2.025611083984375,-0.3543098796622827,0.0098060488192364,-0.0643050066500902,0.0015630787238478,0.0016955835744738,0.0015534262638539
1783205717584548000,2.035548095703125,-0.335187538302131,0.0316015914440155,-0.0689502021074295,-0.0010625319555401,0.0023019853979349,-0.0009872294031083
1783205717594485000,2.045485107421875,-0.3044636064754799,0.0076806906957179,-0.0557686489731073,-0.0019322633743286,-0.0043531078845262,-0.0021820454858243
1783205717604422100,2.055422119140625,-0.2857125095805153,-0.0270843697478994,-0.0732528677374124,-0.0031104460358619,0.0008813352324068,-0.002002814784646
1783205717614359000,2.065359130859375,-0.2952650950953364,-0.013061251222901,-0.0540846414089202,-0.0018865764141082,-0.0017851190641522,0.0016030902042984
1783205717624295000,2.075294921875,-0.3108568877091631,-0.0231313212731853,-0.0747141724616289,0.0011472972109913,0.0017307857051491,0.0001569939777255
1783205717634232000,2.085232177734375,-0.3662758099291473,-0.060196329222247,-0.0669300944566726,-7.90879130363e-05,0.0003395532257854,0.001196069875732
1783205717644169200,2.095169189453125,-0.4122920399663969,-0.1298019995637238,-0.0525362429231405,-0.0068363258615136,-0.0005001416429877,-0.0022018570452928
1783205717654106000,2.105106201171875,-0.4308251101965084,-0.1211730316998437,-0.0638818128019571,-0.0039583770558238,0.0011299471370875,0.000164721161127
1783205717664043300,2.115043212890625,-0.4204525500683114,-0.069672305836901,-0.0445651179134845,0.0037368265911936,-0.0002716747112572,-0.0008699169848114
1783205717673980000,2.12497998046875,-0.4068837146494537,0.0014161869408562,-0.0744675042241811,-0.0388106815516948,-0.0015367418527603,-0.0013695855159312
1783205717683917000,2.1349169921875,-0.3635802872348576,0.0962374009510502,-0.0765197605788707,-0.0216284990310668,-0.0093288840726017,0.0108905434608459
1783205717693854200,2.144854248046875,-0.2510387806821614,0.2103464490814134,0.0407066889196634,0.0516340285539627,0.023970890790224,0.0250415951013565
1783205717703791000,2.154791015625,-0.1957711400337517,0.2044764976020902,-0.1553787777602672,0.0155812185257673,0.009637757204473,0.0234333127737045
1783205717713728300,2.164728271484375,-0.2332486743064597,0.1908648094221949,-0.3554156124144792,-0.0005849003791809,-0.0121613331139087,0.0091581689193844
1783205717723665000,2.174664794921875,-0.2144183746954426,0.1566170508509501,0.1734627159833908,-0.0203162617981433,0.0075647020712494,-0.0085654351860284
1783205717733602000,2.18460205078125,-0.2538010850023478,0.0982345295850187,0.2263964337915182,-0.033273197710514,-0.0101659893989562,-0.0091350050643086
1783205717743539200,2.194539306640625,-0.2410038915431127,-0.0306305544547736,-0.2972989390105009,0.0389884859323501,0.0088236797600984,0.0105343032628297
1783205717753475000,2.20447509765625,-0.2360315099580213,0.0048171544907614,-0.140190560978651,0.0055298223160207,0.0132132265716791,0.0009303600527346
1783205717763412000,2.214411865234375,-0.333356267754361,0.088952066248469,0.0088888243764638,-0.0011376682668924,-0.0194863956421613,-0.0091595575213432
1783205717773349000,2.22434912109375,-0.3596822203503921,0.0806715099634602,-0.0582721562266349,-0.0089744497090578,0.0175874289125204,-0.004104318562895
1783205717783286000,2.2342861328125,-0.2947302575662732,-0.0416546007616445,0.0204191031724214,0.0005356986075639,-0.0012381910346448,0.0067856130190193
1783205717793223200,2.24422314453125,-0.1397526810180396,-0.0959259969143196,-0.1333750357449054,0.007556446827948,-0.00416404241696,-0.0006412237416952
1783205717803160000,2.25416015625,-0.0527392181493341,-0.0168157449182122,-0.1248316638052463,-0.0139850638806819,0.0051737995818257,-0.0084264427423477
1783205717813097000,2.264096923828125,-0.0569732755225151,0.1219754341239109,0.0015542437046766,-0.0044139493256807,-0.0183489099144935,-0.0010126426350325
1783205717823034000,2.2740341796875,-0.0956829454060643,0.2251842815227806,-0.0510913048118352,0.0091010592877864,0.0089418338611722,0.0014899298548698
1783205717832971000,2.283970947265625,-0.3055781435886398,0.2040770134231075,-0.1045814874589443,0.0086935851722955,0.0045200493186712,0.0051767942495644
1783205717842908200,2.293908203125,-0.3348085854545235,0.076563855448924,-0.1184919393897056,0.0052932617254555,-0.0056625469587743,0.0122900977730751
1783205717852845300,2.30384521484375,-0.3155337204137817,-0.0927670944919809,-0.0088069913119077,-0.0095147639513015,0.0112907923758029,0.0130867045372724
1783205717862782000,2.313781982421875,-0.3200103178385645,-0.1515068682303652,0.0205582193821668,-0.0083392448723316,-0.0073308278806507,0.005370195955038
1783205717872719000,2.323718994140625,-0.2199916082505136,-0.1007340182505548,-0.1191641395628452,0.0012571765109896,0.0036617631558328,-0.0010115539189428
1783205717882656000,2.333656005859375,-0.2134257834615185,0.0509550746789202,-0.07100070489645,-0.0047186911106109,0.0015373593196272,-0.0002877067308872
1783205717892593200,2.34359326171875,-0.2097340893367305,0.150320142663829,-0.0643523529231548,-0.0058873128145933,-0.0107185114175081,0.0033599892631173
1783205717902529000,2.353529052734375,-0.2382031914412975,0.1600977325735613,-0.0779331345081329,-0.0065509732812643,0.0065952311269938,0.0069027920253574
1783205717912466200,2.363466064453125,-0.314658398883976,0.1155883634353056,-0.0273246447771787,-0.0075233140960335,-0.0065937465988099,0.0073484457097947
1783205717922403000,2.373403076171875,-0.3322900632949546,0.0690207831256091,-0.0947545054495334,-0.0067941406741738,0.0026447596028447,0.0072286031208932
1783205717932340200,2.38334033203125,-0.3389642072966322,0.0391698347412049,-0.0553857871353626,-0.007580367848277,0.0017986530438065,0.0073491455987095
1783205717942277000,2.393277099609375,-0.3351824602682143,0.0226599774343892,-0.0302075067371129,-0.0062863379716873,-0.0038746795617043,0.0072679184377193
1783205717952214000,2.403214111328125,-0.3239402046333998,0.0602764452537521,-0.0868973622083663,-0.0024765897542238,0.0040208213031291,0.0067514013499021
1783205717962151200,2.413151123046875,-0.3151383644206449,0.116086887541972,-0.0547211857467889,-0.0007796240970492,-0.0006935065612196,0.005695192143321
1783205717972088000,2.423088134765625,-0.3004647826302796,0.132119592323713,-0.0735585726857185,-0.0019677570089697,0.0031283693388104,0.0079030822962522
1783205717982025200,2.433025146484375,-0.2804332540033385,0.101196082804352,-0.0597843143552541,-0.0010210033506155,0.000387177336961,0.0091004399582743
1783205717991961900,2.4429619140625,-0.2739029389191418,0.0165877813812345,-0.0497229390680789,-0.007671795785427,-0.0019153412431478,0.0048178159631788
1783205718001899000,2.45289892578125,-0.2757441828716546,-0.0537201189454644,-0.0628425328820943,-0.0076752565801143,0.0005259788595139,0.0053467201068997
1783205718011836200,2.462836181640625,-0.293561907906644,-0.0826187715737149,-0.031676994767785,-0.0052615040913224,-0.0034688003361225,0.0067348219454288
1783205718021773000,2.47277294921875,-0.3430998823292553,-0.0845206962049007,-0.0493003297418355,-0.0024398854002356,0.0015794881619513,0.0059004537761211
1783205718031710200,2.482710205078125,-0.4089916467141359,-0.0254481833808124,-0.0682937840253114,-0.0029778173193335,0.0030957637354731,0.0062672211788594
1783205718041646800,2.492646728515625,-0.4199492767212912,0.0017673749987035,-0.0449351202696561,-0.0091105438768863,-0.0007240083068609,0.0080360937863588
1783205718051583000,2.5025830078125,-0.3253451395278796,-0.0865068285208195,-0.0525198763102293,-0.0076582487672567,-0.005537521559745,0.0066566942259669
1783205718061520100,2.51252001953125,-0.3066234513904899,-0.0751417502239346,-0.0554793106377124,-0.0057255923748016,0.0097897695377469,0.0006113182753324
1783205718071457000,2.52245703125,-0.3448674399910494,0.0690601287553086,-0.063419455987215,0.0033991886302828,-0.0036032642237842,0.0034669935703277
1783205718081394000,2.532393798828125,-0.2568827209373936,-0.0130105074163526,-0.0928740985304117,-0.0023316675797104,0.0039148395881056,0.0044473027810454
1783205718091331000,2.5423310546875,-0.3522920735664665,0.0257052999470382,-0.047699324285984,-0.0014410596340894,0.0047431583516299,0.0040355212986469
1783205718101268000,2.55226806640625,-0.2944983119739219,-0.0006414031760767,-0.0306067351877689,-0.0042546894401311,-0.0042537986300885,0.0047950549051165
1783205718111205000,2.562205078125,-0.3036909416025504,-0.0032635683732107,-0.0853513018101453,-0.0048552835360169,0.0077144331298768,0.0027792397886514
1783205718121142300,2.572142333984375,-0.3289147781755775,-0.0597608604144304,-0.0438970093935728,-0.0019023707136511,-0.0017043682746589,0.0044309324584901
1783205718131079000,2.582078857421875,-0.3054979910245165,0.0025683891832828,-0.0693114366352558,-0.0034839836880564,0.0040733632631599,0.0028144917450845
1783205718141016000,2.59201611328125,-0.2784706121608615,0.0982126100141555,-0.0613788900703191,-0.0033707981929183,0.0042885467410087,0.0025372565723955
1783205718150953000,2.601952880859375,-0.2742311479602008,0.116468105411902,-0.0627186142414808,-0.0009766351431608,-0.0003944844938814,0.002942509483546
1783205718160890000,2.61189013671875,-0.2495562139742076,0.1190121273389086,-0.0752764825195074,-0.001506071537733,0.0040444722399115,0.0079721547663211
1783205718170827300,2.6218271484375,-0.2653896333241835,0.1129003299277275,-0.0417506450146436,2.54651531577e-05,-0.003276836592704,0.0070807272568345
1783205718180764000,2.631763916015625,-0.2895200851699337,0.0667876172460615,-0.0749678549617528,0.0004608919844031,0.0046721664257347,0.005076166242361
1783205718190701000,2.641701171875,-0.2986952156744897,0.0401796693708747,-0.068536945131421,0.00069135800004,0.0029866746626794,0.0042012203484773
1783205718200638000,2.651637939453125,-0.29415454003755,0.0472491693656891,-0.0540092380851507,-0.0014064135029911,0.0008478900417685,0.0052180141210556
1783205718210575000,2.6615751953125,-0.2947292346529662,0.0552692115509882,-0.0718260498046875,0.0001352364197373,0.0067142858169972,0.0052187442779541
1783205718220511000,2.671510986328125,-0.2894727754294872,0.0859335952101275,-0.0707896924942731,0.0008763941004872,0.002417542040348,0.0045087458565831
1783205718230448000,2.6814482421875,-0.2544825644604861,0.0740421914841979,-0.0784194567203521,-0.0036232396960258,0.0035331575199961,0.003852313151583
1783205718240385000,2.691385009765625,-0.2476714231409132,0.0386722604826092,-0.0629863252669572,-0.0029220283031463,0.0010729292407631,0.0021042141597718
1783205718250322200,2.701322265625,-0.2331556257281452,0.0147748136751353,-0.0442529832243919,-0.0018358100205659,-0.0027118558064103,0.0052429586648941
1783205718260259000,2.711259033203125,-0.259619744685851,0.0200091706646606,-0.0635316841900348,-0.0024451417848467,-8.33156518638e-05,0.0034549119882285
1783205718270196000,2.721196044921875,-0.3031218730103224,0.0117331444242969,-0.0527425791501998,-0.0003464240580797,0.0003094132989645,0.0028239018283784
1783205718280133000,2.731133056640625,-0.3068297876175492,-0.0250629103902727,-0.0615519085496664,-0.001254828646779,0.0003208648413419,0.0009591565467417
1783205718290070000,2.741070068359375,-0.303316153473407,-0.0574741011841222,-0.0545008209943771,-0.0039654178544878,-0.0017539500258862,0.0028930155094712
1783205718300007200,2.751007080078125,-0.3077451854294166,-0.0816361172119155,-0.0502706360787153,-0.0038495706394314,-0.0008498067036271,0.0032197854015976
1783205718309944000,2.760944091796875,-0.2895633763223886,-0.0559384525820612,-0.044413142222166,0.0001912266016006,4.56804409623e-05,0.0004979860968887
1783205718319881000,2.770880859375,-0.3057507602091878,0.0350222135424613,-0.0605628975123167,0.0012279953807592,0.0033168410882353,0.001796543598175
1783205718329818000,2.780818115234375,-0.30806868176274,0.1192391410278156,-0.0743365713208913,0.0027408385649323,0.0011263694614171,0.0026832080911844
1783205718339755000,2.790755126953125,-0.2652731673376634,0.097320739208348,-0.0622124182850122,0.0011570565402507,0.0013748425990343,0.0003478820435702
1783205718349692200,2.800692138671875,-0.2904182761186734,0.0662899699222296,-0.0613245295345783,0.0023175356909632,0.0052977800369262,0.0017887311987578
1783205718359629000,2.810629150390625,-0.2523232675347477,-0.0092648911472409,-0.0705968002706766,-0.0001887651160359,-0.0029982323758304,-0.0018901595612987
1783205718369566000,2.82056591796875,-0.2639167112274095,-0.0100674762343987,-0.0747936674386262,0.0024036867544054,0.0063727824017405,-0.0030600416939705
1783205718379503000,2.830503173828125,-0.228359002568759,-0.0976611136112362,-0.0373760831922292,-0.0036901580169796,-0.0100511983036994,0.0011219203006476
1783205718389440000,2.84043994140625,-0.2340895090447738,-0.0615469766462221,-0.060681555455923,-0.0049026757478713,0.0057079424150288,0.0024419750552624
1783205718399377200,2.850377197265625,-0.2986051262382417,0.1422941456617787,-0.0183446349859237,0.0030945306643843,-0.0022519794292747,0.0015514141414314
1783205718409313000,2.86031298828125,-0.2387174976389855,0.0910225523795932,-0.0792196671873331,0.0040216511115431,0.0028318795375525,-0.0019190988969057
1783205718419250000,2.87025,-0.2913485427061095,0.0693152725601568,-0.086857030197978,-0.002498566173017,0.0023581031709909,-0.0016410648822784
1783205718429187000,2.88018701171875,-0.3092074765343219,0.0277173338891938,-0.0335766909092664,0.0012657176703214,0.0032156046945601,0.0003658488858491
1783205718439124200,2.890124267578125,-0.236874975044839,-0.0323508754413574,-0.0634860914826393,-0.002473359927535,-0.0024047303013503,-0.0012645383831113
1783205718449061000,2.90006103515625,-0.2916645133201033,0.0008406886078417,-0.0528454550027847,-0.0027107382193207,0.0063393469899892,0.002234109910205
1783205718458998000,2.909998046875,-0.3321372838860377,0.0742326360223814,-0.0715554161697626,0.0006389860063791,-0.0027292491868138,0.0001552465837448
1783205718468935000,2.919934814453125,-0.2751185983192175,0.0786337570581585,-0.0799187553673982,-0.0026906765997409,0.0051067834720015,1.22908968478e-05
1783205718478872000,2.9298720703125,-0.3166706885544583,0.0328143647672608,-0.0586754763305187,-0.0009015649557113,0.001415376085788,-1.38082541525e-05
1783205718488809200,2.939809326171875,-0.2431294323297217,0.0433739719001576,-0.0344037893831729,-0.0021097753196954,-0.0020923223346471,0.0021518350113183
1783205718498746000,2.94974609375,-0.2639749076880514,0.0788039259932935,-0.0860299317240715,0.0019667251035571,0.0067895860411226,0.0023574309889227
1783205718508682200,2.95968212890625,-0.2986075008584186,0.027725736391358,-0.0466845942854881,0.0034579979255795,-0.0036536161787807,0.0008629178628325
1783205718518619400,2.969619384765625,-0.29399719405137,-0.0467974070101976,-0.0698603026896715,-0.0021175956353545,0.0024980194866657,0.0022091458085924
1783205718528556300,2.979556396484375,-0.3131481769841164,-0.0593979453861713,-0.0529448237240314,-0.0021828915923833,-0.0009439326822757,0.0020734127610921
1783205718538493400,2.989493408203125,-0.2926845770828425,-0.0180494879642501,-0.0642857174277305,-0.0032028835266828,4.0637794882e-05,0.0007615394424647
1783205718548430300,2.999430419921875,-0.2837173537079244,0.021217450475879,-0.0832820943206548,-0.0012230090796947,0.0021357610821723,-0.0020809536799788
1783205718558367200,3.0093671875,-0.2999042992033064,0.0670767729183658,-0.0460153167217969,-0.0023721624165773,0.0022976812906563,0.0008794160094112
1783205718568304400,3.019304443359375,-0.2683782206809148,0.0847942159166559,-0.0657616351991891,-0.0008812686428427,0.0014479518868029,0.0024183702189475
1783205718578241300,3.0292412109375,-0.250063725104928,0.0499573323458433,-0.0591711508929729,0.0013517923653125,-0.0007872390560805,0.0011656193528324
1783205718588178400,3.039178466796875,-0.2681447772512212,0.0011097148075699,-0.071107087880373,-0.0021977480500936,-0.0018448629416525,-0.0010349592193961
1783205718598115300,3.049115234375,-0.3067150751966983,-0.023802535065636,-0.0746931296736001,0.0015362706035375,0.0043030441738665,0.0029757611919194
1783205718608052200,3.05905224609375,-0.3679793259114027,-0.0614188202219083,-0.0549403814554214,0.0010448759421706,0.0011109579354524,0.0014380763750523
1783205718617989400,3.0689892578125,-0.3809345960091799,-0.0692385175295174,-0.071108841446042,0.002190301194787,0.005075339693576,0.0005001111421734
1783205718627925500,3.078925537109375,-0.3106867918392643,-0.0489633528724312,-0.0568973607420921,0.0014011310413479,-0.0013439562171697,-0.0022612186148762
1783205718637862100,3.088862060546875,-0.2735449557943269,-0.0002849909538403,-0.0558504820376634,0.0010546538978815,0.0034225690178573,0.0012190004345029
1783205718647799300,3.09879931640625,-0.2512861430393532,0.0402566435972228,-0.0444657491922378,0.0022919680923223,-0.0010131294839084,-0.0002034567296504
1783205718657736200,3.108736083984375,-0.2387650996403768,0.0853274825431406,-0.0796387693822383,0.0022810492664575,0.0051012216135859,-0.0034112341236323
1783205718667673300,3.11867333984375,-0.2346426128828898,0.0903294190162792,-0.0509118565917015,0.0006109103560447,-0.0008568819612264,0.0022594269830733
1783205718677610500,3.128610595703125,-0.2685984027702361,0.1032905343329533,-0.0592927314460277,-0.0007675420492887,0.0043740989640355,0.0026751460973173
1783205718687547100,3.138547119140625,-0.2743370194874703,0.0653885641030967,-0.0618412468850612,0.0033679520711302,-0.0007964666001498,-3.68922483175e-05
1783205718697484300,3.148484375,-0.2902785023218021,0.0240323617661371,-0.0621387685269117,0.0013623256236314,0.0037972200661897,0.0013173250481486
1783205718707421200,3.158421142578125,-0.2841694083243608,-0.0069392977438867,-0.0696153880178928,0.0002372050657868,0.0005295407027006,-0.001077051856555
1783205718717358300,3.1683583984375,-0.2776591496475041,-0.0132538877181708,-0.0514998856127262,-0.002841142937541,0.0004411237314343,-0.0014906408032402
1783205718727295500,3.17829541015625,-0.2375287993110716,-0.0791656354451552,-0.0595341389864683,-0.0067767603322863,-0.0014231582172214,-0.0031480358447879
1783205718737232100,3.188232177734375,-0.3467804340055212,0.0989967095965519,-0.062391866505146,0.0001927325502038,0.0082457149401307,0.0007231349591165
1783205718747169300,3.198169189453125,-0.2280383923122659,0.1124798760259523,-0.0490583376795053,0.0002806829288601,-0.0046825227327644,0.0008160858415067
1783205718757106400,3.2081064453125,-0.292419971329905,0.0065881827512755,-0.1042857193827629,-0.0009590191766619,0.011933472007513,0.0007620237302035
1783205718767043300,3.218043212890625,-0.2552766739802435,-0.0731270859332755,-0.0058013797551393,-0.0050813956186175,-0.0132312905043363,0.0015268116258084
1783205718776980500,3.22798046875,-0.2387754383713007,-0.0114777448911219,-0.0696533819407224,-0.002537278458476,0.0064718406647443,0.0005470346659421
1783205718786917000,3.237917236328125,-0.2864140819786116,0.0569943183105438,-0.0514092847198247,0.0015484131872653,-0.0022863871417939,0.0021265428513288
1783205718796854300,3.247854248046875,-0.277862563265115,0.0563154692009091,-0.0834188724428415,0.0019356375560164,0.0020345915108919,6.89846929162e-05
1783205718806791400,3.25779150390625,-0.2481741119660437,0.0315350290138274,-0.0656125821173191,-0.0032499497756361,0.0011437786743044,0.0002333591692149
1783205718816728300,3.267728271484375,-0.2352076628871262,0.0253414350707083,-0.0154430683255195,-0.0020834850147366,-0.0039910618215799,-0.0014481607358902
1783205718826665500,3.27766552734375,-0.2042560963170603,0.0502283678395673,-0.063743865635991,-0.0022979918867349,0.0002625924535095,0.0005902748089283
1783205718836602000,3.28760205078125,-0.2452423693630844,0.0802220491629093,-0.0661228697270154,-0.0048719374462962,0.0008732555434107,0.0003292851615697
1783205718846539300,3.297539306640625,-0.2913245773086324,0.0742003046553581,-0.0629611908257007,-0.0024671023711562,-0.0009241229854524,-0.0002240282483398
1783205718856476400,3.307476318359375,-0.3112159668125212,0.0663159080810844,-0.0660948126763105,-0.0010463064536452,0.0030767442658543,-0.0002400071825832
1783205718866413300,3.317413330078125,-0.2865722316823899,0.0089358418559655,-0.0581453149765729,-0.0035223104059696,-0.0030208374373614,0.0007438682951033
1783205718876350500,3.3273505859375,-0.2846754946829751,-0.0172587759779766,-0.0633569121450185,-0.006500257179141,0.0015896265394985,0.0012019318528473
1783205718886286300,3.337286376953125,-0.2922073514925316,-0.007986395644024,-0.0476250900059938,-0.0035051377490162,-0.0007753707468509,0.0007460119668394
1783205718896223200,3.34722314453125,-0.2926156765650957,0.031208427407965,-0.0549438885867595,-0.0023053837940096,0.0022422573529183,0.0022118156775832
1783205718906160400,3.357160400390625,-0.3057029390120878,0.0480839762220159,-0.0696054511457681,0.0011270297691226,0.0018980083987116,0.0030334785114973
1783205718916097300,3.36709716796875,-0.2881612544395029,0.0316101400766521,-0.0522439819782972,0.0001792106777429,-0.001896196976304,0.0008712578564882
1783205718926034200,3.3770341796875,-0.2907601848915219,-0.0021180881325155,-0.053872459962964,-0.0010533612221479,0.0004008407704532,0.0009673468302935
1783205718935971300,3.386971435546875,-0.3007685513498261,-0.0027942338284105,-0.0540068999975919,-0.000742569565773,-0.0005682832561433,-0.0024004867300391
1783205718945908200,3.396908203125,-0.2942759379275143,0.011274660067074,-0.0507061048865318,0.0013259034603834,7.57267698645e-05,0.0037817102856934
1783205718955845400,3.406845458984375,-0.323564941580221,0.0390690777804702,-0.0656716188281774,0.0017163231968879,0.0014925287105143,-0.0009520587045699
1783205718965782500,3.416782470703125,-0.3254683275161311,0.0397859573455527,-0.0649129094153642,0.000485279597342,-0.0008782460354268,0.0008136502001434
1783205718975719200,3.42671923828125,-0.3237670765561983,0.0449801649877801,-0.0687993954598903,0.0001625046133995,0.004466185811907,0.0056150630116462
1783205718985656300,3.43665625,-0.316263715188764,0.0884573415340855,-0.052796355164051,0.0009881425648927,0.0027391323819756,0.0073811672627925
1783205718995593200,3.44659326171875,-0.3226606131516397,0.1074202545488253,-0.0683721099585294,0.0038627590984106,0.0053349155932664,0.006517237983644
1783205719005530400,3.4565302734375,-0.3343303734835237,0.0952466728806495,-0.0755880326867103,0.0047655799426138,0.0073394207283854,0.0045151384547352
1783205719015467500,3.466467529296875,-0.2892635896582156,0.0338814094768837,-0.0616916092813015,0.003772753290832,0.0043228585273027,0.0034610594157129
1783205719025404200,3.476404052734375,-0.2269097901411354,-0.079212360663712,-0.0467354476898908,0.0003810850903391,0.0004502576775848,0.0035816226154565
1783205719035341300,3.48634130859375,-0.1987505942359566,-0.1317004535961896,-0.0311620309829711,-0.0044309804216027,-0.0027881464920938,0.0010779849253594
1783205719045278200,3.4962783203125,-0.2009152249239385,-0.1118294858258217,-0.0609124416023492,-0.0012618862092494,0.0012759556993842,-0.0006859435234218
1783205719055215400,3.50621533203125,-0.2319336827177554,-0.0440985963802784,-0.0628513007104396,0.0002348106354475,-0.0005168844945728,-0.0024044814053922
1783205719065152500,3.516152587890625,-0.2438513533961027,-0.0164945866724476,-0.0610375292867422,-0.00453797634691,-0.0011347788386046,-0.0019910354167222
1783205719075089200,3.526089111328125,-0.2491374405728653,0.0060619669200852,-0.0677501786679029,-0.0027235653251409,0.0039792899042367,-0.00210688309744
1783205719085026300,3.5360263671875,-0.2338244283678009,0.0102767716035246,-0.0485790297299623,2.36025080084e-05,-0.0006227674894034,-0.0021649291738867
1783205719094963200,3.545963134765625,-0.263989301539585,0.0402015524091199,-0.0794014534950256,0.004002365283668,0.0058074346743524,-0.0017508075106889
1783205719104900400,3.555900390625,-0.2978051714995876,0.0255387842737138,-0.0701402886748313,0.0018926095217466,0.0006867088377475,0.0006186068058013
1783205719114837500,3.56583740234375,-0.2916701028106734,-0.0033397754145786,-0.0584673865377902,-0.0026251776143908,-0.002043031156063,-0.0032144808210432
1783205719124774100,3.575774169921875,-0.2519358025871217,-0.0263386659471318,-0.0502186136305332,-0.0037378454580903,-0.0020187962800264,-0.0029210005886852
1783205719134711300,3.585711181640625,-0.2221116326117888,0.017291143877618,-0.0382253934979438,-0.0023000054061412,-0.0023650079965591,0.0005136784166097
1783205719144648200,3.595648193359375,-0.2208916623627767,0.0525591123420745,-0.0585562338650226,-0.0030352184548974,0.0034071651753038,-0.0036651049740612
1783205719154585300,3.60558544921875,-0.2527132167004048,0.1238061201497912,-0.0563046555459499,0.0002673678100109,-0.0004837131127715,-0.0023838579654693
1783205719164522500,3.6155224609375,-0.2583652876453474,0.1201450403589755,-0.0718570294648408,-0.0010098852217197,0.0011537950485944,-0.0003706188872456
1783205719174459100,3.625459228515625,-0.2738713382044807,0.0569584798121824,-0.0667670128494501,0.0001240884885191,0.0011167768388986,-0.0014923422131687
1783205719184396300,3.635396240234375,-0.2414484935054555,-0.0389276234831661,-0.0571627336800098,-0.0044764662161469,-0.0045624077320098,-0.003062380477786
1783205719194333400,3.64533349609375,-0.2465936013089492,-0.0610803455151617,-0.054282794329524,-0.0077329790219664,-3.37027013301e-05,-0.0026906032580882
1783205719204270300,3.655270263671875,-0.2702401055626571,-0.0050856327012181,-0.0355512058526277,-0.0033916439861059,-0.0031813383102416,-0.003338961629197
1783205719214206200,3.665206298828125,-0.2681728343019262,0.0914758491050451,-0.0717366179555654,-0.0016683116555213,0.0029852115549147,-0.0008353239390999
1783205719224144100,3.67514404296875,-0.3099513171715661,0.1228969328830018,-0.0684457597166299,2.01556831598e-05,8.95750708878e-05,-0.0034586258698254
1783205719234080300,3.685080322265625,-0.2658397517118603,0.0654562955770641,-0.0642225890636444,-0.0047269286587834,-0.0027192602865397,-0.0024394341744482
1783205719244017400,3.695017333984375,-0.2536532009642571,0.0030795170431956,-0.0597100800752639,-0.0026351613923907,0.0009420085698366,-0.0016318414127454
1783205719253954300,3.704954345703125,-0.2533062141574919,-0.0475651765123009,-0.0505552982389926,-0.0032708579674363,-0.0026002624072134,-0.001327442121692
1783205719263891200,3.71489111328125,-0.2756168666975572,-0.0239256865212693,-0.0785153183102607,-0.0034417016431689,0.0003532809205353,0.0006297922227531
1783205719273828400,3.724828369140625,-0.3207619033908471,0.0199506454104557,-0.0587573093950748,-0.0008152928203344,-0.0002722954377532,0.0011855938937515
1783205719283765200,3.73476513671875,-0.345360812998563,0.0393327702179551,-0.0484065957725048,-0.0023034522309899,0.0010493784211575,0.0036088707856833
1783205719293702400,3.744702392578125,-0.387967271124944,0.0567173280000686,-0.0668126055568456,0.0012899506837129,0.0037729933392256,-0.0005773520097136
1783205719303639300,3.754639404296875,-0.3381671386348083,0.0194994310442358,-0.0385211615741252,0.0009911125525832,-0.0030972547829151,0.0006063992623239
1783205719313576200,3.764576171875,-0.3172416933754459,-0.0365102966757491,-0.0817594147980213,-0.0057565392926335,0.0030482555739581,-0.0004972144961357
1783205719323513300,3.774513427734375,-0.2867127361316233,-0.0293375920347869,-0.0512163924962282,-0.0019735693931579,-0.00588352791965,-0.000156067777425
1783205719333450200,3.7844501953125,-0.2551487367516383,0.0154425203362479,-0.0661526803433895,-0.0040260683745145,0.0012838379479944,0.0006223742384463
1783205719343387400,3.794387451171875,-0.2850749057967215,0.0655711175957694,-0.0618149434000253,0.0020374087616801,0.0023247958160936,-0.0006541905459016
1783205719353324300,3.80432421875,-0.286951403725706,0.0668511109363287,-0.0555120438635349,-0.000933613628149,-0.0021916590631008,-0.003843325888738
1783205719363261200,3.81426123046875,-0.2743901744468137,0.0308223141672089,-0.0748006817013025,-0.002526806667447,0.0033441570121794,-0.0055127805098891
1783205719373198300,3.8241982421875,-0.281369877266325,-0.0073811962924897,-0.0441115289270877,-0.0020082890987396,-0.0001773405820131,-0.0080699473619461
1783205719383135200,3.83413525390625,-0.2767128452407196,-0.0065978638950735,-0.0650333209246397,-0.0042347237467765,-0.0004305355250835,-0.0100316787138581
1783205719393072400,3.844072265625,-0.2750047261485829,0.0157807393146678,-0.0614326660841703,-0.0001784628257155,0.0016408711671829,-0.0099957268685102
1783205719403009500,3.854009521484375,-0.2681015591640025,0.0473966880775988,-0.0473556254148483,0.0012428658083081,-0.0005218819715082,-0.011151005513966
1783205719412946200,3.8639462890625,-0.2537690824288874,0.0542556871268898,-0.0717412941306829,-0.000485791824758,-0.0005477145314216,-0.0074438853189349
1783205719422883300,3.87388330078125,-0.2567133557198569,0.0467228439366444,-0.0494254174262285,-0.0031127491965889,2.49869190156e-05,-0.0085945939645171
1783205719432820200,3.8838203125,-0.2595460583951324,0.0082855977863073,-0.0616746581465005,-0.0037484457716345,0.0024013253860175,-0.0066576772369444
1783205719442757400,3.89375732421875,-0.2703181757675483,-0.0185091778978705,-0.0498433505773544,0.0006390204653143,0.0030885895248502,-0.0042785946279764
1783205719452694500,3.903694580078125,-0.2815949547264725,-0.0194302382655441,-0.0538783051818609,0.0004142504185438,3.42102721333e-05,-0.0037829801440238
1783205719462631200,3.913631103515625,-0.2682571150518953,-0.0036270313907414,-0.0788590171813964,-0.001249230466783,0.004003167618066,-0.0036316739860922
1783205719472568300,3.923568359375,-0.2596304122103378,0.0116111254798248,-0.0505669886767864,-0.0046767191961407,0.0029115378856658,-0.0039834775961935
1783205719482505200,3.933505126953125,-0.2386574380148202,0.0128780766757205,-0.0556464838981628,0.0015784297138452,0.001644404605031,-0.0016093208687379
1783205719492442400,3.9434423828125,-0.2200879082318395,0.0290630859423428,-0.06161971308887,-0.0009792698547244,-0.0024728421121835,-0.0025475525762885
1783205719502379500,3.953379638671875,-0.2283489926313981,0.0408910690432414,-0.0577191985189914,-0.0006752675399184,0.0029247547499835,-0.0044014565646648
1783205719512317400,3.9633173828125,-0.2501922833880409,0.0327722061259672,-0.061746554338932,-0.0018941964954137,0.0015540258027613,0.0001922298688441
1783205719522254600,3.973254638671875,-0.2681149301022291,0.0119277171483263,-0.0656231035113334,-0.0033313725143671,-0.0004627131856977,-0.0015078770229592
1783205719532191200,3.983191162109375,-0.2849912461012601,-0.0084366966947913,-0.0495990204274654,-0.0025049932301044,-0.0009018685668706,-0.0025595594197511
1783205719542128400,3.99312841796875,-0.2707773542445152,-0.01977123372294,-0.0654442398130893,-0.0016646264120936,-9.5390714704e-06,-0.0017186100594699
1783205719552065300,4.003065185546875,-0.2697819499989971,-0.0103782592166215,-0.0431429761558771,-0.0016244128346443,0.0017097974196076,-0.0018949112854897
1783205719562002400,4.01300244140625,-0.2642273846117779,-0.0045351226789876,-0.058693596509099,-0.0026149684563279,-0.0005329465493559,-0.0025549193378537
1783205719571939600,4.022939697265625,-0.254379944336228,0.0166338124800473,-0.0631651889652013,-0.0025121700018644,0.0022817482240498,-0.0006614117883145
1783205719581876200,4.032876220703125,-0.2708748232696205,0.0494110966399312,-0.0643529374450445,-0.0037548616528511,0.0016508135013282,0.0012947614304721
1783205719591813400,4.0428134765625,-0.2736673765975981,0.0441080948609858,-0.0582025981217622,-0.0016680089756846,-0.0002730544656515,-0.0010930286953225
1783205719601750300,4.052750244140625,-0.2772928736183792,0.0399295670673251,-0.0604424860030412,0.001232411712408,0.0003151977434754,-0.0008522570133209
1783205719611687400,4.0626875,-0.2725409298509359,0.0057883010778576,-0.0671709174752235,-0.0048214858397841,0.0016662194393575,-0.0006810156628489
1783205719621624600,4.07262451171875,-0.2612236362185329,-0.0040031712267547,-0.066101242417097,-0.0023420779034495,0.0014201900921761,-0.0005046259611845
1783205719631561200,4.082561279296875,-0.2643166337978094,0.0006273381181061,-0.0577139378219842,-0.0037279864773154,0.0023355185985565,0.0025132682640105
1783205719641498400,4.092498291015625,-0.2692860927734524,0.0155469305587932,-0.0621919600188732,-0.0027700215578079,-0.0008502737618982,-0.003341200063005
1783205719651435300,4.102435302734375,-0.2722905352864414,0.0201730194568634,-0.055896074745059,0.0002723736688494,0.0012861141003668,-0.0020540943369269
1783205719661372400,4.112372314453125,-0.2650597803153097,0.0046774537591263,-0.056190673777461,0.0013603325933218,8.27759504318e-05,-0.0018390616169199
1783205719671309600,4.1223095703125,-0.2617378328183665,-0.0070712900931015,-0.0618605361074209,-0.0007598102092742,0.0018031783401966,-0.0021210904233157
1783205719681246200,4.13224609375,-0.2527386068699881,0.0026621318813413,-0.0519727638214826,-0.000940766185522,0.0013945526443421,-0.0025992051232606
1783205719691183400,4.142183349609375,-0.2524592784719541,0.0090534403536468,-0.0630342560619115,-0.001823604106903,-0.0026614414528012,-0.0013685583835467
1783205719701120300,4.152120361328125,-0.257394067993015,0.0218346690587699,-0.0595721329092979,-0.002850548364222,-0.0002149892970919,-0.0003978828899562
1783205719711057400,4.162057373046875,-0.2794124961208551,0.0480086094308644,-0.0523790065348148,-0.0004611602053046,0.0013996851630508,-0.002263959730044
1783205719720994600,4.17199462890625,-0.2907531706288456,0.022676526710391,-0.0493769021093845,0.0008255001157522,0.001318797469139,0.000419603427872
1783205719730931200,4.18193115234375,-0.2974076966146007,0.0059989846864715,-0.0752700527787208,0.0012793028727173,0.0052490904927253,0.000681658508256
1783205719740868400,4.191868408203125,-0.3131269515329972,-0.0102920057052746,-0.0480365934163331,-0.0017529726028442,0.0001307614147663,0.0026276300195604
1783205719750805500,4.201805419921875,-0.3103764107158407,-0.0177585056610405,-0.0535650014489889,0.0014987466856837,-0.0008708536624908,1.10743567347e-05
1783205719760742400,4.211742431640625,-0.3041958223847672,0.0051697307880967,-0.0519184032857418,0.0012514777481555,0.0011266870424151,0.0003750517498701
1783205719770679600,4.221679443359375,-0.2874491241147741,0.00756842596028,-0.0436824898600578,0.0005502672865986,-0.0007519065402448,0.0009255271870642
1783205719780616200,4.2316162109375,-0.2644019009284675,-0.0024434110967442,-0.0701560707658529,0.0013459734618663,0.0004491079598665,-0.0001293548848479
1783205719790553300,4.24155322265625,-0.2518088882718235,-0.0202876588124781,-0.0662637395024299,-0.0001797508448362,0.0012115705758333,-0.0021059529390186
1783205719800490500,4.251490478515625,-0.2320856584090739,-0.0118587800979614,-0.0669920537769794,-0.0037614470347762,0.0013113664463162,0.0038881781511008
1783205719810427400,4.261427490234375,-0.2445052872601896,-0.0162119703387841,-0.0583019668430089,-0.0027582347393035,0.0012378632090985,0.0008833336178213
1783205719820363300,4.27136328125,-0.2724727234529331,0.0005288461796939,-0.0555897852748632,-0.0018722023814916,0.0007050768472254,-0.0010011879494413
1783205719830301200,4.28130126953125,-0.2800272670183331,0.0229488408457487,-0.0584288080930709,-8.65533947944e-05,0.0020989752374589,-0.0039261379279196
1783205719840238300,4.29123828125,-0.2764370239740237,0.0046471682187169,-0.0614139613837003,-0.0028390549123287,0.0020051365718245,-0.0006228294223546
1783205719850174500,4.301174560546875,-0.2861437040720135,-0.0131299325449392,-0.0593143587559461,-0.000335949473083,0.0027023521251976,-0.0027203352656215
1783205719860111400,4.311111328125,-0.2746548532649874,-0.0059510538915172,-0.0572094954311847,-0.0032734870910644,0.0019555366598069,-0.0019090293208137
1783205719870048300,4.32104833984375,-0.2609077386697754,0.0221826422462239,-0.0560018732070922,-0.0014931634068489,0.0028000250458717,-6.31923321634e-05
1783205719879985400,4.3309853515625,-0.257883422412537,0.0460488171325996,-0.0444762705862522,0.0006995946168899,-0.000863067805767,0.0005273534916341
1783205719889922300,4.34092236328125,-0.2608665664091706,0.0588416997428983,-0.0618313100129365,-0.0004943003877997,0.0010610660538077,0.0014176480472087
1783205719899859500,4.350859375,-0.2602167607309296,0.0542155377795919,-0.0660129796117544,0.0005890233442187,0.0011345804668962,0.0001565956044942
1783205719909796400,4.36079638671875,-0.293532462616451,0.0260804534023627,-0.0678062927693128,-0.0008016796782612,0.0008637369610369,0.0026333355344831
1783205719919733200,4.370733154296875,-0.3006501856671646,-0.017333083323203,-0.0544803627282381,-0.0015848306939005,0.0020346022211015,0.0011728634126484
1783205719929670400,4.38067041015625,-0.2984613703859969,-0.0479506321659311,-0.0550718988806009,7.19223171472e-05,0.0005770539864897,0.0004870994016528
1783205719939607300,4.390607177734375,-0.2681434986095875,-0.0242882727559655,-0.0586602787613868,-0.0001820186153054,0.001544942613691,0.0003079453017562
1783205719949544400,4.40054443359375,-0.2541138772785663,0.0227946731973439,-0.0480249029785394,-0.0023735342547297,-0.0007416475564241,-0.001441485248506
1783205719959481600,4.410481689453125,-0.2519815048923716,0.0497128195328637,-0.051005964615941,0.0002039177343249,0.0020373184233903,-0.000271220691502
1783205719969418200,4.420418212890625,-0.2388140898812562,0.0377885729832574,-0.0638666152328252,-0.0026885410770773,0.001956358551979,-0.0007625739090144
1783205719979355400,4.43035546875,-0.2389230666810646,0.013618556312099,-0.0583271012842655,-0.0021882643923163,0.0016448055393993,-0.0006505232304334
1783205719989292300,4.440292236328125,-0.2223976099463179,-0.0143851933030411,-0.0532201335340738,-0.0027504581958055,0.0029801144264638,0.0014208832290023
1783205719999229400,4.4502294921875,-0.2511345326742157,0.0028522110933437,-0.0621902064532041,-0.0013094944879412,0.0001729382202029,-0.0004341227468103
1783205720009166600,4.46016650390625,-0.2499520083587616,0.0038376784667372,-0.0558855533510446,-0.0011331932619214,-0.0026750457473099,-0.0006698123179376
1783205720019103200,4.470103271484375,-0.2867721381686627,0.0297846782151609,-0.065004679352045,-0.0006419690325856,0.0037702999543398,0.0006485271733254
1783205720029040400,4.480040283203125,-0.3081935502514243,0.0066163128672167,-0.0425607923537492,-0.0003857733681797,-0.0002832976169884,-0.0011821296066045
1783205720038977300,4.489977294921875,-0.2719200580062345,-0.0199131629442796,-0.0702332276552915,-0.0007088165730237,0.001234000083059,0.0017604734748601
1783205720048914400,4.49991455078125,-0.2672213422633707,-0.0070888988150283,-0.064389177802205,-0.0013695461675524,-0.0001167552545666,-0.0019722133874893
1783205720058851600,4.5098515625,-0.2626484813898802,0.0207980194874107,-0.0634784926980733,-0.0010734722018241,0.0005296287126839,0.0028059498872607
1783205720068788200,4.519788330078125,-0.2503509445484727,0.0247507757011801,-0.0737993957042694,-0.0017999820411205,0.0022247307933866,0.0023132648784667
1783205720078725400,4.529725341796875,-0.2726953166950494,0.0232070533905178,-0.0748474434524774,0.0007241340354084,0.002439968753606,0.0002428509760648
1783205720088662300,4.539662353515625,-0.2625730780661106,-0.0065988137431442,-0.0610708470344543,-0.0011720359325408,0.0003142338246107,0.0017888161819428
1783205720098599400,4.549599365234375,-0.248982432674244,-0.0287289586171507,-0.0619593203067779,0.001113791950047,0.0027399533428251,-0.0015665541868656
1783205720108536600,4.55953662109375,-0.2723374797007069,-0.0121148372182622,-0.0498334137052297,-0.0006707925349473,-0.0004459861665964,0.001433762954548
1783205720118473200,4.56947314453125,-0.2770794865960255,-0.0120732996314764,-0.0586485883235931,0.0010089445859193,-0.0020054480992257,-0.0033495086245238
1783205720128410400,4.579410400390625,-0.2889097347192466,-0.0142921447247266,-0.0635755233317613,-0.0022361176088452,-0.0010022358037531,-0.0034158213529735
1783205720138347300,4.58934716796875,-0.2888543512701988,-0.0034881709093227,-0.0577267973035573,0.0011451672762632,-0.0007969141006469,-0.0041107609868049
1783205720148284400,4.599284423828125,-0.2775975556533783,0.0033847105348482,-0.0646025282919406,-0.000481491908431,-0.0001726690679788,-0.0017227045027539
1783205720158221600,4.6092216796875,-0.2621863803034648,0.0169879596799612,-0.0566600448548793,-0.0013685738667845,0.0018642400391399,-0.0054405583068728
1783205720168158200,4.619158203125,-0.2475475775655359,0.030238705592975,-0.0358534036695957,-0.0022937562316656,0.0012652953155338,0.0013792645186185
1783205720178095400,4.629095458984375,-0.2251607179841026,0.0291899271924048,-0.0579863250225782,-0.0026347935199737,0.0025873957201838,0.0016749741043895
1783205720188032500,4.639032470703125,-0.226328811915405,0.0415593236936256,-0.0608265168845653,-0.0002091871574521,-0.0020598201081156,0.0002038436941802
1783205720197969400,4.648969482421875,-0.2394014247825369,0.0394909564543515,-0.0503425322711467,-0.0007084496319293,-0.0001302156597375,-0.0010100355139002
1783205720207906600,4.658906494140625,-0.2549522643314674,0.0387241368003189,-0.0564706597626209,-0.0009902128949761,0.0009552887640893,-0.0013405338395386
1783205720217843200,4.66884326171875,-0.2660369913170114,0.0360239744635298,-0.0639355888158083,-0.0003556758165359,-0.0001810523681342,0.0017780940979719
1783205720227780400,4.6787802734375,-0.2432448754029348,0.0221121708258986,-0.0600309825927019,0.0023223990574479,-0.0008668163791298,0.0005879271775484
1783205720237717500,4.688717529296875,-0.2426188889916986,0.0131601084874942,-0.0510462966263294,-0.0004259264096617,0.0015419069677591,0.0023856265470385
1783205720247654400,4.698654296875,-0.2461146586855873,0.0217476848950609,-0.0531295326411724,-0.004044895991683,-0.000858134124428,0.0001248691696673
1783205720257591300,4.70859130859375,-0.2396394347894936,0.0317988675817847,-0.057912090742588,-0.0014950213953852,0.0027374729979783,0.0013902143109589
1783205720267528200,4.718528076171875,-0.2508748222921043,0.03144859283939,-0.056720250609517,0.0005404325202107,0.0035587919410318,-0.0013752122176811
1783205720277465300,4.72846533203125,-0.2491075203586369,0.0296777837745845,-0.0649520723819732,8.22367146611e-05,0.000342349987477,-0.0005626766942441
1783205720287402500,4.738402587890625,-0.2475720178870484,0.0280283360671252,-0.0618079291373491,-0.0001577138900756,0.0014712642878293,-0.000649495748803
1783205720297339400,4.74833935546875,-0.2478589816022664,0.0268524241555482,-0.0468383235424757,0.0016661621630191,-0.000435484573245,-0.0025891547556966
1783205720307276300,4.7582763671875,-0.2442574499789625,0.0338442558042705,-0.0595481675118207,-0.0005019176751375,-0.0017407000996172,-0.0006165511440485
1783205720317213200,4.768213134765625,-0.2636563797907904,0.0367794690059497,-0.0604360562622547,0.0006165923550724,-0.0005325907841324,-0.0016842324985191
1783205720327150300,4.778150390625,-0.2632994195792824,0.0340810602348297,-0.0628261662691831,0.0029370049014687,0.0007641022093594,0.0015485789626836
1783205720337087500,4.78808740234375,-0.2580663046987727,0.0115774789385497,-0.0575917727470397,0.0007274020463228,0.002678454387933,0.0010226345621049
1783205720347024400,4.7980244140625,-0.2587784715561196,0.0078057053148746,-0.0577373186975717,0.0004626838490366,-8.4089115262e-06,-0.0011052310001105
1783205720356961300,4.807961181640625,-0.2700739917481318,0.0137038599753752,-0.0607289017289876,-0.0004989979788661,0.0008277241140604,0.0011021420359611
1783205720366898200,4.817898193359375,-0.2786272274946794,0.0143202748406678,-0.0542962383329868,-0.0001442646607756,0.0040850369259715,0.0002318208571523
1783205720376835300,4.82783544921875,-0.2773632719734683,0.008948153348267,-0.0572802225798368,0.001120314002037,0.0011104703880846,-0.000912053626962
1783205720386772500,4.8377724609375,-0.2776883757419884,0.0098064141454175,-0.0616185440450906,0.001618324778974,0.0001245681196451,0.0011183402966707
1783205720396709400,4.84770947265625,-0.271902230088599,-0.0010984992938116,-0.0595201104611158,0.0002526044845581,0.0026895091868937,0.0034692727494984
1783205720406646300,4.857646240234375,-0.2659371111391112,-0.0066318392299115,-0.0547264464437961,-0.0014411658048629,0.0017217164859175,0.0027837750967592
1783205720416583400,4.86758349609375,-0.2562626893429085,0.0056751595595851,-0.0497808067351579,-0.0016423631459474,-0.0002753282897174,3.49271576851e-05
1783205720426520300,4.877520263671875,-0.2695306786516681,0.0001846358519047,-0.0535100563913583,0.0015843221917748,-0.0010649557225406,0.0015212376601994
1783205720436457500,4.88745751953125,-0.2747516281703487,0.0026856954200193,-0.06382043800354,0.000880436040461,-1.06925144791e-05,0.0028973375447094
1783205720446394400,4.897394287109375,-0.2691152297185734,0.0074131258007138,-0.0636591099619865,0.0012330384925007,0.0021549896337091,0.0015447176992893
1783205720456331300,4.907331298828125,-0.2688068213565275,0.0110507151180878,-0.0543821630507707,-0.0008909711614251,0.0023255608975887,-0.0017767876852303
1783205720466268400,4.917268310546875,-0.263741537323594,0.0057739802915602,-0.0566302342385053,0.0036422610282897,0.0008134180679917,0.0015284614637494
1783205720476205300,4.927205322265625,-0.2506901133749634,0.013897519383952,-0.0579705429315567,-0.0009447950869798,-0.0025929193943738,-0.000265595735982
1783205720486142500,4.937142578125,-0.2623029193552211,0.0094194606544449,-0.054819969946146,0.0001739989966154,-0.0001486702822148,-7.89081677794e-05
1783205720496079400,4.947079345703125,-0.2671315816206857,0.0015524536063894,-0.049430093601346,0.0007546013221144,-0.0004028109833598,1.11889094114e-05
1783205720506016500,4.9570166015625,-0.2675269376138225,0.0020821765689179,-0.0583966593891382,0.0002150442451238,-0.0020888587459921,0.0027017802931368
1783205720515954400,4.966954345703125,-0.2598246196081861,0.0069361559387296,-0.0577864185363054,0.0008152034133672,0.0006157578900456,0.0012933157850056
1783205720525890600,4.976890625,-0.2571860877981409,0.0155670600313693,-0.0537409425377845,0.0003297086805105,0.0026080689858645,0.000812348909676
1783205720535827700,4.98682763671875,-0.2507293494068086,0.0117369072839617,-0.052688218614459,0.0017064372077584,0.0021714880131185,-0.0006126973312348
1783205720545764600,4.9967646484375,-0.2524662562020123,0.0195943427860736,-0.0519400305956602,-0.0002424642443656,0.0028114458546042,0.0015665674582123
1783205720555702800,5.006702880859375,-0.2510142307627946,0.0202114152384921,-0.0484948585778474,-0.0004216954112052,0.0005197152495384,0.0010175630450248
1783205720565639400,5.016639404296875,-0.2515307289175689,0.0185584238670766,-0.0544704258561134,0.0004885727539658,0.0031943281646817,-0.0006852620281279
1783205720575576600,5.02657666015625,-0.2538013041980564,0.0104313776433467,-0.0552168603092432,0.000115817412734,-0.0027260072529315,0.0003680759109556
1783205720585513500,5.036513427734375,-0.2574648682069033,0.0063567851481959,-0.049674423751235,0.0021398197859525,0.0006396956741809,0.0019380094017833
1783205720595450600,5.04645068359375,-0.2554680318338796,0.0137908441390842,-0.0664350044161081,0.0010226760059595,-0.0010552299208939,0.0003812536597251
1783205720605387800,5.0563876953125,-0.2565148374730721,0.0072026613878086,-0.0564028552234172,-0.0011137118563055,0.0012462739832699,-0.0018717804923653
1783205720615324400,5.066324462890625,-0.2478079820673912,0.0272024431696161,-0.0608896452486515,-0.0014281878247857,0.0025135439354926,-0.0007561752572655
1783205720625261600,5.076261474609375,-0.2383929783923551,0.0171355149244889,-0.0601344429671764,-0.0002273684367537,0.0028467052616178,0.0003604881931096
1783205720635198700,5.08619873046875,-0.243863591823168,0.0120876934830099,-0.0599725304037332,-0.0001906715333461,-0.0014174575917422,0.0009611248970031
1783205720645135600,5.096135498046875,-0.2484318861193954,0.013644531003572,-0.0440992539674043,-5.61820343136e-05,0.0026718263980001,0.0008615225087851
1783205720655072800,5.10607275390625,-0.2525164885519072,0.0168273257581517,-0.0526268438160419,-0.0002410598099231,0.0019244509749114,0.0016590198501944
1783205720665009400,5.116009521484375,-0.2576836985893547,0.0184119280684739,-0.0572656095325946,0.0010199472308158,-0.0016037048771977,0.0002057326491922
1783205720674946600,5.125946533203125,-0.2476115461798384,0.015953392467834,-0.0494739327430725,-0.0009501921012997,0.0011580027639865,0.0004222814459353
1783205720684883700,5.1358837890625,-0.2568429734488949,0.0159439305197447,-0.0574076483517885,0.0010501081123948,0.0031375302933156,0.0003442508168518
1783205720694820600,5.145820556640625,-0.2569443149315193,0.0113857922913506,-0.0572644404888153,0.0004596496000885,0.0035704157780855,0.0048584463074803
1783205720704757800,5.1557578125,-0.2466818275816738,0.0113699006024748,-0.0487310054212808,-0.0001363661140203,-0.0001478898338973,0.0016661153640598
1783205720714694400,5.1656943359375,-0.2599144167834892,0.0076308967372402,-0.0578553921192884,-0.000655673444271,0.0026226548943668,-0.0004292132798582
1783205720724631600,5.175631591796875,-0.2591665210256353,0.0090626100407913,-0.0446843603789806,0.0026788702234625,0.0011371439322829,0.0020733592100441
1783205720734568700,5.185568603515625,-0.2605240365818143,-0.005262012181431,-0.0587520486980676,0.0011733751744031,0.0005092592909932,0.0007392410188913
1783205720744505600,5.195505615234375,-0.2769794237550348,-0.0107526820195838,-0.0569575664967298,0.0007994668558239,0.0010408265516161,0.0025821484159678
1783205720754442800,5.20544287109375,-0.2765318626506254,-0.0080539079222828,-0.0587426963478326,0.0006862543523311,0.0015432643704116,0.0001338464207947
1783205720764379400,5.21537939453125,-0.2605533357415348,-0.006124985686317,-0.046916064953804,-0.0009254906326532,0.0009150244295597,-0.0005258186720311
1783205720774316500,5.225316650390625,-0.2575300423976033,0.0017085574835538,-0.0582780014455318,0.0017322469502687,0.0010530264116823,0.0018081332091242
1783205720784253700,5.235253662109375,-0.2506618005959317,0.009219846429117,-0.0549812979876995,0.0003359513357281,0.0002104025334119,0.0012368850875645
1783205720794190600,5.245190673828125,-0.2473038319375365,0.0200519138278439,-0.0554243655800819,-0.0010907799005508,0.0001363018527626,0.0008909672033041
1783205720804127700,5.255127685546875,-0.2512355088306591,0.0139333213496953,-0.0560194088637828,-0.0015744101256132,0.0021232864819467,-0.0007801663596183
1783205720814064400,5.265064453125,-0.2526812506595626,0.0081092913713306,-0.0599035568207502,-0.0005533685907721,0.0011376375332474,0.0006331489421427
1783205720824001500,5.27500146484375,-0.2554098353732377,-0.0081988328183069,-0.0509206244200468,0.0011449297890067,0.0019536297768354,-0.0020561111159622
1783205720833938700,5.284938720703125,-0.2707882774973288,0.0041574484730139,-0.0660351914435625,0.0007705390453338,0.0021023075096309,-0.0005707177333533
1783205720843875600,5.29487548828125,-0.2429449426082894,0.010437697786279,-0.0532984594672918,-0.0019733160734176,-4.92604449391e-05,0.0003163812216371
1783205720853812500,5.3048125,-0.2719504166118801,0.0239998112034052,-0.0603349339753389,0.0007068645209074,0.0035575449001044,0.0014553281944245
1783205720863749600,5.31474951171875,-0.2636548454208299,0.0060928735150024,-0.0498579636245965,0.0035633714869618,-0.0032247272320091,-0.0019117062911391
1783205720873686500,5.3246865234375,-0.2563568338997662,0.0101151147684082,-0.0742483085155487,0.0013671703636646,0.0059056575410068,-0.0007472133729606
1783205720883623700,5.334623779296875,-0.2634647296762094,-0.0052153600281104,-0.0510603251516819,0.0030873054638504,0.0010858685709536,0.0003481446765363
1783205720893560600,5.344560546875,-0.2660654502265155,0.0092983915580436,-0.0612304215103387,0.0020338306203484,-0.0008376068435609,-4.60483133792e-05
1783205720903497500,5.35449755859375,-0.2846329341828822,-0.0109012236448004,-0.0486842436701059,-0.0001632776111364,0.0102683082222938,-0.0009565830696374
1783205720913434600,5.3644345703125,-0.2723508141063153,0.0143701053317636,0.020895488512516,-0.0082213161513209,0.0032602816354483,-0.0014807275729253
1783205720923371500,5.37437158203125,-0.2773588515266776,0.0063679641293361,-0.018909283131361,-0.0081848306581377,0.0144500853493809,-0.0019268071046099
1783205720933308700,5.38430859375,-0.3005589637197554,-0.0022149726357311,-0.0120545949310064,-0.0065782908350229,0.0131854433566331,-0.0070678452029824
1783205720943245600,5.39424560546875,-0.2869670396862551,-0.0138040324142202,-0.0343576121538877,-0.01356509514153,0.0130890375003218,-0.0061613051220774
1783205720953182500,5.404182373046875,-0.265550961365737,-0.0506296786494553,-0.0638449879229068,-0.0095300218090415,0.0100238323211669,-0.0062746801413595
1783205720963119600,5.41411962890625,-0.2452880716683343,-0.0692018753135576,-0.0717751964002847,-0.0090391999110579,0.0075585446320474,-0.0052677392959594
1783205720973056500,5.424056396484375,-0.2096841127151623,-0.0492177294922992,-0.0912093801885843,-0.0072139725089073,0.0020460342057049,-0.0025777572300285
1783205720982993700,5.43399365234375,-0.1906340694062411,0.0157433299137279,-0.1058598368316888,-0.00471699424088,0.0034995877649635,-0.0011542976135388
1783205720992930600,5.4439306640625,-0.1971114852594211,0.0713437279141508,-0.0971761796385049,-0.0016266163438558,0.0021966421045362,5.24939969182e-05
1783205721002867500,5.453867431640625,-0.1828003801058977,0.0902272920823656,-0.0934212110191583,-9.63639467954e-05,-0.0010111350566148,0.000571011332795
1783205721012804600,5.4638046875,-0.1945193864069879,0.0704858507094904,-0.0898199716567993,-0.0017778547480702,0.000267528463155,-0.0032153557986021
1783205721022741500,5.473741455078125,-0.2102101824158802,0.0410214174246415,-0.0637596477270126,-0.0017437655478715,-0.0012904210016131,-0.0013415557332336
1783205721032678700,5.4836787109375,-0.2371620483579113,0.0106768037717789,-0.046985038536787,-0.0003162277862429,0.0006097164005041,-0.0010519919451326
1783205721042615600,5.493615478515625,-0.2748213324056938,-0.007186513970606,-0.0417436307519674,-2.72747129201e-05,0.0029309277888387,0.0011086305603384
1783205721052552400,5.503552490234375,-0.2745515024883672,-0.0170747246479615,-0.0478799415498971,-0.0004622526466846,0.0031429433729499,0.0012353188358247
1783205721062489600,5.513489501953125,-0.2772845807140693,-0.0282919919719919,-0.0451911408573389,-0.0051486175507307,0.0066351466812193,0.0015604910440742
1783205721072426500,5.523426513671875,-0.2734733883954584,-0.0311918598656542,-0.0261930103987455,-0.0053790342062711,0.0066275866702198,-2.56551429629e-05
1783205721082363600,5.53336376953125,-0.2607383003870025,-0.0202537748091854,-0.0172159232169389,-0.0078531112521886,0.0086220279335975,-0.0013878620229661
1783205721092300500,5.543300537109375,-0.270793209400773,-0.008433481824398,-0.0249953250467777,-0.0090702706947922,0.0077274022623896,-0.0053617879748344
1783205721102237400,5.553237548828125,-0.297135382479243,-0.0078864424008876,-0.0390630133658647,-0.0094974404200911,0.0104805789887905,-0.0020642618183046
1783205721112174600,5.563174560546875,-0.3049242827897891,-0.0002036145470105,-0.0392132354915142,-0.0120556950569152,0.0090701458975672,-0.0027330997399985
1783205721122111500,5.573111572265625,-0.2911235383111983,-0.0073003861412405,-0.0375678063720464,-0.0084686838090419,0.0097021143883466,-0.0048295399174094
1783205721132048600,5.583048583984375,-0.2801023050159216,-0.0058294368058443,-0.0607774170458316,-0.0078338831663131,0.0099832722917199,-0.0037591734435409
1783205721141985500,5.592985595703125,-0.2485864921592175,0.0037594438650645,-0.068270403149724,-0.0053251851350069,0.0100128334015607,-0.0042667719535529
1783205721151922400,5.60292236328125,-0.2063249019477516,0.0321134134236723,-0.0714081166535615,-0.0077436622232198,0.0032375913579016,-0.0048281303606927
1783205721161859600,5.612859619140625,-0.1991750301931053,0.0478571999951265,-0.0877151083320379,-0.0034791436046361,0.0066038267686963,-0.0009164793882519
1783205721171796500,5.62279638671875,-0.2071872178655117,0.0508756892997771,-0.0744008687287569,-0.0038497829809784,0.0048974524252116,-0.0020618245471268
1783205721181733600,5.632733642578125,-0.2090454860180616,0.0392869765811599,-0.0713993488252162,-0.0050663156434893,0.0017967340536415,-0.001665546093136
1783205721191670800,5.6426708984375,-0.2366026974420994,0.0211216254185885,-0.0740893185615539,-0.004649237729609,0.007451768964529,-0.002990887267515
1783205721201607400,5.652607421875,-0.2475310282895341,0.0008277377947233,-0.0713905809968709,-0.0053587043657898,0.0018431516364216,-0.0001732627861201
1783205721211544600,5.662544677734375,-0.268482265577279,-0.005201002709195,-0.0682458532303571,-0.0050507821142673,0.0078032803721725,-0.0009889956563711
1783205721221481500,5.6724814453125,-0.2615237516762688,-0.0029218787960708,-0.0544867924690246,-0.0032267831265926,0.0039531486108899,-0.0004824623465538
1783205721231418600,5.682418701171875,-0.2643858996417373,0.0127166390363126,-0.0752805741727352,-0.0023829350247979,0.0019733742810785,-0.0034101570490747
1783205721241356500,5.6923564453125,-0.2608561546130106,0.0225439863719046,-0.0549327826708555,-0.0017440430819988,0.0029097418300807,-0.0014109220355749
1783205721251293700,5.702293701171875,-0.2464513067614287,0.0188118141062557,-0.0552326424002647,-0.0014721676707267,0.0029875414911657,-0.0003829312045127
1783205721261230600,5.712230712890625,-0.2503317649239674,0.0249983937866985,-0.061669981971383,-4.63118776679e-05,0.0036578590516,-0.0037377153057605
1783205721271167500,5.72216748046875,-0.2443361412383616,0.0313927709989249,-0.0612257453352212,-0.001992579549551,0.0013727871701121,2.70805321633e-05
1783205721281104600,5.732104736328125,-0.255381522594206,0.0349991431941278,-0.0552349804878234,-0.0006468845531344,0.0012279110960662,-0.0020136996172368
1783205721291041500,5.74204150390625,-0.263883612675406,0.027351788512431,-0.0663128393411636,-0.0011003026738762,0.0021372069604694,-0.0029135062359273
1783205721300978700,5.751978759765625,-0.2633955003648996,0.0417305520746856,-0.0658668491393327,0.0020100036635994,0.0010708775371313,-0.0019134893082082
1783205721310915600,5.76191552734375,-0.2503920802764594,0.0380217424183152,-0.0723012661010027,0.0016661258414387,0.0005527315661311,-0.0011515235528349
1783205721320852500,5.7718525390625,-0.2286588988307863,0.0205353134306147,-0.0541927779585123,0.0002581123262643,0.0014851042069494,-1.3043172657e-06
1783205721330789600,5.78178955078125,-0.2193197003383189,0.0069333429271355,-0.05703180077672,0.0028893575072288,0.0008503454737365,-0.0014281129697337
1783205721340726500,5.7917265625,-0.2315328468319028,0.0082514763209968,-0.0458101495385169,3.84440645575e-05,0.0002346225082874,-8.29503405839e-05
1783205721350663700,5.80166357421875,-0.2466230831317603,0.0084315090630203,-0.041613866892457,0.0003077546134591,-0.0005298084579408,-0.0010028412798419
1783205721360600600,5.8116005859375,-0.2455124550087377,0.0127343025571666,-0.0568733953446149,-0.0008792160078883,0.0018848795443773,-0.0007770052179694
1783205721370537500,5.821537353515625,-0.2528712568063289,0.0040065322276204,-0.0456499905407428,0.0005113240331411,0.0011940891854465,-0.0036728489212691
1783205721380474600,5.831474609375,-0.2438986266039311,0.0168175350164994,-0.0449047251313924,0.0003230385482311,0.0002734344452619,-0.0017037077341228
1783205721390411500,5.84141162109375,-0.2401148337488994,0.0203661491424776,-0.0465460625976324,0.0009480286389589,0.0018890709616243,0.0012609555851668
1783205721400348700,5.8513486328125,-0.2364741391589865,0.0171437712961807,-0.045498599371314,0.0004662629216909,0.0009971782565116,-0.0006818203255534
1783205721410285600,5.86128564453125,-0.2437033232275396,0.0235096165336668,-0.0498316601395606,-0.0004918137565255,0.0019453200511634,0.0004808453377336
1783205721420222500,5.871222412109375,-0.251934195151925,0.0054538449591025,-0.0474392120450735,6.98463991284e-05,0.0009466344490647,0.0023567760363221
1783205721430159600,5.88115966796875,-0.2444815410584211,-0.0077049118215218,-0.0423509489953517,0.003736425191164,-0.0001976201310753,-0.0001151342876255
1783205721440096500,5.891096435546875,-0.2452258566197007,0.0104484749086201,-0.0333785379886627,0.0006436966359615,0.0027981698513031,-0.0001811806578189
1783205721450033700,5.90103369140625,-0.2476367171537131,0.017598547592666,-0.0341308176606893,0.0006610061973333,-0.0005691712722182,0.0028453541453927
1783205721459970600,5.910970458984375,-0.2363813097763806,0.0313831629203632,-0.0389122067183256,0.0029302854090929,0.0018670884892344,0.0016762262675911
1783205721469907500,5.920907470703125,-0.2387477466467767,0.0291746748243458,-0.0389063614994287,0.0010594651103019,-0.0001117503270506,-0.0005512794014066
1783205721479844600,5.9308447265625,-0.2454773471627384,0.020156616311334,-0.0266261411190032,0.0003609182313084,1.28857791423e-05,-0.0004596665967255
1783205721489781500,5.940781494140625,-0.24002978581395,-0.0005955912729725,-0.0367938993901014,2.28052958846e-05,-6.55618496239e-05,0.0008744182996451
1783205721499718700,5.95071875,-0.2492310736730694,0.0102919874389655,-0.0364969622701406,-0.0002509672194719,0.0020718914456665,-0.001176215824671
1783205721509654800,5.96065478515625,-0.2489168931573629,0.0110925814984366,-0.0333557416349649,0.0009425478056073,0.0021335454657673,0.0010355834383517
1783205721519592000,5.970592041015625,-0.2467580346230417,0.0022311748518608,-0.0197346280395984,0.0012514749541878,0.0019561788067221,0.0005484910216182
1783205721529528800,5.98052880859375,-0.2576383616102859,0.0014496325527317,-0.0213823952466249,0.0003274111077189,0.0032572902273386,0.0013061231002211
1783205721539466000,5.990466064453125,-0.2527553388090804,0.0023073270943015,-0.026326281389594,0.001416377723217,0.0020266436040401,0.0022571380250155
1783205721549402600,6.000402587890625,-0.2471718030557036,0.0093359105568379,-0.0254307938545942,-0.0009612552821636,0.0003052991814911,-0.0005570261273533
1783205721559339800,6.01033984375,-0.2593031895499676,0.0017829561603255,-0.0297685307979583,-0.0005101161077618,-0.0012835427187383,-0.0016595749184489
1783205721569277000,6.02027685546875,-0.253073355249688,-0.0074738064793869,-0.0317108970373868,0.0006835479289293,0.0030814744532108,0.0012312508188188
1783205721579213800,6.0302138671875,-0.2500620811371132,-0.0108796876664273,-0.0302034150838851,0.0006001917645335,-0.0005641267634928,0.0006059405859559
1783205721589151000,6.04015087890625,-0.2507445104433223,-0.0033903913569636,-0.0261544319540262,-0.0003657732158899,-0.0007802052423357,0.00040038023144
1783205721599087600,6.050087646484375,-0.2463478829195722,0.001553713981714,-0.0258592483997344,0.0012933770194649,0.0031319784466177,0.0003939885646104
1783205721609024800,6.060024658203125,-0.2543549194928258,0.001491663329862,-0.0207668936967849,-0.0015850123018026,-8.79233703017e-05,-0.0011097455862909
1783205721618962000,6.0699619140625,-0.2482699370233342,0.0079211483880877,-0.0231505739629268,0.0013535190373659,-0.0004080357030034,0.0001986655406653
1783205721628898800,6.07989892578125,-0.2377302766999229,0.0114107440695166,-0.0279378082394599,0.00013118237257,0.0021493043750524,-0.0019413735717535
1783205721638836000,6.0898359375,-0.242529639805667,0.0194884712588042,-0.0221066178679466,-0.0003375336527824,-0.0002198438160121,0.0004352314863353
1783205721648772600,6.099772705078125,-0.2439652986319735,0.0049070612639188,-0.0213461548894643,0.0018733274191617,-0.0010664933361113,0.0009342320263385
1783205721658709800,6.109709716796875,-0.2446719490639865,-0.0038557073137722,-0.0261281284689903,-0.0004761135205626,0.0001913174055516,3.94098460674e-05
1783205721668647000,6.11964697265625,-0.2419413550563156,0.0072115570803172,-0.0142991589874029,-0.0002032844349741,0.0009075361303985,0.0014586844481527
1783205721678583800,6.129583740234375,-0.2337013865100219,0.0190285621294751,-0.0219236625164747,0.001037748530507,0.0011000828817486,-0.0031549755949527
1783205721688521000,6.13952099609375,-0.2308146520925685,0.0174816797473467,-0.0256640180885791,0.0016869781538844,0.0001542526297271,0.0021054523531347
1783205721698457600,6.14945751953125,-0.2323281619280576,0.0181295491968281,-0.0219236625164747,0.0008094664663076,0.0003305538557469,-0.0005696930456906
1783205721708394800,6.159394775390625,-0.2401094634540378,0.0135619307540357,-0.0181681093752384,0.000314095057547,-0.0005044247955083,-3.13161872327e-05
1783205721718332000,6.169331787109375,-0.2427896424487233,0.0043285124572925,-0.0159118548810482,-0.0003993660211563,-0.0009731412865221,0.0014688423834741
1783205721728268800,6.179268798828125,-0.2526125693375244,0.0040395577143877,-0.0199380416572093,0.0001955805346369,-0.001566213555634,0.0013733487576246
1783205721738206000,6.1892060546875,-0.2443041386649012,-0.0010409969529137,-0.0148456869542598,0.0035756649449467,-0.0005270480178296,-0.000303111039102
1783205721748142600,6.199142578125,-0.2434710853742435,0.0059755672782659,-0.0214174665600061,-0.0017703427001833,-0.0028984327800571,-0.0010481913341209
1783205721758079700,6.209079833984375,-0.2371601121291518,0.0201213258022442,-0.0079348846524953,-0.0009367736056447,-0.0026225293986499,0.001313499873504
1783205721768017000,6.219016845703125,-0.2331942772381007,0.0272269565563648,-0.0091249712198972,0.0030145151540637,0.0006089792586863,0.0017583121079951
1783205721777953800,6.228953857421875,-0.232209065593034,0.0233481606279499,-0.0082236384660005,-7.28871673345e-05,-0.0006712018512189,0.000930335605517
1783205721787891000,6.238890869140625,-0.2281584019627422,0.0232596238279715,-0.01495733063519,0.0032055350020527,-0.0003981082700192,-0.0011790372664108
1783205721797827800,6.248827880859375,-0.2354380375768989,0.0143739047240465,-0.0164601364135742,0.000981262885034,0.0012842104770243,0.0038064003456383
1783205721807764700,6.2587646484375,-0.2379183100853115,0.012843261090666,-0.0128653267920017,-0.0006981333717703,0.0016139615327119,0.0008022699039429
1783205721817702000,6.268701904296875,-0.2403733750872314,0.00997470165072,-0.011064999371767,6.00684434175e-05,0.0030028000473976,-0.0012438367120921
1783205721827638800,6.278638671875,-0.233409600489214,0.0136702682330273,-0.0022428104907274,0.0001234700903296,0.0021880343556404,0.001807530876249
1783205721837576000,6.288575927734375,-0.2278431985337287,0.0082870042921043,-0.0109206224650144,0.000690990127623,0.0031395819969475,0.0020631942898035
1783205721847512800,6.298512939453125,-0.2212015320295468,0.0197981217298656,-0.0097270287662744,-0.0009804870933294,0.0010792450048029,0.0003333641216158
1783205721857449700,6.30844970703125,-0.2238063442330807,0.0242527630511671,-0.0094184012085199,-0.0030146101489663,0.0020941756665706,0.0024750784505158
1783205721867387000,6.318386962890625,-0.2455254606207832,0.0181176760959438,-0.018097966748476,0.0012638522312045,0.0020684455521404,0.0008479342795908
1783205721877323800,6.32832373046875,-0.2372886338796466,0.0094883611721917,-0.0031418051570653,0.0012223068624734,0.0032666018232703,0.0026564868167042
1783205721887261000,6.338260986328125,-0.2408635697569698,0.0001834302755072,-0.007778817307949,-0.0001257294788956,0.0013730158098042,0.0009676476474851
1783205721897197800,6.34819775390625,-0.2387606791935861,-0.0090681264661252,-0.0058341129809617,0.0005379300564527,0.0017631691880524,-0.0029056537896394
1783205721907134700,6.358134765625,-0.2401189984673634,0.0057796245810575,-0.0064279872208833,-0.0003561051562428,-0.0016003982163965,0.0023202390875667
1783205721917072000,6.36807177734375,-0.2410849574226886,0.0063999301701784,-0.0010322656571865,6.65383413434e-05,-0.0003977147862315,1.55393499881e-05
1783205721927008800,6.3780087890625,-0.2372536721641197,0.0076131053522229,-0.0020703765332698,0.000787247903645,-0.0015549855306744,-0.001122805988416
1783205721936946000,6.38794580078125,-0.2440372678896412,0.0055526474247686,-0.0020674539238214,0.0016181543469429,0.0014229612424969,-0.0014463800471276
1783205721946882800,6.3978828125,-0.2308275481067597,0.0129488038243725,-0.0062526306539773,-0.0033870516344904,0.001200767699629,-0.0012241045478731
1783205721956819700,6.40781982421875,-0.2222792807962745,0.0173852519018575,-0.0046042789250612,-0.0019263084977865,0.0010023624636232,0.0012222749646753
1783205721966756900,6.4177568359375,-0.2377607083708047,0.0141657235997729,-0.0078910455107688,-0.0001329611986875,0.000761283095926,0.0007088538259267
1783205721976693800,6.42769384765625,-0.2441604558778926,0.0033771482829004,-0.0196978031605482,-0.0005526756867766,-0.001408128067851,-0.0013146159471943
1783205721986631000,6.437630859375,-0.2420019992023706,0.0042146402866579,-0.0152045833945274,0.0033016549423336,-0.0005192677490413,-0.001318933092989
1783205721996567800,6.44756787109375,-0.2409602350644767,0.0072911251225508,0.0038093291550874,-0.0021319929510354,-0.0008031604811549,-0.0007684577722102
1783205722006504700,6.457504638671875,-0.2473041607310995,0.0074065499294549,-0.0126402858644723,0.0015340195968747,-0.0016837231814861,-0.0018461297731846
1783205722016441900,6.46744189453125,-0.2434395211922004,0.0165147161450237,-0.0078507135003805,0.0003225477412343,0.0027216777671128,-8.76444391906e-05
1783205722026378800,6.477378662109375,-0.2377449628124013,0.0089738175124861,0.0006873977422714,-0.0019869515672326,-0.0018986701034009,0.0013293414376676
1783205722036316000,6.48731591796875,-0.2333209358250722,0.0148505823250859,0.0023462708652019,-0.0008875988423824,0.0001783296465873,-0.0001425875816494
1783205722046252800,6.497252685546875,-0.2304466590303927,0.0074579513231292,-0.0055751697838306,0.0007567591965198,-0.0010324781760573,0.0007594253402203
1783205722056189700,6.507189697265625,-0.2372692715920507,0.006360657605715,-0.0051221653193235,-0.000648058950901,0.0006572976708412,0.0007881873752921
1783205722066126800,6.517126953125,-0.2390434416577219,0.0121605760561302,-0.0037631519258022,-0.001120931468904,0.0020843190141022,0.0019555063918232
1783205722076063700,6.527063720703125,-0.237196242888458,0.0185885998096317,0.0007283142745494,-7.69719481468e-05,-0.0003500767052173,-0.0008077898528426
1783205722086001000,6.5370009765625,-0.2395341112514957,0.0114279691989533,0.0002875847697257,0.0016995808109641,-0.0010979510843753,-0.001924505806528
1783205722095937800,6.546937744140625,-0.2321731905620545,0.0181527108767069,-0.0031453122884035,0.0017006462439894,-0.0007943506352603,0.0013626338914036
1783205722105874700,6.556874755859375,-0.2324098123295232,0.010612031439878,0.0007511106282472,-0.0009205238893628,0.0003011263906955,0.0013619605451822
1783205722115811800,6.566811767578125,-0.230083890132606,0.0212514440770261,-0.00417757794559,0.00126673001796,-0.001004621386528,0.0002839129883795
1783205722125749000,6.5767490234375,-0.2339343550156802,0.0236588888112455,0.0052525137007236,0.0009695477783679,1.68173573911e-05,0.0006698914803564
1783205722135686000,6.586685791015625,-0.2319623608229681,0.0112811080741696,-0.0058089785397052,-0.0013444731011986,0.0017593232914805,0.0017103888094425
1783205722145622800,6.596622802734375,-0.2322195504544302,0.0107062307956628,-0.0149251819312572,0.0001455713063478,-0.0027467384934425,0.0003848697524517
1783205722155559700,6.6065595703125,-0.2367656329188495,0.0086352149415761,-0.0054933367192745,0.0013415962457656,-0.0012188833206892,-0.0015698904171586
1783205722165496800,6.616496826171875,-0.2309227521095424,0.0119449788103811,-0.0111737204432487,0.0011969078332185,-0.002316789701581,-0.0008406480774283
1783205722175434000,6.62643408203125,-0.2302371809981763,0.0096225454784929,-0.0035346038669347,-0.001081958413124,0.0009953831322491,-0.0009610229171812
1783205722185371000,6.636370849609375,-0.2292090069942176,0.0136254427106119,0.0100888478159904,0.0021277843043208,-0.001801498234272,-0.0001978133805096
1783205722195307800,6.646307861328125,-0.2325414028199389,0.0072772427276708,0.0038122517645359,0.0017381636425852,0.0020872498862445,0.0018110089004039
1783205722205244000,6.656243896484375,-0.2316683097798377,0.0245578652112744,0.0014145429730415,0.0011066710576415,4.79635782539e-05,0.0022731656208634
1783205722215180800,6.666180908203125,-0.2393071340952068,0.0220102813540026,-0.0051589901983737,-0.0009527513757348,0.000310817733407,-6.29595015197e-05
1783205722225118000,6.676117919921875,-0.2395589168991893,0.01463608105788,-0.0015641805768013,0.0012070517987012,0.001053100451827,-0.0005671286489814
1783205722235054800,6.686054931640625,-0.2363545678999274,0.0169864618426188,-0.0084375734776258,0.0005007814615964,-0.0012686434201896,0.0006925466004759
1783205722244991700,6.69599169921875,-0.2329582399925217,0.0095240170074626,-0.0043926820009946,0.003953268751502,0.0017028781585395,-0.0015409281477332
1783205722254929000,6.705928955078125,-0.2323361991040408,0.0052700858900323,-0.0036398178070783,-0.0023309923708438,-0.0014348579570651,4.89789526909e-05
1783205722264865800,6.71586572265625,-0.2289122890699654,0.0047248913637362,-0.0015302783071994,-0.0010267896577715,-0.0007501686923205,-0.0009998610476031
1783205722274803000,6.725802978515625,-0.2349989885725081,0.0103326299766078,0.0019172317981719,0.0005860207602381,0.0028674695640802,-0.002280575223267
1783205722284739800,6.73573974609375,-0.2346036325793713,0.0073221047827042,0.0019213234513998,-0.0014848979189991,0.0001412779092788,0.0017313996795564
1783205722294676700,6.7456767578125,-0.2287435814395546,0.0115868495550937,-0.0001642506510019,0.0006754584610462,0.0017311852425336,0.0017638902645558
1783205722304614000,6.75561376953125,-0.2362382115112617,0.0022142237170599,-0.002847790646553,0.0011588335037231,0.0006148144602775,0.0010025999508798
1783205722314550800,6.76555078125,-0.2321880958702415,-0.0050947658557444,0.0062859484016895,0.0004214039072394,0.0014060395769774,-0.0012855880195274
1783205722324488000,6.775488037109375,-0.2316269183235242,0.0067738232501782,0.002847790646553,0.0006997510790824,0.000260847620666,-0.0003010393120348
1783205722334424800,6.7854248046875,-0.2441937005603685,0.0079439630080945,0.0051005380094051,-0.0006020022556185,-0.0018752734176814,0.0012497194111347
1783205722344361700,6.79536181640625,-0.238209621182084,0.0124019105313345,-0.0098497783631086,-0.0005743820220232,6.58361241221e-05,0.0012314682826399
1783205722354299000,6.805298828125,-0.2426313831470906,0.0149788666135631,0.0027273791372776,7.86250457167e-05,-0.000872129574418,-0.0010109135182574
1783205722364235800,6.81523583984375,-0.2369113980650901,0.0196228199618868,0.0019867899030447,0.0015447670593857,-0.0008739246986806,-6.33785966783e-05
1783205722374173000,6.8251728515625,-0.2278385954238474,0.0068986734725534,-0.001900280663371,0.0006861640140414,0.0001319511793553,0.0001773710828274
1783205722384109800,6.83510986328125,-0.2255859211262315,0.0045050563342869,-0.0111649526149034,0.0011751810088753,-0.001590484753251,-0.0019869150128215
1783205722394046700,6.845046630859375,-0.2205036859584972,0.0179925884115509,0.0024631752431392,-0.0009052800014615,0.0014569703489542,0.0017468365840613
1783205722403984000,6.85498388671875,-0.2195561759753152,0.0223110909314826,-0.0089069445550441,0.0003403788432478,0.0004105204716324,0.0011449242010712
1783205722413920800,6.864920654296875,-0.2182804934836923,0.0157044592080637,-0.007250994041562,0.0019774232059717,-0.0030979281291365,-0.0002068963367491
1783205722423856600,6.874856689453125,-0.2333107432246208,0.0061713455786928,-0.0002098433583974,-0.0006640506908297,-0.0002966416068375,-0.0003567021340131
1783205722433793800,6.884793701171875,-0.2348435057498514,0.0113291849995963,-0.0037929625421762,0.0015676775947213,-0.0002074260264635,0.0007168180309236
1783205722443731000,6.89473095703125,-0.2359860633810982,0.009052106913086,-0.011868716970086,0.0004068668931722,-2.54227779805e-05,0.0015414902009069
1783205722453667800,6.904667724609375,-0.226034907002747,0.0013195033670403,0.0002595277190208,0.0006537418812513,-0.0009378218092024,-0.0002449580933898
1783205722463605000,6.91460498046875,-0.229485010924004,0.0048258857864886,0.008942600390315,0.0013368390500545,0.0018201484344899,-0.0007905147504061
1783205722473541600,6.924541748046875,-0.2276691206084564,0.0039788222367875,0.0047521629631519,0.0001783631742,0.0030667742248624,-0.0008381854277104
1783205722483478800,6.934478759765625,-0.232946586087346,0.0188797465096227,-0.0063256958901882,0.0002286210656166,0.00176886562258,0.0006226641125977
1783205722493416000,6.944416015625,-0.221324318158999,0.012726100984402,-0.0057283145189285,0.0011665867641568,-0.0007462236098945,-0.0006631100550293
1783205722503352800,6.954352783203125,-0.221043564988859,0.0158060198863968,-0.0120107557892799,-0.0001134946942329,-0.0014204955659806,0.0015371399931609
1783205722513290200,6.964290283203125,-0.2122860023092478,0.0214043148174881,-0.0010749357551336,-0.0021857004612684,-0.0020737689919769,0.0028338329866528
1783205722523227100,6.97422705078125,-0.2179641575435176,0.012279051336646,0.0044675008028745,0.0009071212261915,-0.0002822331152856,-0.0018516356358304
1783205722533164000,6.9841640625,-0.2268338022954761,0.0146310395565815,-0.0025596213549375,0.0007515931501984,0.002474138746038,0.000679699005559
1783205722543101200,6.99410107421875,-0.238813688022457,-0.0013640548948198,-0.003013794863224,0.0008198730647563,0.0008814642205834,-0.0002325545065104
1783205722553038000,7.0040380859375,-0.2383356587145477,-0.0002383935994468,-0.0066062663972377,-0.0001857364550232,0.0013848016969859,0.0007504182867705
1783205722562975200,7.013975341796875,-0.2322267839128151,-0.0045275056281127,-0.0130371762275695,0.0006182324141263,-0.0010874029248952,-0.0017607923364266
1783205722572911000,7.0239111328125,-0.2295584414863958,0.0115276484474539,-0.0068926821231842,0.0012845546007156,0.000923017039895,0.0007311275694519
1783205722582848000,7.033847900390625,-0.22441607362926,0.0213132755331695,-2.9226094484e-06,0.0030298018828034,0.0017103916034102,0.0023565832525491
1783205722592785200,7.04378515625,-0.2181237685520201,0.0309783815117552,-0.0032914427608251,0.0004452047869563,-0.0020358772017061,0.0039358376525342
1783205722602722000,7.05372216796875,-0.2122231296734884,0.0315547383612953,-0.005225625693798,0.0019938433542847,-0.0008211210370063,-0.0003287880681455
1783205722612659200,7.0636591796875,-0.2271482020068913,0.0164727766994386,0.002407645663619,0.0001301635056734,0.0008848998695611,0.0004248863551765
1783205722622596000,7.07359619140625,-0.2363147838788107,0.0169611630045808,0.0118383218318223,-0.0026808390393853,-0.0001974236220121,-0.0001774842385202
1783205722632533000,7.083532958984375,-0.2410280761362984,-0.0005585654645226,0.0094534725219011,0.0017519919201731,-0.0005356450565159,-0.0002331442665308
1783205722642470100,7.09347021484375,-0.2373318884994834,0.0044167021973989,0.001381809747219,0.0003452310338616,-1.99996866285e-05,0.000174326589331
1783205722652407300,7.1034072265625,-0.2373626854965463,0.0197290020164102,-0.0026548984229564,0.0006482992321252,0.0012402078136801,-0.0030821866821497
1783205722662344200,7.11334423828125,-0.2343583160487934,0.0196645219454541,-0.0023415946900844,-0.0018847836181521,-0.0021558948792517,0.0006669675931334
1783205722672281000,7.123281005859375,-0.2326889945970848,0.0251823172525502,0.0015612579673528,-0.0004773028194904,-0.0012837098911404,-0.0009727407013997
1783205722682218000,7.133218017578125,-0.2361380025397986,0.0226763257809914,-0.0201361945778131,0.0020522410050034,0.0002129124477505,-0.0005308599211275
1783205722692155100,7.143155029296875,-0.22835936789494,0.0320855573023669,-0.0105564653277397,0.0039697168394923,-0.0039938166737556,-0.0004901136271655
1783205722702092300,7.15309228515625,-0.2347159338474273,0.0362365029693581,-0.0121954647064208,0.0016771806403994,-0.0002321624197065,-0.0022976086474955
1783205722712028000,7.16302783203125,-0.219935603746958,0.0218376647334545,-0.0165261873871088,0.0017938269302248,-0.0021086260676383,-0.0031138677150011
1783205722721965000,7.172965087890625,-0.2116462431009858,0.0483277766489423,-0.0039472763210535,0.0019238451495766,-0.0004313704557716,-0.0019511345308274
1783205722731902200,7.182902099609375,-0.2012150115881115,0.039605157418549,-0.0033352819025516,8.4992498159e-06,-0.0049166660755872,-0.0008453901391476
1783205722741839000,7.192839111328125,-0.1911728159254416,0.0406495701712556,-0.0091635496646165,0.0008249692618846,-0.0016773855313658,-0.0012850860366597
1783205722751776300,7.2027763671875,-0.1963388203864917,0.0584962290397845,0.0062567223072052,0.00218983925879,-0.0015982897020876,0.0011511738412082
1783205722761713200,7.212713134765625,-0.1790350727556273,0.027344134928938,-0.0039122050076723,0.0014547258615493,0.0031514735892415,-0.0020263805054128
1783205722771650000,7.222650146484375,-0.1986472069267183,0.0269018345215357,0.0022281974434852,-0.0010302700102329,-0.0017769723199307,-0.0019970857538282
1783205722781587200,7.232587158203125,-0.2016835424153134,0.0029394692516885,0.0154173493623733,-0.0016238754615187,0.0008229105733335,-0.0005290210247039
1783205722791524000,7.242524169921875,-0.2427253815734759,0.0030891068554483,0.0335322672456502,-0.001885131932795,0.0025212082546204,-0.0006139758042991
1783205722801461200,7.252461181640625,-0.259606592943333,0.0016203494771383,0.021266659912467,-0.0009648902341723,0.000536510720849,0.0016379465814679
1783205722811398100,7.262398193359375,-0.2448237420922145,0.0083359945329837,-0.0216781633228063,0.0008460599929094,0.0009362511336803,0.0011599089484661
1783205722821334000,7.272333984375,-0.2161142553605139,0.0090054547597654,-0.0296165551066398,0.0035972036421298,0.0017922343686223,0.0017646504566073
1783205722831271200,7.282271240234375,-0.1966692579172551,-0.0091699794054031,-0.0080599723368883,0.0006999503821134,-0.0020704139024019,-0.0016236894298344
1783205722841208300,7.292208251953125,-0.2066140576200559,0.003306658596266,0.0107961193025112,-8.23801383376e-05,0.0016067675314843,-0.0006081771571189
1783205722851145000,7.30214501953125,-0.2019016056127846,-0.013510072702635,0.0010743512332439,0.0011426741257309,-0.0010790303349494,0.000453092623502
1783205722861082000,7.31208203125,-0.2270973486024886,0.0270151404365897,0.0114092827647924,-0.0027781166136264,0.0007534152828156,-0.0003518015146255
1783205722871019000,7.32201904296875,-0.2489319080634042,0.0207014455114491,0.0018342296898365,0.0021719010546803,0.0041774413548409,0.0017478349618613
1783205722880956200,7.3319560546875,-0.2551223967339843,-0.0123473673325031,0.0034831659406423,-0.0014925729483366,-0.002009785734117,0.0006697785574942
1783205722890893300,7.341893310546875,-0.2134131431756541,0.0018681319594383,0.0063368018060922,-0.0002422183752059,0.0004757423885166,0.0011137274559587
1783205722900830000,7.351829833984375,-0.2057018381459638,-0.0260138361732475,-0.0098240593999624,0.000289755873382,-0.0006508459337055,0.000636697281152
1783205722910767000,7.36176708984375,-0.2118928017405792,-0.0016735227027907,0.0008113163828849,-0.0020010955631732,-0.0005139596760272,0.0006713184993714
1783205722920704000,7.3717041015625,-0.2093940437274053,0.0087448493285104,-0.0032172084808349,0.0025562057271599,-0.002801498863846,0.0007731940131634
1783205722930640100,7.38164013671875,-0.2048574597436934,-0.0020755276324227,-0.0047089083433151,0.0016810912638902,0.0031818253919482,0.0010280585847795
1783205722940577000,7.391576904296875,-0.2460222311617806,-0.0179770985814742,-0.000518470916152,-0.0023790374398231,0.0002002594992518,-0.0004415451548993
1783205722950514200,7.40151416015625,-0.2390941123990342,-0.0230184537495486,0.0024964929908514,-0.0008993847295641,-0.0019419873133301,-0.0044269654899835
1783205722960451000,7.411451171875,-0.2494781072366982,0.00807131571481,-0.0238274503111839,0.0018672915175557,-0.0028977575711905,0.0018649436533451
1783205722970388200,7.42138818359375,-0.2431639921864494,0.0127079808058217,-0.0045218613386154,0.0012760702520608,-0.0018090577796101,0.0017030234448611
1783205722980325000,7.4313251953125,-0.2192654128678142,0.0117881077482365,0.0029810616374015,-0.001997604034841,-0.0042134476825594,-0.0038940794765949
1783205722990262000,7.441261962890625,-0.1997490306887775,0.0100759883344173,0.0040495676517486,-0.00128760561347,-0.0003414773382246,0.0011632633395493
1783205723000199200,7.45119921875,-0.1848855888821184,0.0116411918245255,-0.0074567457467317,0.0004295464605093,-0.0025720745325088,0.002051563700661
1783205723010136000,7.461135986328125,-0.1973267354452982,0.0201293447119183,-0.0102870007365942,-0.0018346728757023,0.0021790049504488,9.06782224774e-05
1783205723020073200,7.4710732421875,-0.2208707291726022,0.0136782323437742,0.0205529586851596,-0.002717463299632,-0.0030456371605396,-0.0008996967226266
1783205723030009000,7.481009033203125,-0.219803538332507,0.0049440870723687,0.0187760121405124,-0.0017366213724017,0.0008654813282191,-0.0020424590911716
1783205723039946000,7.490946044921875,-0.2315346003975719,0.0008466068919748,0.0086000705629587,-0.000267463736236,0.0041030128486454,-0.0006220547948032
1783205723049883100,7.500883056640625,-0.2205293683890253,-0.0068454089153558,0.0187847799688577,-0.0052571631968021,0.0002025472931563,0.001242690719664
1783205723059820300,7.5108203125,-0.2052879601154476,0.0205804312139749,0.0080237319797277,-0.0015491666272282,0.0010012071579694,0.0019537736661732
1783205723069757200,7.520757080078125,-0.2058677327647805,0.0193849926180206,-0.0042354456126689,-0.0011496925726532,-0.0013572885654866,-0.0012153879506513
1783205723079694000,7.530694091796875,-0.2076660143584013,0.0388548687742091,-0.010067220506072,-0.0020862901583313,0.0036576371639966,0.0033137467689812
1783205723089631000,7.540630859375,-0.211916621007584,0.029910149492044,0.0062491235226392,-0.0020018676295876,0.0007097842171788,0.000596789875999
1783205723099568000,7.550568115234375,-0.2137651349510997,0.0234442962124943,-0.0009346505016088,0.0007600132375955,0.0050986213609576,0.0018577959854155
1783205723109505300,7.56050537109375,-0.2190398239510133,0.0151677950480952,0.0072848963111639,-0.0002392046153545,0.0035790218971669,0.0024556757416576
1783205723119441200,7.570441162109375,-0.2191985216440632,0.0019326668293215,0.0120703770220279,0.0017946530133485,0.0010233856737613,0.0035449324641376
1783205723129378000,7.5803779296875,-0.2197636081809177,-0.0064863298119977,-0.0011012392401695,-0.0020291144028306,0.0010276464745402,0.0017353144939988
1783205723139315200,7.590315185546875,-0.2129686508111655,-0.0008274272674694,-0.0054430678367614,0.0013236040249466,0.0033738100901246,0.0025474890135228
1783205723149252000,7.600252197265625,-0.2289462644048035,0.0154385017482563,-0.0117313543260097,-0.0015872307121753,0.0001497874036431,-9.70296096056e-05
1783205723159189200,7.610189208984375,-0.2099864931952208,0.0006548654458485,0.0009960253000259,-0.0010006735101342,0.0074389013461768,0.0009831076022237
1783205723169126100,7.620126220703125,-0.2325509378332644,0.0048497233198024,0.0147562551051378,-0.000775103457272,-0.000666962005198,0.0003977448213845
1783205723179063000,7.63006298828125,-0.2221582116998732,-0.0068396367616951,-0.0019955577313899,-0.002012001350522,0.0023795787710696,0.0033829978201538
1783205723189000200,7.640000244140625,-0.2248991444384679,-0.0035511531429365,-0.0174158297032117,-0.0002119708806276,0.0025055464357137,0.0025741958525031
1783205723198936300,7.649936279296875,-0.2423010917467996,0.0280392410536296,-0.010977321088314,0.001619353890419,5.40479086339e-05,0.0004405311774462
1783205723208873000,7.659873046875,-0.2376746375225484,0.0470908917977474,-0.0281920752614736,0.0013181501999497,0.0003941333852708,0.0006093755364418
1783205723218810000,7.66981005859375,-0.2105372954783961,0.0225824734850786,0.0017331074029207,0.002839989028871,-0.000488449819386,-0.0011653510155156
1783205723228747000,7.6797470703125,-0.1917996791195124,0.0057003305334597,0.0068429977625608,-0.0010319808498024,0.0008503212593495,9.80526674538e-05
1783205723238684200,7.68968408203125,-0.2193626261645928,0.0006374759196303,0.0215104055404663,-0.0003083012998104,-0.0001837941817939,-1.8409686163e-05
1783205723248621300,7.699621337890625,-0.2032905757531523,-0.030998401386477,0.0117880529493093,-0.0011514574289321,0.000674276612699,0.0003168822731822
1783205723258558000,7.709557861328125,-0.2259927118288353,0.0103480832740664,-0.0108078097403049,-0.0004372615367174,0.006245297845453,0.0025574536994099
1783205723268495000,7.7194951171875,-0.2089240515954792,0.0083391911370679,0.0108960725456476,-0.0041100261732935,0.0024156721774488,0.0008008326403796
1783205723278431200,7.72943115234375,-0.203877545328252,0.0326096907743252,0.0185386962532997,-0.002436002716422,0.0018814876675605,0.0037193493917584
1783205723288368000,7.7393681640625,-0.2051980898749083,0.0382464180196635,-0.0067383683443069,-0.0020125601440668,0.0011874679476022,-0.0001393046695739
1783205723298305000,7.749304931640625,-0.2011246664235368,0.0876574781269766,-0.028879473003745,-0.0021100342273712,0.0010982514359056,0.001040905714035
1783205723308242200,7.7592421875,-0.1803806421456858,0.0599317052030004,-0.0107733229488134,0.0004165060818195,0.004155826754868,0.0031770272180438
1783205723318179000,7.769178955078125,-0.2239751614613458,0.0408922015544027,0.0218412449300289,-0.0041437381878495,0.0005428306758403,0.0001497725024819
1783205723328116200,7.7791162109375,-0.2173459525799378,-0.016551559290383,0.0284252994954586,0.0003793742507696,0.0057338643819093,0.0009436607360839
1783205723338053000,7.78905322265625,-0.2288017779001966,-0.0309362959356978,-0.0069037880390882,-0.0012469040229916,0.0075612068176269,0.0009181946516036
1783205723347990000,7.798989990234375,-0.2320633004467934,0.0039788587694056,-0.0024222587108612,-0.0018604965880513,-0.0006365356966853,0.0051209293305873
1783205723357926100,7.808926025390625,-0.1875087769925594,0.0205014659599401,-0.0034638767182826,-0.0036523258313536,0.0053441869094967,0.0038910012226551
1783205723367863300,7.81886328125,-0.195760143715702,0.0511197454550303,-0.0025590368330478,0.0011448264122009,-0.0028290543705224,-0.0007937652990221
1783205723377800200,7.82880029296875,-0.1997846134588122,0.0748843048641458,-0.0235012870967388,-0.0008546207100152,0.002496144734323,-0.0004728347994387
