time,seconds_elapsed,ax,ay,az,gx,gy,gz
1783205701665899300,0.099899169921875,-0.7860618954453616,0.646127574250102,-0.10089666146636,-0.0125447772443294,0.0033300789073109,0.0104048503562808
1783205701675836400,0.10983642578125,-0.7954983437672257,0.6409878002088517,0.0173106157630681,-0.0110438931733369,0.0045337863266468,0.0058066071942448
1783205701685773300,0.119773193359375,-0.792144649425149,0.6499073850497603,-0.0294382759302854,-0.0056174350902438,0.0028999368660151,0.0071951793506741
1783205701695709200,0.129709228515625,-0.7941801738407462,0.6395805637594312,-0.1316582949548959,-0.0054284259676933,0.010083139874041,0.0034817939158529
1783205701705646300,0.139646240234375,-0.7938771723061799,0.6305808263543993,-0.0792073922276496,-0.0157918501645326,0.0058039724826812,0.0050993980839848
1783205701715583200,0.149583251953125,-0.7770289133578538,0.641218394094333,-0.0155956285387277,-0.017831003293395,0.0036254432052373,0.0059220036491751
1783205701725520400,0.159520263671875,-0.7687734915141016,0.652878802075982,-0.0560275921702384,-0.0064582405611872,0.004033172968775,0.0071523841470479
1783205701735456300,0.169456298828125,-0.7736202739581465,0.6515161354206502,-0.1221247429341077,-0.0031317360699176,0.0068573141470551,0.0083577837795019
1783205701745393200,0.17939306640625,-0.7694309325095265,0.6460667839735746,-0.1217874738037586,-0.0066513698548078,0.0036500692367553,0.0082256905734539
1783205701755330300,0.189330322265625,-0.7732904574818908,0.6441354505848139,-0.0511895044893026,-0.0109768416732549,0.0003375671803951,0.0062503786757588
1783205701765266200,0.19926611328125,-0.7707672956798225,0.6269356017198413,-0.0667594140648841,-0.0070177875459194,-0.0024643447250127,0.0059102931991219
1783205701775203300,0.209203369140625,-0.7845117433939128,0.6221218447625637,-0.1235258419036865,0.0002765981480479,0.0004635015502572,0.0095411455258727
1783205701785140200,0.21914013671875,-0.7963445853330194,0.6150653503797948,-0.1190016424775123,-0.0022025387734174,0.0041706222109496,0.0069344439543783
1783205701795076400,0.229076416015625,-0.7890839466802776,0.616626023825258,-0.0520382302731275,-0.0088446736335754,0.0032645552419126,0.0067538013681769
1783205701805013200,0.23901318359375,-0.7762821866437792,0.621619082872197,-0.0110550624996423,-0.0074086980894207,-0.0006710644811391,0.0044962400570511
1783205701814950100,0.2489501953125,-0.7722497893225401,0.6193764915771782,-0.0495610265046358,-0.0071183927357196,0.0011254725977778,0.0041003199294209
1783205701824886300,0.25888623046875,-0.7769997603286057,0.6188367586772888,-0.1073988829672336,-0.0024924827739596,0.0006136130541563,0.0087853530421853
1783205701834823400,0.268823486328125,-0.7790212562188505,0.6159834150727838,-0.0908715265363454,-0.003281207755208,0.0027063032612204,0.0046678241342306
1783205701844760000,0.278760009765625,-0.7772825227927416,0.6152744630858302,-0.0563777207821607,-0.0077955331653356,0.003185938578099,0.0058177770115435
1783205701854696200,0.2886962890625,-0.7836223202735185,0.6123058956038206,-0.0516612136542797,-0.0069502471014857,0.0047322381287813,0.0062313759699463
1783205701864633300,0.29863330078125,-0.7826934419255703,0.6199501267466694,-0.0570043282479047,-0.0063797980546951,0.0055231968872249,0.0042662294581532
1783205701874570500,0.308570556640625,-0.7585495460763573,0.6164899032901973,-0.0771422763913869,-0.0069951908662915,0.0047206282615661,0.0069768331013619
1783205701884506000,0.318506103515625,-0.7558747739091515,0.6137312522318213,-0.0930921251952648,-0.0067349998280406,0.0049288873560726,0.0059059760533273
1783205701894443300,0.328443359375,-0.7610843252509832,0.6206218154631554,-0.0823947900921106,-0.0029088705778121,0.0029304781928658,0.0067477077245712
1783205701904380400,0.33838037109375,-0.7685288691032678,0.6035849751401692,-0.0847165110379457,-0.0041837254539132,0.0017360504716634,0.0043018604628741
1783205701914316300,0.34831640625,-0.7753411794666201,0.6080238343704492,-0.086457801747322,-0.0031850198283791,0.0046254787594079,0.0057576256804168
1783205701924253200,0.358253173828125,-0.7739910800319164,0.6039901218749583,-0.087463179397583,-0.0062401974573731,0.0023751072585582,0.0050636059604585
1783205701934190300,0.3681904296875,-0.765495054365322,0.6038180532436818,-0.0805108760416507,-0.0058854278177022,0.0009689331054687,0.005747334100306
1783205701944126500,0.37812646484375,-0.7578787341427058,0.6124721920814364,-0.0790939949810504,-0.0045975232496857,0.002824624069035,0.0048288097605109
1783205701954063000,0.38806298828125,-0.7591161669831723,0.6134887487128377,-0.0788899968415498,-0.0057989321649074,0.0053994948975741,0.0054874997586011
1783205701964000300,0.398000244140625,-0.7605119321905076,0.6104134329207241,-0.0828869575232267,-0.0071984240785241,0.0032908036373555,0.0059186653234064
1783205701973937200,0.407937255859375,-0.7628674092754721,0.6008193098191171,-0.0838894125640392,-0.0079422704875469,0.0074504930526018,0.0063572060316801
1783205701983873300,0.417873291015625,-0.7690114649884402,0.5974389466658234,-0.0824959123790264,-0.0066280011087656,0.0037479000166058,0.0054796943441033
1783205701993810200,0.42781005859375,-0.7703400832436978,0.5884878707081079,-0.0975701473921537,-0.0051709050312638,0.0022398959845304,0.0062156664207577
1783205702003747300,0.437747314453125,-0.7608027318306266,0.589124195850268,-0.092571316191554,-0.008194126188755,0.0038132909685373,0.0072489725425839
1783205702013683200,0.44768310546875,-0.7592115901816636,0.6007241788815707,-0.0986655414134264,-0.006223059259355,0.0054363631643354,0.0034506828524172
1783205702023620400,0.457620361328125,-0.7555570862621068,0.5976990589067339,-0.0836409907609224,-0.007292584516108,0.0037372661754488,0.0064728381112217
1783205702033557200,0.46755712890625,-0.754574943356961,0.5964051466386765,-0.0909048442840576,-0.006106361746788,0.0053601018153131,0.0056869862601161
1783205702043493400,0.477493408203125,-0.7568384313095361,0.5849080394599586,-0.0986655414134264,-0.0033137714490294,0.005464497487992,0.0043261111713945
1783205702053430300,0.48743017578125,-0.7621857106216251,0.585091506268084,-0.09054594784379,-0.0067313257604837,0.003274155780673,0.0066342749632894
1783205702063367400,0.497367431640625,-0.7714081508666276,0.5948802751589566,-0.0958680196493864,-0.0066498331725597,0.0013500219210982,0.0068001896142959
1783205702073303300,0.50730322265625,-0.7661553449049592,0.5982666296616196,-0.1089911205947399,-0.0049278708174824,0.0032930611632764,0.0051895817741751
1783205702083240200,0.517240234375,-0.7565231548152863,0.590261310121417,-0.1074316161930561,-0.0063702380284667,0.004174833651632,0.005709963850677
1783205702093177300,0.52717724609375,-0.7604143170349299,0.5963871725905686,-0.0919663360357284,-0.006742887198925,0.004261078312993,0.0060422969982028
1783205702103113200,0.53711328125,-0.7465957811713219,0.6004999416716397,-0.0989373440921306,-0.0070973541587591,0.0029430799186229,0.0056843683123588
1783205702113050000,0.547050048828125,-0.7519711175341158,0.5940891247812659,-0.0926034648954868,-0.0052643744274973,0.005593282636255,0.0072417724877595
1783205702122987300,0.5569873046875,-0.750144048237428,0.5839540266707539,-0.0984171196103095,-0.0043407902121543,0.0067674703896045,0.0044377306476235
1783205702132923400,0.56692333984375,-0.7427837486024945,0.5854436807066202,-0.1045271269232034,-0.0056835301220417,0.0058621619828045,0.0075033772736787
1783205702142860300,0.5768603515625,-0.7477884980872272,0.5731820188961922,-0.1013414826244115,-0.0045381048694252,0.0031707715243101,0.0082003269344568
1783205702152797200,0.586797119140625,-0.7704581566654145,0.5726514191508293,-0.1155062015771865,-0.0031014466658234,0.0022048978134989,0.0042198905721306
1783205702162733300,0.5967333984375,-0.7622112103890627,0.564478122632578,-0.1184516073793172,-0.0031645633280277,0.0028991843573749,0.0061871679499745
1783205702172670500,0.60667041015625,-0.7518499753724783,0.5690879545155912,-0.0992559085220098,-0.0035241609439253,0.0021555200219154,0.0045775137841701
1783205702182607000,0.616607177734375,-0.7506950331836938,0.5756534505110233,-0.0983101521044969,-0.0038623828440904,0.0014660274609923,0.0052150744013488
1783205702192544300,0.626544189453125,-0.7350614107221365,0.5788977661944925,-0.1054465798556804,-0.0055736890062689,0.0029106992296874,0.0026657145936042
1783205702202480400,0.63648046875,-0.7419901140067726,0.5777835213422775,-0.0958323638141155,-0.0072120651602745,0.0016917707398533,0.0062255621887743
1783205702212417300,0.646417236328125,-0.7392844352446496,0.5849094276994466,-0.1038712933629751,-0.0044611115008592,0.0009508011862635,0.0043391133658587
1783205702222354200,0.656354248046875,-0.7473204421840608,0.5783852866277098,-0.1045990231156349,-0.0039255497977137,0.0054217157885432,0.0065306285396218
1783205702232290300,0.666290283203125,-0.7506655878935009,0.5565512751560658,-0.1102560259640216,-0.0025901906192302,0.0030969474464654,0.0054195299744606
1783205702242227200,0.676227294921875,-0.7538253670986741,0.5658185774561018,-0.1091734914243221,-0.0023843282833695,0.0020045191049575,0.0057777250185608
1783205702252164400,0.686164306640625,-0.7603169210750609,0.5640210995800793,-0.1222983459353447,-0.0019946759566664,0.0013517159968614,0.0063648000359535
1783205702262100200,0.696100341796875,-0.7547302800491452,0.5675139831971376,-0.1177735619872808,-0.0040114875882864,0.0005474407225847,0.0025189293082803
1783205702272037400,0.706037353515625,-0.7470018777541816,0.5600602331250906,-0.1098152964591979,-0.0032885959371924,0.0016154143959283,-0.0016836246941238
1783205702281974300,0.715974365234375,-0.7429514333195983,0.5653418998550623,-0.1157692364275455,-0.0027277348563075,0.0005592042580246,0.0027832954656332
1783205702291910100,0.72591015625,-0.7398485719334333,0.5457808017514646,-0.1021107134312391,-0.0022931993007659,-9.36156138777e-05,0.003674536710605
1783205702301847300,0.735847412109375,-0.7360818398110568,0.5263634229674935,-0.0975742390453815,-0.001092379912734,0.0003950744867324,0.0010553179308772
1783205702311784200,0.7457841796875,-0.7500503786046058,0.5493075145728886,-0.103233579981327,-0.0016712881624698,-0.0009576687589287,0.0035669615026563
1783205702321720300,0.75572021484375,-0.7355403533454984,0.5611461286656558,-0.1040723688930273,-0.0039088763296604,-0.0004892190918326,0.0010239090770483
1783205702331657200,0.7656572265625,-0.73577518501468,0.5707154095869511,-0.1083715273916721,-0.0026626326143741,0.0007397765293717,0.0027823974378407
1783205702341594000,0.775593994140625,-0.7203207915775477,0.5659465877499431,-0.1051928973555564,-0.0046195229515433,-3.62684950232e-05,0.0012084692716598
1783205702351531300,0.78553125,-0.7113719806421548,0.5672904035743326,-0.1147387243360281,-0.0049448255449533,0.0007946295663714,0.0021916981786489
1783205702361467400,0.79546728515625,-0.7046685374807566,0.5752885627213865,-0.0928419498264789,-0.0062718782573938,0.0008918354287743,0.0035389913246035
1783205702371404300,0.805404296875,-0.705962742009759,0.5658881355609744,-0.0917342808455228,-0.0073963282629847,-0.0007424326613545,0.0057233273983001
1783205702381341200,0.815341064453125,-0.7173305237203836,0.56069078611359,-0.092278470724821,-0.0058540916070342,0.0024182070046663,0.0024998371955007
1783205702391277300,0.82527734375,-0.7303331400912254,0.5482258568160235,-0.1098994676113128,-0.0051700584590435,0.0020341593772172,0.0017604548484086
1783205702401214500,0.83521435546875,-0.738964701770991,0.5576057526450604,-0.1192623392403125,-0.0058957692235708,0.0012506572529673,0.0033961683511734
1783205702411151000,0.845151123046875,-0.7439750042136758,0.5803273606061935,-0.110246089091897,-0.0046542948111891,0.0047896993346512,0.0037027827929705
1783205702421087200,0.855087158203125,-0.7439322610504925,0.5569945619441569,-0.1246037002682685,-0.0039413664489984,0.002478607930243,0.0024630813859403
1783205702431024400,0.8650244140625,-0.7311985978141426,0.5505260235171765,-0.1181739594817161,-0.0051684975624084,0.005082513205707,0.0058036213740706
1783205702440961300,0.874961181640625,-0.7004970970150083,0.5253216588295996,-0.102138770481944,-0.0077757313847541,0.0004203831776976,0.0059996293857693
1783205702450898200,0.884898193359375,-0.7208087212249636,0.5264771124750376,-0.1130389346808195,-0.002943055704236,0.0064447629265487,0.0052286004647612
1783205702460834300,0.894834228515625,-0.7465661166854203,0.5195387645792215,-0.1151408753961324,-0.0057875784114003,0.0037571005523204,0.0043260557577013
1783205702470771200,0.904771240234375,-0.7564227631807326,0.5170291198458522,-0.1155629002004861,-0.0064847320318222,0.0070155006833374,0.0059994962066411
1783205702480708400,0.914708251953125,-0.7344537271525711,0.522874996329844,-0.0992412954747676,-0.0054189348593354,0.0010683955624699,0.0065465094521641
1783205702490642700,0.924642578125,-0.7288753424983471,0.5176091847561299,-0.1072878238081932,-0.0036977957934141,0.0051186960190534,0.0051989508792757
1783205702500579800,0.934579833984375,-0.738495403758809,0.5039210703391581,-0.1008487306714057,-0.0038964673876762,0.0017194375395774,0.0018755923956632
1783205702510517000,0.94451708984375,-0.7365918351598083,0.5128938466720283,-0.1108627596855163,-0.0071775848045945,0.0037934239953756,0.0044416808523237
1783205702520453600,0.95445361328125,-0.7326620214302092,0.4978053639378398,-0.1060842932373285,-0.0038787266239523,0.0101091107353568,0.0068369279615581
1783205702530389800,0.9643896484375,-0.7300825263310223,0.4854635495632887,-0.0986585271507501,-0.0048994831740856,0.0079308506101369,0.008263005875051
1783205702540327000,0.974326904296875,-0.6767460729409008,0.4575561364620923,-0.0586094253569841,-0.0091608073562383,0.0245729442685842,0.0106997983530163
1783205702550263800,0.984263916015625,-0.72624725901708,0.4232619449332356,-0.025485154390335,-0.0181904528290033,0.0124051049351692,0.0081465374678373
1783205702560199700,0.99419970703125,-0.7944931122474372,0.502174665063247,-0.036548400196433,-0.0164751093834638,0.0284104347229003,-0.0020616250112652
1783205702570136800,1.00413671875,-0.9123939538761972,0.6417571040809155,-0.1618266387253999,-0.0113967359066009,-0.013183120638132,0.0050453739240765
1783205702580073700,1.01407373046875,-0.5743828460533171,0.796700047707185,-0.3248813579410314,0.0158894807100296,-0.0213414505124092,0.0059607028961181
1783205702590009600,1.024009521484375,-0.5698251096837222,0.8093704364489763,-0.4588350703567266,0.0225177966058254,0.0196684785187244,0.0025296593084931
1783205702599946800,1.03394677734375,-0.6398785968579351,0.6022229660719632,0.0122767132490873,-0.0170352067798376,-0.0141672501340508,0.0056562107056379
1783205702609884000,1.0438837890625,-0.5824952792298048,0.3520088727109134,0.1046685812205076,-0.0260902643203735,-0.0095248809084296,0.0059461435303092
1783205702619820800,1.05382080078125,-0.6834944512225687,0.3591201660208404,-0.0417892234593629,-0.003348465077579,0.0183496251702308,0.0048744874075055
1783205702629756700,1.063756591796875,-0.8031075035966933,0.4515969357967376,-0.1481225230216979,0.0023339642211794,-0.0009617721661925,0.0082081016153097
1783205702639693800,1.07369384765625,-0.844437438981235,0.5064980081550776,-0.2229407403796911,-0.0075325146317481,0.0079872477799654,0.0079356599599123
1783205702649630700,1.083630615234375,-0.8527773973032832,0.449307948076725,-0.0227133515894412,-0.012857986614108,0.0069306762889027,0.0066690081730484
1783205702659567900,1.09356787109375,-0.7570895565263926,0.4243991322696209,-0.0452390716522932,-0.003772878088057,0.0047516780905425,0.001948821474798
1783205702669503700,1.103503662109375,-0.6837761907733977,0.523457253197208,-0.2067798791736364,0.0009282282553613,0.0139597496017813,0.0055568665266036
1783205702679440600,1.113440673828125,-0.6295533099375665,0.5893908108972012,-0.1170166061401367,-0.0099049787968397,0.0011403569951653,0.0061688609421253
1783205702689377800,1.123377685546875,-0.6544516043506562,0.5993687456846237,-0.072703417161107,-0.0107777006924152,0.0097333127632737,0.004569730721414
1783205702699314000,1.13331396484375,-0.6754382782779633,0.5205405620329082,-0.0642336949795484,-0.0022057853639125,0.0078336801379919,0.005233391188085
1783205702709250800,1.143250732421875,-0.6870533127479255,0.4788172434166073,-0.1344230834931135,-0.0024637654423713,0.0043674558401107,0.006856401450932
1783205702719187700,1.153187744140625,-0.7092454169422387,0.458547193326056,-0.1549228506863117,-0.0072223013266921,0.0066820089705288,0.0063517321832478
1783205702729124900,1.163124755859375,-0.7339368636716157,0.4616777464367449,-0.0766395875662565,-0.008307795971632,0.0049977167509496,0.0069915633648633
1783205702739061000,1.17306103515625,-0.756171272637695,0.4882005733117461,-0.0848714093387126,-0.0046257097274065,0.00862174667418,0.0041630202904343
1783205702748997600,1.18299755859375,-0.7308714847516268,0.5075716287359595,-0.1256447337538004,-0.0030332328751683,0.0106298439204692,0.007026357576251
1783205702758934800,1.192934814453125,-0.689732834155485,0.5264961094364523,-0.1143330661445856,-0.0044090216979384,0.0056268293410539,0.0047584096901118
1783205702768871700,1.20287158203125,-0.6727591221965848,0.5163267437301576,-0.0992225907742977,-0.0094732046127319,0.0060223438777029,0.0059463991783559
1783205702778807800,1.212807861328125,-0.6872139101371169,0.4955279935903847,-0.0841354962795972,-0.0044614020735025,0.0079555325210094,0.0084779998287558
1783205702788744700,1.22274462890625,-0.6992142906628549,0.4756546146672218,-0.1102192010849714,-0.0033158967271447,0.0061470163054764,0.0065294168889522
1783205702798681900,1.232681884765625,-0.7105085687458514,0.4763365325167775,-0.1259972004532814,-0.0036759562790393,0.0091803567484021,0.007137949578464
1783205702808618800,1.24261865234375,-0.70527760928981,0.4766738747123628,-0.1104933418512344,-0.0047479849308729,0.0092996191233396,0.0061345812864601
1783205702818555000,1.252554931640625,-0.7063098018817603,0.4575426924586296,-0.1029062477231025,-0.0088559109717607,0.0113081755116581,0.0061462991870939
1783205702828491800,1.26249169921875,-0.7010904597982763,0.451122961609438,-0.1039753382593393,-0.0065512889996171,0.0061294729821383,0.0041460078209638
1783205702838428700,1.2724287109375,-0.6978679906204343,0.4763785450275987,-0.1048959602355956,-0.0082442611455917,0.0066690295934677,0.0039872834458947
1783205702848364800,1.28236474609375,-0.6930117827609181,0.4940343209665268,-0.1200362462222576,-0.0047485958784818,0.0066895359195768,0.0063005052506923
1783205702858302000,1.292302001953125,-0.6811096749778837,0.4936917180739343,-0.104954996946454,-0.0049304896965622,0.0072224345058202,0.0073726931586861
1783205702868238600,1.302238525390625,-0.6950467226546257,0.4867436525017022,-0.1018406643182039,-0.0090410839766263,0.0055934903211891,0.0057081775739789
1783205702878175700,1.31217578125,-0.7048256277386099,0.4731348138660192,-0.1100964514881372,-0.007752114906907,0.0126833580434322,0.0074176611378788
1783205702888111900,1.32211181640625,-0.7165334550585597,0.4806393442772328,-0.1037134724527597,-0.0082604307681322,0.0115896314382553,0.0097958166152238
1783205702898048800,1.332048828125,-0.7178043517772108,0.4877450846292078,-0.1048176343023777,-0.0066308435052633,0.0075360336340963,0.0063827093690633
1783205702907985700,1.341985595703125,-0.6853340877398848,0.4783047638498246,-0.1199380465447902,-0.0076633468270301,0.0064826416783034,0.0067622493952512
1783205702917922800,1.3519228515625,-0.6906016528792679,0.4868102879971265,-0.1481143397152423,-0.0023367591202259,0.0091181062161922,0.0082506900653243
1783205702927859000,1.36185888671875,-0.6876003521714359,0.4831502311196178,-0.1225900223582983,-0.0075393179431557,0.0100913438946008,0.0087093729525804
1783205702937795800,1.3717958984375,-0.6913515944637357,0.5024846808604896,-0.0985357775539159,-0.0075667491182684,0.0095179658383131,0.0059490073472261
1783205702947732700,1.381732666015625,-0.6786401430591941,0.489432599324733,-0.1046773490488529,-0.0076203178614377,0.0018324088305234,0.0037588672712445
1783205702957669600,1.391669677734375,-0.6932049672454595,0.499559441063553,-0.1374421390533447,-0.0055204154923558,0.0090772723779082,0.0081102065742015
1783205702967605800,1.401605712890625,-0.7392189687930047,0.5063920635625719,-0.1240326223820447,-0.0051433881744742,0.0068452823907136,0.0068639731034636
1783205702977543000,1.41154296875,-0.7062001309622079,0.5133651905108243,-0.111793903055787,-0.0050373943522572,0.0067203799262642,0.0077297668904066
1783205702987479800,1.421479736328125,-0.6991182829424738,0.5092842778727412,-0.1039022730231285,-0.0054372483864426,0.0050551337189972,0.0031596077606081
1783205702997416700,1.431416748046875,-0.660902972447127,0.4585464626736938,-0.0927045871824026,-0.0039370898157358,0.006397632881999,0.0059356871061027
1783205703007352800,1.441352783203125,-0.6821005857113749,0.4329976684626191,-0.1222527532279491,-0.0051509579643607,0.0156696941703557,0.0042698797769844
1783205703017290000,1.4512900390625,-0.685523034440726,0.4235211803913116,-0.0828051244586706,-0.0085076056420803,0.0052010747604072,0.0042251385748386
1783205703027226600,1.4612265625,-0.675790964173153,0.4721068590577691,-0.0889081175088882,-0.0098002701997756,0.0035534682683646,0.0018096466083079
1783205703037163800,1.471163818359375,-0.7238381520487368,0.5531694506980478,-0.1514648191869259,-0.0062894243746995,0.0079570049419999,0.0053010508418083
1783205703047100000,1.481099853515625,-0.7370373869702219,0.5888048277027904,-0.1566261474728584,-0.0008684499189257,0.0100198620930314,0.006164887920022
1783205703057036800,1.491036865234375,-0.6786100401818752,0.5193017409529537,-0.1253974809944629,-0.0074355388060212,0.0027821888215839,0.0041355593129992
1783205703066973700,1.5009736328125,-0.6508883589111268,0.4515151757974177,-0.1018997010290622,-0.0087905619293451,0.0057464363053441,0.0030676692258566
1783205703076910800,1.510910888671875,-0.6745462248090655,0.415215051273629,-0.0859445915281772,-0.0082187820225954,0.0101747401058673,0.0026255846023559
1783205703086846700,1.5208466796875,-0.686552012162283,0.4737584987223148,-0.1074976671665906,-0.0104588996618986,0.0030601634643971,0.0030654391739517
1783205703096784000,1.530783935546875,-0.695622476715967,0.5205155737221241,-0.1477852538913488,-0.0052391039207577,0.0090509448200464,0.0066439285874366
1783205703106720800,1.540720703125,-0.7156498771570623,0.5141631359554827,-0.1171989769697189,-0.0023340471088886,0.0087142027914524,0.0027998357545584
1783205703116657700,1.55065771484375,-0.6949488152381033,0.4639087934244423,-0.1049742861688137,-0.0039359387010335,0.0081685204058885,0.0038600403349846
1783205703126594800,1.5605947265625,-0.6655647537130862,0.4282840108789503,-0.1108662668168544,-0.0071931639686226,0.0094908950850367,0.0077085169032216
1783205703136531000,1.570531005859375,-0.651513285876438,0.4364591340281069,-0.1007131215929985,-0.0085194185376167,0.0080179003998637,0.0056554861366748
1783205703146467600,1.580467529296875,-0.6987775066807865,0.4910568395256995,-0.1218833353936672,-0.006728608161211,0.0130752129480242,0.0054351491853594
1783205703156404700,1.59040478515625,-0.6883494169730693,0.4775201162781566,-0.1054956796944141,-0.0068154269829392,0.0067882882431149,0.0060830963775515
1783205703166342000,1.600341796875,-0.7195538988582789,0.490733306659758,-0.1145335571527481,-0.0068739736452698,0.0109030799940228,0.0026158839464187
1783205703176277800,1.61027783203125,-0.7003839189641177,0.4268031246714294,-0.1187684182435274,-0.0050004394724965,0.006052398122847,0.003170354058966
1783205703186214700,1.620214599609375,-0.6905809754174203,0.4219606530763208,-0.1286199501723051,-0.0102784428745508,0.0039417003281414,0.002759801922366
1783205703196151800,1.63015185546875,-0.7286478904180228,0.4675802484788,-0.1326636726051568,-0.0059816986322402,0.0067603904753923,0.0016125120455399
1783205703206088700,1.640088623046875,-0.7510152781140059,0.5261985147293656,-0.104593177896738,-0.0032630180940032,0.006899160798639,0.0019527920521795
1783205703216024800,1.65002490234375,-0.6901453604791313,0.4904419955629855,-0.1099789625883102,-0.0056952824816107,-0.0130769442766904,0.0062836245633661
1783205703225961700,1.659961669921875,-0.6685057025358081,0.4602062125794589,-0.1730956362366676,0.007214012555778,0.0197289325296878,0.0011582254664972
1783205703235898600,1.669898681640625,-0.7214563714787363,0.3559140634559095,-0.1369365276187658,-0.0019432669505476,0.00888267531991,0.0036101979203522
1783205703245835800,1.679835693359375,-0.6379854765877128,0.426187476991117,0.0402946009874343,-0.0227370467036962,-0.0003184303641319,0.005202854052186
1783205703255773000,1.68977294921875,-0.6794398420695215,0.416924339409545,-0.0811596953392028,-0.0077354591339826,0.0024445988237857,0.0012941325549036
1783205703265708800,1.699708740234375,-0.6529188418254256,0.5209342375256121,-0.198610016721487,0.0062145823612809,-0.0086701940745115,0.0037779253907501
1783205703275645700,1.709645751953125,-0.7667876514591276,0.5979628974746912,-0.2635369546622038,0.0022882837802171,0.0157714989036321,0.0047102980315685
1783205703285582800,1.719582763671875,-0.6989171343471855,0.4385616592653095,0.0021785130828619,-0.0158081296831369,0.0038308091461658,0.0022130177821964
1783205703295519700,1.729519775390625,-0.6619314387120306,0.395111809117347,0.0109264676839113,-0.0116567946970462,0.0097893653437495,7.90267949923e-05
1783205703305455600,1.73945556640625,-0.6579161386560648,0.3945036871563643,-0.1033253499180078,9.6215866506e-05,0.011973169632256,0.0036607354413717
1783205703315392800,1.749392822265625,-0.695962814586237,0.5260083989847452,-0.1925923638671636,-0.0013522775843739,0.0030979192815721,0.0049789999611675
1783205703325329700,1.75932958984375,-0.6869950797546654,0.579362680292502,-0.1571820277899503,-0.0034383786842226,0.0053328643552958,0.0052903946489095
1783205703335266800,1.769266845703125,-0.68697031063959,0.5379141600295901,-0.0734422528296709,-0.0022042691707611,0.0037312395870685,0.0039023549761623
1783205703345204000,1.779203857421875,-0.6544166791677475,0.4410622439093887,-0.1264490358740091,0.0006107250228524,-0.0004201149567961,0.0061577595770359
1783205703355139800,1.789139892578125,-0.6364684230882675,0.3868015883464366,-0.1499316182702779,-0.0051249247044324,-0.0008219853043556,0.0049966219812631
1783205703365076700,1.79907666015625,-0.6747519765142351,0.3827782511144876,-0.1231307051062583,-0.0052332393825054,-0.0007457500323653,0.0046577914617955
1783205703375014000,1.809013916015625,-0.6770811501141637,0.3955371949225664,-0.1040957497686147,-0.0050002122297883,-0.0021018320694565,0.0036375343333929
1783205703384950800,1.81895068359375,-0.72964157763049,0.4208122136935591,-0.1169867955237626,-0.0015275878831744,0.0016618389636278,0.0040667066350579
1783205703394886700,1.82888671875,-0.7089356934059411,0.3970588515318929,-0.1075666407495737,-0.0033465269953012,-0.0034415768459439,0.0043039945885539
1783205703404823800,1.83882373046875,-0.6906747181154788,0.4089692156866192,-0.0985690953016281,-0.0047146696597337,0.0009192824363708,0.0056255315430462
1783205703414760700,1.8487607421875,-0.6595867752820253,0.4059367891881614,-0.0958493149489164,-0.0016048960387706,-0.0027087423950433,0.0062127588316798
1783205703424697900,1.85869775390625,-0.6569132452238351,0.4301887485217303,-0.1195119300872087,0.0015987670049071,-0.0002630157396197,0.006429904140532
1783205703434634800,1.868634765625,-0.6564527150399982,0.4136895952720195,-0.1116314059704542,-0.0013490859419107,0.0036952402442693,0.0054666390642523
1783205703444571000,1.87857080078125,-0.6959710709579289,0.4252672934062779,-0.0868558611541986,-0.0023349039256572,0.0054409350268542,0.0045376634225249
1783205703454507800,1.8885078125,-0.6808053582690656,0.4224276860661804,-0.0692296035706996,-0.0058481460437178,0.00442147674039,0.003886254504323
1783205703464445000,1.89844482421875,-0.6551466739427297,0.434130910276249,-0.1159504382133483,-0.0037908935919404,0.0030996999703347,0.0068301348946988
1783205703474381600,1.908381591796875,-0.6179377640109509,0.4361809746738523,-0.1145119298428297,-0.000406814739108,0.0086332159116864,0.0094911660999059
1783205703484318700,1.918318603515625,-0.6414052949685602,0.4360441234864294,-0.0958399625986814,-0.0037545496597886,-0.0094744805246591,0.0092652216553688
1783205703494255000,1.928255126953125,-0.5097620514523238,0.3521896361052989,-0.1587654975891113,-0.0020040543749928,-0.0036714524030685,0.008217267692089
1783205703504192000,1.93819189453125,-0.6739025200780481,0.4537091787103563,-0.1359720665007829,-0.0011339066550135,0.0128787271678447,0.0076374020427465
1783205703514129000,1.94812890625,-0.6622890199780463,0.4308842565052211,-0.0390653514534235,-0.0069672940298914,-0.024331759661436,0.0090725794434547
1783205703524066000,1.958066162109375,-0.6495164129707962,0.4463067204341292,-0.1901531540215015,0.0021901228465139,0.0142037123441696,0.0112120043486356
1783205703534003000,1.9680029296875,-0.7101581478729844,0.4022977750986814,-0.0688040716350078,-0.0043639168143272,0.0025246860459446,0.0073285829275846
1783205703543938800,1.977938720703125,-0.6983459103304892,0.4001296372793614,-0.0681534987717866,-0.0095760338008403,-0.006419027224183,0.0054050348699092
1783205703553876000,1.9878759765625,-0.693417952409014,0.3937164092361926,-0.1207078618735074,-0.00295568164438,0.014149896800518,0.003405001014471
1783205703563812900,1.997812744140625,-0.7313595605295151,0.4394626266930252,-0.0676782824754714,-0.005819646641612,-0.0001400150358676,0.0062018418684601
1783205703573750000,2.00775,-0.6811130359787494,0.4679726087972521,-0.1471580619037151,-0.0065235206857323,0.0023143542930483,0.001366873155348
1783205703583687200,2.017687255859375,-0.6445621515642851,0.485400932655856,-0.1407774209558963,-0.0011617355048656,0.005992199294269,0.0034920217003673
1783205703593623000,2.027623046875,-0.6016126521538943,0.4408901752781122,-0.1020487541109323,-0.0011486858129501,-0.0063171973451972,0.0043298518285155
1783205703603560000,2.037559814453125,-0.5157125573545694,0.3677867259487509,-0.141333885794878,-0.0043007200583815,-0.0078402981162071,0.0097439615055918
1783205703613497000,2.0474970703125,-0.5514646195415407,0.3389380134094506,-0.1170557691067457,-0.0049191052094101,0.000502853654325,0.0084193060174584
1783205703623434000,2.05743408203125,-0.6781107854228466,0.3918392902527004,-0.0549684385061264,-0.0057228552177548,-0.0018931161612272,0.0081998500972986
1783205703633371000,2.067370849609375,-0.6859653713807463,0.3925974151436239,-0.0853039555370807,-0.0027052275836467,-0.0020230785012245,0.0062176589854061
1783205703643307000,2.07730712890625,-0.7465132905196398,0.4149657526876777,-0.1207820961534976,-0.0026084166020154,0.0039755208417773,0.0072172824293375
1783205703653244000,2.087243896484375,-0.7280358229342848,0.3801067668829113,-0.1167822128623723,-0.0005812188610434,-0.0022347047924995,0.0056489463895559
1783205703663181000,2.09718115234375,-0.6635723377868533,0.3778923057038337,-0.1273743340253829,-0.0048110708594322,-0.0041575636714696,0.007145601324737
1783205703673118000,2.107117919921875,-0.6188057790171355,0.3825698690608143,-0.1017781204760074,-0.0058001689612865,-0.0025205183774232,0.0101906592026352
1783205703683054800,2.117054931640625,-0.6227256558746099,0.3937049379941076,-0.0887450359016656,-0.0060353204607963,-0.0069337198510766,0.0096287438645958
1783205703692991000,2.126990966796875,-0.6366022055357694,0.4152505609784275,-0.1035094743132591,-0.006109888665378,-0.0056807016953825,0.0076801087707281
1783205703702928100,2.13692822265625,-0.6974050492838024,0.4768329377315938,-0.1035083052694797,-0.0021316213533282,-0.003407435491681,0.0082410909235477
1783205703712864800,2.14686474609375,-0.686268519045785,0.4590385570395737,-0.1061947678744792,-0.0004466399550437,-0.0031429836526513,0.0051725963130593
1783205703722802000,2.156802001953125,-0.6911046339653432,0.4294749742291867,-0.1292453885942697,-0.0011830832809209,-0.0052309138700366,0.0101563706994056
1783205703732739000,2.166739013671875,-0.6672039722874761,0.3707219756830483,-0.0987017817705869,-0.0034813918173313,-0.0041731065139174,0.0097212102264165
1783205703742675000,2.176675048828125,-0.6264492064423859,0.3486573703259229,-0.0907253960639238,-0.0054323282092809,-0.0086808335036039,0.0093314014375209
1783205703752611800,2.18661181640625,-0.5982262976512313,0.3558160099089145,-0.1135644198596477,-0.0037963483482599,-0.0064387191087007,0.0104270260781049
1783205703762549000,2.196549072265625,-0.6786684193056076,0.428821771017462,-0.0888590176701545,-0.0047277491539716,-0.0010520964860916,0.0074680722318589
1783205703772486000,2.20648583984375,-0.7318086194712669,0.4857025459509342,-0.0852834972709417,-0.0053727673366665,-0.0036646574735641,0.0057751005515456
1783205703782423000,2.216423095703125,-0.703887835431844,0.4595340124063193,-0.122965285411477,0.0004405691288411,-0.0038547664880752,0.0057922429405152
1783205703792359000,2.22635888671875,-0.7219217970333993,0.4339650521900504,-0.1141460191398859,-0.0018236506730318,-0.0039130905643105,0.002949318382889
1783205703802295800,2.2362958984375,-0.6847131793625653,0.3885636295828968,-0.0970668740451335,-0.0061638373881578,-0.0046738097444176,0.0031160055659711
1783205703812233000,2.24623291015625,-0.6803031078353524,0.3902523133222013,-0.0885147342771291,-0.0059513170272111,-0.0035845767706632,0.0023559394758194
1783205703822170000,2.256170166015625,-0.6894631503686308,0.3935735666994005,-0.1059036759734153,-0.0011395867913961,-0.0025989487767219,0.0011838177451863
1783205703832107000,2.26610693359375,-0.6283837547015398,0.355118163837865,-0.1009533600896596,-0.0037183249369263,-0.0066687911748886,-0.0050660884007811
1783205703842044000,2.2760439453125,-0.7356326347388327,0.4718897822409868,-0.1002127708554267,-0.0036395816132426,0.0036973850801587,-0.0011198233114555
1783205703851980000,2.28597998046875,-0.6522896770764142,0.3755270378772169,-0.0940735374480485,-0.0074966382235288,-0.0074524721130728,-0.008294379338622
1783205703861917000,2.2959169921875,-0.776045747539401,0.4550739642575382,-0.0745873312115669,-0.0160026494413614,0.0246758088469505,-0.0230803880840539
1783205703871854000,2.30585400390625,-0.928468525038287,0.5218156234700232,-0.0358212549656629,-0.0085007902234792,0.00362138915807,-0.0105297099798917
1783205703881791000,2.315791015625,-0.1968129041716456,0.0556194497607648,-0.1486105987995863,-0.00272096414119,-0.0445389673113822,0.0093713495880365
1783205703891728000,2.325727783203125,-0.2486461864572018,0.0725157856345176,-0.1962725136846304,-0.0168708711862564,0.0332232043147087,-0.0040411287918686
1783205703901664000,2.3356640625,-0.858980270531401,0.4968932905942201,0.1019289271235465,-0.0097648408263921,-0.0042283618822693,0.0040040295571088
1783205703911601200,2.34560107421875,-0.6067260496448725,0.4970942930590361,-0.0972100819081068,-0.0022954735904932,-0.0128229148685932,-0.0005853957263752
1783205703921537800,2.355537841796875,-0.707076986861974,0.5740058294344693,-0.2607926243901252,0.000735470559448,0.0344021208584308,0.0019174430053681
1783205703931475000,2.365474853515625,-0.687799308809638,0.3571861292183399,-0.0012818565040826,-0.0030858991667628,-0.0173878390341997,0.0011531158816069
1783205703941412000,2.375412109375,-0.5703450419045984,0.2707575535655021,-0.1476777018636465,-0.015073100104928,0.0088446205481886,-0.0006223715608939
1783205703951349000,2.385348876953125,-0.6526381982531398,0.3184465025879442,-0.0295288768231868,-0.0117960814386606,0.0109953889623284,-0.0028817974962294
1783205703961284900,2.395284912109375,-0.7105781268507242,0.402170787718147,-0.0556406386792659,-0.0062703136354684,-0.0068002343177795,-0.0011865148553624
1783205703971222000,2.405221923828125,-0.6131298522725701,0.3946542746081948,-0.1775514466017484,-0.0037996992468833,0.015916796401143,0.0012580007314682
1783205703981159000,2.415158935546875,-0.6271847541753203,0.4154363658741116,-0.0745405694603919,-0.0032662907615303,-3.47523018717e-05,0.003452236065641
1783205703991096000,2.425095947265625,-0.550420151989907,0.3476123182523995,-0.0971095441430807,-0.0080442670732736,0.0009673945605754,0.0007805528584867
1783205704001033000,2.435032958984375,-0.6024381431926041,0.3383163743797689,-0.1182411794990301,-0.0055831419304013,0.0094190910458564,0.0009815378580242
1783205704010969900,2.444969970703125,-0.6460885574139654,0.348366278424859,-0.071586395829916,-0.0046659493818879,-0.0027329130098223,0.0017559850821271
1783205704020906000,2.454906005859375,-0.6589029577363282,0.3761424663618207,-0.1181716213941574,-0.0080592576414346,0.0087141226977109,0.0018471758812665
1783205704030843100,2.464843017578125,-0.6632716012746095,0.3738647306881845,-0.0895312178432941,-0.0036991303786635,0.0064693442545831,0.0054903803393244
1783205704040780000,2.474780029296875,-0.6433715535402298,0.3569957942780107,-0.0996036990463733,-0.0062409741804003,0.0025099543854594,0.0033417574595659
1783205704050717000,2.484717041015625,-0.6274535611793398,0.3455772322282195,-0.1006920788049697,-0.0084125157445669,0.0048644552007317,0.0045838560909032
1783205704060653800,2.49465380859375,-0.6347968366142362,0.3629910891700535,-0.0853092162340879,-0.0058266539126634,0.0029487865976989,0.0019470173865556
1783205704070591000,2.504591064453125,-0.6312762612726539,0.3769020525574684,-0.103019060447812,-0.0091129951179027,0.0049312436021864,0.0024873728398233
1783205704080527000,2.514527099609375,-0.6480182103022932,0.3912813641089945,-0.1134235500842332,-0.0044269217178225,0.0064493138343095,0.0040993690490722
1783205704090464000,2.524464111328125,-0.6565599017415196,0.3615804186545312,-0.1007552071690559,-0.0033685816451907,0.0013437671586871,0.0061129853129386
1783205704100401000,2.53440087890625,-0.6479473370231688,0.3435913191080093,-0.0973497826397419,-0.0079957395792007,0.0045935907401144,0.0020483122207224
1783205704110338000,2.544338134765625,-0.6387471086099743,0.3454807861164212,-0.0960527285665273,-0.0050063403323292,0.0060830963775515,0.0035223718732595
1783205704120275000,2.55427490234375,-0.6355538655266165,0.3598580518413335,-0.0998474446743726,-0.0040897978469729,0.0076656462624669,0.0019065069500356
1783205704130212000,2.564212158203125,-0.6328565892666578,0.3774588096573948,-0.0947059901326894,-0.0026482287794351,0.0071370089426636,0.0035129257012158
1783205704140148000,2.57414794921875,-0.639512540024519,0.3725849930759519,-0.1047989296019077,-0.0041945083066821,0.005530378781259,0.0028000392485409
1783205704150084900,2.5840849609375,-0.624926746115461,0.3734531542126089,-0.1015659390300512,0.0006050406955182,0.001492760144174,0.0037776858080178
1783205704160022000,2.59402197265625,-0.6257102246433496,0.3757222681883722,-0.0980336732506751,-0.0044894805178046,0.006965366192162,0.0029526271391659
1783205704169959200,2.603959228515625,-0.6376286990392953,0.3467691454265266,-0.0988309611082077,-0.0068703461438417,0.0040808962658047,0.004318562336266
1783205704179895800,2.613895751953125,-0.6322662221580744,0.3494026357352733,-0.0987345149964094,-0.0041467314586043,0.0020868945866823,0.002390703652054
1783205704189833000,2.6238330078125,-0.6420180931046605,0.3532158008152619,-0.0896586436152458,-0.0038844104856252,0.0028877076692879,0.0042613083496689
1783205704199769000,2.63376904296875,-0.6418954165730625,0.3600409341275691,-0.0913613558799028,-0.005055577494204,0.0057009533047676,0.0056495890021324
1783205704209706000,2.6437060546875,-0.6452125052317976,0.3533019812613725,-0.0987438673466443,-0.0058790268376469,0.0051201181486248,0.0025033305864781
1783205704219643000,2.653642822265625,-0.6373580654043703,0.3523231993570924,-0.0995411552041769,-0.0080119017511606,0.0057099522091448,0.0025751942303031
1783205704229580000,2.663580078125,-0.62756520486027,0.3517010854033753,-0.0982575451344251,-0.0026813186705112,0.0050066113471984,0.0005626435158774
1783205704239517000,2.673516845703125,-0.6321549438033253,0.3483521403016522,-0.1032704048603773,-0.0064280200749635,0.0065037310123443,0.0055932719260454
1783205704249454000,2.6834541015625,-0.6341429027501493,0.3456163951948285,-0.0979331354856491,-0.006259175017476,0.0039540203288197,0.0033239920157939
1783205704259390000,2.693389892578125,-0.6419673858307302,0.3476872466521337,-0.1035182421416044,-0.0049150781705975,0.0036525502800941,0.0017202363815158
1783205704269326800,2.703326904296875,-0.638509573527053,0.3386643475672229,-0.1013280386209487,-0.0089953076094388,0.0037883715704083,0.0057999324053525
1783205704279264000,2.713263916015625,-0.6355229589316994,0.3395044881857931,-0.0995762265175581,-0.0044591110199689,0.0014171181246638,0.0029017052147537
1783205704289201000,2.723200927734375,-0.6335358767677098,0.3424534376518801,-0.1041062711626291,-0.0055299680680036,0.0021271174773573,0.0014446896966546
1783205704299138000,2.733137939453125,-0.6267723009169102,0.34629897063151,-0.0962292541772127,-0.005731139332056,0.0061390120536088,0.0025127003900706
1783205704309075000,2.743074951171875,-0.6345483417458831,0.358020022759214,-0.1019797805279493,-0.0062097096815705,0.0055914660915732,0.0034171098377555
1783205704319011000,2.753010986328125,-0.6261888750057667,0.3612242986932397,-0.1032324109375476,-0.006070077419281,0.0037734671495854,0.0044781472533941
1783205704328948000,2.762947998046875,-0.6231962690610439,0.3668911653485149,-0.0996872856765985,-0.0051044160500168,0.0021441457793116,0.0029545531142503
1783205704338885000,2.772885009765625,-0.6247057968411595,0.3608357377670705,-0.0921089593768119,-0.0045188814401626,0.0041050552390515,0.004109782166779
1783205704348821800,2.78282177734375,-0.6215402454823256,0.3458905724937096,-0.0924696093827486,-0.0077990964055061,0.0073972549289464,0.0039412039332091
1783205704358759000,2.792759033203125,-0.6239099702883512,0.349771980504319,-0.0997001451581716,-0.0054079769179224,0.0028789564967155,0.0043879831209778
1783205704368696000,2.802696044921875,-0.6302963103245943,0.3466920250697061,-0.1018435869276523,-0.0041363174095749,0.0014762692153453,0.0037120727356523
1783205704378633000,2.812633056640625,-0.6269727919250726,0.3348691200027242,-0.1053419504374265,-0.0053180009126663,0.0052278195507824,0.0048366086557507
1783205704388568800,2.82256884765625,-0.6253660873807967,0.3309882234487682,-0.092836104607582,-0.0060999048873782,0.0060547310858964,0.003610756015405
1783205704398506000,2.832506103515625,-0.6238781869105995,0.3333304391933605,-0.0955868646204471,-0.0051467483863234,0.0028434991836547,0.0031198770739138
1783205704408443000,2.84244287109375,-0.6289988909251988,0.3404250370968133,-0.1020879170775413,-0.0015927599743008,0.0056464760564267,0.0040288139134645
1783205704418380000,2.852380126953125,-0.6236003928825259,0.3331270621083677,-0.0979682067990303,-0.0045629618689417,0.0027140919119119,0.0042097312398254
1783205704428317200,2.862317138671875,-0.628263197061792,0.3303182882979512,-0.0974339537918567,-0.0053802859038114,0.0052739223465323,0.0043069366365671
1783205704438253800,2.87225390625,-0.6291650412723422,0.3237489929102361,-0.0948024362444877,-0.0059913825243711,0.0041147992014884,0.0037535086739808
1783205704448191000,2.88219091796875,-0.6243230080686509,0.3325753465097397,-0.0962052887797355,-0.0052459640428423,0.0024489918723702,0.0009838212281465
1783205704458127000,2.892127197265625,-0.6320795404795557,0.330493243006058,-0.0952168622642755,-0.0077136065810918,0.0042819823138415,0.0031330094207078
1783205704468064000,2.90206396484375,-0.6218673585448413,0.3398594391033053,-0.0934755715548992,-0.004709294065833,0.0026039243675768,0.0050307782366871
1783205704478001000,2.9120009765625,-0.6253874954950064,0.3281061652064323,-0.0917389570206403,-0.0057487105950713,0.0035080825909972,0.0050335889682173
1783205704487938600,2.9219384765625,-0.6281080065000801,0.330748679071851,-0.0948123731166124,-0.0036320304498076,0.0057256966829299,0.0037315697409212
1783205704497875700,2.931875732421875,-0.6288927271369844,0.3206813489679247,-0.0971393547594547,-0.0070497216656804,0.0052708894945681,0.0038838842883706
1783205704507812900,2.941812744140625,-0.6229387871686369,0.3276099061220884,-0.0971937152951955,-0.0032099755480885,0.0025757704861462,0.0039134453982114
1783205704517749500,2.95174951171875,-0.6221438373986631,0.319715901469253,-0.0977110171675682,-0.0040051760151982,0.0050243702717125,0.0047539337538182
1783205704527685600,2.961685546875,-0.6259427182249725,0.3211814805097878,-0.0925263080060481,-0.0040280790999531,0.0003641042858362,0.0057033505290746
1783205704537622800,2.971622802734375,-0.6243513573803007,0.3178279688308015,-0.0966138695806264,-0.0054093711078166,0.0020553991198539,0.0051224003545939
1783205704547559700,2.9815595703125,-0.6150660810321569,0.3230024123266339,-0.0917424641519784,-0.0034990860149264,0.0037720729596912,0.0033567245118319
1783205704557496600,2.99149658203125,-0.6146468327067792,0.3240667536225169,-0.0870160201519727,-0.0032145846635103,0.0026373313739895,0.0019665716681629
1783205704567433500,3.00143359375,-0.6058339231107384,0.3216620671009644,-0.0981488240629434,-0.00682876072824,0.0035164407454431,0.0027649872936308
1783205704577370600,3.01137060546875,-0.6153625797607004,0.3218215685116127,-0.0932780031561851,-0.002364145591855,0.0028207222931087,0.0053297253325581
1783205704587307800,3.021307861328125,-0.6154263657119124,0.3263146786797791,-0.0855728356063365,-0.0059636738151311,0.0036321873776614,0.0036194431595504
1783205704597243600,3.03124365234375,-0.6155141170606017,0.3267198254145682,-0.0878811125487089,-0.0032230373471975,0.0085305916145443,0.0039997678250074
1783205704607180500,3.0411806640625,-0.6175817901801317,0.3292125555457547,-0.0960357774317264,-0.0036701820790767,0.0017443243414163,0.003877529175952
1783205704617117700,3.05111767578125,-0.6126434569951147,0.3113646911008283,-0.0890799669444561,-0.003241610713303,0.0040703699924051,0.0032402069773525
1783205704627054600,3.0610546875,-0.613266703459993,0.3087706925522536,-0.1003729298532009,-0.0048685353249311,0.0036653033457696,0.0015592197887599
1783205704636991700,3.07099169921875,-0.6104466045379638,0.3153242423815652,-0.0974514894485473,-0.0039866231381893,0.0044634197838604,0.0017416265327483
1783205704646928600,3.0809287109375,-0.6133082775793969,0.3055562240177765,-0.1009720647901296,-0.0017229365184903,0.0034170639701187,0.0027331213932484
1783205704656865500,3.090865478515625,-0.6131105630502104,0.3064935048678889,-0.0831055687099695,-0.0030558686703443,0.0053111808374524,0.002579488325864
1783205704666801700,3.1008017578125,-0.6156424926806241,0.3137467273991555,-0.098293200969696,-0.0039887735620141,-0.000923279672861,0.0009150126716122
1783205704676738800,3.11073876953125,-0.6088942605294286,0.3062264879621565,-0.0940191769123077,-0.0020909067243337,0.0024333330802619,0.0016842156182974
1783205704686675500,3.120675537109375,-0.602045782874152,0.3114348702602088,-0.0943967780530452,-0.0024381829425692,0.0031009875237941,0.0017611810471862
1783205704696612600,3.130612548828125,-0.6078825262036174,0.3196496678326279,-0.1100181255549192,-0.0051690712571144,5.91902062296e-05,0.0026748881209641
1783205704706549800,3.1405498046875,-0.6022947161339223,0.3163953787444159,-0.0891162073016166,-0.0007149344310164,0.0006067361682653,0.0004290443612262
1783205704716486700,3.150486572265625,-0.6090555885709822,0.3176525391986593,-0.0903676686674356,-0.0033727996051311,0.0030477698892354,0.002237738110125
1783205704726423800,3.160423828125,-0.6009806378606707,0.3191077795082703,-0.086543726465106,-0.0032244613394141,0.0004397360607981,0.0007823206251487
1783205704736359700,3.170359619140625,-0.6033175563756377,0.3210764492327347,-0.0890039790987968,-0.0027933176606893,0.001729127485305,0.0009174277074635
1783205704746296600,3.180296630859375,-0.60327335190773,0.316049195655249,-0.0974532430142164,-0.0038250265643,0.0004239119589328,0.0024189178366214
1783205704756233700,3.190233642578125,-0.5997489771738648,0.3246995716333389,-0.0870399855494499,-0.0030074138194322,0.0002833921462297,0.0007856308948248
1783205704766170600,3.200170654296875,-0.603748495138809,0.3197047224881127,-0.0932376711457967,-0.003148827701807,0.0018290905281901,0.001933719497174
1783205704776107500,3.210107421875,-0.5962842236727476,0.3133294883677736,-0.0937526349306106,-0.0047486051917076,0.0036294655874371,0.0028073983266949
1783205704786044700,3.220044677734375,-0.6032208910681307,0.3071876611445099,-0.0951724386006593,-8.00844281911e-05,0.0008443319238722,0.0007953802123665
1783205704795981600,3.229981689453125,-0.6102825000174343,0.3051595163177699,-0.0923930370151996,-0.0038295397534966,0.0031494027934968,0.003732044249773
1783205704805918700,3.239918701171875,-0.6013605040237308,0.3069574325852096,-0.0848357535034418,-0.001345076598227,0.0031153145246207,0.0039807837456464
1783205704815854600,3.2498544921875,-0.6017061025910079,0.3045425534632057,-0.087023034414649,-0.0025258678942918,0.0053279465064406,0.0015513265971094
1783205704825791500,3.25979150390625,-0.6055980685282498,0.3138028415005653,-0.0959200420975685,-0.001475516706705,0.0020559867843985,0.0004170862957835
1783205704835728600,3.269728759765625,-0.603393909547478,0.3206272441605106,-0.085066639649868,-0.0011846031993627,0.0029092356562614,0.0035180745180696
1783205704845665800,3.279665771484375,-0.6024986412081867,0.3109562198977917,-0.0918845029711723,-0.0031169923022389,0.0013590096496045,0.0027990208473056
1783205704855602700,3.289602783203125,-0.610530191168189,0.3110721744276583,-0.0906137523829937,-0.0017791362479329,0.0037435288541018,0.0004141223616898
1783205704865539600,3.29953955078125,-0.6086932580646127,0.3083123543255031,-0.0917442177176475,-0.0011682072654366,0.0014092680066823,0.000731038628146
1783205704875476500,3.3094765625,-0.6134971512150019,0.2983278071342036,-0.0972018986016511,-2.8995797038e-05,0.0028840112499892,0.0017487670993432
1783205704885413600,3.31941357421875,-0.6154899324674159,0.2881348048239946,-0.087864161413908,-0.0019448734819889,0.0013841190375387,0.0023634247481822
1783205704895349800,3.329349853515625,-0.6116827222041785,0.2842715535245835,-0.0969207435727119,0.0005208877846598,0.0021183528006076,-0.0004671531496569
1783205704905286700,3.33928662109375,-0.6191188635542988,0.2905478573150932,-0.0899737009137868,-0.0018242914229631,0.002243255265057,0.0048365322872996
1783205704915223600,3.3492236328125,-0.6086137630876154,0.2942512784102931,-0.092453827291727,-0.0039487723261117,0.0025399923324584,0.0015557300066575
1783205704925160700,3.35916064453125,-0.6007896453332155,0.3047168140515685,-0.0961228711932897,-0.0027186581864953,0.003191668074578,0.0038375263102352
1783205704935097600,3.36909765625,-0.601139847010374,0.303181676906161,-0.0971130512744188,-0.0024487171322107,0.0026531089097261,0.0004528796998783
1783205704945034800,3.37903466796875,-0.6027022740215062,0.295982011193037,-0.0844569833189249,-0.0017001023516058,0.0030302125960588,0.0014861860545352
1783205704954971600,3.3889716796875,-0.6001007862862199,0.2905512913811952,-0.0824345375806093,-0.0027158334851264,-0.0021011577919125,0.0023354450240731
1783205704964908500,3.398908447265625,-0.6118250532843172,0.2849111666023731,-0.0878875422894954,-0.0013400446623563,0.0010855803266167,0.0025562206283211
1783205704974844700,3.4088447265625,-0.6197385298226028,0.2913650554494932,-0.0968149451106786,-0.0015023192390799,0.0009961873292922,0.0039327722042799
1783205704984781800,3.41878173828125,-0.5842356931563466,0.2748022989116609,-0.0926958193540573,-0.0021143136546015,0.0046404567547142,0.0013439136091619
1783205704994718500,3.428718505859375,-0.5989033201299607,0.2736782633177936,-0.0942781201094389,-0.0018795970827341,-0.0005976716056466,0.0024622124619781
1783205705004655600,3.438655517578125,-0.5875074083033949,0.2855723339248448,-0.0831090758413076,-0.0037853550165891,-0.0001220311969518,-0.0001237167743965
1783205705014592800,3.4485927734375,-0.5804563938133418,0.2762026672288775,-0.0959013373970985,-0.0024021957069635,0.0044795302674174,0.0002069321926683
1783205705024529700,3.45852978515625,-0.5866982108123601,0.3193543381478637,-0.0899865603953599,-0.0024932762607932,-0.0009482582099735,0.0015118811279535
1783205705034466800,3.468466796875,-0.5744572264637797,0.3099449239633977,-0.0902110168009996,-0.0028728609904646,0.0009511141106486,0.0026176027022302
1783205705044403500,3.478403564453125,-0.5758464157998562,0.3025456440249457,-0.0784574506431818,-0.0036579612642526,0.0014491253532469,7.05554848536e-05
1783205705054340600,3.488340576171875,-0.592289454948157,0.3122888567410409,-0.0840653536528348,-0.0018183644860982,0.0005732704885303,-0.0005061351694166
1783205705064276700,3.49827685546875,-0.5899434763438999,0.3115343485793098,-0.0923667335301637,-0.0021003931760787,0.0016435952857136,-0.0002408843720331
1783205705074213600,3.508213623046875,-0.5900564351990819,0.3131512457240373,-0.0795820707589387,-0.0005789445713162,0.0018416466191411,0.003198257414624
1783205705084150500,3.518150634765625,-0.6081398619655519,0.3082213515738025,-0.0888081642657518,0.0014170948415994,0.0031188987195491,-8.43551242724e-05
1783205705094087700,3.528087646484375,-0.6300980112735182,0.2901125346377491,-0.0954997708588838,-0.0010812301188707,0.0023586563766002,0.0049618389457464
1783205705104024600,3.538024658203125,-0.6181196233838796,0.2359300223449245,-0.0907926160812377,-0.0016207862645387,0.0062790960073471,0.0027599371969699
1783205705113961700,3.547961669921875,-0.6186016347471625,0.2076705078704282,-0.0920762261509895,-0.0017055924981832,0.0017978367395699,0.0003047114005312
1783205705123898600,3.557898681640625,-0.6063479370474815,0.2054587866377085,-0.0803384420841932,-0.0001870580017566,0.0065680909901857,0.0003284135600551
1783205705133835500,3.56783544921875,-0.599381312905252,0.2679974412024021,-0.0997340474277734,0.0023406632244586,0.0026439470238983,-0.0027333854231983
1783205705143771600,3.577771728515625,-0.5664364170935005,0.3305348171254619,-0.0876911429345607,-0.0019243890419602,-0.000340923666954,0.0015694837784394
1783205705153708800,3.587708740234375,-0.5201965709008276,0.3544711346386,-0.0924018048435449,0.0002240259200334,0.0021500899456441,0.0037406999617815
1783205705163645700,3.597645751953125,-0.4871449267789721,0.3730367554314434,-0.0879758050948381,-0.0040109325200319,9.81241464614e-05,-0.0013086535036563
1783205705173582600,3.60758251953125,-0.4780641600269824,0.3933697877556085,-0.0919102219343185,-0.0054464470595121,-0.0007711234502494,-0.0014549944316968
1783205705183519500,3.61751953125,-0.4959704766608774,0.3747391754351556,-0.0903062938690185,-0.0042325779795646,-0.0038598575629293,0.0033000796101987
1783205705193456600,3.62745654296875,-0.5639255302511156,0.3206310800854116,-0.1005453638106584,0.0006573153659701,0.0047249747440218,0.000798889901489
1783205705203393800,3.637393798828125,-0.6625729514859616,0.304503500094451,-0.0890717836380004,0.0004602409899234,0.0189992524683475,0.003661255352199
1783205705213330700,3.64733056640625,-0.6422233333531767,0.1349052044542506,-0.015203414350748,-0.0118894148617982,-0.0153359649702906,0.0017971987836062
1783205705223267600,3.657267578125,-0.7027574431624263,0.1215046017417684,-0.1226256781935691,-0.0013190628960728,0.009327569976449,0.0033889701589941
1783205705233203700,3.66720361328125,-0.6234946674857288,0.1430226791320368,-0.1328279232561588,0.0024869153276085,0.0018844571895897,0.0020421436056494
1783205705243140600,3.677140625,-0.6000559972964227,0.2993530950613319,-0.0277741421103477,-0.0093857226893305,-0.010012149810791,-0.0003451138036325
1783205705253077800,3.687077880859375,-0.5463124974753707,0.347963214049302,-0.1311018301159143,0.0002077426761388,0.0112270871177315,0.0008734210859984
1783205705263014700,3.6970146484375,-0.522808141638711,0.3766462876981124,-0.057734980610013,0.0023182984441518,-0.007121826056391,0.0006220187060534
1783205705272951600,3.70695166015625,-0.5161516794241965,0.3651348232004791,-0.1179436578571796,-0.0034121992066502,0.0065882848575711,0.0001398418098688
1783205705282888700,3.716888671875,-0.5588925045199692,0.2998739405976608,-0.0714957949370145,-0.004298498854041,-0.0016659162938594,0.0011585007887333
1783205705292825600,3.72682568359375,-0.6084351185850799,0.2317806110478937,-0.0815787975341081,-0.0029151206836104,1.9781291484e-06,0.0008639022707939
1783205705302762800,3.7367626953125,-0.6453077822998166,0.2013740015421062,-0.1005365959823131,-0.0017595747485756,0.0063677318394184,0.0023297059815376
1783205705312699600,3.74669970703125,-0.6488560493659228,0.2246815926976501,-0.0808878926604986,-0.001008316874504,0.0042433817870914,8.48891213536e-05
1783205705322635800,3.7566357421875,-0.6143580058280378,0.2657212398987263,-0.0930968013703823,-0.0006599752232432,0.0034990282729268,-0.0002163143362849
1783205705332572700,3.76657275390625,-0.575061402902007,0.290133979284577,-0.0911018281608819,-0.0006830058991909,0.0049752672202885,0.0008484106510877
1783205705342509800,3.776509765625,-0.5279992805410176,0.3096424338854849,-0.0893967778086662,-0.0005288086831569,-0.0005177692510187,0.0006915505509823
1783205705352446500,3.786446533203125,-0.5261148550339043,0.2872335816679522,-0.0893266351819038,-0.0005431538447737,0.0024372190237045,0.0015124990604817
1783205705362383600,3.796383544921875,-0.5780122885968536,0.2986061856841668,-0.0789449418991804,-0.0023200148716568,0.0030606654472649,0.0006869193166494
1783205705372320800,3.80632080078125,-0.5828975033551455,0.2864282566344365,-0.0901116480797529,0.000230323523283,0.004419095814228,0.0013956725597381
1783205705382257700,3.816257568359375,-0.5752713193256408,0.2826765759507194,-0.0996504607975482,-0.0023910263553261,0.0075738760642707,0.0034276647493243
1783205705392194800,3.82619482421875,-0.5726771381139755,0.2729319749951362,-0.0744604899615049,-0.0037386445328593,0.0026014801114797,0.0010567277204245
1783205705402131500,3.83613134765625,-0.5518238813079893,0.2707983604999259,-0.0917687676370143,-0.0044710142537951,0.0095624504610896,-0.0006160038756206
1783205705412068600,3.846068603515625,-0.5484696755092591,0.2703713672595098,-0.0725824211299419,-0.0045068124309182,0.0031065819784998,0.0029044752009212
1783205705422004700,3.856004638671875,-0.530857957907766,0.2719627646367997,-0.0952542716652154,-0.0029113115742802,0.0055998330935835,0.0008703528437763
1783205705431941600,3.865941650390625,-0.5498485626470297,0.2941592892779037,-0.1119721822321414,-2.77962535619e-05,0.003884058445692,0.0007059893105179
1783205705441878500,3.87587841796875,-0.5668116801466793,0.2988137640202418,-0.0866226369202137,-0.0029162606224417,0.0039133531972765,-0.001532930182293
1783205705451815700,3.885815673828125,-0.6246396728023886,0.3300121084256097,-0.090299864128232,-0.0019873417913913,0.0020424211397767,0.0023053148761391
1783205705461752600,3.895752685546875,-0.6007816081572324,0.2907445123983547,-0.0939841055989265,-0.000679463148117,-0.0007480387575924,0.000200618756935
1783205705471689700,3.905689697265625,-0.5822126628961414,0.2874305290121585,-0.102293668782711,-0.0020429519936442,-1.91233120858e-05,-0.0019803408067673
1783205705481626600,3.915626708984375,-0.5436654170326888,0.2772538202496245,-0.0800648858398199,-0.0055221049115061,-0.0012332582846283,0.0008940089028328
1783205705491563300,3.925563232421875,-0.5064623523198067,0.2961155013795942,-0.0729313806980848,-0.0038141990080475,0.0010469439439475,0.0015736795030534
1783205705501500400,3.93550048828125,-0.523515120864287,0.3141767163142562,-0.0870768104285001,-0.0005507618188858,0.0008277655579149,3.27746383845e-05
1783205705511437300,3.945437255859375,-0.5593298730239272,0.2955538123762234,-0.1069008703172206,-0.0026851566508412,0.0013921912759542,0.0005095107480883
1783205705521373400,3.95537353515625,-0.5613087718814611,0.2328719864811748,-0.0869078836023807,-0.0054849386215209,0.0001532887108623,-0.0015357970260083
1783205705531310300,3.965310302734375,-0.5681666018869728,0.2147517713682726,-0.0676391195088624,-0.0052638361230492,-0.0047786715440452,-0.0011254443088546
1783205705541247500,3.97524755859375,-0.5520066905289888,0.1894125282546505,-0.0902875891685485,-0.004010553471744,0.0045719528570771,-0.0013776456471532
1783205705551184400,3.985184326171875,-0.5707637057080864,0.201282085474953,-0.0818126062899828,-0.0067750886082649,-0.0023699519224464,-0.0012887264601886
1783205705561121500,3.99512158203125,-0.5404433131810278,0.2291656062439084,-0.0801917270898819,-0.0083492826670408,-0.0021755411289632,0.0002439226955175
1783205705571058400,4.005058349609375,-0.5663777457088232,0.3009450404278934,-0.0832552063137292,-0.0043748915195465,0.0005558389239013,-0.001311185886152
1783205705580995300,4.014995361328125,-0.5521935914032161,0.32716753264945,-0.0818190360307693,-0.0027426397427916,-0.0013709575869143,-0.0017146548489108
1783205705590932500,4.024932373046875,-0.5351948180682957,0.3157843707066029,-0.124373398643732,-0.0021976819261908,-0.0023145014420151,-0.0008742340141907
1783205705600869400,4.034869384765625,-0.5346977552663534,0.2419198373442515,-0.0792465551942586,-0.0052970694378018,0.0003028530627489,-0.00016237096861
1783205705610806500,4.044806640625,-0.5335018965452909,0.1902958138952031,-0.066862289917469,-0.0054644308984279,-0.0063307099044322,-3.20617109537e-05
1783205705620742400,4.054742431640625,-0.5763441361889243,0.2174524451617151,-0.0915975027233362,-0.0057738907635211,0.0030124583281576,0.0001301248557865
1783205705630679300,4.06467919921875,-0.6471892851974814,0.2484291096404194,-0.0747796389132738,-0.0044589284807443,0.0037040596362203,-0.0047216145321726
1783205705640616400,4.074616455078125,-0.6342888870920985,0.2487636753570288,-0.085909520214796,-0.006845386698842,-0.0056697349064052,-0.0037479628808796
1783205705650553300,4.08455322265625,-0.5662196325376629,0.2393642345773056,-0.098792967185378,-0.0078363250941038,0.0008955597877502,-0.0061291260644793
1783205705660490200,4.094490234375,-0.5972306376773864,0.3385428035467863,-0.0658054743409156,-0.0055707730352878,0.0034444709308445,-0.0015136019792407
1783205705670427400,4.104427490234375,-0.5544714001420885,0.3731933342326432,-0.079158292388916,-0.0044011687859892,-0.0065594385378062,0.0029281547758728
1783205705680364300,4.1143642578125,-0.5558689189150929,0.3669287574125454,-0.1209691431581974,-0.0036405697464942,0.0068080322816967,0.000945963896811
1783205705690301400,4.124301513671875,-0.6253798967104405,0.3593062997100875,-0.062451487737894,-0.0017730817198753,0.0072858189232647,0.0037563252262771
1783205705700238600,4.134238525390625,-0.5672912072919308,0.2536308795345947,-0.0782721572041511,-0.0024809502065181,0.0012814556248486,0.0015765279531478
1783205705710175200,4.14417529296875,-0.5018580003295093,0.2013364094780758,-0.0922901611626148,-0.0056703174486756,0.0109800994396209,0.0019167752470821
1783205705720111400,4.154111328125,-0.4653611841898411,0.2153760772790759,-0.0347737917393446,-0.0110403159633278,-0.0013213083148002,-0.000645718188025
1783205705730048500,4.164048583984375,-0.4150342878792434,0.2620231890983879,-0.0952566097527742,-0.0075630517676472,0.002893139142543,-0.0012681636726483
1783205705739985400,4.1739853515625,-0.4858225921340286,0.3312743469137698,-0.0952303062677383,-0.0056583592668175,0.0111505361273884,-0.0007523093372583
1783205705749922300,4.18392236328125,-0.5602982796646654,0.3552312322909012,-0.054810617595911,-0.0072325505316257,0.0099925296381115,0.001803089864552
1783205705759859200,4.193859130859375,-0.5469779025815427,0.2932821045845747,-0.0700251378625631,-0.0125737860798835,0.0098258154466748,0.0028635603375732
1783205705769796400,4.20379638671875,-0.576602567929402,0.2714673092700541,-0.072233461561799,-0.006770228035748,0.0139196906238794,0.0033380398526787
1783205705779733500,4.2137333984375,-0.5648437410745769,0.2125079744968563,-0.0919616598606109,-0.0054042944684624,0.0055717462673783,0.0044757421128451
1783205705789670400,4.22367041015625,-0.5368203734435141,0.2046732257505878,-0.1053635777473449,-0.0046967212110757,0.0020057698711752,0.0051557589322328
1783205705799607300,4.233607177734375,-0.555628095896542,0.2135151057127863,-0.0984001684755086,-0.0085535105317831,0.0008720620535314,0.0033514669630676
1783205705809544400,4.24354443359375,-0.6032847500845789,0.2975424654427915,-0.0777028328835964,-0.001817756332457,0.0065188510343432,0.0058586057275533
1783205705819481300,4.2534814453125,-0.5802651090249419,0.3207682600663974,-0.0880003550142049,-0.003140015527606,0.0026500769890844,0.0032601600978523
1783205705829417500,4.26341748046875,-0.5675999079149217,0.2740389498563483,-0.0869026229053735,-0.003183452412486,0.0065413457341492,0.0048870956525206
1783205705839354400,4.273354248046875,-0.5686670987550169,0.2089433408178388,-0.0885194104522466,-0.0026409672573208,0.0039311815053224,0.0051462212577462
1783205705849291300,4.283291259765625,-0.5566886378001421,0.1671546653477475,-0.0770960991621017,-0.0072730081155896,0.0037898304872214,0.0047213500365614
1783205705859228400,4.293228515625,-0.5837442563775926,0.1846563101708888,-0.0795809017151594,-0.004798131994903,0.003771720919758,0.0033333108294755
1783205705869165300,4.303165283203125,-0.5502935299355536,0.2324407554570585,-0.098850834852457,-0.0022584246471524,0.0032664868049323,0.0049308813177049
1783205705879102500,4.3131025390625,-0.490507681210339,0.2728401685258373,-0.0832341635257005,-0.0067234812304377,0.0110791362822055,0.0027952925302088
1783205705889039400,4.323039306640625,-0.5114824455041438,0.2981614741239696,-0.0620884996443986,-0.0096022626385092,0.0034710392355918,0.0010649666655808
1783205705898976300,4.332976318359375,-0.5094239055391401,0.28336437555179,-0.0828068780243396,-0.003938783891499,0.0039599956944584,0.0043494431301951
1783205705908913400,4.342913330078125,-0.5842584895100444,0.3116484764782711,-0.1067301899254321,-0.0034788846969604,0.0073145069181919,0.004059094004333
1783205705918850300,4.352850341796875,-0.608966083656624,0.2297352958906441,-0.0770382314950227,-0.0033670319244265,0.0012568808160722,0.0013943347148597
1783205705928787500,4.362787353515625,-0.6639071957644075,0.247616953007318,-0.124587918177247,-0.0030511571094393,0.008360399864614,0.0016550270374864
1783205705938724400,4.372724365234375,-0.6465821861498058,0.232206983233802,-0.0873264012753963,-0.0034255972132086,0.0042799049988389,0.0025714209768921
1783205705948660500,4.382660400390625,-0.574210192900151,0.2525151368450373,-0.0782908619046211,-0.0089155631139874,0.0053155147470533,0.00295927724801
1783205705958597400,4.392597412109375,-0.5491483784884215,0.3363969506245106,-0.0975765771329402,-0.0029940251260995,0.0074234064668416,0.0056011332198977
1783205705968534500,4.402534423828125,-0.5044746125686913,0.3574378024244681,-0.0869002848178148,-0.0021032448858022,0.0032030153088271,0.0043223998509347
1783205705978471200,4.41247119140625,-0.5233269048158079,0.3952511079901829,-0.1127624558269977,-0.0024111066013574,0.0087615652009844,0.0070303021930158
1783205705988408300,4.422408203125,-0.4866450874980538,0.2195986634101718,-0.0827729757547378,-0.0032800389453768,-0.0041743256151676,0.007790689356625
1783205705998345500,4.432345458984375,-0.577297783651948,0.1552028001388535,-0.1010807858616113,-0.0043767290189862,0.0055683166719973,0.0058356625959277
1783205706008282400,4.442282470703125,-0.6238869547389447,0.1835328956315293,-0.1026683473140001,-0.0002540647983551,-6.42486847937e-05,0.0043452875688672
1783205706018219500,4.452219482421875,-0.6044636576708405,0.2014883486367762,-0.0915086553961038,-0.0034322813153266,-0.0017929067835211,0.0013678737450391
1783205706028156200,4.46215625,-0.6447052863620222,0.2835291376594454,-0.085499185848236,-0.000273847952485,0.0082835471257567,0.0043418835848569
1783205706038093300,4.47209326171875,-0.5917100476250052,0.299658434683457,-0.0555325021296739,0.0008374890312552,-0.0010018302127718,0.006445781327784
1783205706048030500,4.482030517578125,-0.5505020581196993,0.3216819408452138,-0.0984399159640073,0.001777340658009,0.0096715250983834,0.0061993319541215
1783205706057967400,4.49196728515625,-0.5442731736674904,0.3078238401561975,-0.0768944391101598,0.0010795928537845,0.0041574500501155,0.0069450167939066
1783205706067903200,4.5019033203125,-0.4903973527036607,0.2359292186273262,-0.0731079063087701,-0.0015506278723478,-9.6570700407e-05,0.0069462284445762
1783205706077840400,4.51184033203125,-0.4911548930726945,0.2626736158311367,-0.0981885715514421,-0.0024039046838879,0.0036454370710998,0.0062607312574982
1783205706087777300,4.52177734375,-0.5518956313699483,0.3011806027494371,-0.0719546446204185,0.0027348231524229,-0.000275894999504,0.0049307355657219
1783205706097714400,4.53171435546875,-0.5639306448176503,0.3118031921159476,-0.0978039561480283,0.0031681191176176,0.0064994534477591,0.0074519496411085
1783205706107651600,4.541651611328125,-0.5980166004233062,0.3140828640183433,-0.0961649567693471,0.0037672435864806,0.0055861002765595,0.0086811445653438
1783205706117588200,4.551588134765625,-0.5494190121233463,0.2147793900275602,-0.0618722265452146,0.0033517908304929,0.0055948887020349,0.0071865790523588
1783205706127525400,4.561525390625,-0.5556874979335814,0.159235014797002,-0.081614453369379,-0.0007529752328991,0.0038835329469293,0.0068504223600029
1783205706137462300,4.571462158203125,-0.4964049956206232,0.1533753289833664,-0.074542323026061,-0.0012911995872855,0.0010589845478534,0.0054828887805342
1783205706147399400,4.5813994140625,-0.4566045348256826,0.2026167681448161,-0.0936684637784957,0.0010857563465833,0.0042240391485393,0.0027263704687356
1783205706157336600,4.591336669921875,-0.4645828932937234,0.2252340389486402,-0.0740244366317987,-0.0001182593405246,-0.0008516791276633,0.0057400031946599
1783205706167273200,4.601273193359375,-0.4602447910241782,0.2465124623641371,-0.0841448486298322,0.0009210519492626,0.0050529176369309,0.0044740159064531
1783205706177210400,4.61121044921875,-0.4473029649298637,0.2617259231848642,-0.0928057094693183,0.0043871556408703,0.0014744284562766,0.0027522828895598
1783205706187147300,4.621147216796875,-0.410708241373673,0.2151424511862918,-0.0714823509335517,-0.0033149598166346,-0.0016174321062862,0.000944435596466
1783205706197083400,4.63108349609375,-0.4339195325478911,0.2317213551413267,-0.0765127463161945,-0.0011327657848596,0.0028636022470891,0.0013071582652628
1783205706207020300,4.641020263671875,-0.443143507162854,0.208852593794465,-0.073330024626851,-0.0011524641886353,0.00094306608662,0.0011452250182628
1783205706216957400,4.65095751953125,-0.4743848139271139,0.2142984381102025,-0.0909416691631078,-0.0010693734511733,0.0016011334955692,-0.0002689135726541
1783205706226894300,4.660894287109375,-0.5225795935798436,0.211854259828478,-0.0804372262835502,0.0006382847204804,0.0013862261548638,-0.0018097517313435
1783205706236831500,4.67083154296875,-0.5086228182893247,0.2082583907609805,-0.1005932946056127,0.0012694541364908,-0.0020540449768304,0.0016923050861805
1783205706246768400,4.680768310546875,-0.5273507535044104,0.219979260225594,-0.0911141031205654,0.0017898175865411,-0.0005803229287266,0.0014178256969898
1783205706256705300,4.690705322265625,-0.5634750830698758,0.2352290710013359,-0.0780401020139455,0.0010976623743772,-0.003983843140304,-0.0007475905586034
1783205706266642400,4.700642333984375,-0.5510031395096332,0.2201310897864401,-0.0984784944087266,0.002236058935523,-0.0047105806879699,0.001364002469927
1783205706276579300,4.710579345703125,-0.5445075669452548,0.2055801845276728,-0.0906114142954349,-0.0003940789029002,-0.0079034436494112,-0.0039711082354187
1783205706286516500,4.7205166015625,-0.541447083396092,0.1955351027881726,-0.1039805989563465,0.0044845659285783,-0.0104182660579681,-0.0060046976432204
1783205706296453400,4.730453369140625,-0.5146133639410138,0.2038825502969324,-0.1079027408361434,0.0004506763070821,-0.0114355944097042,-0.0052853780798614
1783205706306390300,4.740390380859375,-0.5416060002848506,0.238976221640408,-0.106872228744626,0.001811203546822,-0.0169050805270671,-0.0077494541183114
1783205706316327400,4.750327392578125,-0.5438902387645095,0.2892205542340874,-0.0893587838858366,0.0046653137542307,-0.0148757528513669,-0.0057656653225421
1783205706326263600,4.760263671875,-0.6184221134617924,0.3711469961620867,-0.1012444519907236,0.0132102444767951,-0.0091688865795731,-0.0029500110540539
1783205706336200400,4.770200439453125,-0.585335471091792,0.3269618905421346,-0.0584942745447158,0.0037256628274917,-0.0173415951430797,-0.0022698396351188
1783205706346137300,4.780137451171875,-0.5420628041416407,0.2669702170465141,-0.0824503196716308,0.0057091834023594,-0.014252595603466,0.0010870452970266
1783205706356074200,4.79007421875,-0.4371021811719983,0.1480774417709559,-0.0949251858413219,0.0013921987265348,-0.0078413020819425,0.0001762441825121
1783205706366011400,4.800011474609375,-0.4474027720425277,0.1376868345294147,-0.0318278014153242,-0.0031187171116471,0.0003955094143748,0.0008167901542037
1783205706375948500,4.809948486328125,-0.4018926283638924,0.1448917609395459,-0.0236263747811317,-0.0050740102306008,-0.0274542309343814,0.0037800897844135
1783205706385885400,4.819885498046875,-0.3225235427685082,0.148929345892556,-0.1095703817874193,0.0034476136788725,-0.0154497558251023,0.00211434927769
1783205706395822300,4.829822265625,-0.5195218134444206,0.2937661252418533,-0.1761807427704334,0.008004548959434,-0.0105865569785237,0.0052265189588069
1783205706405759200,4.83975927734375,-0.5397071809262037,0.3104590109653771,-0.1173866084963083,-0.0049020880833268,-0.0345535203814506,1.77973415702e-05
1783205706415696400,4.8496962890625,-0.643696036254242,0.3232570812074467,-0.0376443787395954,-0.0062890639528632,0.0334937088191509,0.000741111813113
1783205706425633500,4.859633544921875,-0.7075530068758875,0.3093600732801482,0.0802320591002702,-0.0023430101573467,-0.0126261040568351,-0.0014055941719561
1783205706435570400,4.8695703125,-0.4699368215423077,0.1550833750102669,-0.1199526595920324,-0.0012753484770655,-0.0023902440443634,-0.0015238386113196
1783205706445507300,4.87950732421875,-0.6058763740129769,0.2465622563226148,-0.2000999630182981,0.0061564361676573,0.0170807857066392,0.0028516841121017
1783205706455444200,4.8894443359375,-0.5400089403517544,0.1457792843637987,0.015749942317605,-0.0091455550864338,-0.0211148019880056,0.002333699259907
1783205706465380400,4.89938037109375,-0.5171577146615832,0.1688983306773006,-0.1279401512145996,-0.00619494356215,0.0139412749558687,0.0004343439359217
1783205706475317500,4.9093173828125,-0.5718582229465246,0.2446323477059602,-0.0308195011556148,0.0022222436964511,-0.0039367917925119,-0.0033774385228753
1783205706485254400,4.91925439453125,-0.5664964036524296,0.2935060860661789,-0.1103220769375562,-0.0008006822317838,-0.0024337610229849,0.0023946200963109
1783205706495192600,4.929192626953125,-0.5597003868367523,0.3206795588696375,-0.1327308926224708,-0.0021735411137342,0.0073653403669595,0.0024396276567131
1783205706505129500,4.93912939453125,-0.5642769009720534,0.3055687547057867,-0.0204278710007667,-0.0037507265806198,-0.0034353239461779,-2.88162846118e-05
1783205706515066600,4.949066650390625,-0.5363318592742086,0.2661494387155398,-0.1194230827599763,-0.0005325628444552,-0.0018283724784851,0.0052932449616491
1783205706525003500,4.95900341796875,-0.577867911690101,0.2065614871826022,-0.1096574755489826,0.0060128476470708,0.0509444586932659,-0.0094761252403259
1783205706534940400,4.9689404296875,-0.5553747056573629,0.0833421539448201,0.0486135165214538,-0.0159228108823299,-0.0211537033319473,-0.0060587571933865
1783205706544877600,4.978877685546875,-0.4834415422163903,0.0893769405970349,-0.0417079749166965,-0.0189876742660999,0.0391929745674133,-0.0147128663957118
1783205706554814500,4.988814453125,-0.3038191345594823,-0.0209560595933347,-0.012044073536992,-0.0151151726022362,-0.0857817158102989,0.0054067829623818
1783205706564751600,4.998751708984375,-0.5196222050789744,0.3892241027856245,-0.4784937105506658,0.0208943411707878,0.0485275834798812,0.0118551235646009
1783205706574688500,5.0086884765625,-0.7398004950080066,0.5765825845872983,-0.0116752402245998,0.0024548796936869,-0.0167606100440025,0.0072614373639225
1783205706584625400,5.01862548828125,-0.5307425878997892,0.5743544602090492,-0.0244067115038633,-0.0109564205631613,-0.02313132584095,0.0063376296311616
1783205706594562600,5.0285625,-0.3256520500525832,0.2825538994191214,-0.1487228270024061,0.0103904139250516,0.017016626894474,0.0047487886622548
1783205706604499500,5.03849951171875,-0.4481126008123159,0.1781427635584026,0.0040080665975809,0.0061576594598591,-0.0090154893696308,-0.000720175798051
1783205706614436600,5.0484365234375,-0.3350098071150481,0.0487378004882484,-0.1555856985092163,-0.0181354284286499,-0.0262165814638137,0.0027589779347181
1783205706624372500,5.05837255859375,-0.5181448990680277,0.2565658735405653,-0.0293809927850961,-0.0027816649526357,0.032668799161911,0.0069675995036959
1783205706634309600,5.0683095703125,-0.7470511967886239,0.353117783800885,0.0803781895726919,0.0038221757858991,-0.0100176762789487,0.0015411423519253
1783205706644246500,5.07824658203125,-0.5219993825390935,0.1535464477665722,-0.2500736619770526,0.0093220556154847,0.0151226771995425,-0.0029509307350963
1783205706654183700,5.08818359375,-0.5996558920629322,0.1149606234584003,-0.111745387738943,-0.0026925290003418,-0.001764160580933,-0.0013109561987221
1783205706664120300,5.098120361328125,-0.2592215026158839,-0.0995919355433434,0.0216863466292619,-0.0137839214876294,-0.0120461946353316,0.0017601558938622
1783205706674057500,5.108057373046875,-0.4437050865683704,0.4947662885028868,-0.071079030829668,-0.0042002694681286,0.0148749016225337,0.0009833117946982
1783205706683994600,5.11799462890625,-0.4636104680649936,0.3251517723802477,-0.0545469982236623,0.0031463606283068,-0.0135273672640323,-0.000125718768686
1783205706693931500,5.127931640625,-0.665691887224093,0.4168403143879026,-0.2252045936584472,0.0063112615607678,0.0265577342361211,0.0026090815663337
1783205706703868700,5.13786865234375,-0.4296382019668817,0.182082039236091,-0.0211889185011386,-0.0045348685234785,-0.0279218591749668,0.0008382976520806
1783205706713805300,5.147805419921875,-0.5805952908273786,0.1124148114331066,-0.1241699850261211,-0.0031939661130309,0.0256995558738708,0.0021288653369992
1783205706723742500,5.157742431640625,-0.6165791159436106,0.0927614319361746,-0.0255997206807136,0.0016640108078718,-0.0136201223358511,0.0030177005100995
1783205706733679600,5.1676796875,-0.4689229683246463,0.2271448775386437,-0.0971551368504762,-0.002729938365519,0.0060111028142273,0.0035276960115879
1783205706743616500,5.177616455078125,-0.4842640375804156,0.327080548485741,-0.10291092389822,0.0027259644120931,0.0103518245741724,0.0027755899354815
1783205706753553700,5.1875537109375,-0.5108937588959932,0.3441530446439981,-0.0083037179648876,0.0028327563777565,-0.0020675612613558,0.0038054343312978
1783205706763490600,5.197490478515625,-0.4977109636526554,0.2788557755535468,-0.1393733993768691,0.0020317938178777,0.0052318619564175,0.0032001270446926
1783205706773427500,5.207427490234375,-0.5087606923900544,0.1904590781655162,-0.0844371095746755,0.0042629898525774,0.0041626030579209,0.0055255992338061
1783205706783363600,5.217363525390625,-0.4897401309039443,0.2381446296544745,-0.0543441691279411,-0.0009714532643556,0.0020275465212762,0.0057591581717133
1783205706793300700,5.22730078125,-0.4467958191253244,0.2166938453467562,-0.0854541776627302,0.0055879126302897,0.0099294120445847,0.0048017520457506
1783205706803237400,5.2372373046875,-0.5236299063503742,0.2427901904379948,-0.0628951398521661,0.0077305864542722,0.0049889516085386,0.004141416400671
1783205706813174500,5.247174560546875,-0.490537126500532,0.0649531318278983,-0.0888981806367635,-0.0013742288574576,0.0051516713574528,0.0037483337800949
1783205706823111400,5.257111328125,-0.589080210578069,0.1614458592468872,-0.0646785161375999,0.0003750631585717,0.0096595035865902,0.0013809711672365
1783205706833048600,5.267048583984375,-0.4535271732069552,0.0937785000242292,-0.0550385811328887,-0.0025080749765038,-0.0109640154987573,0.0028049636166542
1783205706842985700,5.27698583984375,-0.5082290697313845,0.1789987958658486,-0.1406190155237913,0.0015507359057664,0.0208461545407772,0.003618232673034
1783205706852922400,5.28692236328125,-0.540699845225364,0.2243258015299215,-0.0296165551066398,0.0008034529164433,-0.00991468783468,0.0019380443263798
1783205706862859500,5.296859619140625,-0.4176506809227168,0.2330267386514693,-0.10928922675848,-0.0036129457876086,0.0039042967837303,-0.0015302780084311
1783205706872796400,5.30679638671875,-0.4862675594225525,0.3056748819613829,-0.0715706137388944,-0.0010579088702797,0.0030566123314201,0.0051396088674664
1783205706882733600,5.316733642578125,-0.5347782000914215,0.3196395117647945,-0.0788970111042261,0.0074579329229891,0.0107717551290988,0.0035201702266931
1783205706892670700,5.326670654296875,-0.5414879268631339,0.2840590067524463,-0.1003746834188699,0.0010660802945494,0.0141624920070171,0.0030847433954477
1783205706902607400,5.336607421875,-0.4580347868245095,0.1125770162574946,-0.045576925304532,-0.0041579874232411,-0.0019970349967479,0.001222894527018
1783205706912544500,5.34654443359375,-0.4445336463470011,0.1457469529967755,-0.0739502023518085,-0.0018612770363688,0.0039705764502286,0.0011113081127405
1783205706922481700,5.356481689453125,-0.5038299579896033,0.2063263632524758,-0.0987847838789224,0.0029181996360421,0.0088617047294974,0.0008962857536971
1783205706932418600,5.36641845703125,-0.5173826825238764,0.2721483503367751,-0.0913268690884113,0.00048753246665,0.0121355289593338,0.0024156188592314
1783205706942355700,5.376355712890625,-0.4047803856946527,0.2871849202206358,-0.036997897529602,-0.0040080398321151,0.0057322555221617,0.0003475463017821
1783205706952292400,5.386292236328125,-0.369204556857422,0.2829936790758743,-0.0430868620544672,-0.0016479473561048,0.003426490817219,-0.0010878974571824
1783205706962228500,5.396228515625,-0.4420589998617768,0.2200629929862916,-0.1342985803306102,0.0017389841377735,-0.0026651090011,0.0009213392622768
1783205706972165600,5.40616552734375,-0.5635641495928168,0.2584501894498244,-0.1489016907006502,0.0022399248555302,-0.0045833839103579,0.0018792783375829
1783205706982102500,5.4161025390625,-0.5981757365077733,0.2706276801081374,-0.1153209081381559,0.0018721930682659,-0.0038418238982558,0.0028040737379342
1783205706992039400,5.426039306640625,-0.5937344661246985,0.2608478982413187,-0.084462244015932,0.0051079341210424,-0.0023746881633996,0.005709315650165
1783205707001976600,5.4359765625,-0.4926542647849768,0.1396830498479306,-0.09037819006145,0.0017739236354827,-0.0094039570540189,0.0035499476362019
1783205707011913500,5.44591357421875,-0.4546625339124351,0.1040561484105885,-0.061718497288227,-0.0048384396359324,-0.0011116731911897,-0.0011537272948771
1783205707021850600,5.4558505859375,-0.3848593682374805,0.1144448924886062,-0.0277986920297145,-0.0048365145921707,-0.0088147260248661,0.0015647080726921
1783205707031787500,5.46578759765625,-0.4073432219199836,0.2652406533075496,-0.0552729744106531,-0.0025472613051533,0.0039314283058047,0.0047037759795784
1783205707041724400,5.475724365234375,-0.4476307355795055,0.3353317690784111,-0.0502881717354059,0.0024543413892388,-0.00663927430287,0.0040654079057276
1783205707051661600,5.48566162109375,-0.4916407038282602,0.3064132427059113,-0.108438747408986,0.0030397037044167,0.0032431841827929,0.0033024121075868
1783205707061598500,5.495598388671875,-0.5619731540743261,0.2631230400990694,-0.0575508562147617,0.0007190164178609,0.0030320612713694,0.0024750765878707
1783205707071535600,5.50553564453125,-0.5307741520818322,0.1343689421530813,-0.0494026210725307,-0.0027710562571883,-0.0027967998757958,0.0033291520085185
1783205707081472500,5.515472412109375,-0.5459882339570671,0.0626690760113298,-0.0900695625036954,-0.0027491450309753,0.0068956594914197,-0.0002766496036201
1783205707091409400,5.525409423828125,-0.5412728228077293,0.0748459821477532,-0.0523281531304121,-0.0020386138930916,-0.0032919966615736,0.0009508014190942
1783205707101346600,5.5353466796875,-0.5152904594849795,0.1663759725928306,-0.0937263314455747,-0.0041921027004718,0.0048849564045667,0.0024572822730988
1783205707111283500,5.545283447265625,-0.5201663949582725,0.2706898220915347,-0.0733703566372394,-0.0021305494010448,0.0069497050717473,0.0025912395212799
1783205707121220600,5.555220703125,-0.4763819790937006,0.2932744692673906,-0.0688514179080724,-0.000648564659059,-0.0001757987774908,0.0017273491248488
1783205707131157800,5.56515771484375,-0.4461962457969785,0.2630657569538802,-0.1026496426135301,-0.0005276575684547,0.0036666102241724,-0.0005808125715702
1783205707141094400,5.575094482421875,-0.4594008875459432,0.2157102776695042,-0.0623532880604267,-0.0013811886310577,0.0010603060945868,0.0032890744041651
1783205707151030500,5.585030517578125,-0.5075220174405723,0.2143872489048168,-0.0753261668801307,-0.0013473657891154,-5.7569704949e-06,0.0022467130329459
1783205707160967700,5.5949677734375,-0.549912421663478,0.185935207532905,-0.0875865135163068,0.0046004019677639,0.0049883695319294,0.0022524935193359
1783205707170904600,5.604904541015625,-0.5758471464522182,0.161920235292986,-0.0787456199347972,-0.0010239277034997,0.0024258759804069,-8.12343787401e-05
1783205707180841500,5.614841552734375,-0.5393282646112144,0.1486740559572353,-0.0879997704923152,0.0005705654621124,0.0066699059680104,0.0018323170952498
1783205707190778400,5.6247783203125,-0.496754978102073,0.1856961746126413,-0.0836257931917905,-0.0016339998692274,-0.0078485831618309,0.0018581498879939
1783205707200715500,5.634715576171875,-0.433178870248422,0.2140911885676905,-0.081321607902646,0.0003611892461776,0.0118306931108236,0.0017124514561146
1783205707210652700,5.644652587890625,-0.4669410737924278,0.2683374502791091,-0.0555699115306138,0.0006631920114159,-0.0028316057287156,0.0007856714073568
1783205707220589300,5.65458935546875,-0.4484050078876316,0.2360555849533528,-0.0929378114163875,-9.4368122518e-05,0.0040909182280302,0.0031610378064215
1783205707230526500,5.6645263671875,-0.4740460104268044,0.1968469525717198,-0.0905395181030035,0.0003567710518836,0.0049857404083013,0.0037762280553579
1783205707240463600,5.674463623046875,-0.5004732679728419,0.1644771532341837,-0.0529202738046646,-0.0025567272678017,-0.0043254699558019,0.0016568845603615
1783205707250400500,5.684400390625,-0.5324695578228682,0.1298670276239514,-0.0895259571462869,0.0001503759995102,0.0042933183722198,-0.0018355849897488
1783205707260337700,5.694337646484375,-0.5426366585068404,0.2011449054939672,-0.075599723124504,0.0024554785341024,0.0005791075527667,0.0011107488535344
1783205707270274300,5.7042744140625,-0.4702302515309304,0.2260022833747789,-0.0849842220634222,-0.0007472382858395,0.0005908254534006,0.004769932013005
1783205707280211500,5.71421142578125,-0.4601370198007672,0.2544445705376565,-0.0866191297888755,0.0011447537690401,0.0064950687810778,0.00056097144261
1783205707290148600,5.724148681640625,-0.4227429625604301,0.2408789499891921,-0.0654910015642643,-0.0002712486311793,-0.0026709991507232,-0.0015154953580349
1783205707300085500,5.73408544921875,-0.4095274340912699,0.2155598728807642,-0.0900105257928371,-0.0019425228238105,0.0081137055531144,0.0020819334313273
1783205707310022700,5.744022705078125,-0.4523321182034909,0.2008477126456797,-0.0451128149241209,-0.002886613830924,0.0076617673039436,0.0011242609471082
1783205707319959300,5.753959228515625,-0.488914493734762,0.2151582698099315,-0.0528892941445112,0.0007438119500875,0.0063753938302397,0.0001499671489
1783205707329896400,5.763896484375,-0.507387065949291,0.2070730534339323,-0.0835807850062847,0.0010599298402667,0.0126399472355842,0.0004863245412707
1783205707339833600,5.77383349609375,-0.5046136557132005,0.1980956739911809,-0.0737204852491617,-0.0008855713531374,0.0058179753832519,-0.0004791419487446
1783205707349770500,5.7837705078125,-0.4783607318207621,0.1912701022874564,-0.0668336483448743,-0.0035881474614143,0.0088047105818986,0.0009805366862565
1783205707359707600,5.793707763671875,-0.4513238910090178,0.2043587529739365,-0.0695054979026317,-0.0016222670674324,0.0053580980747938,-0.0007930897409096
1783205707369644300,5.803644287109375,-0.4365326376557349,0.2478929204044863,-0.0925111104369163,-0.0012981602922081,-0.0001021814532577,-0.0004034693120047
1783205707379580400,5.813580322265625,-0.470383323200792,0.3336582829082384,-0.1125491053372621,0.0038478029891848,0.0056738601997494,0.0042837793007493
1783205707389517600,5.823517578125,-0.5320533051721751,0.3273894683044404,-0.0929366423726081,0.005609749816358,0.0025771367363631,0.0051250727847218
1783205707399454700,5.833454833984375,-0.5323072068680077,0.166719196539931,-0.1134124441683292,0.0035149725154042,-0.0052666524425148,-0.0013255651574581
1783205707409391400,5.843391357421875,-0.4866480831727385,-0.0399751232421025,-0.093002108824253,0.0014643389731645,-0.0019891001284122,0.0025826236233115
1783205707419328500,5.85332861328125,-0.5174126392707228,0.0334500688549131,-0.0457996281445026,-0.0022352831438183,-0.0040700724348425,0.0034132390283048
1783205707429265400,5.863265380859375,-0.5113746012154966,0.161758030468598,-0.0672860682874918,0.0022635944187641,-0.00248708948493,0.0033051148056983
1783205707439202600,5.87320263671875,-0.4419396112658083,0.1956354578901082,-0.069180503731966,-0.0003597410395741,-0.0016356441192328,-0.0010222864802926
1783205707449139700,5.8831396484375,-0.4599101887749507,0.2697070946644991,-0.0541752423018217,-0.0010007638484239,-0.0017994283698499,0.0029708570800721
1783205707459076400,5.893076416015625,-0.4368648652847856,0.2907222640339285,-0.0632411768108606,-0.0028007803484797,-0.0011389693245291,0.0035232913214713
1783205707469013500,5.903013427734375,-0.4253426601974293,0.2657662115516141,-0.0791980398774147,-0.0015935692936182,0.0043596592731773,0.0023086236324161
1783205707478950400,5.912950439453125,-0.4686011524917557,0.2057079390931874,-0.0510386978417634,-0.0010367110371589,0.0018253331072628,0.0005249010864645
1783205707488887600,5.922887451171875,-0.4838779974048957,0.1341269866233691,-0.0680675740540027,-0.00342583283782,0.0053329826332628,0.003300713840872
1783205707498823700,5.93282373046875,-0.536498740273714,0.1579620722517371,-0.0445621953040361,-0.004032228142023,0.0078479358926415,0.0010735590476542
1783205707508760600,5.942760498046875,-0.4477387625312432,0.1882047233674675,-0.0404746337294578,-0.0057707391679286,-0.0017628795467317,0.0032251270022243
1783205707518697500,5.952697509765625,-0.4064672793356702,0.2760156567567959,-0.0684229633629322,-0.0062433993443846,0.0103511940687894,-0.0010279179550707
1783205707528634600,5.962634521484375,-0.437272934629023,0.2830819784138351,-0.0272474878877401,-0.0046391105279326,-0.0012633842416107,0.0007073977030813
1783205707538571500,5.972571533203125,-0.457486359161511,0.2164212024178355,-0.0729787269711494,-0.0040456801652908,0.0049314768984913,0.0018488366622477
1783205707548508700,5.9825087890625,-0.5146544266037643,0.1562553413990885,-0.068770169365406,-0.0038299653679132,0.0053866114467382,-0.0014191281516104
1783205707558445600,5.992445556640625,-0.5328934457907453,0.1363375753449276,-0.0420867451012134,-0.0060692122206091,-0.002121458761394,-0.0022297084797173
1783205707568382500,6.002382568359375,-0.526002809494175,0.1585222268851474,-0.0763256993114948,-0.001862215809524,0.0077391611412167,0.0009817974641919
1783205707578319600,6.012319580078125,-0.5205497317200526,0.1893069124557077,-0.0444330159664154,-0.0008709887042641,0.0003068801015615,0.0005366264376789
1783205707588256500,6.022256591796875,-0.4818916824258863,0.209208531092666,-0.0565250202983617,0.0008946871384978,0.0028264969587326,-0.0016066854586824
1783205707598192600,6.032192626953125,-0.4620561147624626,0.2172008450208231,-0.0457370843023061,5.33256679773e-05,0.0027126306667923,0.0006526228971779
1783205707608129500,6.042129638671875,-0.4363969555120915,0.2135868192421272,-0.0280354233950376,0.0003100540488958,0.0004785046912729,0.002045722445473
1783205707618066400,6.05206640625,-0.452884929780662,0.1947981668157503,-0.0609282236933708,0.0001808451488614,0.0024752095341682,0.0019797976128757
1783205707628003600,6.062003662109375,-0.4962369090447202,0.1793763239413499,-0.0493938532441854,-0.0020873686298727,0.0044033378362655,0.0008578079286962
1783205707637940700,6.071940673828125,-0.5302964150348678,0.1491052869813516,-0.0574614243656396,-0.000803479924798,0.0055790413171052,0.0004217661917209
1783205707647877600,6.081877685546875,-0.5186938747202977,0.1207929098084568,-0.0399503175944089,-0.0020591598004102,0.0030146832577884,0.0005453368648886
1783205707657814500,6.091814453125,-0.4685157392306253,0.1493240077659487,-0.0482990437448024,-0.0013783359900116,0.0026719686575233,-0.0021727173589169
1783205707667751400,6.10175146484375,-0.4551461161782965,0.2087654635002836,-0.0418354006886482,-0.0028822226449847,0.0021896702237427,0.0002488950267434
1783205707677688600,6.1116884765625,-0.4516036943310871,0.2395020721454173,-0.0343137730121612,-0.0035524759441614,-0.0006415857933461,0.0005495261866599
1783205707687625700,6.121625732421875,-0.4335117189319804,0.2168681424677372,-0.0493874235033988,-0.0043197320774197,0.003001885022968,0.0025753928348422
1783205707697562600,6.131562744140625,-0.4685644372105598,0.2358670766439288,-0.0540051464319229,0.0003931447863578,0.0029784138314425,0.0006900005973875
1783205707707499500,6.14149951171875,-0.4722208773588761,0.2215583826432004,-0.0460486344695091,-0.0022124918177723,0.0045813703909516,0.0022657932713627
1783205707717436700,6.151436767578125,-0.455756247433275,0.1894394527941942,-0.0298603007346391,-0.0022926637902855,0.0041681830771267,0.0035256869159638
1783205707727373600,6.16137353515625,-0.4565275971319526,0.1753258064415305,-0.0416559524685144,-0.0006942339241504,0.0023175524547696,-5.360157229e-05
1783205707737310700,6.171310791015625,-0.4528931130871176,0.1820357889415696,-0.045949850270152,-0.0023471545428037,-0.0013375380076467,0.0003261470701545
1783205707747247600,6.18124755859375,-0.4554387059167027,0.2170043360680341,-0.038572014978528,0.0003596823662519,-0.0015673679299652,0.0040322020649909
1783205707757184500,6.1911845703125,-0.4832079161236062,0.1919958592787385,-0.0491571218788623,0.0015777731314301,0.0023137736134231,0.0023040561936795
1783205707767121700,6.20112158203125,-0.4740205471919849,0.162856675892882,-0.0398521179169416,0.0002994555979967,0.0016253464855253,0.0043168733827769
1783205707777058600,6.21105859375,-0.4869592314811423,0.173400756663084,-0.0351800344526767,-0.0014375168830156,0.0001416825689375,0.0023929355666041
1783205707786995700,6.22099560546875,-0.4676107897475361,0.1935201827691867,-0.0322954189270734,0.0012054042890667,0.0002159848809242,0.0006720006931573
1783205707796932600,6.2309326171875,-0.4498990823702886,0.1996302996799349,-0.0410924733668565,0.000345884822309,-0.0007729334756731,0.0022631334140896
1783205707806868500,6.240868408203125,-0.4180695639219134,0.1881261417059227,-0.0456815547227859,0.0010926350951194,-0.0007875803858041,0.0028231958858668
1783205707816805600,6.2508056640625,-0.4332889430267736,0.1596803108790889,-0.0373953724145889,0.0007407423108816,-0.0006627650000154,0.0017347510438412
1783205707826742500,6.260742431640625,-0.4646276822835207,0.1404727023882791,-0.0299959098130464,-0.0036497451364994,-0.0029855747707188,0.0020631188526749
1783205707836679700,6.2706796875,-0.4664536921342834,0.1609696200372651,-0.0441284800618886,-0.002778185531497,-0.0050011430867016,0.0025898809544742
1783205707846616600,6.280616455078125,-0.4757445945056155,0.198144225840643,-0.0421188938051462,0.0029840962961316,-0.0021126787178218,0.0011997106485068
1783205707856553500,6.290553466796875,-0.4642654979076236,0.2422227292809635,-0.0429775564610958,-0.0012873029336333,-0.0036061671562492,0.003372651990503
1783205707866490600,6.30049072265625,-0.4343788936879486,0.2639801683850586,-0.0379763871729373,0.0009225877001881,-0.0030421097762882,-0.0010306185577064
1783205707876427800,6.310427734375,-0.4021075132235884,0.3087165877448394,-0.0277443314939737,-0.0011536898091435,-0.0023391237482428,0.0029068877920508
1783205707886364700,6.32036474609375,-0.3829542652685195,0.3229300412101671,-0.0045189387291669,0.0005387486889958,0.000919253565371,0.0006107103545218
1783205707896301600,6.330301513671875,-0.333194428256154,0.3487953905571252,-0.0092243399411439,-1.92616134881e-05,-0.0125775327906012,0.0020316541194915
1783205707906238500,6.340238525390625,-0.386228866492398,0.3149986636890098,-0.0786246239036321,0.0031522968783974,0.0084217591211199,0.0045704455114901
1783205707916175600,6.350175537109375,-0.4475836815673857,0.1587217680452391,-0.025181203007698,0.0010568592697381,-0.0025504142977297,0.0023898887448012
1783205707926112800,6.36011279296875,-0.5010247643757612,0.0446329955179244,-0.0122404728919267,-0.00324840657413,-0.0062615289352834,0.0015613792929798
1783205707936049700,6.370049560546875,-0.4691127552757039,-0.0027114874484017,-0.0186041627049446,-0.004154366441071,0.0012171729467809,0.0023047355934977
1783205707945986600,6.379986572265625,-0.5666370542321354,0.1023477005248889,0.0037403555721044,-0.0008962554857134,0.0001268750056624,0.0032733273692429
1783205707955923500,6.38992333984375,-0.5393031301699578,0.155522862406075,-0.0423193848133087,0.003627061843872,0.0019791540689766,0.0034278305247426
1783205707965859600,6.399859619140625,-0.5278646578432992,0.2041410185700282,-0.0445545965194702,-0.0001349197700619,0.0059576504863798,0.0017329945694655
1783205707975796700,6.409796630859375,-0.5145263067120686,0.1716842716014012,0.0142711019366979,-0.0035873530432581,0.0019593387842178,0.000884395558387
1783205707985733600,6.419733642578125,-0.4616626219328492,0.1542708530509844,-0.0084305592149496,-0.0034587224945425,3.65362502634e-05,0.0012116979341953
1783205707995670500,6.42967041015625,-0.4225620530355721,0.1534769261943176,-0.0431283631086349,-0.0011249342933297,0.0047404263168573,0.0036204867064952
1783205708005607700,6.439607666015625,-0.4372305933246388,0.1143425280926749,-0.0034369887113571,-0.0019483836367726,-0.0049343057908117,0.0016963528469204
1783205708015544600,6.449544677734375,-0.493303814734891,0.0859904764965176,-0.0354115051209926,-0.0032706400379538,0.001933854073286,0.0001256065443158
1783205708025481700,6.459481689453125,-0.544853530838713,0.1346183138042688,-0.0419593193292617,-0.0016242740675807,-0.0019554267637431,-0.0004059604834765
1783205708035418600,6.469418701171875,-0.5106314181653783,0.1870925608744844,-0.0407020127445459,-0.0010431725531816,-0.0042779692448675,0.0046884003095328
1783205708045355500,6.47935546875,-0.4896875604664906,0.1924049515362829,-0.0441068527519702,-0.0016879234462976,-0.0020824591629207,0.0036210054531693
1783205708055292700,6.489292724609375,-0.4502699615092947,0.1460057865960523,-0.0287906256765127,0.0004231231287121,-0.0009470302611589,-0.0002917636884376
1783205708065229600,6.4992294921875,-0.4475602641591802,0.1393528680454939,-0.0372755454272031,-0.005590028129518,-0.0031505301594734,0.0010217074304819
1783205708075166700,6.509166748046875,-0.4159870585594326,0.146284676602669,-0.0018763152658939,-0.0078062359243631,-0.0023409095592796,0.0010657829698175
1783205708085103600,6.519103515625,-0.4743254849553108,0.2025013981368392,-0.0296674085110425,-0.0006114393472671,0.0059564346447587,0.0001637702807784
1783205708095040500,6.52904052734375,-0.4734868787067011,0.2133191082166507,-0.0220142634093761,0.0002752561122179,-0.0043997671455144,0.0011053711641579
1783205708104976600,6.5389765625,-0.4588426326086744,0.1672269999315962,-0.0643050066500902,-0.0006320821121335,0.0033974354155361,0.0010465153027325
1783205708114913800,6.548913818359375,-0.4973066206354647,0.1467455721126869,-0.0150555303126573,-0.0012127570807933,0.0022122357040643,-0.0005186382913962
1783205708124850400,6.558850341796875,-0.429412686115317,0.157636968483217,0.0005722469300031,-0.0026735002174973,-0.0079328101128339,0.0010688721667975
1783205708134787600,6.56878759765625,-0.3903805793443694,0.1953985073290765,-0.0502431635499,-0.0025090537965297,0.00647565536201,0.0029478245414793
1783205708144724500,6.578724365234375,-0.4718963215796277,0.2385735956562683,0.0041021746218204,-0.0034744497388601,-0.004771938547492,0.0025960211642086
1783205708154661600,6.58866162109375,-0.4543480246031656,0.2259951229816302,-0.0292243409186601,-0.0007030153647065,0.0060902638360857,-0.0012217313051223
1783205708164598800,6.598598876953125,-0.4588322938777506,0.2447950639870017,-0.0280266555666923,0.0013119326904416,0.0015993756242096,0.0019780565053224
1783205708174535400,6.608535400390625,-0.413980541042611,0.1974176651317626,-0.0134434189409017,-0.0025343541055917,-0.0013804035261273,-0.0004959087818861
1783205708184472600,6.61847265625,-0.4861546005673706,0.1847382163006812,-0.0363315425753593,-0.0014818729832768,0.0123005211353302,0.001903599128127
1783205708194409700,6.62840966796875,-0.4279846991388127,0.1653422090983018,-0.0038075755894184,-0.0007350025698542,-0.0125940134748816,-0.0004168933955952
1783205708204346600,6.6383466796875,-0.4411493011383339,0.171515417840518,-0.0571919597744941,-0.0041563659906387,0.0187780261039733,0.0013383959885686
1783205708214283800,6.64828369140625,-0.4957552995402365,0.1696408926729112,0.0258498960494995,0.0024705501273274,-0.0079002194106578,0.0026510218158364
1783205708224219600,6.6582197265625,-0.3942599049957468,0.1919166200300678,-0.0429044912248849,-0.0042379535734653,0.0063146692700684,0.003033984452486
1783205708234156500,6.668156494140625,-0.4249329834179952,0.2325901373324915,-0.0289940392941236,-0.0014016507193446,0.0071363346651196,0.0004992745816707
1783205708244093700,6.67809375,-0.3953608885075896,0.2472795012138783,0.0072802201360464,-0.0032221879810094,-0.0060684168711304,0.0014087439049035
1783205708254030600,6.688030517578125,-0.3626997050080448,0.172189846503362,-0.051183074748516,-0.0034201480448246,0.0111711993813514,0.001272439956665
1783205708263967500,6.697967529296875,-0.4929739617260172,0.143008175682649,0.0053968906074762,-0.0032616900280117,-0.0056533212773501,0.000300119863823
1783205708273904600,6.707904541015625,-0.4656171317122876,0.146857909913361,-0.0274748669028282,-0.0022919811308383,0.0065690008923411,0.0011450042948126
1783205708283841500,6.717841552734375,-0.4291342710327356,0.1637912533292546,-0.0340484000742435,-0.0017638765275478,0.0034850602969527,0.0002280778717249
1783205708293778700,6.72777880859375,-0.4466305820936337,0.2055985604345798,-0.0153057056814432,-0.0001272680237889,-0.0017242548055946,0.0024264683015644
1783205708303715600,6.737715576171875,-0.4304313981711864,0.1385548495355993,-0.0344195714741945,-0.004371547140181,0.0017170817591249,0.000690619694069
1783205708313652500,6.747652587890625,-0.4677819815959781,0.1435595259550958,-0.0116308165609836,-0.0028283186256885,-0.0008907755836844,-0.0034808425698429
1783205708323588600,6.757588623046875,-0.4649678374907001,0.1694960408421233,-0.031785131317377,-0.0056952117010951,0.0004128417931497,0.0001511764712631
1783205708333525800,6.76752587890625,-0.4062596644669771,0.1989951435815543,-0.0272568402379751,0.0005314676091074,0.0012869439087808,-0.0001361385220661
1783205708343462700,6.777462646484375,-0.4356893186993896,0.1925754857975989,-0.0222924958288669,-0.0014659026637673,-0.0019679716788232,-0.0003979272441938
1783205708353399600,6.787399658203125,-0.4477184503955766,0.1559714098911732,-0.0244879600465297,-0.0045702513307332,0.0017106062732636,0.0022775712423026
1783205708363336400,6.79733642578125,-0.4842854091620072,0.196010392149724,-0.0086053312599658,-0.0029782140627503,-0.0007586767897009,0.0044760107994079
1783205708373273600,6.807273681640625,-0.4351656236188486,0.206584612329863,-0.0162193133950233,-0.0026080347597599,0.0055061434395611,0.004657638259232
1783205708383210800,6.817210693359375,-0.3598168795807286,0.1622800815813243,-0.0240986684679985,-0.0022274693474173,-0.0069031221792101,-0.0012838740367442
1783205708393147600,6.827147705078125,-0.4118014799704775,0.1599530268732458,-0.0329120895206928,0.0002508964389562,0.0052189351990818,-0.0005065673030912
1783205708403084500,6.83708447265625,-0.3805679181212559,0.0917512319803237,-0.0026151509344577,-0.0008892025798559,-0.0065580955706536,-0.0001374530838802
1783205708413021400,6.847021484375,-0.4954712219018489,0.1469465380448848,-0.0509065958946943,-0.0029735565185546,-0.0051042605191469,-0.000301718013361
1783205708422957600,6.85695751953125,-0.4592930432572961,0.192096214380674,-0.0228740951091051,0.0012763161212205,0.005961705930531,0.0021888702176511
1783205708432894700,6.866894775390625,-0.5625418208077549,0.2733553880389779,0.0086988547623157,0.0008420506492257,0.0031612236052751,0.0016196435317397
1783205708442831600,6.87683154296875,-0.5346852611109614,0.1243845045596361,0.0034971944659948,-0.0010780887678265,0.0034381924197077,0.0017677152063697
1783205708452768500,6.8867685546875,-0.5266763613741845,0.0824426478218287,-0.030041502520442,0.0028871083632111,0.0131742395460605,0.0002667855005711
1783205708462705700,6.89670556640625,-0.4856257909202948,0.0837500040933489,-0.0083329440593719,-0.0043654786422848,-0.0042649386450648,-0.0021026290487498
1783205708472642600,6.906642578125,-0.3857072903037071,0.1442214969951659,-0.0512274984121322,0.0002484312281012,0.0132399573922157,-0.0030731125734746
1783205708482579700,6.916579833984375,-0.3718890832336619,0.2246893741453066,-0.0045686230897903,0.000201559625566,-0.0038865655660629,-0.0003204692620784
1783205708492517400,6.926517333984375,-0.2795041564596817,0.2153668345266953,-0.0031248540222644,-0.0051799472421407,-0.0071314577944576,0.0039808321744203
1783205708502454300,6.936454345703125,-0.4509781097786501,0.2732038142064586,-0.0381324545174837,0.0021623875945806,0.0096648326143622,-0.0004543962422758
1783205708512390400,6.946390380859375,-0.4627908953104168,0.2263846702884882,0.0094867902696132,0.0014245975762605,-0.0129908928647637,0.0030592316761612
1783205708522327300,6.956327392578125,-0.409738519558683,0.1244758361048996,-0.0663198536038398,-0.0058247940614819,0.0099815344437956,0.0011132599320262
1783205708532264400,6.966264404296875,-0.4862727470543235,0.1024531336607411,0.0162964702844619,-0.0029955459758639,-0.0007995893247425,-0.002571138786152
1783205708542201300,6.976201416015625,-0.4767509220039472,0.2029693079095333,-0.0213812262028455,-0.0014013778418302,0.0011775414459407,-0.0023623469751328
1783205708552138200,6.98613818359375,-0.3731493854930624,0.2552277568046003,-0.0465063151091337,0.0010893894359469,0.0037659311201423,0.0007984009571373
1783205708562075400,6.996075439453125,-0.3915505729718133,0.2435278935953974,0.0035071313381195,-0.0011745635420084,-0.0024501527659595,0.0006591177079826
1783205708572012500,7.006012451171875,-0.4304120724162086,0.152724646522291,-0.0154740479856729,-0.0008888803422451,0.0029289978556334,0.001425698865205
1783205708581949400,7.015949462890625,-0.483894071756862,0.0969075918301939,-0.0194897133678197,-0.0034010400995612,0.0030272686854004,0.0006637685000896
1783205708591886300,7.02588623046875,-0.5002222158212214,0.078118939403817,-0.0279863235563039,-0.0047243144363164,0.0005278410390019,0.0034775626845657
1783205708601822500,7.035822509765625,-0.4624287474671378,0.0971412544555962,-0.0198719906836748,0.0004158522933721,0.0013283872976899,0.0029196301475167
1783205708611759400,7.04575927734375,-0.444276456715539,0.1296429000118747,-0.0087795187830924,-0.0014855004847049,0.0008070520125329,0.0013531178701668
1783205708621696500,7.055696533203125,-0.4302001466985791,0.1483164746912196,-0.0244569803863763,-0.0009858906269073,0.0007993290200829,0.0016681698616594
1783205708631633400,7.06563330078125,-0.4605182376706973,0.1452061971835792,-0.0150151983022689,0.0005283346399664,0.0040364535525441,0.0015974324196577
1783205708641570300,7.0755703125,-0.483850378745608,0.0742721277825534,0.0047656069666147,-0.0026634633541107,0.0005421196110546,0.0021060961298644
1783205708651507500,7.085507568359375,-0.5042334242239594,0.0687184026455506,-0.0242436298966407,-0.0013149352744221,0.0011891038157045,0.0018253372982144
1783205708661444400,7.0954443359375,-0.4864792659444734,0.1200137055968865,-0.0071568860173225,-0.002939729951322,0.0016309223137795,-0.000295337755233
1783205708671381500,7.105381591796875,-0.4475204436054453,0.1923484355760738,-0.0111684597462415,-0.0017851376906037,0.0033858302049338,-0.0001637383829802
1783205708681317400,7.1153173828125,-0.3778219804139807,0.2662367882054299,-0.021171382844448,-0.001229602843523,0.0012172181159257,0.0036645557265728
1783205708691254300,7.125254150390625,-0.3328844489915296,0.3028395124049857,-0.0293722249567508,-0.0014195404946804,0.0012692082673311,-0.0003802726278081
1783205708701191400,7.13519140625,-0.3408970019901171,0.2965849455222487,-0.0190144970715045,-0.0003372319042682,-0.0004232306964695,0.0020282904151827
1783205708711128600,7.145128662109375,-0.3739406454686075,0.2038771434694528,-0.0125368254899978,-0.0044224159792065,0.001489080954343,0.0033917753025889
1783205708721065200,7.155065185546875,-0.4315336603246629,0.132532374375686,-0.007269698742032,0.0004700776189565,0.001031017396599,0.0021611284464597
1783205708731002400,7.16500244140625,-0.478894436838664,0.1387248358076438,-0.0132382517576217,-0.0015721945092082,0.0046416232362389,0.0012331716716289
1783205708740939300,7.174939208984375,-0.4996628283727913,0.1456714766077697,-0.0244406137734651,-0.0018403744325041,0.0023734085261821,0.0008336976170539
1783205708750876400,7.18487646484375,-0.443283171361871,0.1308084001272916,-0.0232201320677995,-0.0019892966374754,-0.0001427000388503,0.0007054957095533
1783205708760812300,7.194812255859375,-0.435422594054602,0.1239569267973303,-0.0236380652189254,-0.0011650482192635,0.0030320542864501,-0.0001680211862549
1783205708770749400,7.20474951171875,-0.4299861020890995,0.1462615514554083,-0.0002560205876827,-0.0020673321560025,-0.0016559190116822,0.0009437017142772
1783205708780686300,7.214686279296875,-0.4335846015051007,0.1835440015474334,-0.02670680513978,-0.0022502914071083,0.002775581087917,0.0016992406453937
1783205708790623500,7.22462353515625,-0.4413404032636434,0.1610322734773158,-0.0132288994073867,-0.0022533787414431,0.0027965167537331,0.0040045967325568
1783205708800560400,7.234560302734375,-0.4023284624978899,0.1628149921756237,0.0002922609448432,-0.0042315749451518,-0.0037058568559587,0.0019385162740945
1783205708810497300,7.244497314453125,-0.4136358923234045,0.202851015292108,-0.0188397250264883,0.0009438032284379,0.0059653678908944,-0.0023653130047023
1783205708820434400,7.254434326171875,-0.3879435979884117,0.16278806763608,-0.0033908114820718,4.73828986287e-05,-0.0023218570277094,0.0008374045137315
1783205708830370300,7.264370361328125,-0.4068963549353182,0.1692223019346594,-0.0424222606658935,-0.0021954271942377,0.0078281359747052,0.0016559145879
1783205708840307500,7.274307373046875,-0.4127332078626379,0.1652411964092403,0.0027870003700256,-0.0010273642838001,0.0010951324366033,-0.0014794250018894
1783205708850244400,7.284244384765625,-0.4237480844823643,0.1379830409970134,-0.0190320327281951,-0.0009016627445816,-0.0013342029415071,0.0020945686846971
1783205708860181200,7.29418115234375,-0.4503867197567597,0.1138692845577374,-0.0320282924234867,-0.0012508034706115,0.0051692361012101,-0.0004468858242034
1783205708870118400,7.304118408203125,-0.459561265739426,0.099337412793003,-0.0102945995211601,-0.004064917564392,-0.0029177786782383,0.0007778119761496
1783205708880055600,7.3140556640625,-0.4806817586468532,0.1353088533516973,-0.0158078099846839,0.0007548714056611,0.0113506391644477,-0.0025324972812086
1783205708889992400,7.323992431640625,-0.4567661185955629,0.1871439257355406,-0.0032382512688636,-0.0028928332030773,-0.0026581985875964,0.0005363831296563
1783205708899928300,7.33392822265625,-0.3454375314965844,0.1821225539095699,-0.0250350725352764,-0.0043453210964798,0.0061608594842255,0.0033705192618072
1783205708909865500,7.343865478515625,-0.418719223469682,0.2053488234572112,-0.0040828853994607,0.0004592137411236,0.0032451073639094,0.0005902391858398
1783205708919802400,7.35380224609375,-0.4056780651867389,0.1637930068949237,0.0133212538659572,-0.0019506802782416,-0.0041840467602014,0.0006213979795575
1783205708929739500,7.363739501953125,-0.4292175288693979,0.1755036472264677,-0.0448795906901359,-0.0004434017464518,0.0075520011596381,0.00245460588485
1783205708939676200,7.37367626953125,-0.4470731382293626,0.167890980265662,0.0135071318268775,0.0006002904847264,-0.0070501109585165,0.0026471521705389
1783205708949613300,7.38361328125,-0.4013149015411734,0.1161807398378848,-0.0425561161786317,-0.0026700114831328,0.0065705790184438,0.0021500678267329
1783205708959550500,7.393550537109375,-0.4521507702872157,0.1222883359979838,-0.0169604871511459,-0.0016819788143038,0.0016117733903229,-0.0005655573913827
1783205708969486600,7.403486572265625,-0.467984006974101,0.1217412235092371,-0.0041892683833837,-0.0023821657523512,-0.0006588706746697,-0.0009848859626799
1783205708979423200,7.41342333984375,-0.4571328330161049,0.1447297387782484,-0.0344137262552976,-0.0010700263082981,0.005515135359019,0.0022995905019342
1783205708989360400,7.4233603515625,-0.427878425752744,0.1702222362248227,0.0076572367548942,-0.0002592084929347,-0.0016262969002127,0.0002822417300194
1783205708999297300,7.43329736328125,-0.3904029373066499,0.1403385911472141,-0.0238783037155866,-0.0063575813546776,0.003256076015532,0.0004409661050885
1783205709009234400,7.443234375,-0.4620115084357559,0.1505824468618258,-0.0042500586599111,-0.0009833220392465,-0.0003082985058426,0.0017142202705144
1783205709019171600,7.453171630859375,-0.4393421055858954,0.1635749436974525,-0.0106558340489864,-0.0014379238709807,0.0028486126102507,0.0021286085247993
1783205709029107500,7.463107421875,-0.4264638827797025,0.1638109809430316,-0.0152764795869588,-0.0021989401429891,0.0014527491293847,-0.0004930758150294
1783205709039044400,7.47304443359375,-0.4587864454420283,0.1232054873755201,0.0003051204264163,-0.0003903871402144,0.0006817639805376,0.0023059064988046
1783205709048981500,7.4829814453125,-0.4615898124249651,0.0812862808609381,-0.0221229844808578,-0.0010274481028318,0.0053049908019602,0.0022717867977917
1783205709058918400,7.49291845703125,-0.460012516638264,0.1150791718041524,-0.0203068749696016,-0.0013547502458095,-0.0020631770603358,0.0004653646610677
1783205709068855300,7.502855224609375,-0.4100567917276173,0.1620306733975187,-0.0178746793866157,-0.0035243453457951,0.0017445762641727,0.0030423845164477
1783205709078792400,7.51279248046875,-0.3949515039891004,0.1745654895935207,-0.0206897368073463,-0.0037749484181404,0.0041515412740409,0.0021425024606287
1783205709088729300,7.522729248046875,-0.4229695378579199,0.1661543291987851,-0.013785948768258,-0.0009259348735213,0.0014165397733449,0.0014055767096579
1783205709098665500,7.53266552734375,-0.4225878450639546,0.1648172719087451,-0.0037350948750972,-0.0013722805306315,0.0036296264734119,0.0031384956091642
1783205709108602400,7.542602294921875,-0.4136357827255502,0.1819245471194386,-0.0072948331832885,-0.0036927890032529,-0.0007472541183233,0.0020957896485924
1783205709118539300,7.552539306640625,-0.4092777336465195,0.1929424194138497,-0.0092050507187843,-0.0009731687605381,0.002573974430561,0.0019128303974866
1783205709128476400,7.562476318359375,-0.4271183646330609,0.1797417962528765,-0.0177262108266353,0.0015197321772575,0.0014172187075018,0.0028921868652105
1783205709138413300,7.572413330078125,-0.4278967651270329,0.1425495451949536,-0.0132183780133724,-0.0027056392282247,0.0036207183729857,0.0024309274740517
1783205709148350500,7.5823505859375,-0.4379190870454534,0.110323392111808,-0.0182826756656169,-0.0025768652558326,0.0032596038654446,0.0009187245741486
1783205709158286300,7.592286376953125,-0.4360251995902508,0.1431419215975329,-0.0157294840514659,0.0002444870769977,0.0034830430522561,0.0009791783522814
1783205709168223500,7.602223388671875,-0.4144476836303248,0.155811214360781,-0.0130173024833202,-0.0014050742611289,0.0011737337335944,0.0023713309783488
1783205709178160400,7.612160400390625,-0.3698836251627653,0.1422461783342063,-0.0192599962651729,-0.0040591806173324,-0.0020100753754377,0.0021500221919268
1783205709188097500,7.62209765625,-0.3516358016148209,0.1445406459469348,-0.0251958160549402,-0.0015569031238555,-0.0017193732783198,0.0023377242032438
1783205709198034200,7.6320341796875,-0.3853774372948333,0.1778245279220864,-0.010477554872632,-0.004029382020235,-0.0047862697392702,8.28257761895e-05
1783205709207971300,7.641971435546875,-0.4536935062171891,0.2230006904060021,-0.0212175600737333,-0.0009905248880386,0.0049410481005907,0.0024568489752709
1783205709217907500,7.651907470703125,-0.4573843600917607,0.1799965381989255,-0.0050514381706714,-0.0016440646722912,0.0046845856122672,0.0016698851250112
1783205709227844400,7.66184423828125,-0.4359569201270118,0.1313294648593291,0.0002121814459562,-0.0022277608513832,-0.0002786163240671,0.001682223053649
1783205709237781200,7.67178125,-0.4212885259684175,0.0911721534507349,-0.0178711722552776,-0.0024061929434537,0.0055414559319615,-0.0003079574089497
1783205709247718400,7.681718505859375,-0.4204506138395518,0.0867852801360189,-0.0042407063096761,-0.0011974889785051,0.0010031484998762,0.0042839348316192
1783205709257655300,7.6916552734375,-0.4060774397678673,0.1409970915885642,-0.0269581495523452,-0.0035250922664999,0.0041984096169471,0.0019816323183476
1783205709267592400,7.701592529296875,-0.3948842109065503,0.1868091408232227,-0.005841127243638,-0.0021668272092938,-0.001342253293842,-0.0004181817639619
1783205709277528300,7.7115283203125,-0.3940460430493578,0.2083002936739474,-0.010449497821927,-0.0014304630458354,0.0028045549988746,0.0004039360210299
1783205709287465200,7.72146533203125,-0.4145205296708271,0.190270460258238,-0.0218026664853096,-0.0003128740936517,-0.0005506798624992,0.0010074137244373
1783205709297402400,7.73140234375,-0.4094649633143097,0.1551910001032054,-0.0029079964011907,-0.0016899947077035,-7.18436203896e-05,0.0007940945215523
1783205709307339500,7.741339599609375,-0.4133313929514959,0.1104967759173363,-0.014850947651267,-0.0021995836868882,-3.40244732797e-05,-0.000728468527086
1783205709317276400,7.7512763671875,-0.4381994383567943,0.0946511546729132,0.0086696286678314,0.0001964615657925,0.0017809197306632,0.001988754607737
1783205709327213300,7.76121337890625,-0.4534912251107394,0.0863343945633619,-0.0249807119995355,-0.0009118150919675,-0.0001122797839343,0.0017811802681535
1783205709337149400,7.7711494140625,-0.4534316769432276,0.1059389664825052,-0.0221218154370784,-0.0036058686673641,0.0027926960028707,0.0010301689617335
1783205709347086300,7.78108642578125,-0.4368285883950069,0.1411537434550002,-0.0033989947885274,-0.0008941609412431,0.0028382199816405,-0.0007324760081246
1783205709357023500,7.7910234375,-0.4125273465596139,0.1695652336208149,-0.0175958624452352,0.0020718015730381,0.0018901345320045,0.0011200187727808
1783205709366960400,7.80096044921875,-0.4016165148362517,0.1723911412291228,-0.0235673380702734,0.0004814965650439,0.0041149957105517,-0.000280569307506
1783205709376897300,7.810897216796875,-0.4039026530120521,0.1767999706473201,-0.0124783733010292,-0.0030216248705983,0.0011048251762986,0.0006139865145087
1783205709386833400,7.82083349609375,-0.3946547860648483,0.1480287072584032,0.000128594815731,-0.0017505045980215,-0.0016826190985739,-0.0007511909352615
1783205709396770600,7.8307705078125,-0.4098388381280005,0.136576863993518,-0.0100245504081249,-0.0001648580655455,0.0039278622716665,0.001487195957452
1783205709406707200,7.840707275390625,-0.4282230744719505,0.1082137795466929,-0.0026712650358676,-0.0022039553150534,-0.0013921544887125,0.0012989584356546
1783205709416644400,7.850644287109375,-0.4269833766091614,0.0911757336473092,-0.0129658645570278,-0.0024947728961706,0.0037996778264641,3.12938354909e-05
