time,seconds_elapsed,ax,ay,az,gx,gy,gz
1783206910354355200,0.068355224609375,-0.0123886491909623,0.106736035144329,0.0420528428316116,0.1472872197628021,0.1521161347627639,-0.0367360860109329
1783206910364291800,0.078291748046875,0.0028368673937395,0.0990700305610895,0.0925572876662015,0.1372055560350418,0.1283849626779556,-0.0382556840777397
1783206910374228000,0.08822802734375,-0.0017439210578799,0.0768020846515893,0.1387906310528516,0.1062201261520385,0.1037185862660408,-0.0380825027823448
1783206910384165000,0.0981650390625,0.0325717516504228,0.0643178661316633,0.1106640222430229,0.0823448896408081,0.0793874189257621,-0.0354459732770919
1783206910394101000,0.10810107421875,0.040277503722161,0.0373977105021476,0.0532920297265052,0.0683541223406791,0.0675896778702735,-0.0354135632514953
1783206910404038000,0.118037841796875,0.0041276378566399,0.0302905088454484,0.0771446144789457,0.0568492636084556,0.0684030130505561,-0.0354830734431743
1783206910413975000,0.12797509765625,0.0430678650930523,0.0547550880163908,0.0785690943241119,0.0514284595847129,0.0566644817590713,-0.0251462869346141
1783206910423911200,0.1379111328125,0.0633550489814952,0.0405009372144937,0.0255769243270158,0.0560977794229984,0.0730322748422622,-0.0155546441674232
1783206910433847800,0.147847900390625,0.0138066992953419,0.0312877031892538,0.0337321737319231,0.0736594125628471,0.1169201359152793,-0.0193512942641973
1783206910443784000,0.157783935546875,-0.0435185314700007,0.0573252307653427,-0.0198000944912433,0.1076655834913253,0.1470303684473037,-0.0270286556333303
1783206910453721000,0.16772119140625,-0.0682883771978318,0.0857207196444272,-0.1239572190582752,0.1453388333320617,0.1550849080085754,-0.0333196707069873
1783206910463658000,0.177657958984375,-0.0821324858941137,0.0945470001786947,-0.1877858403682708,0.1756876856088638,0.1540239006280899,-0.0390430688858032
1783206910473593900,0.18759375,-0.0988306688472628,0.0592675970047712,-0.1781926671147346,0.1946524679660797,0.1603253632783889,-0.046370081603527
1783206910483531000,0.197531005859375,-0.0860258400708437,0.0491693968385458,-0.0605845248222351,0.1967188119888305,0.1544245928525924,-0.0425311364233493
1783206910493467100,0.207467041015625,-0.0387726521171629,0.0313759659945964,-0.0407224710106849,0.205773651599884,0.1574275642633438,-0.0327025093138217
1783206910503403800,0.21740380859375,0.0055324996858835,0.0020317980885505,-0.0298573781251907,0.2059821635484695,0.1467152684926986,-0.0379630513489246
1783206910513340000,0.22733984375,0.0312079159513115,-0.0311322203665971,-0.0403173973411321,0.1906240284442901,0.1273008733987808,-0.0407768413424491
1783206910523277000,0.237277099609375,0.1125476440325379,0.0089981299698352,-0.0138011463373899,0.1558277010917663,0.082775741815567,-0.0437185689806938
1783206910533214200,0.247214111328125,0.1809357004788704,0.018390812215209,0.0322790523141622,0.1081553548574447,0.0538364350795745,-0.046944361180067
1783206910543149800,0.25714990234375,0.1557216181148774,-0.0472545031279325,0.1350800860971212,0.0647104084491729,0.0312749333679676,-0.038571648299694
1783206910553087000,0.2670869140625,0.1052836443789303,-0.0956406406342983,0.2021989811241626,0.0238577835261821,0.0175130479037761,-0.0237434357404708
1783206910563023000,0.277023193359375,0.0823036046773195,-0.0811374835073947,0.2289911264598369,-0.0273012779653072,-0.0093047181144356,-0.0163904465734958
1783206910572960000,0.2869599609375,0.0599907967127859,-0.046524435287714,0.2081622734427451,-0.0592365711927413,-0.0124230133369565,-0.0048190117813646
1783206910582897000,0.29689697265625,0.0795176272206008,-0.0193149413228034,0.1969429602921009,-0.0767516493797302,-0.0360865332186222,-0.0040991595014929
1783206910592833000,0.3068330078125,0.0765096775762736,-0.0293535202562808,0.0756108290404081,-0.0811003744602203,-0.0578043013811111,-0.001113005913794
1783206910602770200,0.316770263671875,0.0776912885762751,-0.0009767360776662,0.0162917941093444,-0.0714975520968437,-0.037667877972126,-0.003933825995773
1783206910612706000,0.3267060546875,0.0409884284704923,0.0257283154964447,0.0286363118976354,-0.0547334961593151,-0.0332975573837757,-0.0065402071923017
1783206910622643000,0.336642822265625,-0.004978500798624,0.0463332966297864,-0.0160755210101604,-0.0349395535886287,-0.032646145671606,-0.0099274814128875
1783206910632579000,0.3465791015625,0.0400372834918089,0.0315302797734737,-0.0358808761984109,-0.0233776420354843,-0.0330744981765747,-0.0058323442935943
1783206910642516000,0.356515869140625,0.0710309721705503,-0.0142687638491392,-0.0776578246980905,-0.0227302275598049,-0.0426568165421485,0.0069135446101427
1783206910652452900,0.366452880859375,0.0342103126376867,-0.0541629673421382,-0.1096773492932319,-0.0312595441937446,-0.0320320576429367,0.0118383159860968
1783206910662389000,0.376388916015625,0.0291260133770294,-0.0157879362404346,-0.1165408053219318,-0.0321082919836044,-0.0036456906236708,0.0014250900130718
1783206910672326100,0.386326171875,-0.0492570751219987,-0.1584264748930931,-0.3944844709992408,0.0159380361437797,-0.1392856538295745,0.0302821472287178
1783206910682262000,0.396261962890625,-0.1443042799077928,-0.0127460843265056,-0.5223427891492843,0.0669058784842491,-0.1162027046084404,0.0354095287621021
1783206910692199000,0.406198974609375,-0.0245683318063616,0.26973580930233,0.1295031627476215,0.0998876169323921,-0.0531995072960853,0.0219415426254272
1783206910702135000,0.416135009765625,0.1757679241858422,-0.0430161349058151,-0.0321603943705558,0.1348799616098404,-0.0820652469992637,0.0141264991834759
1783206910712072200,0.426072265625,0.0572486583977937,-0.0168061733722686,-0.1458475638270378,0.1410905122756958,-0.0501263327896595,0.0029830269049853
1783206910722009000,0.436009033203125,-0.0153781863957643,0.0703437022924423,0.0615162527143955,0.1047916263341903,-0.0344134159386158,0.0011470436584204
1783206910731945000,0.445945068359375,-0.0131760001763701,0.0267541514128446,0.0098550390601158,0.0565375313162803,-0.0298047382384538,0.0003236487973481
1783206910741882000,0.455882080078125,0.0308630480363965,0.0317734408795833,0.0897515825957059,0.0392749197781086,6.6850334405e-06,-0.0062735336832702
1783206910751818200,0.465818359375,0.0725362439006567,0.011249708288908,0.0847802239239215,0.054170936346054,0.0090306894853711,0.0017396092880517
1783206910761755100,0.475755126953125,0.0412217988349497,0.0095323829770088,-0.0403542222201824,0.0798776224255561,0.0164132378995418,-0.0026631287764757
1783206910771692000,0.485692138671875,0.0350458866789937,0.0917033011853694,-0.0496627333134412,0.0973920673131942,0.0418313257396221,-0.0177312046289443
1783206910781628200,0.495628173828125,-0.03770560740754,0.1871785221248865,-0.0194897133678197,0.0960948467254638,0.0473941378295421,-0.0201581418514251
1783206910791565000,0.50556494140625,-0.124172030852735,0.1360585757404565,-0.0226209971308708,0.0870348289608955,0.0655781552195549,-0.0230872258543968
1783206910801501000,0.5155009765625,-0.1783301758892834,0.076429744207859,0.0214893627524375,0.0933494493365287,0.0636151432991027,-0.0070888185873627
1783206910811438000,0.52543798828125,-0.1665817242980003,0.0154284552782773,0.023420623075962,0.0905438438057899,0.0617296621203422,-0.0054431483149528
1783206910821374200,0.535374267578125,-0.0614291589528322,0.2183721172899007,0.1154506719976663,0.0643678978085517,0.0441346913576126,0.0219653062522411
1783206910831311000,0.54531103515625,-0.1568221084363758,0.1035574051082134,0.1149929913580417,0.0721682980656623,0.0738236084580421,0.0360566265881061
1783206910841248000,0.555248046875,-0.1257271513402462,0.012318214303255,0.1664344247817993,0.0822702050209045,0.0699178129434585,0.030492216348648
1783206910851184000,0.56518408203125,-0.1065771913208067,-0.0420136798650026,0.0090747023373842,0.1084588766098022,0.0635060295462608,0.0393953807651996
1783206910861121300,0.575121337890625,0.0654782882131636,-0.0309136091798543,0.0034726445466279,0.1157359629869461,0.0840954557061195,0.0459779128432273
1783206910871057200,0.58505712890625,0.0848508232084103,0.1219669220238924,0.0554033227920532,0.1057681292295456,0.0786749720573425,0.0313428975641727
1783206910880994000,0.594994140625,-0.0151842712588608,0.0147457337111234,-0.0385655852377414,0.0990668162703514,0.0910847634077072,0.0244272015988826
1783206910890931200,0.60493115234375,0.0467795790925621,0.0215191733688116,0.0405167193055152,0.104195550084114,0.106981374323368,0.0230832397937774
1783206910900867300,0.614867431640625,0.070922378963232,0.0254454069018363,0.006165536892414,0.1036738380789756,0.0806949064135551,0.0146641908213496
1783206910910804000,0.624803955078125,0.0960926404518075,-0.0095855744689702,-0.0932914471596479,0.1020637452602386,0.0582209043204784,0.0147129958495497
1783206910920740000,0.634739990234375,0.1173205575227737,0.0352981078743934,-0.1164776769578456,0.097663402557373,0.0477746576070785,-0.0019128514686599
1783206910930677200,0.64467724609375,0.1409865336619317,0.0721177262276411,-0.0894201586842536,0.0817807242274284,0.0413028746843338,-0.0255642067641019
1783206910940614100,0.6546142578125,0.1418421458442695,0.0234942728340625,-0.0424976639896631,0.0723001360893249,0.0373099967837333,-0.0263756718486547
1783206910950550000,0.664550048828125,0.1210169278226792,-0.0300081847727298,-0.0066156187474727,0.0722860917448997,0.0290129855275154,-0.0200865790247917
1783206910960487200,0.674487060546875,0.0828223678544163,-0.0751040485620498,0.0299321969270706,0.061246495693922,0.0212240405380725,-0.0094853332266211
1783206910970423300,0.68442333984375,0.1213289163812994,-0.0970779799610376,0.0144137252777814,0.0533244498074054,0.0203008856624364,0.0014692314434796
1783206910980360000,0.69435986328125,0.1050239887957461,-0.0492757798224687,0.0239683200865983,0.0443437360227108,0.0279987510293722,-0.000182194635272
1783206910990296000,0.704296142578125,-0.0005563004422001,0.0354997679263353,0.0631236879110336,0.0388190522789955,0.0367880165576934,0.006560044363141
1783206911000233200,0.714233154296875,-0.0558675610366277,0.0544400307178497,0.1024041434198617,0.0336730256676673,0.0356396585702896,0.000315198674798
1783206911010170000,0.724170166015625,-0.0150872406251728,0.0528553918749093,0.1060603278398513,0.0140614779666066,0.0298787653446197,0.0001299667637795
1783206911020106000,0.73410595703125,0.0213951085977256,0.0442693498373031,0.1241425124973058,-0.0069708377122879,0.0273125432431697,0.0004045388195663
1783206911030043100,0.744043212890625,0.0225160937179811,0.0427764809310436,0.1406026489108801,-0.0296568851917982,0.0185178183019161,-0.0011048289015889
1783206911039979300,0.753979248046875,0.0454997866814024,0.0142500591486692,0.1081558388143777,-0.04685078561306,0.0204619262367486,-0.0034585306420922
1783206911049916000,0.763916015625,0.1037204867154359,0.0277601135849952,0.0311053323596715,-0.0497203096747398,0.0185488276183605,0.001994983293116
1783206911059853000,0.77385302734375,0.1019189902514219,-0.0379231956809759,-0.0122708680301904,-0.0459556654095649,0.0066921692341566,0.0090121468529105
1783206911069789200,0.7837890625,0.0978618238151073,-0.0743242963612079,-0.016876315999031,-0.0450695902109146,-0.0073250709101557,0.0080082397907972
1783206911079726300,0.793726318359375,0.0621814386248588,-0.0200309806376695,0.00016775778234,-0.0491540804505348,-0.0157321356236934,0.0042254859581589
1783206911089662000,0.803661865234375,0.0329668884478509,0.0053799394726753,0.0253086287796497,-0.049313835799694,0.0011026193387806,0.0038314966950565
1783206911099599000,0.81359912109375,0.0020652619667351,-0.0038379707276821,-0.008258125257492,-0.0468043386936187,0.0183585714548826,0.0043247146531939
1783206911109536300,0.823536376953125,-0.0092577855530194,-0.0098965401142835,-0.1030231521010398,-0.0410902947187423,0.0136185605078935,0.0086545888334512
1783206911119472000,0.83347216796875,0.0192791393570601,-0.0155155490398406,-0.1515355463355779,-0.0360454693436622,0.0107961427420377,0.0064590796828269
1783206911129409000,0.843408935546875,0.0621833383210003,-0.0330605580806732,-0.1224111586600542,-0.0293778590857982,0.0185205750167369,0.0072991428896784
1783206911139345200,0.85334521484375,0.0524215487685985,-0.0371387673050165,-0.1016220531314611,-0.0144875952973961,0.0194436274468898,0.0087375165894627
1783206911149282300,0.8632822265625,0.0153035137243568,-0.025112229424715,-0.1820347294956445,0.0047394232824444,0.0073216976597905,0.0089369397610425
1783206911159219000,0.873218994140625,-0.0023420330815017,-0.0273947874039411,-0.2287643319666385,0.0209743194282054,0.0396865606307983,0.0093736983835697
1783206911169155000,0.883155029296875,-0.0317860081002116,-0.0075181205451488,-0.0882125364601612,0.0263256728649139,0.0636312440037727,0.0089455712586641
1783206911179092200,0.89309228515625,-0.0763479111433029,0.0279857390344142,-0.0715922410488128,0.0294831171631813,0.075620524585247,0.0074347602203488
1783206911189029000,0.903029052734375,-0.0730161363720893,0.0441541990250349,-0.0519289246797561,0.0305891446769237,0.0899749621748924,0.0042132372036576
1783206911198965000,0.912965087890625,-0.0922781784638762,0.0776414580851793,0.0472375519931316,0.0254298038780689,0.0837231874465942,-0.0019256151281297
1783206911208902100,0.922902099609375,-0.034244205774134,0.0884954450547695,0.056649523460865,0.0268389843404293,0.0801436454057693,-0.0058006243780255
1783206911218838300,0.93283837890625,0.0437552719684783,0.0538870730102062,0.0196405200153589,0.0304947067052125,0.0741920098662376,-0.002485254779458
1783206911228775000,0.94277490234375,0.0709393300980329,0.0274082314074039,-0.0226730195790529,0.0341833010315895,0.0578481368720531,0.0021816724911332
1783206911238712000,0.952712158203125,0.0888695390641689,0.0153799399614334,-0.0684007515311241,0.0346994213759899,0.0366307310760021,0.0085556823760271
1783206911248648200,0.962648193359375,0.1049777933001518,0.0092436291635036,-0.0437555550962686,0.0237662121653556,0.0157914850860834,0.0125184673815965
1783206911258585000,0.972585205078125,0.0280608592303935,0.007719196075201,0.0280231484353542,0.0178894139826297,0.0312138516455888,0.009600973688066
1783206911268521000,0.98252099609375,-0.0325198661995586,0.0257750772476196,0.0474485643953084,0.015543951652944,0.0375756844878196,0.013978999108076
1783206911278458000,0.9924580078125,-0.0282794430176727,0.0404167660623788,0.0129769704729318,0.0170670133084058,0.0392891615629196,0.0129515510052442
1783206911288395300,1.002395263671875,-0.0230368753222282,0.0503454548805952,0.0213823952466249,0.0122971413657069,0.0516270734369754,0.0134041830897331
1783206911298331100,1.0123310546875,-0.0525879639772232,0.0451549005001783,0.0634714784353971,0.003806184977293,0.0781268551945686,0.0125780701637268
1783206911308268000,1.02226806640625,-0.0561386513292789,0.0549935729473829,0.07377952196002,0.002172103151679,0.0871313884854316,0.0135670620948076
1783206911318205200,1.032205078125,-0.011061199979484,0.0705611444354057,0.0452805727064609,0.0010945880785584,0.077659323811531,0.011580342426896
1783206911328141300,1.042141357421875,-0.0108306060940027,0.0545469982236623,-0.0067220017313957,-0.0018633184954524,0.0709860622882843,0.0122622167691588
1783206911338078000,1.052077880859375,-0.0172729141011834,0.0208165780574083,-0.0299380421459674,0.011013064533472,0.0884524062275886,0.0305261742323637
1783206911348014000,1.06201416015625,-0.0163011464595794,-0.0017348609685897,0.1399509070038795,-0.008459934964776,0.0911971777677536,0.0083699012175202
1783206911357951200,1.071951171875,0.0917901026859879,0.0267050515741109,0.121223410180211,-0.0318158566951751,0.0345429517328739,0.003476076060906
1783206911367888100,1.08188818359375,0.1627285560011863,0.0267582430660724,-0.0336649537146091,-0.0482358932495117,0.0188883114606142,0.0142364716157317
1783206911377824000,1.091823974609375,0.1007198527278844,-0.0777291363686323,0.0329430691808462,-0.0485331043601036,-0.0007567629218101,0.025229200720787
1783206911387761200,1.10176123046875,0.0754459938675165,-0.0521732548296451,-0.0120990185946226,-0.0402041040360927,-0.0197798404842615,0.0207863561809062
1783206911397698000,1.111697998046875,0.0703431269037071,0.0085761051654815,-0.1059463460713625,-0.0319277979433536,-0.0395450219511985,0.0178608745336532
1783206911407634000,1.121634033203125,0.0308291548999492,0.0138023153811693,-0.2070849996000528,-0.0199291724711656,-0.0263661425560712,0.0103751998394727
1783206911417571000,1.131571044921875,0.0263929168850183,-0.0167564890116453,-0.233746796554327,0.0053231855854392,-0.0048243668861687,0.0111581683158874
1783206911427507200,1.141507080078125,0.0298313669010996,-0.0577653757482767,-0.2323392678439617,0.0315499268472194,-0.0094383005052804,0.004560406319797
1783206911437444000,1.151444091796875,0.0269689632073044,-0.0605693272531032,-0.2808826417386532,0.0396459363400936,0.0064469226635992,0.0013614173512905
1783206911447381000,1.161381103515625,0.0625169541895389,-0.0355038595795631,-0.1625572910875082,0.0530398599803447,0.0248157083988189,-0.0062754619866609
1783206911457317000,1.171317138671875,0.062841363838315,-0.0188414785921573,-0.0805623139679431,0.0516094751656055,-0.0114437621086835,-0.0098193306475877
1783206911467254300,1.181254150390625,0.0892035933241248,-0.0200011700212955,-0.0752396576404571,0.0442006811499595,-0.0612913891673088,0.0021437364630401
1783206911477191200,1.191191162109375,0.094569805665547,-0.047964112702012,-0.0815326203048229,0.0202689822763204,-0.0779356136918068,0.0089707504957914
1783206911487127000,1.201126953125,0.0946574748158454,-0.0486538485318422,-0.0218190330982208,0.0018105711787939,-0.0785062313079834,0.0191243570297956
1783206911497064200,1.211064208984375,0.1040758760243654,0.0046072015345096,0.0250315654039382,-0.0014424799010157,-0.0917221680283546,0.0233180355280637
1783206911507001000,1.2210009765625,0.0577110152125358,0.0238619371026754,-0.0017220014870166,0.0006510913372039,-0.0823083370923996,0.0276631582528352
1783206911516937000,1.23093701171875,-0.0065682724744081,0.0327893399238586,0.0040197570353746,0.0061686290428042,-0.0594363063573837,0.0284655690193176
1783206911526874000,1.2408740234375,-0.071866089554131,0.0642547377675771,0.0561164394974708,0.0041556051000952,-0.0291968993842601,0.0219127107411623
1783206911536810200,1.250810302734375,-0.0956941243872046,0.1000491047263145,0.1366857677280902,0.0009611435234546,-0.0199719741940498,0.0139879444614052
1783206911546747100,1.2607470703125,-0.0673366294309496,0.1241132864028215,0.1634369965314865,-0.0125113958492875,-0.0193877145648002,0.0105935037136077
1783206911556684000,1.27068408203125,-0.0165785020962357,0.1063870755761861,0.1536883404552936,-0.0220950469374656,-0.0135918781161308,0.0124651752412319
1783206911566620200,1.2806201171875,-0.000922941797506,0.0917857187718153,0.1412467920333147,-0.0299801286309957,-0.0057690585963428,0.0124439364299178
1783206911576557000,1.29055712890625,0.0101513916581869,0.0923258169978857,0.1622679527521133,-0.0388692319393157,-0.01163493655622,0.014399760402739
1783206911586494200,1.300494140625,0.0227580675140023,0.1011263785690069,0.1508978329539299,-0.045694101601839,-0.0134299397468566,0.0112018473446369
1783206911596430000,1.31043017578125,0.0166854696020483,0.084430679833889,0.0629331337749958,-0.0614245943725109,-0.0188140515238046,0.0134253203868865
1783206911606367200,1.3203671875,0.0623889438956975,0.0441150360584259,-0.0026888006925582,-0.0737152993679046,-0.0316560044884681,0.0137292854487895
1783206911616304000,1.33030419921875,0.0911266703411936,-0.0166863463848829,-0.0584860912382602,-0.0678938999772071,-0.0387964695692062,0.017836146056652
1783206911626240000,1.340239990234375,0.042639721075166,-0.0463414799362421,-0.1323655664414167,-0.0434339717030525,-0.033243715763092,0.0141627565026283
1783206911636177200,1.35017724609375,-0.0279892278994433,-0.0103986444175243,-0.1405295836746692,-0.0290592927485704,-0.0365468338131904,0.012300407513976
1783206911646114000,1.360114013671875,0.0153323014274239,0.0250865104615688,-0.0479617746144533,-0.0289863422513008,-0.04229586571455,0.0077468454837799
1783206911656050200,1.37005029296875,0.0156523271620273,-0.0125011696547269,0.0830897866189479,-0.0428307838737964,-0.0377663597464561,0.009712791070342
1783206911665987000,1.379987060546875,-0.0105649226288311,-0.0342822088301181,0.0984551135331392,-0.0619226433336734,-0.0363212153315544,0.0127077167853713
1783206911675923200,1.389923095703125,-0.0085521215016953,-0.0046615620702505,0.052346857830882,-0.0664835646748542,-0.0278377160429954,0.0121881337836384
1783206911685860000,1.399860107421875,0.0059788004149682,0.0087806878268718,-0.0657055210977792,-0.0525586009025573,-0.0215928256511688,0.0180030278861522
1783206911695797200,1.40979736328125,0.0129174953706562,-0.0201917241573333,-0.2020095960319042,-0.0307252071797847,-0.0058407606557011,0.0223607569932937
1783206911705732900,1.41973291015625,-0.014556348618865,-0.0145715461879968,-0.2366197216421365,-0.0067856581881642,0.0013481401838362,0.0162278451025486
1783206911715669500,1.42966943359375,-0.0146340900301933,0.0093079265713691,-0.227741418659687,0.0169090181589126,-0.0015174211002886,0.0136144841089844
1783206911725606700,1.439606689453125,-0.0008452186524868,-0.0035059622943401,-0.1855354310929775,0.0278762765228748,-0.0028243204578757,0.0085169505327939
1783206911735542800,1.449542724609375,-0.0225981825108639,0.0030406828701496,-0.1105658225655555,0.0296297017484903,0.0030511454679071,0.0043323254212737
1783206911745480000,1.45947998046875,-0.0254394155524671,0.0220680394232273,-0.0447930814504623,0.0190575327724218,0.0123132690787315,0.0049501610919833
1783206911755416600,1.46941650390625,-0.004268050974328,0.0381382997363805,0.0109042558521032,0.0136044444516301,0.0115444138646125,0.0012443722225725
1783206911765352700,1.479352783203125,0.0350284971527755,0.0271276609003543,0.0053682490348815,0.0096113588660955,0.0084812380373477,-0.0026534046046435
1783206911775289900,1.489289794921875,0.0257414672389626,0.0165612587004899,-0.0106651863992214,0.008552486076951,0.0013841800391674,0.0021538673900067
1783206911785226800,1.499226806640625,0.0293108501583337,0.0468763174653053,0.0001753565669059,0.0029064789414405,-0.0052326172590255,0.0027727782726287
1783206911795162600,1.50916259765625,0.0248022866927087,0.0593657966822385,0.0389548768162727,-0.0140149798244237,-0.0076132165268063,0.0004427784588187
1783206911805099800,1.519099853515625,0.0063767136913724,0.067947747066617,0.0999842227965593,-0.0358342118561267,-0.0084356851875782,-0.0014177234843373
1783206911815036700,1.52903662109375,0.0180509127363562,0.033612931266427,0.1143663838922977,-0.0559317544102668,-0.0034097679890692,0.000944500323385
1783206911824972500,1.53897265625,0.0498500725790858,0.0084621233969926,0.0958569137334823,-0.0640370920300483,-0.0065243933349847,0.0112692229449749
1783206911834909700,1.54890966796875,0.0426874874733388,-0.0112356797635555,0.0016553659915924,-0.0654027611017227,-0.0228279996663332,0.0124988052994012
1783206911844846800,1.558846923828125,0.0362915028259158,-0.0158446348637342,-0.0700993721425533,-0.0608242973685264,-0.0362334102392196,0.0143777690827846
1783206911854782700,1.56878271484375,0.0362377450783737,-0.0014969605594873,-0.0740174223691225,-0.0530132502317428,-0.0372885540127754,0.0110701229423284
1783206911864719600,1.5787197265625,0.0046063247516751,0.0104798929601907,-0.0987047043800354,-0.0384519025683403,-0.0275683663785457,0.0137396268546581
1783206911874656800,1.58865673828125,-0.0226171977385878,0.0293003287643194,-0.1008195045769214,-0.0279803555458784,-0.0121526578441262,0.0023634021636098
1783206911884593000,1.598593017578125,-0.0406841848269105,0.0411795671284198,-0.0442646736621856,-0.0155970528721809,0.000490540638566,0.0019969106651842
1783206911894529800,1.60852978515625,-0.0077417001679539,0.0274596693336963,-0.0317722718358039,-0.0082541853189468,-0.000761944334954,-0.0014055439969524
1783206911904466700,1.618466796875,0.0066283320985734,0.0026174890220165,-0.0758007986545562,-0.0077298991382122,-0.0059966361150145,0.0017441152594983
1783206911914402800,1.62840283203125,0.0426997624330222,-0.0218675484150648,-0.0666302347272634,-0.0030629765242338,-0.0145949171856045,0.0074230395257472
1783206911924339700,1.638339599609375,0.0411968105241656,-0.0320715470433235,-0.0941886882603168,0.0059671187773346,-0.0210521072149276,0.0092747462913393
1783206911934276900,1.64827685546875,0.0096437343969941,-0.0171124628424644,-0.1087251631349325,0.0078481091186404,-0.0154147278517484,0.00785927567631
1783206911944212700,1.658212646484375,0.001538461613655,0.0199245976537466,-0.0591284807950258,0.0135242640972137,-0.015739032998681,0.0071453005075454
1783206911954149600,1.668149658203125,-0.0021666582482866,0.0042594110101461,-0.064702481535077,0.0153027223423123,-0.0120947640389204,0.0097520025447011
1783206911964086800,1.678086669921875,-0.0083820438981056,0.0121849433124065,-0.0612152239412069,0.0237594991922378,-0.0041007678955793,0.0034792872611433
1783206911974022700,1.688022705078125,-0.0283205239467322,0.0297293678313493,-0.0442518141806125,0.0203549154102802,-0.0001486367546021,0.0067086368799209
1783206911983959600,1.69795947265625,0.0235381302420981,0.030405075135827,-0.01376373693645,0.0085998270660638,-0.0084353629499673,0.0074727898463606
1783206911993896700,1.707896728515625,0.0366284796953201,0.0026847090393304,0.0059931029349565,-0.0036413930356502,-0.0173289906233549,0.0087399212643504
1783206912003833900,1.717833740234375,0.0249777893900871,-0.0031587562918663,0.0054687867999076,-0.0086642978712916,-0.0120679046958684,0.0102354558184742
1783206912013769700,1.727769775390625,0.0115967681609094,0.0386883348345756,0.0205436063349246,-0.00824058894068,-0.0059130727313458,0.0104913851246237
1783206912023706600,1.73770654296875,-0.009542173718661,0.035617841348052,0.0409036727964878,-0.0091647785156965,-0.0079642701894044,0.0048895515501499
1783206912033643800,1.747643798828125,-0.0132046417489647,0.0549988336443901,0.0600239683300256,-0.0188333839178085,-0.0123619483783841,0.0044754305854439
1783206912043580000,1.757579833984375,0.0169905900284647,0.0353624052822589,0.0587000262498855,-0.0300256833434104,-0.0146799478679895,0.0067023024894297
1783206912053516500,1.7675166015625,0.0207493580400943,0.0212801039159297,0.0414624757230281,-0.0352915525436401,-0.008911008015275,0.0096773207187652
1783206912063453700,1.77745361328125,0.0074652213141322,0.0278437002152204,-0.0275379952669143,-0.0276898741722106,-0.0155266914516687,0.0122867878526449
1783206912073389800,1.787389892578125,0.0291343428139574,0.0213958392500877,-0.1071598135143518,-0.0221587531268596,-0.0182700138539075,0.0148074682801961
1783206912083326700,1.79732666015625,0.0433012537238188,0.0227776489973068,-0.1194523088544607,-0.0068644424900412,-0.0258385725319385,0.0105593316256999
1783206912093263600,1.807263671875,0.017035744344443,0.0152957688093185,-0.1425730722010135,0.0067190108820796,-0.0222590155899524,0.0082841925323009
1783206912103199700,1.81719970703125,-0.016945289582014,0.02210018812716,-0.0828092161118984,0.0109869334846735,-0.0200346820056438,0.0055551594123244
1783206912113137000,1.827136962890625,0.0251452549114823,0.033074002084136,0.0312754282295703,-0.0025453874841332,-0.0140574825927615,0.0093996990472078
1783206912123073800,1.83707373046875,0.041750791145116,0.0263145909518003,0.0859539438784122,-0.0165139660239219,-0.0195865184068679,0.0139073953032493
1783206912133009700,1.847009765625,-0.0169448511905968,0.0275467630952596,0.0701531481564044,-0.0361473225057125,-0.0203447192907333,0.0120498407632112
1783206912142946800,1.85694677734375,-0.0219816763140261,0.0483230091422796,0.070219199129939,-0.044218610972166,-0.0184886436909437,0.0086051691323518
1783206912152883700,1.8668837890625,0.0117243400633335,0.0489484475642442,0.0797638570666313,-0.0537018664181232,-0.0263486970216035,0.0072767841629683
1783206912162820900,1.87682080078125,0.0426598688140511,0.0385363591432571,0.0610451280713081,-0.0668998211622238,-0.0312584489583969,0.0113908443599939
1783206912172756700,1.8867568359375,0.0289155672304332,0.0328507147222757,0.0370867448568344,-0.077065110206604,-0.0275241620838642,0.0072253933176398
1783206912182693600,1.896693603515625,0.0158060746853239,0.0585609100401401,-0.0070084174573421,-0.0609875060617923,-0.0159354284405708,0.0070909690111875
1783206912192630800,1.906630859375,0.0168332075096666,0.0576940640777349,-0.0307213014781475,-0.0470538437366485,-0.0202026143670082,0.0044254111126065
1783206912202567000,1.91656689453125,0.0073728668555617,0.0672486588865518,-0.0546060349345207,-0.0386730320751667,-0.0205374844372272,0.0022336652036756
1783206912212503600,1.926503662109375,0.0101579857957549,0.0616021774321794,-0.0454518376201391,-0.0341384671628475,-0.0144907785579562,-0.0010665238369256
1783206912222440700,1.936440673828125,-0.0194161914738826,0.031596915268898,0.0014174655824899,-0.0406548753380775,-0.0083603914827108,-0.0010301894508302
1783206912232376800,1.946376953125,0.0475676607303321,0.0360018722295761,0.0160123926460742,-0.0553022660315036,-0.0266405958682298,0.0022923704236745
1783206912242314000,1.95631396484375,0.0448341623795218,-0.0317570742666721,-0.020768647262454,-0.0616043210029602,-0.0296852588653564,0.0063839508220553
1783206912252250600,1.966250732421875,0.0192036081691272,-0.0311035787940025,-0.0436655387252569,-0.0609960556030273,-0.010215688496828,0.0073538739234209
1783206912262186800,1.976186767578125,-0.012201748316735,-0.0088473233222961,-0.0734194564759731,-0.0437788143754005,0.0018146792426705,0.0047534340992569
1783206912272124000,1.9861240234375,-0.0425517322644591,0.0151326872020959,-0.1236444998472929,-0.0303024183958768,-0.0005073309876024,-0.0023321728222072
1783206912282060800,1.996060791015625,-0.0207158941619098,1.1105915904e-05,-0.1335042150825262,-0.01753088273108,0.0015737218782305,-0.0005674455314874
1783206912291997700,2.005997802734375,0.0237130301512777,-0.0203705878555774,-0.1208288579046726,-0.0111539419740438,0.0105056976899504,0.0013111485168337
1783206912301933800,2.015933837890625,0.0096362817429006,-0.0229623579144477,-0.116331546485424,-0.0068731671199202,0.0004759454168379,0.0023770898114889
1783206912311870700,2.02587060546875,0.0043548524749465,0.0015840543210506,-0.1216010113209486,-0.0014195460826158,-0.0037081469781696,0.0013688171748071
1783206912321808000,2.035807861328125,0.0310749372214078,-0.0011743044763803,-0.0943166985541582,-0.0007000500336289,-0.0010066735558211,0.0042985659092664
1783206912331743700,2.04574365234375,0.0264351485915482,-0.0184814131081104,-0.0608504822820425,0.004038511775434,0.0015512923710048,0.0022005273494869
1783206912341680600,2.0556806640625,-0.0060660220406949,0.0231119955182075,-0.0340402167677879,0.0073014171794056,-0.0045502758584916,0.0005919781979173
1783206912351617800,2.06561767578125,-0.0006223696820437,0.030248423269391,-0.0266436767756938,0.0057463971897959,0.0063753426074981,-0.0031862484756857
1783206912361555000,2.075554931640625,-0.0074216561670415,0.0315881474405527,0.0045177696853876,-0.0017362115904688,0.0134758139029145,-0.0025262353010475
1783206912371490800,2.08549072265625,-0.0321950090262107,0.0311345584541559,0.0364168827712535,-0.0088537763804197,0.0195470228791236,-0.0035353070124983
1783206912381427700,2.095427734375,-0.0276861532996408,0.055301031461358,0.0521855297893285,-0.0152544388547539,0.0145196840167045,-0.0033685085363686
1783206912391364900,2.10536474609375,0.0094980788486078,0.0547182631373405,0.0607931991368532,-0.020158115774393,0.0112799480557441,-0.0062540434300899
1783206912401300700,2.11530078125,0.0141600610439665,0.0353881242454051,0.0421750079065561,-0.0215747151523828,-0.000588399823755,-0.0027191655244678
1783206912411237600,2.125237548828125,0.043602848752588,0.031430911052227,0.0172597623586654,-0.0257297772914171,-0.0090300869196653,1.56345777213e-05
1783206912421174800,2.1351748046875,0.0626366350464522,0.0197515791743993,0.0133095634281635,-0.0336753651499748,-0.0096703302115201,0.0033367318101227
1783206912431112000,2.14511181640625,0.0364763578735291,0.0013403086930513,-0.005607903009653,-0.0310148671269416,-0.004903539083898,0.0007800972089171
1783206912441047600,2.155047607421875,-0.0054139878727495,0.0211234520494937,-0.0463888262093067,-0.0276159942150115,-0.005824560765177,-0.0001664953306317
1783206912450984700,2.164984619140625,-0.0012314414910972,0.0312964710175991,-0.0797603499352932,-0.0203580819070339,0.0041314004920423,0.0010838590096682
1783206912460921900,2.174921875,-0.0065505906872451,-0.0021481179445981,-0.0687041183918714,-0.0164074804633855,0.0046641398221254,-0.001494982629083
1783206912470858800,2.184858642578125,-0.02102788272053,-0.0059960255444049,-0.0562637390136718,-0.0153515376150608,-0.0010318290442228,-0.0012116222642362
1783206912480794600,2.194794677734375,-0.0039589667588472,0.0053436991155147,-0.0727647919595241,-0.0124827502295374,0.0043239071965217,0.0011423889081925
1783206912490731800,2.204731689453125,0.0081280691370368,-0.0046615620702505,-0.0928852044463157,-0.006247223354876,0.0037116464227437,-0.0004890637937933
1783206912500668700,2.214668701171875,0.000470996778924,-0.0092377839446067,-0.1056622684329748,0.0047528129070997,0.000823441427201,-9.93737485259e-05
1783206912510604800,2.224604736328125,0.0098895258516073,-0.0023456863433122,-0.1005395185917615,0.0110123064368963,0.0021917738486081,-0.0023271080572158
1783206912520541700,2.234541748046875,0.0237605225548148,0.0084410806089639,-0.0596323386639356,0.0074868751689791,0.0131112113595008,0.0028150009457021
1783206912530478600,2.244478515625,-0.0034003099627792,0.0070429042488336,-0.0107306528508663,0.0049800416454672,0.0138233406469225,0.0004509128630161
1783206912540415700,2.254415771484375,0.0036857027754187,0.0224444715201854,-0.0088946695953607,-0.0033782348036766,0.0069838589988648,0.0012772835325449
1783206912550352000,2.264351806640625,0.0173461254678666,0.0186889183789491,0.001115267765522,-0.0078025441616773,0.0048615857958793,0.0011856707278639
1783206912560288800,2.274288818359375,0.0147534786261618,0.0181797998130321,0.0138461545228958,-0.0108637260273098,0.0006754384376108,-0.0005707039963454
1783206912570225700,2.2842255859375,0.0186107385762035,0.0328173969745635,0.0209977798432111,-0.0080327866598963,4.5881606638e-06,0.0012967044021934
1783206912580161800,2.294161865234375,0.0055099955931305,0.0411246220707893,0.0020125088661909,-0.008905597962439,0.000692871864885,-0.0055428547784686
1783206912590099000,2.304098876953125,0.0030502178834751,0.0331225174009799,0.0074193363457918,-0.013921926729381,0.0047733671963214,8.68013594299e-05
1783206912600035600,2.31403564453125,0.0062909351040609,0.0200298115938901,0.0157967040687799,-0.0140806222334504,0.0029780340846627,-0.0001950184814631
1783206912609972700,2.32397265625,0.0088156312760896,0.025416180807352,-0.0103179803967475,-0.0153157962486147,0.0058957934379577,0.0020596138201653
1783206912619908900,2.333908935546875,0.0130515152801759,0.0175467626065015,-0.0234545253455638,-0.0069338856264948,0.0067413509823381,-0.0018076343694701
1783206912629845800,2.343845703125,0.0048759537396021,0.0326455475389957,-0.0542781181544065,-0.0031069228425621,0.0043149446137249,0.000560182146728
1783206912639782700,2.35378271484375,0.0076443955396302,0.0293330619901418,-0.0563408959031105,0.0014632400125265,0.0054376204498112,-0.0016997950151562
1783206912649719800,2.3637197265625,0.0031124329321086,0.0039572131931781,-0.0415805491447448,-0.0030849063768982,0.0050895451568067,6.13534357398e-05
1783206912659656000,2.373656005859375,-0.0078977675125002,-0.004638181194663,-0.0427414096176624,-0.0088007822632789,0.0075064683333039,-0.0025300066918134
1783206912669592800,2.3835927734375,0.0135411802269518,-0.0125683896720409,-0.0453355177640914,-0.0106112007051706,0.0006895749829709,-0.0007222529966384
1783206912679529700,2.39352978515625,0.0158250533804297,-0.0183966574341058,-0.0486824901044368,-0.0037367828190326,-0.0016140593215823,0.0019265268929302
1783206912689466600,2.403466552734375,0.0107942196063697,-0.0168254625946283,-0.0347130014628171,-0.0005180863663554,0.0003356412053108,-7.16429203748e-05
1783206912699402800,2.41340283203125,0.024974282258749,-0.0105383451491594,-0.0510445430606603,-0.0035401508212089,0.0034012689720839,-0.0010590231977403
1783206912709339400,2.42333935546875,0.0197327283434569,-0.0114040220677852,-0.0434708929359912,-0.0076214466243982,0.0051373839378356,0.0041064438410103
1783206912719276500,2.433276611328125,0.0174687289342284,-0.0119300917685031,-0.0458458053737878,-0.009561407379806,6.70761801302e-05,0.0035079868976026
1783206912729212200,2.443212158203125,0.016515519862622,-0.0044616555839776,-0.0508446365743875,-0.0107326647266745,-0.0018253657035529,0.0048041474074125
1783206912739149300,2.4531494140625,0.0231220967871136,0.0046171384066343,-0.0431172571927309,-0.011955945752561,-0.0002950681373476,0.0081218611449003
1783206912749086500,2.46308642578125,0.0106312841296195,-0.0166010061889886,-0.0535492193579673,-0.0051435800269246,0.0051513626240193,0.0090861916542053
1783206912759023400,2.4730234375,-0.0024862638577818,-0.0152279642701148,-0.0694365243196487,0.0045754443854093,0.0050170132890343,0.0077224131673574
1783206912768959200,2.482959228515625,-0.0137542384557425,0.0224579155236482,-0.061580550122261,0.0112035199999809,0.0018364004790782,0.0055756382644176
1783206912778896400,2.492896484375,-0.0150708740122616,0.0310907193124294,-0.0529559296399354,0.0069895288906991,-0.0045938589610159,0.003278931370005
1783206912788833300,2.502833251953125,-0.0120954931969754,0.0312426950037479,0.0188929165184497,-4.41456213593e-05,0.0153660010546445,0.0035015714820474
1783206912798770400,2.5127705078125,0.0112849257327616,0.0285924727559089,0.0397825598120689,-0.0110337119549512,0.0044023669324815,0.0049397265538573
1783206912808706300,2.522706298828125,0.0181052732720971,0.0458779540777206,-0.0154401457160711,-0.0094462018460035,-0.0013050534762442,0.0073102060705423
1783206912818643500,2.5326435546875,0.0435271531678736,0.0529442392021417,-0.0007610475003719,-0.0109344786033034,-0.0079051591455936,0.0059887627139687
1783206912828580400,2.542580322265625,0.0248509481400251,0.0457394223898649,0.0245744692862033,-0.0183931961655616,-0.0078292591497302,0.0013540631625801
1783206912838517500,2.552517578125,0.0169246851854026,0.0521761774390935,0.0441582906782627,-0.0243078749626874,-0.0009243469685316,0.0040140068158507
1783206912848453400,2.562453369140625,0.0163856281389482,0.0474286906510591,0.0149444711536169,-0.0190380122512578,0.0023308347444981,0.0037013518158346
1783206912858390300,2.572390380859375,0.0002586509361863,0.0470785620391368,-0.0033832126975059,-0.0142102055251598,-0.0054569244384765,0.0039600217714905
1783206912868327400,2.582327392578125,0.0051693837282247,0.0438981784373521,-0.0206447286218404,-0.0110106840729713,0.0009945831261575,-0.0006978465244174
1783206912878264300,2.592264404296875,-0.0004524199426174,0.0262754279851913,-0.0367652578175067,-0.01403384283185,0.002166049554944,0.0014720237813889
1783206912888200200,2.6022001953125,-0.013151011865586,0.0140928227603435,-0.0672831456780433,-0.0036014411598443,0.0026105311699211,0.0009689526632428
1783206912898137300,2.612137451171875,-0.0037559915326535,0.0176198278427124,-0.0622878216087818,-0.0003128480166196,-0.0002753511071205,-0.0024891144130378
1783206912908074500,2.622074462890625,0.0021381993387825,0.0129383920282125,-0.0667483081489801,-0.0057140057906508,-0.005977445282042,-0.0003407422918826
1783206912918011400,2.632011474609375,0.0246766327527351,0.0035316812574863,-0.0544090510576963,-0.0106757581233978,-0.0029159928672015,-0.0010175248607993
1783206912927947300,2.641947265625,0.024602087945491,-0.0120955114632844,-0.0352770650863647,-0.0091724041849374,-0.0068894294090569,0.0019127514678984
1783206912937884400,2.651884521484375,0.0029945056408643,0.0026467151165008,-0.0378016151279211,-0.0014941757544875,-0.0008380650542676,0.001835772767663
1783206912947821300,2.6618212890625,-0.0231197404332458,0.0183773682117462,-0.0375111077487468,0.0033589024096727,0.0080475714057683,-0.0035842924844473
1783206912957758500,2.671758544921875,-0.0200227973312139,0.0356640185773372,-0.0436632006376981,0.0080808065831661,0.0049969116225838,-0.0101817045360803
1783206912967694300,2.6816943359375,0.0023912790507078,0.0383791227549314,-0.025054361757636,0.0075628217309713,0.0084787281230092,-0.003096631495282
1783206912977631200,2.69163134765625,0.0286751826032996,0.0063350482404232,-0.0065747022151947,0.00175900477916,0.0081098871305584,-0.0012048343196511
1783206912987568400,2.701568359375,0.0331380254973657,0.0138590140044689,-0.0018470891714096,-0.0095333298668265,-0.0003488445654511,-0.0027300268411636
1783206912997505500,2.711505615234375,0.0043736850395798,0.0341594592332839,0.0262456173688173,-0.0143539188429713,-0.0052908728830516,0.0010673746000975
1783206913007442200,2.721442138671875,0.0107299404648132,0.0324473946183919,0.0568371549874544,-0.0237325057387352,-0.0099822971969842,0.0034168155398219
1783206913017378300,2.73137841796875,0.0199959093242883,0.0102712186455726,0.056806175327301,-0.0293872579932212,-0.0092391362413764,-0.0016531784785911
1783206913027315500,2.7413154296875,-0.0040317214678041,0.0132248077541589,0.0065022215008735,-0.030307114124298,0.0018087211064994,-0.0003138747997581
1783206913037252400,2.75125244140625,-0.0162413608300499,0.0220183550626039,-0.0273094472080469,-0.0214314945042133,-0.0007028393447399,0.0001842589117586
1783206913047189200,2.761189208984375,0.0032619244053959,0.0220697929888963,-0.0375105232268571,-0.0176892206072807,0.0060389530844986,-0.0018930067308247
1783206913057125400,2.77112548828125,0.0227624514281749,-0.0140589204907417,-0.0660842912822961,-0.0107014551758766,0.0134890796616673,-0.0018479726277291
1783206913067062300,2.781062255859375,0.0048902562595903,-0.0191045134425163,-0.0986164415746927,-0.0035751033574342,0.0104378964751958,-0.0008279818575829
1783206913076999400,2.79099951171875,-0.0053366848528385,0.0039542905837297,-0.0981675287634134,0.0034414604306221,-0.0048578409478068,-0.0002952886279672
1783206913086936300,2.800936279296875,-0.011930384029448,-0.0041705636829137,-0.1175356615781784,0.0088133234530687,-0.0064051374793052,-0.00241702911444
1783206913096872400,2.81087255859375,0.0173287359416484,-0.0211035783052444,-0.1181786356568336,0.0133569678291678,-0.0023966189473867,0.0034363989252597
1783206913106809300,2.820809326171875,0.0311208221897482,-0.004168225595355,-0.0840004717230796,0.0159743223339319,9.05073247849e-05,0.0031357279513031
1783206913116746500,2.83074658203125,0.0113026257862336,0.0255453601449728,-0.0523965421915054,0.0216239877045154,0.0034473564010113,0.0036568609066307
1783206913126683100,2.84068310546875,-0.0176848376366309,0.0410550639659166,-0.0267787013322114,0.0150869917124509,0.0061360839754343,-0.0002007279545068
1783206913136619300,2.850619384765625,-0.0172264263446442,0.0449023870438337,0.020348960545659,0.0083216112107038,0.0124717317521572,-0.0009809995535761
1783206913146556400,2.860556396484375,-0.0023924480944871,0.033486090016365,0.0473544563710689,-0.0072227278724312,0.0097566395998001,-0.0035245846956968
1783206913156493300,2.870493408203125,-0.0157519881442189,0.036380642414093,0.0559083497047424,-0.0186589993536472,-0.0002563088200986,-0.0026683004107326
1783206913166430200,2.88043017578125,-0.0037545302279293,0.0416033454984426,0.0589227290898561,-0.0245648249983787,-0.0045690312981605,-0.0062369359657168
1783206913176366300,2.890366455078125,0.0145059336058795,0.0342699338704347,0.0433458052515983,-0.0236844308674335,-0.0067947572097182,-0.0048527559265494
1783206913186303500,2.900303466796875,0.0325011706322431,0.010253682988882,0.0130190560489892,-0.0253568962216377,-0.0024796379730105,-0.0029435360338538
1783206913196240400,2.910240478515625,0.0150936703659594,0.0224731130927801,-0.0125379945337772,-0.0227556489408016,0.001044173259288,-0.0015492708189412
1783206913206177300,2.92017724609375,0.0016844459556043,0.0353892932891845,-0.0294902983784675,-0.0197883546352386,0.0014670835807919,0.0006976383738219
1783206913216114200,2.9301142578125,0.0059013329982757,0.0289852714657783,-0.0588052401900291,-0.0094905337318778,0.0030268363188952,-0.0037508753594011
1783206913226050300,2.94005029296875,-0.0066470185327343,0.0146446114242076,-0.0995551837295293,-0.0033801766112446,0.0045789266005158,-0.002728487830609
1783206913235987500,2.949987548828125,-0.0080606847229413,0.020261282262206,-0.095719551089406,0.0049265073612332,0.006443596445024,-0.0073655201122164
1783206913245924400,2.95992431640625,-0.0082552026480436,0.004050736695528,-0.0766015936434268,0.0050293048843741,0.0057136239483952,-0.0068810912780463
1783206913255861200,2.969861328125,-0.0133759066626429,-0.0107090255409479,-0.06059387717247,-0.0018867505714297,0.0101428469642996,-0.0051921787671744
1783206913265797400,2.97979736328125,0.0143542501755058,-0.0314227277457714,-0.0454068294346332,-0.0042923847213387,0.0043531348928809,-0.0041575408540666
1783206913275734500,2.989734619140625,0.026805589339137,-0.0272387200593948,-0.029867899519205,-0.0053705042228102,0.0028978462796658,-0.00122717092745
1783206913285671200,2.999671142578125,0.0107160398036241,-0.0194698396235704,-0.0065583356022834,-0.0048581128939986,-0.0010329792276024,0.0043090083636343
1783206913295608300,3.0096083984375,-0.0090669574223458,0.0040787937462329,-0.0147545015394687,-0.0053385598585009,-0.0030108313076198,0.0013041021302342
1783206913305545200,3.019545166015625,-0.0004594342052936,0.0206862296760082,-0.0222878196537494,-0.0025694044306874,-0.0034185615368187,0.0043377089314162
1783206913315481300,3.0294814453125,0.011294424213469,0.0176017076641321,-0.0060913026124238,-0.0023569082841277,-0.0025730193592607,0.0029681536834686
1783206913325418200,3.039418212890625,-0.008495879536122,0.0202197812080383,0.0006628478229045,-0.0067295534536242,-0.0043698544614017,0.0032192894723266
1783206913335355400,3.04935546875,-0.0142181844393722,0.0353238268375396,-0.0086760584086179,-0.00793659966439,-0.0027353591285645,0.0007371564861387
1783206913345292300,3.059292236328125,0.0037815826316364,0.047434535869956,-0.0073731591165065,-0.0091909496113657,0.0013909428380429,-0.001350229140371
1783206913355228400,3.069228515625,0.0113243809603154,0.0358487274944782,-0.0059936874568462,-0.006725269369781,0.0083923758938908,-0.0027669793926179
1783206913365165300,3.079165283203125,-0.0034201654407195,0.0225894329488277,-0.0406172570705413,-0.0028272001072764,0.0035281120799481,-0.0033555380068719
1783206913375102200,3.089102294921875,0.0133839621049351,0.0206944129824638,-0.0411310518115758,-0.0016551194712519,0.003619218012318,-0.0032108991872519
1783206913385039400,3.099039306640625,0.0215548292040824,0.0208154090136289,-0.0033995793104171,-0.0030250502750277,0.0039015132933855,-0.0005445424467325
1783206913394976300,3.108976318359375,0.0211233059190213,0.0105512046307325,-3.68248790502e-05,-0.0035676043480634,-0.0015659085474908,-0.003827535547316
1783206913404912000,3.118912109375,0.0090614044643938,0.0291132817596197,-0.0270329683542251,-0.0070278495550155,-0.0091548524796962,-0.0005353358574211
1783206913414849300,3.128849365234375,0.0087498542971909,0.0322018954247236,-0.0364542921721935,-0.002704900689423,-0.0043905698694288,0.0006226745899766
1783206913424786400,3.138786376953125,0.0113751065005548,0.0108551560133695,-0.0568733953446149,0.0019367234781384,0.0035405897069722,0.0038648068439215
1783206913434723300,3.148723388671875,-0.0105072010922245,0.0156575878590345,-0.0541810875207185,0.0013145133852958,0.0080530699342489,-0.001704690279439
1783206913444660500,3.158660400390625,-0.033216461028438,0.027704584005475,-0.0175982005327939,-0.007511468604207,0.0030564472544938,-0.0035902082454413
1783206913454596400,3.168596435546875,-0.0165589206129312,0.0138601830482482,-0.0092009590655565,-0.0142425000667572,0.0081599336117506,-0.0010246597230434
1783206913464533200,3.178533203125,0.0174142222680151,-0.0160030402958393,-0.0093535192787647,-0.0189365893602371,0.0067881396971642,0.0002965345047414
1783206913474470400,3.188470458984375,0.0185094701588153,-0.01510638371706,-0.0215793791234493,-0.0151619100943207,0.0037244777195155,-0.0005474253557622
1783206913484407600,3.198407470703125,0.0170987265780568,0.0140507371842861,-0.0452916786223649,-0.008752747438848,-0.0037952242419123,0.002051287330687
1783206913494343200,3.20834326171875,0.0170106281694956,-0.0005360065728425,-0.0780325032293796,5.18206506967e-05,-0.0026369863189756,-0.0015168274985626
1783206913504280300,3.2182802734375,0.0067022741176187,-0.0023217209458351,-0.0879004017710685,0.0103936735540628,-0.0040577831678092,4.103872925e-06
1783206913514217500,3.228217529296875,-0.0016389811123721,0.0106949970155954,-0.0725303986817598,0.0167786907404661,0.0005962192080914,-0.0040780995041131
1783206913524154400,3.238154296875,-0.0123388004335574,0.0181546653717756,-0.0704424864917993,0.0144827794283628,-2.37645581364e-05,-0.0031931309495121
1783206913534091300,3.24809130859375,0.0072125617273151,-0.0027460838377475,-0.0590308656394481,0.0067077819257974,0.0002294015139341,-0.005823447369039
1783206913544027400,3.25802734375,0.0113818102359771,-0.0171375972837209,-0.0028337621212005,0.0036174496635794,0.0072484286502003,0.0001705288887023
1783206913553964300,3.26796435546875,0.0061952013783156,-8.65092396736e-05,0.0223398421019315,0.0020508598536252,0.0056390888057649,0.0023525371216237
1783206913563901400,3.2779013671875,-0.0002244381393305,0.0053016135394573,0.0165174195587635,-0.0009665014222264,0.0061717210337519,0.0017594513483345
1783206913573838300,3.28783837890625,-0.0076776950210332,0.0091308164387941,-0.010811316871643,-0.0017133224755525,0.0020890589803457,0.0005604380276054
1783206913583775200,3.297775146484375,0.0086325115278363,0.0219902980118989,-0.0121685766994953,0.0003729974851012,-0.0048681828193366,-0.0008206772617995
1783206913593711400,3.30771142578125,0.0111646786202676,0.0269032044947147,0.0157931969374418,-0.002944316715002,0.0009577902965247,0.0073870662599802
1783206913603648500,3.3176484375,0.0090418229810893,0.0290577521800994,0.0280973827153444,-0.0073166955262422,0.0032105580903589,0.0039856769144535
1783206913613585200,3.327585205078125,0.0066333005346357,0.0315513225615024,-0.0052975218862295,-0.0120398513972759,-0.001786533743143,0.0008370683062821
1783206913623522300,3.337522216796875,0.0216352009639143,0.0383960738897323,-0.0258370365679264,-0.0074709318578243,-0.0108916154131293,0.0018384165596216
1783206913633459500,3.34745947265625,0.0199681445345282,0.03964987334311,-0.0226584065318107,-0.0045470464974641,-0.006909123621881,-0.0011437910143285
1783206913643395300,3.357395263671875,-0.0114782563477754,0.0222924958288669,-0.0086263740479946,-0.0040117520838975,0.0039123650640249,-0.0014559136470779
1783206913653332200,3.367332275390625,-0.0184194537878036,0.0307937821924686,-0.0267184955775737,-0.0045449081808328,0.0063575832173228,-0.0047173323109745
1783206913663269400,3.377269287109375,0.005780483097583,0.0163841485679149,-0.045265375137329,-0.0060759596526622,0.0120346434414386,-0.00032364949584
1783206913673206300,3.387206298828125,0.0305377616047859,0.0040168344259262,-0.0525011716097593,0.0001724492758512,0.005293202586472,0.004228254314512
1783206913683143400,3.397143310546875,0.0155450856615789,0.0102419925510883,-0.0753115538328886,0.0066220932640135,-0.0014089085161685,0.0020196945406496
1783206913693079300,3.407079345703125,0.0049478316657245,0.0082183777689933,-0.0374953256577253,0.0050648339092731,-0.0030233059078454,-0.0001102183014154
1783206913703016700,3.4170166015625,0.0015223872616887,0.0134416653752326,0.0108592476665973,-0.0012274170294404,-0.0065650437027215,-0.0037190678995102
1783206913712953900,3.426953857421875,-0.0099295473347418,0.0161158530205488,0.0275859260618686,-0.0090494668111205,-0.0062511954456567,-0.0002384909894317
1783206913722890500,3.436890380859375,0.0033786826528608,0.0306266089320182,0.014030278918147,-0.0114926500245928,0.0019462807103991,-0.0026707560755312
1783206913732827600,3.44682763671875,0.003648731765896,0.0259708920806646,-0.0009936872124671,-0.0097647840157151,0.0042678448371589,-0.0039142407476902
1783206913742763800,3.456763671875,-0.0012663484076969,0.0275946938902139,-0.0156961663037538,-0.009248130954802,0.0013221222907304,-0.002103823935613
1783206913752701000,3.466700927734375,0.0091711667154915,0.0295475815236568,-0.0407487744957208,-0.0076548857614398,0.0041688792407512,-0.0018152117263525
1783206913762637600,3.476637451171875,0.0237219441100955,0.016551906350255,-0.0315425547331571,-0.0059256954118609,-0.0001196088269352,-0.00135208806023
1783206913772574700,3.48657470703125,0.0260933494165539,-0.0008878887504339,-0.0187970549285411,-0.0060387188568711,-0.0020178304985165,0.0006187730468809
1783206913782511600,3.49651171875,0.0083041746226139,-0.0058493105500936,-0.0376695131808519,-0.0029254844412207,0.0026895732153207,0.0028033638373017
1783206913792447700,3.50644775390625,-0.0050194355972111,0.015115736067295,-0.0730085375875234,0.0048503596335649,-0.0008019227534532,0.0025850457604974
1783206913802384600,3.516384521484375,-0.0017376374475657,0.0122825584679841,-0.0632668957740068,0.006120687816292,0.0006628157570958,-0.0015622951323166
1783206913812321500,3.526321533203125,-0.0168149412006139,0.0017167407900094,-0.0538590159595012,0.0051057832315564,-8.40877182781e-05,-0.0022328719496726
1783206913822258700,3.5362587890625,-0.0059716217555105,0.0091162033915519,-0.0354822322696447,0.0029888367280364,0.0016211345791816,-0.001596642890945
1783206913832195800,3.54619580078125,0.0032288989186286,0.015936404800415,-0.0063788873821496,0.0015213284641504,-0.0001948620192706,-0.0008202472236007
1783206913842131700,3.556131591796875,0.0249991427053697,0.0047644379228353,-0.0076239190071821,5.41927292943e-05,-0.001250272616744,0.00084183155559
1783206913852068600,3.566068603515625,0.0191773046840913,-6.78045392036e-05,-0.0140291098743677,0.0003472715616226,-0.0039031500928103,0.0011028971057385
1783206913862005800,3.576005859375,0.0077751640461385,0.0088584292382001,-0.0020060791254043,0.0041816905140876,-0.0050056991167366,-0.0004782215692102
1783206913871942700,3.585942626953125,0.0002317629292607,0.0277490076690912,-0.0092144030690193,0.0040057720616459,-0.0028958669863641,-0.0011798357591032
1783206913881879800,3.5958798828125,-0.020355536416918,0.0378448697477579,-0.0120990185946226,0.0038395905867218,0.0060313148424029,-0.0015489497454836
1783206913891815700,3.605815673828125,-0.0096086630836129,0.0384895973920822,-0.0236263747811317,0.003054229542613,0.0099442340433597,-0.0026697604916989
1783206913901752800,3.6157529296875,-0.0105536888487637,0.0248164613485336,-0.020692074894905,-0.0010931119322776,0.0083537949249148,-0.0039235767908394
1783206913911689700,3.625689697265625,-0.0001494914732873,0.0310474646925926,-0.0197527482181787,-0.0057958662509918,0.0045045390725135,-0.0060411924496293
1783206913921627000,3.635626953125,0.013261212508101,0.0066489364951848,-0.0401081385046243,-0.0038893092423677,0.0013958308845758,-0.0049993637949228
1783206913931563500,3.6455634765625,0.0219977689323015,0.0012748422414064,-0.0449000489562749,0.0049072969704866,-0.0043468833900988,-0.0018341058166697
1783206913941499600,3.655499755859375,0.0075838792577385,0.0048696518629789,-0.0650689767599105,0.0083036255091428,-0.0070739607326686,-0.0018602048512548
1783206913951436800,3.665436767578125,0.0033424422957003,0.0222521638184785,-0.0642740269899368,0.0137281594797968,0.0025741108693182,-0.0022084498777985
1783206913961373700,3.675373779296875,0.0018280922099947,-0.0066869304180145,-0.01909749917984,0.0109331719577312,0.0029437576886266,-0.0013415911234915
1783206913971310600,3.685310546875,-0.0070452423363924,0.0032750761479139,-0.0140367086589336,0.0051418617367744,0.0006667547859251,-0.0017487884033471
1783206913981247700,3.695247802734375,0.0053515901610255,0.018508301115036,0.010400982505083,-0.0003248089924454,0.0042913174256682,-0.0010323980823159
1783206913991184600,3.7051845703125,0.0062314417354762,0.0093926822453737,0.0213192668825387,-0.0012372294440865,0.0074316053651273,-0.0035118067171424
1783206914001120800,3.715120849609375,-0.0097711601689457,0.0207300688177347,-0.0099275197744369,-0.00613877736032,0.0012528053484857,-0.0051789456047117
1783206914011057700,3.7250576171875,-0.0063256958901882,0.0288929170072078,-0.0072217679470777,-0.0131658753380179,-0.0020627044141292,-0.0041186502203345
1783206914020994600,3.73499462890625,0.0096500180073082,0.015938158366084,-0.0003273322582244,-0.0074406107887625,0.0001226859167218,-0.0034131789579987
1783206914030931700,3.744931640625,0.0142263860121369,0.0015285247415304,0.000255436065793,-0.0084661534056067,0.0017926911823451,-0.0001151657197624
1783206914040868900,3.754868896484375,0.0314123707485385,0.0060012862414121,-0.0280588042706251,-0.0050605041906237,-0.0043770540505647,0.0042601418681442
1783206914050804700,3.7648046875,0.0280478627515025,0.0145709616661071,-0.0190185887247324,2.34255567193e-05,-0.0045317043550312,0.0053968783468008
1783206914060741600,3.77474169921875,-0.0032798984535038,0.0314016849577426,-0.021660043144226,-0.0016522351652383,0.0008204504847526,0.0059215212240815
1783206914070678800,3.7846787109375,-0.0189617439709603,0.036175475230813,-0.0295744695305824,0.0011840965598821,0.0070733181200921,-0.0002901300322264
1783206914080615700,3.79461572265625,-0.0135921797618269,0.028957798936963,-0.0296621478140354,0.0040648384019732,0.00651352154091,-0.0002094360534101
1783206914090552800,3.804552734375,-0.0054956565405242,0.0202156895548105,-0.0473772527247667,0.0038441028445959,0.0083502409979701,-0.0011969814077019
1783206914100489700,3.81448974609375,0.0013279058692045,-0.0079798928380012,-0.0417763639777898,-0.0065558077767491,0.0087473187595605,-0.0011165540199726
1783206914110425600,3.824425537109375,-0.0081660447935573,-0.0079722940534353,-0.0117331078916788,-0.0096002425998449,0.0117564219981431,-0.0061579514294862
1783206914120362800,3.83436279296875,0.0087134678095579,0.0129033207148313,-0.0093055884838104,-0.0085072815418243,0.0020324219949543,-0.002212744904682
1783206914130300000,3.8442998046875,0.0275346342660486,0.0148737440049648,-0.0161292970240116,-0.0123875364661216,-0.0045892125926911,-0.0019789263606071
1783206914140236500,3.854236572265625,0.0122797819890081,0.0198106158852577,-0.0090343703269958,-0.0098029393702745,-0.0014906246215105,-0.0035805513616651
1783206914150173700,3.864173583984375,2.1499445755e-05,0.026395254972577,-0.0174877258956432,-0.0089572621509432,-0.0033180066384375,-0.0026805382221937
1783206914160109800,3.87410986328125,-0.0107581071133725,0.0292903918921947,-0.0373603011012077,-0.0086131813004612,-0.004445323254913,-0.0071804812178015
1783206914170046700,3.884046630859375,0.0042214170873165,0.018079262048006,-0.0534177019327878,-0.0013689324259757,-0.0006374102085828,-0.0085242222994565
1783206914179983600,3.893983642578125,0.0158951960071921,0.015369418567419,-0.0589057779550552,0.0069928606972098,0.0060631027445197,-0.0068980958312749
1783206914189920800,3.903920654296875,-0.0016952413442544,0.0271738381296396,-0.0344271702587604,0.0014972845092415,0.0046583637595176,-0.0081464555114507
1783206914199857700,3.913857666015625,-0.0039177579656243,0.0247007260143756,-0.0188806415587663,0.0009305635467171,0.0063180457800626,-0.0089541915804147
1783206914209794800,3.923794921875,0.0176315182805061,0.0055751697838306,-0.0136649527370929,-0.0027894470840692,0.0024668795522302,-0.0020490083843469
1783206914219730700,3.933730712890625,0.0293901990048587,-0.0172901574969291,0.00274140766263,-0.0042184982448816,-0.0018381206318736,0.0015257527120411
1783206914229667600,3.94366748046875,0.0180688867844641,0.0042746085792779,-0.0168014971971511,-0.0060890046879649,-0.0093583706766366,0.0023781438358128
1783206914239604700,3.953604736328125,0.0151871938683092,0.0199625915765762,-0.0457324081271886,-0.004678594879806,-0.007610538508743,0.0021693520247936
1783206914249541600,3.963541748046875,0.0115267716646194,0.0060001171976327,-0.0423006801128387,-0.0017039952799677,-0.0047719473950564,0.0024220016784965
1783206914259478800,3.973478759765625,-0.0066653031080961,0.0054839843690395,-0.03267477363348,0.0010244129225611,0.0009450605139136,0.0033735488541424
1783206914269414700,3.98341455078125,-0.0196885969407856,0.0290209273010492,-0.0179155959188938,-0.0025806119665503,-0.0013359109871089,-0.0022570462897419
1783206914279351800,3.993351806640625,-0.0020937391425482,0.0331616803675889,0.0026215806752443,-0.0016628876328468,0.0020761312916874,-0.0063071819022297
1783206914289288700,4.003288818359375,-0.00625701456815,0.0151823715627193,0.0125257195740938,-0.0045793326571583,0.0046199937351047,-0.0066352332942187
1783206914299225900,4.013225830078125,-0.0109771384252235,0.0211702138006687,0.0029594343274831,-0.0038482947275042,-0.0021138093434274,-0.0064139245077967
1783206914309162500,4.02316259765625,0.0053363925918936,0.0204793089270591,-0.0174380415350198,-0.0002242438495159,0.001869985833764,-0.0111808208748698
1783206914319099600,4.033099609375,0.0232175017192959,0.0068996963858604,-0.008481997141242,0.0023201396688818,-0.0030720420181751,-0.0061772735789418
1783206914329035800,4.043035888671875,0.0192835232712328,0.0085673373371362,-0.0010030395627021,0.0057511003687977,-0.0069233803078532,-0.0032293633557856
1783206914338973000,4.052972900390625,0.0103283556602895,0.0273462720870971,0.0010188216537237,-0.0023177452385425,-0.0038186674937605,-0.0038879630155861
1783206914348909600,4.06290966796875,-0.0011339724659919,0.0159089322715997,-0.0025502690047025,-0.0063576037064194,-0.0034829773940145,-0.000119719421491
1783206914358846700,4.0728466796875,-0.0043451895974576,0.0125099374830722,-0.0295902516216039,-0.0058414814993739,-0.007776525337249,-0.0002555407118052
1783206914368783600,4.08278369140625,0.0013593056544661,0.0218920983344316,-0.0580208118140697,-0.0036730179563164,-0.0057121883146464,-0.0035881435032933
1783206914378720800,4.092720703125,-0.0012152210086584,0.0205798466920852,-0.0304021525263786,-0.0026154769584536,-0.007133784238249,-0.0032296821009367
1783206914388656600,4.10265673828125,0.0098997549846768,0.0015513210952281,-0.0030523733079433,-0.0087203169241547,-0.0027959439903497,-0.0009450777433812
1783206914398593800,4.11259375,0.0097594879974611,-0.0073223057121038,-0.002348024430871,-0.0160967409610748,-0.0008374550379812,-0.0029216757975518
1783206914408530700,4.12253076171875,-0.0024453290591947,0.013814005818963,-0.0271995570927858,-0.0163917951285839,0.0004885252565145,-0.0022103930823504
1783206914418467800,4.1324677734375,-0.0028989363119006,-0.0046691608548164,-0.0525192917883396,-0.0124023789539933,-0.003073719330132,-0.0041156187653541
1783206914428404700,4.14240478515625,0.0043337914206087,-0.0086754738867282,-0.0397679467648267,-0.0087177827954292,0.0007116254419088,-0.0039295488968491
1783206914438341600,4.152341552734375,0.0189025611296296,0.0118348147004842,-0.0416296489834785,-0.0084453411400318,-0.0012138402089476,-0.0017633337993174
1783206914448277800,4.16227783203125,0.0191527364984154,0.0124444710314273,-0.0428957233965396,-0.0054318876937031,0.0017749015241861,-0.0027325467672199
1783206914458214700,4.172214599609375,0.011206745930016,0.0035790275305509,-0.0152396547079086,-0.0090513909235596,-9.4161368906e-06,9.30672977119e-05
1783206914468151800,4.18215185546875,0.0173239136360585,0.0061556000202894,-0.0132382517576217,-0.0054903989657759,-0.0007302965968847,0.0025204482953995
1783206914478088700,4.192088623046875,-0.0017073884397745,0.0090542440712451,-0.015876783567667,-0.0047929184511303,0.0003328369930386,-7.53349158912e-05
1783206914488025600,4.202025634765625,-0.0043755847357213,0.0215688577294349,-0.0161427410274744,0.0027048178017139,-0.0033581177704036,-0.005098455119878
1783206914497962800,4.211962646484375,-0.0048262511126697,0.0364601373910903,-0.0386579396963119,0.0025069443508982,-0.0020246733911335,-0.0039098863489925
1783206914507899000,4.22189892578125,-0.0231323076538741,0.0205371765941381,-0.0466314027935266,0.0095224734395742,-0.0031664702109992,-0.0059948302805423
1783206914517835500,4.23183544921875,0.00146393507272,-0.0049456397086381,-0.0544289248019456,0.0118375597521662,0.0001515625044703,-0.0080521227791905
1783206914527772700,4.241772705078125,0.0100686818107962,-0.0013081599891185,-0.0620090046674013,0.0120687577873468,0.002413218608126,-0.0072220601141452
1783206914537709800,4.251709716796875,0.0150146137803792,0.0059802434533834,-0.0187847799688577,0.0074244714342057,0.0022984363604336,-0.00288403686136
1783206914547646700,4.261646728515625,0.0238927888986654,0.0044189854860305,0.0134936878234148,-0.0017673298716545,0.0034000049345195,-0.0027879853732883
1783206914557584000,4.271583984375,0.0195130942434072,0.0111170218199491,-0.0044353520989418,-0.0051932213827967,0.0048967013135552,0.0012919772416353
1783206914567519700,4.281519775390625,0.0120785785947926,0.0104582656502723,0.0059019175201654,-0.0079532302916049,0.0014674304984509,0.0021425003651529
1783206914577456600,4.29145654296875,0.0184773397211916,0.0121761754840612,0.0096393504828214,-0.0079106204211711,-0.0093109142035245,0.0042980629950761
1783206914587393800,4.301393798828125,0.0054679465496912,0.0197761290937662,-0.0241156196027994,-0.0113092362880706,-0.0120857320725917,0.0054872967302799
1783206914597330700,4.31133056640625,0.0005316226586699,0.0319651640594005,-0.0213180978387594,-0.0135524161159992,-0.0185580123215913,0.0048864874988794
1783206914607267600,4.321267578125,-0.0014963577712886,0.0382972896903753,-0.0020464111357927,-0.0350971929728984,-0.0204708911478519,0.0032173099461942
1783206914617204700,4.331204833984375,-0.0085762330296449,0.0139665660321712,0.0988069957107305,-0.0286190547049045,0.006127696018666,0.0008337807375937
1783206914627140900,4.341140869140625,-0.0182332835659384,0.0133241764754056,-0.0464537081390619,-0.0152607653290033,-0.0078544113785028,-0.0040596458129584
1783206914637077800,4.351077880859375,0.0150144676499068,0.0369663333475589,-0.1197083294421434,-0.0017300434410572,-0.0068032606504857,0.000515665160492
1783206914647014700,4.3610146484375,0.0394379841580986,-0.0089133742958307,-0.0410673389256,0.0031377263367176,-0.0071918778121471,0.0002676805015653
1783206914656951600,4.37095166015625,-0.0011877484798431,-0.0059726446688175,-0.050105216383934,0.0080784223973751,0.0003171707503497,-0.0010069082491099
1783206914666888700,4.380888671875,-0.0120903968967497,0.0259065946727991,-0.0429717112421989,0.0156400147825479,0.0049720453098416,-0.0037018489092588
1783206914676825900,4.390825927734375,-0.0016208792001008,0.0164519531071186,-0.0428244117259979,0.0101965125650167,0.0049376906827092,-0.0027524321340024
1783206914686761700,4.40076171875,-0.0036370413281023,-0.003112579062581,0.0005833528459072,0.00020691473037,0.0089774401858448,-0.0007674943190068
1783206914696698600,4.41069873046875,0.0146047360715456,0.0014922843843698,0.0112339261978864,-0.0065202303230762,0.001058264169842,-0.0004314032848924
1783206914706635300,4.42063525390625,0.0236598386593163,0.011359598404169,0.0045838206589221,-0.0079553611576557,-0.0084699904546141,0.0019086762331426
1783206914716572200,4.430572265625,0.0406482367306947,0.0005097030878067,-0.0192605807870626,-0.0115634109824895,-0.0085096713155508,0.0027302615344524
1783206914726509300,4.44050927734375,0.0172638722782023,-0.0186485863685607,-0.0139683195978403,-0.0070476718246936,-0.0072638052515685,0.005645802244544
1783206914736446500,4.450446533203125,-0.0025547990493476,-0.0036252047598361,-0.0422539183616638,-0.0047328528016805,-0.0032560140825808,0.0028609342407435
1783206914746383400,4.46038330078125,-0.0199343883953988,0.0207739079594612,-0.0499123241603374,0.0024894960224628,0.0023274580016732,-0.0005850759334862
1783206914756319200,4.4703193359375,-0.0294810921587049,0.034150106883049,-0.0400385803997516,0.0062634614296257,0.0076758842915296,-0.0041329390369355
1783206914766256400,4.48025634765625,-0.0217624806053936,0.023019641059637,-0.0352513461232185,0.0092358756810426,0.0130010489374399,-0.0035880897194147
1783206914776193300,4.490193359375,-0.0040296939074993,0.0158873049616813,-0.035776246780157,0.0107038104906678,0.0099320216104388,-0.0059346007183194
1783206914786130400,4.50013037109375,0.0032275837443768,-0.0032131168276071,-0.025690321573615,0.0110063459724187,0.0055601764470338,-0.0057140914723277
1783206914796067300,4.5100673828125,0.0201363589745946,0.0102449151605367,-0.0125771575003862,0.0078672775998711,0.0053548468276858,-0.0020671584643423
1783206914806004200,4.520004150390625,0.0320161818605847,0.0178583127737045,0.0048404257684946,0.0011414205655455,0.0021678013727068,0.0035412383731454
1783206914815940400,4.5299404296875,0.0207031808108091,0.017931962531805,-0.0048252281993627,-0.0017110910266637,-0.0060147605836391,0.0019579890649765
1783206914825877500,4.53987744140625,0.0092905370451509,0.0176864633381366,-0.0165986681014299,-0.0002422705292701,-0.0053494228050112,0.0035965398419648
1783206914835814100,4.549814208984375,0.0125583249357528,0.0213274501889944,0.002926116579771,0.0002682581543922,0.0017433734610676,0.0060919215902686
1783206914845751300,4.559751220703125,-0.0095296064980328,0.0274409646332263,-0.0040998365342617,-0.0030942540615797,-0.0042177466675639,0.0016582878306508
1783206914855688400,4.5696884765625,-0.0276499312087893,0.0402285500138998,-0.0435661700040101,-0.003819964826107,0.0003232094459235,0.0005730497650802
1783206914865625300,4.579625244140625,-0.0034803711953572,0.0262725053757429,-0.053863107612729,-0.0010106358677148,0.0089279077947139,-0.0037710471078753
1783206914875562500,4.5895625,0.0084232709576375,0.0128033674716949,-0.0729886638432741,0.0056267604231834,0.0052527459338307,-0.0025105730164796
1783206914885498400,4.599498291015625,0.007300532271713,0.0087795187830924,-0.0557172110468149,0.0078942198306322,0.0053783855400979,-0.0035729524679481
1783206914895435300,4.609435302734375,-0.0073149991884827,-0.0027548516660928,-0.0068558572441339,0.00560949370265,0.0078822895884513,-0.0032720151357352
1783206914905372400,4.619372314453125,0.0028742402620613,-0.0093809918075799,-0.0031575872480869,0.005989734083414,0.0037849452346563,-0.0059732268564403
1783206914915309300,4.629309326171875,0.0069479194417595,0.0128296709567308,-0.0250233820974826,0.0033060666173696,-0.0067137680016458,-0.0025028616655617
1783206914925246200,4.63924609375,0.0130048813931643,0.0291787482112646,-0.0274842192530632,-0.003882429562509,-0.009272146038711,0.0001089870929718
1783206914935183400,4.649183349609375,0.0256098036833107,0.0202770643532276,-0.0002454991936683,-0.0077786343172192,-0.0030930796638131,0.0025497744791209
1783206914945119500,4.659119384765625,0.0131403443410992,0.0137900404214859,-0.0064122051298618,-0.007139234803617,-0.0061282534152269,0.0026803247164934
1783206914955056400,4.669056396484375,-0.0110812198542058,0.0287748435854911,-0.0284837516844272,-0.0039450405165553,-0.002656290307641,9.83898062258e-05
1783206914964993300,4.6789931640625,-0.0046095396220684,0.0187350956082344,-0.0286579392075538,-0.0032195979729294,-0.0022705653682351,-0.0005327824037522
1783206914974930200,4.68893017578125,-0.0029269933626055,-0.0022936638951301,-0.0274018016666173,-0.0013756258413195,0.0010658432729542,-0.0016824689228087
1783206914984867300,4.698867431640625,-0.0003233867354691,0.0067582420885562,-0.012795768687129,0.0012122318148612,0.0013818661682307,-0.0031505045481026
1783206914994804500,4.708804443359375,-0.0048010984051041,0.0102472532480955,-0.0330091201543807,0.0043414458632469,0.0009344550780951,-0.0058789132162928
1783206915004741400,4.718741455078125,-0.0105213940143585,0.0145727152317762,-0.0405669881880283,0.010445118881762,0.0039559435099363,-0.0045773722231388
1783206915014677200,4.72867724609375,-0.0028268939889967,0.0204763863176107,-0.0371025269478559,0.0066365324892103,0.0051285335794091,-0.0060586226172745
1783206915024614400,4.738614501953125,0.0051635385093279,0.0276274271160364,-0.0087397712945938,-0.0003255950286984,0.0037017334252595,-0.0053240358829498
1783206915034551300,4.74855126953125,0.0253418003968894,0.0346370136171579,0.0087725045204162,-0.0058958623558282,0.0019744071178138,-0.0041594351641833
1783206915044488400,4.758488525390625,0.0178878493954427,0.027400632622838,0.0309399126648902,-0.0049287667497992,0.0026811559218913,-0.0064623514190316
1783206915054425300,4.76842529296875,0.0032858898028731,0.0264817642122507,0.0155009359925985,-0.0081554530188441,0.0016798074357211,-0.0063275955617427
1783206915064362200,4.7783623046875,0.0112593529000878,0.0188169286727905,-0.0136971014410257,-0.0094854077324271,0.0009420816786587,-0.0046360101550817
1783206915074298400,4.78829833984375,0.014494681559503,0.0054676177561283,-0.0055044426351785,-0.0105783687904477,0.0002866778522729,-0.0041923276148736
1783206915084235500,4.798235595703125,-0.002375058568269,0.0018377368211746,-0.0088356328845024,-0.009775417856872,-0.0042836708016693,-0.0030596808064728
1783206915094172200,4.808172119140625,-0.0076230422243475,-0.009765022689104,-0.0438601845145225,-0.0114864995703101,-0.0043273470364511,-0.0021984144113957
1783206915104109300,4.818109375,0.0065883106154389,0.0018494272589683,-0.061522682455182,-0.0049430392682552,0.0007646903395652,-0.0047088069841265
1783206915114046200,4.828046142578125,-0.0075222121983766,-0.0029360534518957,-0.0562935496300458,-0.0007160697132349,0.0008187526836991,-0.0023894598707556
1783206915123983400,4.8379833984375,0.001115267765522,0.0043839141726493,-0.0713590168148279,0.0062155704945325,0.0038959989324212,-0.00132388016209
1783206915133920500,4.84792041015625,-0.0077609893903136,-0.0001420388191938,-0.0443336472451686,0.0059135677292943,0.0059628784656524,-0.0003318528179079
1783206915143856400,4.8578564453125,0.0007289170627482,-0.0049894788503646,-0.0413905795305967,0.0009709177538752,0.0061602988280355,0.0005028056912124
1783206915153793300,4.867793212890625,0.0161716748610138,0.0062076224684715,-0.0341723187148571,-0.002021144144237,0.0063688242807984,-0.002696183277294
1783206915163730400,4.87773046875,0.022071400424093,0.0086737203210592,-0.0157160400480031,-0.0080862268805503,0.0086785834282636,-0.001462607178837
1783206915173667300,4.887667236328125,0.016511720470339,0.0171843590348958,0.0041115269720554,-0.0214318595826625,0.0076764365658164,-0.000104394974187
1783206915183604200,4.897604248046875,0.0110106388360261,0.0253776023626327,-0.0043763153880834,-0.0128414779901504,-0.0030292854644358,-2.95839272439e-05
1783206915193541400,4.907541259765625,0.0039902386799454,0.0139139590620994,-0.0223094469636678,-0.0047936718910932,0.0041050571016967,-0.001322548603639
1783206915203478300,4.917478271484375,0.020806787315756,0.0012508768439292,-0.0544061284482479,-0.0007715569809079,0.0008569569326937,-0.0010716409888118
1783206915213414400,4.927414306640625,0.0041327158905565,0.0171843590348958,-0.0583493131160736,0.0035424977540969,0.0054772752337157,-0.0026769945397973
1783206915223351300,4.937351318359375,-0.0220317990660667,0.0224684369176626,-0.011671148571372,0.0072720814496278,0.0045221447944641,-0.0045703225769102
1783206915233288200,4.9472880859375,-0.0007109064820222,0.021706804895401,0.0123310737848281,0.0055721858516335,0.0032867041882127,-0.0008040801621973
1783206915243225300,4.957225341796875,0.0170817754432559,-0.0009925181686878,0.0351987391531467,-0.0031650206074118,0.0059582660906016,6.88172876834e-05
1783206915253162500,4.96716259765625,0.003062310180068,0.0012368483185768,0.031158523851633,-0.007009825669229,0.0039683524519205,0.0003596344031393
1783206915263099400,4.977099365234375,-0.003125730805099,0.0156347915053367,0.0138636901795864,-0.0062923813238739,0.0012331157922744,0.0012142367195338
1783206915273036300,4.987036376953125,0.0063834174267947,-0.0023468553870916,-0.0128138888657093,-0.0088924253359436,0.0029260874725878,0.0043474454432725
1783206915282972400,4.996972412109375,0.0238584299713373,-0.0082271455973386,-0.0439700746297836,-0.007136246189475,-0.0004115067422389,0.0053870566189289
1783206915292909300,5.006909423828125,0.0054953825458884,-0.0028080431580543,-0.0744376936078071,-0.0010732933878898,-0.0031337901018559,0.0039028774481266
1783206915302846500,5.016846435546875,0.0097226448521018,0.0047018940806388,-0.0700245533406734,-0.0032304571941494,-0.0044246679171919,0.0033885554876178
1783206915312783400,5.026783447265625,0.0048961014784872,-0.0062298343002796,-0.0868050077497959,0.0013674907386302,-0.0026169139891862,0.0005280540790408
1783206915322720300,5.03672021484375,0.0048277306837029,-0.0049836336314678,-0.079492054387927,0.0065100323408842,-0.00481544341892,0.0040834937244653
1783206915332657400,5.046657470703125,0.0042158823956735,0.000831774649024,-0.0746200644373893,0.0116794938221573,-0.0043509881943464,0.0008576065301895
1783206915342594300,5.05659423828125,0.0038599085648544,0.0005488660544157,-0.0829080003112554,0.0170273631811141,0.0040510240942239,0.0004151170141994
1783206915352531500,5.066531494140625,-0.0045334056459367,0.0117787005990743,-0.0510614941954612,0.0173892863094806,0.0034174581523984,-1.65812671184e-05
1783206915362467300,5.07646728515625,-0.0048100123639218,0.0208323601484298,-0.0301911401242017,0.0143462065607309,0.0044605499133467,-0.0011316624004393
1783206915372404200,5.086404296875,-0.0062533613063395,0.0233411280989646,0.0015139116942882,0.0080414395779371,0.0011100266128778,-0.0001564125996083
1783206915382341400,5.09634130859375,0.010714286237955,0.0239718272179365,0.0357610492110252,0.0008758744224905,-0.0041303443722426,0.0012429121416062
1783206915392278500,5.106278564453125,0.0167001009155996,0.0060895490467548,0.0508984125882387,-0.0057820286601781,-0.0032371203415095,0.0064552510157227
1783206915402215200,5.116215087890625,0.0134929754373617,0.0261269594252109,0.0406406379461288,-0.0120979808270931,-0.004631018731743,0.0066549880430102
1783206915412152300,5.12615234375,0.0121200796489603,0.0286684606015682,0.0369154799431562,-0.0123909283429384,-0.0055394233204424,0.0068866834044456
1783206915422089200,5.136089111328125,0.0001074058972299,0.0265144974380731,0.0256242706000804,-0.012230172753334,-0.0045180250890553,0.0064169224351644
1783206915432025300,5.146025390625,-0.00657864773795,0.0207452663868665,0.0004816460371017,-0.0075933430343866,-0.0035771303810179,0.0033604118507355
1783206915441962200,5.155962158203125,-0.0008644896085374,0.0251782803982496,-0.0434960273772478,0.0026268893852829,-0.0060112406499683,0.0030983299948275
1783206915451899400,5.1658994140625,0.0053946986503899,0.0115600894123315,-0.0629459932565689,0.0047606136649847,-0.0005853162147104,0.0045609385706484
1783206915461836300,5.175836181640625,-0.0091227792628109,0.0098088618308305,-0.0663905807524919,0.0087504535913467,-0.0019458532333374,0.0023651793599128
1783206915471773400,5.1857734375,-0.0164209551806561,0.0062058689028024,-0.0717044692516326,0.0086529813706874,0.0008067898452281,0.0001688704360276
1783206915481710300,5.19571044921875,-0.0104250940330326,0.0095838209033012,-0.0466074373960494,0.0044628726318478,0.0032568264286965,0.0028738258406519
1783206915491647200,5.205647216796875,0.0062466575709171,-0.0024064766198396,-0.0297913271516561,0.003134487196803,0.0034259371459484,0.0028200298547744
1783206915501583400,5.215583251953125,0.0138734809212386,-0.0111719668775796,-0.0432955363690853,0.0033384077250957,0.0019750725477933,0.0015298214275389
1783206915511520500,5.2255205078125,0.0271206466376781,-0.0044359366208314,-0.0395277082681655,0.0048359027132391,0.0003923559561371,0.0036038912367075
1783206915521457400,5.23545751953125,0.0290923851020634,-0.0021691607326269,-0.0300999547094106,0.0074534430168569,-0.00087426090613,0.0036649056710302
1783206915531394300,5.245394287109375,0.0052307585266418,0.0276969852209091,-0.0401806192189455,0.0058171967975795,0.0003854143433272,0.0017016232013702
1783206915541331200,5.255331298828125,0.0036795835618861,0.0358072264403104,-0.012640870386362,0.0047342106699943,0.0036884453147649,0.0013741834554821
1783206915551268400,5.265268310546875,0.0004712707735598,0.0250426713198423,-0.006202946293354,0.0020603975281119,-0.0014224271290004,-0.0015904472675174
1783206915561205500,5.27520556640625,-0.0073119304485619,0.0157937814593315,-0.0116086047291755,0.0017705420032143,-0.0039497730322182,0.0021474447567015
1783206915571142400,5.285142333984375,-0.0006810958656482,0.0147270290106534,0.0148883570522069,-0.002090242691338,-0.0010855430737137,0.0027501180302351
1783206915581078300,5.295078369140625,0.017934739010781,-0.006262567526102,0.0136842419594526,-0.0054426239803433,-0.0023609502241015,0.0043303156271576
1783206915591015400,5.305015380859375,0.0133652391381561,0.0095569328963756,0.0003460369586944,-0.0073997797444462,-0.0015263152308762,0.0054610939696431
1783206915600952300,5.314952392578125,0.014827712906152,0.0225450092852115,-0.0076174892663955,-0.004340099170804,-0.0045880386605858,0.0058955689892172
1783206915610889500,5.324889404296875,0.0233395389300771,0.0230465290665626,-0.0469137268662452,0.0011870246380567,0.0012807687744498,0.0053219245746731
1783206915620826400,5.334826416015625,-0.0040768757837824,0.0087421093821525,-0.0692319416582584,0.0099646374583244,0.0057442313991487,0.0027118797879666
1783206915630763300,5.34476318359375,-0.0175698329548351,0.0259983646094799,-0.0649818829983472,0.0143343517556786,0.001181969884783,-0.0022426648065447
1783206915640700400,5.354700439453125,-0.0152120360486209,0.0226098912149667,-0.0495230325818061,0.0106077650561928,-0.0039347927086055,-0.0063518700189888
1783206915650637300,5.36463720703125,0.00559022122249,0.0098486093193292,-0.0148772511363029,0.0018251929432153,-0.0017994702793657,0.0027715868782252
1783206915660573200,5.3745732421875,0.0300153451658785,-0.0301315188914537,-0.01292436350286,-0.0034912265837192,0.0030363597907125,0.0018023576121777
1783206915670510300,5.38451025390625,0.032103275622148,-0.0312169760406017,-0.0386678765684366,-0.0051610302180051,-0.0049067842774093,0.0038687044288963
1783206915680447200,5.394447265625,0.0095094404928386,0.0048684828191995,-0.0304933379411697,-0.0013381401076912,-0.0076902960427105,0.0017330232076346
1783206915690384400,5.40438427734375,-0.0118469252633862,0.0221130476087331,0.0053565585970878,-0.0030167307704687,-0.0002049491740763,0.0037085558287799
1783206915700321500,5.414321533203125,-0.0123484633110463,0.0074281041741371,0.0123579617917537,-0.0066602751612663,-0.002451685257256,-0.0004237941466271
1783206915710259200,5.42425927734375,-0.0107452658981084,0.0076560677111148,-0.0074012161672115,-0.0095530003309249,-0.0035550324246287,0.0003799479454755
1783206915720196000,5.434196044921875,0.009331453577429,0.0179980135053396,-0.011368950754404,-0.0014362493529915,-0.003884233534336,0.0042005693539977
1783206915730132200,5.44413232421875,0.0090130535443313,0.016874562433362,-0.0285018718630075,0.0032383976504206,-0.0007752594538033,0.0022090575657784
1783206915740069000,5.454069091796875,0.0048272740259766,0.0024719430714845,-0.0438666142553091,0.0030551860108971,0.0022005415521562,0.0023032128810882
1783206915750006300,5.46400634765625,0.0128382926546037,-0.002623918762803,-0.0749549954801797,0.0054336544126272,0.0005043745040893,0.002282706554979
1783206915759943000,5.47394287109375,0.0327706352233886,-0.0004500818550586,-0.0797673641979694,0.0136506836861372,-0.006134957075119,0.005937878973782
1783206915769880000,5.483880126953125,0.0173999197480268,-0.0113058223903179,-0.0619283406466245,0.0180917717516422,0.0015314850024878,0.0046513052657246
1783206915779817200,5.493817138671875,-0.015180891991686,-0.0029173487514257,-0.0439817650675773,0.0182096641510725,0.0129026286303997,0.0037339541595429
1783206915789754000,5.503754150390625,-0.0065540978185832,0.0188344643294811,-0.0318061741054058,0.0098478710278868,0.0024835437070578,0.0043270401656627
1783206915799691300,5.513691162109375,0.02404445406273,0.0111854108810424,-0.0411684612125158,0.0060873543843626,-0.002486917655915,0.0087661929428577
1783206915809627100,5.523627197265625,0.0279660114206373,0.0120633627593517,-0.0213829797685146,0.0085028409957885,-0.0098444335162639,0.0066836006008088
1783206915819564000,5.53356396484375,0.0115131815306842,0.0325847572624683,0.0106324531733989,0.0038175284862518,-0.0017754700966179,0.0098057426512241
1783206915829501200,5.543501220703125,-0.0285571091815829,0.0467389548212289,0.0319452903151512,-0.0019016098231077,0.0082904789596796,0.0074033048003911
1783206915839438000,5.55343798828125,-0.0248350016522221,0.0347913273960351,0.0343038361400365,-0.0026391362771391,0.0056737763807177,0.0010978237260133
1783206915849375000,5.563375,-0.005275163923949,0.0215863933861255,-0.0048877720415592,-0.004023446701467,0.0064064119942486,-0.0005485424771904
1783206915859312000,5.57331201171875,0.0139949336101301,-0.0025333178699016,-0.0222246912896633,-0.0018116915598511,0.0073923142626881,0.0008709223475307
1783206915869249000,5.5832490234375,-0.0023126608565449,-0.0057972881019115,-0.0277682968914508,0.0035495180636644,0.0072961738333106,-0.000471843406558
1783206915879186200,5.593186279296875,-0.0046641924187541,0.032587095350027,-0.0091185414791107,0.0041849743574857,-0.0031770644709467,-0.003388712182641
1783206915889122000,5.6031220703125,0.0190646198235452,0.034592005431652,-0.0103670802354812,0.0003364402800798,-0.000542399007827,-0.0026416955515742
1783206915899059000,5.613058837890625,0.0284212078422307,0.00854161837399,-0.0033200843334197,0.0002937791869044,-0.0007372824475169,0.0028033640701323
1783206915908996000,5.62299609375,0.0184384507492184,0.0264800106465816,-0.0030208091259002,-0.0003365911543369,-0.0032635563984513,0.0028891179244965
1783206915918933200,5.632933349609375,0.0135609078407287,0.0327285496473312,0.0068657941162586,-0.0036203162744641,0.0051217311993241,0.0014539833646267
1783206915928870100,5.6428701171875,-0.0125195820942521,0.0208978266000747,0.0113233580470085,-0.0081796487793326,0.0031451331451535,-0.0006557728629559
1783206915938807000,5.65280712890625,-0.008819558532536,0.0207850138753652,0.0094283380806446,-0.0123122967779636,0.005799300968647,-0.0013219353277236
1783206915948744000,5.662743896484375,0.0099025497299619,0.0084042557299137,-0.0158130706816911,-0.0084475167095661,0.0030953935347497,0.0032094335183501
1783206915958681000,5.67268115234375,0.0163989260119386,0.0033978257447481,-0.055015784779191,-0.0071738753467798,0.001427243463695,0.0005358904600143
1783206915968618200,5.6826181640625,-0.0015688384856097,0.0129325468093156,-0.0469540588766336,-0.0094636604189872,0.0028949116822332,5.951151251792908e-07
1783206915978554000,5.69255419921875,0.0024351181924343,0.014077040669322,-0.0526595770418643,-0.007583450525999,-0.0001409393735229,0.0052942293696105
1783206915988491000,5.702490966796875,0.0110316816240549,-0.0023398411244153,-0.0678857877463102,-0.006354933604598,-9.1129913926e-06,0.0060670780949294
1783206915998428200,5.71242822265625,0.0169441205382347,-0.0113642745792865,-0.062949500387907,-0.0017979312688112,-0.0039769876748323,0.0046901265159249
1783206916008365000,5.722364990234375,0.00801481802091,-0.0140478145748376,-0.0318751476883888,-0.0028916904702782,-0.0067195110023021,0.0048432582989335
1783206916018302200,5.73230224609375,0.0054405836187303,-0.0044774376749992,-0.0313192673712968,-0.0017738528549671,-0.0091818384826183,0.0070874858647584
1783206916028239000,5.742239013671875,0.0061871642023324,-0.0189542913168668,-0.0064086979985237,-0.000390606932342,-0.0053751161321997,0.008353286422789
1783206916038176000,5.752176025390625,-0.0066533204093575,-0.0068318918466567,-0.0013379706054925,0.0034663211554288,0.0056713507510721,0.0082998303696513
1783206916048113200,5.762113037109375,-0.0163628135189414,0.0182131175607442,0.0122486561983823,0.0023270202800631,0.0058364663273096,0.0031380911823362
1783206916058049300,5.77204931640625,-0.0177436003528535,0.030483401069045,-0.004030278429389,0.0035679200664162,0.0101627092808485,0.0018499922007322
1783206916067986000,5.78198583984375,-0.0047755255724303,0.0222843125224113,-0.0134328975468873,0.0067887473851442,0.0083392430096864,0.0013248166069388
1783206916077923000,5.791923095703125,0.0121814361810684,0.0284381589770317,-0.0061976855963468,0.0078802537173032,0.0079860519617795,0.0030105914920568
1783206916087860200,5.801860107421875,0.0148182144254446,0.0288420636028051,-0.0125134446144104,0.0088610956445336,0.0070622013881802,0.0004880451597273
1783206916097797000,5.811797119140625,0.0202634742192924,0.0045446576923131,-0.0254015677601099,0.0123809371143579,0.0024591048713773,0.0050084716640412
1783206916107734300,5.821734375,0.0212960321374237,-0.012668927437067,-0.0226548994004726,0.0058167772367596,-0.0037204944528639,0.0068638962693512
1783206916117671000,5.8316708984375,0.0033247605085372,0.0037479543566703,-0.0031359599381685,0.0048403134569525,-0.0038414914160966,0.0059952992014586
1783206916127608000,5.841608154296875,-0.0098263792212121,0.0130991355478763,0.0042851299732923,0.001598447561264,0.0029397155158221,0.0038362750783562
1783206916137544200,5.851544189453125,-0.0019207389295101,0.0155780928820371,-0.0095773911625146,-0.0006080185994505,0.0014538806863129,0.0016821532044559
1783206916147481000,5.861481201171875,-0.0018909283131361,0.0008276829957962,-0.0146200615048408,-0.0048128832131624,0.0003603869117796,0.0015274232719093
1783206916157418000,5.87141796875,0.0099308807753026,0.0089209730803966,-0.0006219312906265,-0.0061261691153049,-0.0081828869879245,0.003956523258239
1783206916167355100,5.881355224609375,0.0135390065361745,0.0078565587192773,-0.0123643915325403,-0.0074905063956975,-0.009454546496272,0.0034563816152513
1783206916177292000,5.8912919921875,0.0206144978803582,-5.26069700717e-05,-0.0075292264610528,-0.0080717727541923,0.0007945108227431,0.0017105948645621
1783206916187229200,5.901229248046875,-0.0001524140827357,-0.0002688800692558,0.0059551090121269,-0.0060235355049371,0.0038299818988889,0.0015718440990895
1783206916197166000,5.911166015625,-0.0003698379593901,0.0139560446381568,-0.0088911624640226,-0.0005188146606087,0.0081822071224451,0.0057649789378046
1783206916207103000,5.92110302734375,0.0009837503403425,0.0154863229453563,-0.015212766700983,-0.0024908864870667,0.0065174647606909,0.0034064832143485
1783206916217040100,5.9310400390625,0.004797938333638,0.0193576114207506,-0.0228507142335176,-0.0034826695919036,0.0025473365094512,0.0005459117237478
1783206916226976300,5.940976318359375,0.0250548001490533,0.0181786307692527,-0.0193283853262662,-0.0045047905296087,-0.0045547815971076,0.0006998425815254
1783206916236913200,5.9509130859375,0.0281323261645622,0.0082704002171754,-0.0248895265847444,-0.0009688893333077,-0.0078020859509706,0.0063796360045671
1783206916246850000,5.96085009765625,0.0174001937426626,0.0061754737645387,-0.036000118663907,-0.0026789056137204,-0.0039112074300646,0.0063711144030094
1783206916256787000,5.970786865234375,0.0106017657741904,0.0019125556230545,-0.0275520237922668,0.0042095594108104,-0.0010677194222807,0.0044713127426803
1783206916266724000,5.98072412109375,-0.0178552440337836,0.0160585698753595,-0.0129570967286825,0.0061233071610331,-0.0030062342993915,0.0030814087949693
1783206916276661200,5.9906611328125,-0.0173345811605453,0.0242366156339645,0.0287070390462875,0.0014359364286065,-0.0022077299654483,0.0038340408354997
1783206916286598100,6.00059814453125,0.0075036536283791,-0.0076607438862323,0.0514484476864337,-0.0040626926347613,-0.0007813405245542,0.006145664025098
1783206916296535000,6.01053515625,0.0218486975841224,-0.0128746791422367,0.0586474192798137,-0.0139198908582329,-0.0034584109671413,0.008908350020647
1783206916306471200,6.02047119140625,0.0166907302990555,0.0056184244036674,0.0474976642340421,-0.0130682131275534,-0.0039377803914248,0.0065176305361092
1783206916316408000,6.030407958984375,0.0095474344156682,0.0304155965298414,0.0266109435498714,-0.0128873335197567,0.0009269570000469,0.006059524603188
1783206916326345200,6.04034521484375,-0.0286865625138394,0.0449187536567449,0.0042284313499927,-0.0092649022117257,0.0051733674481511,0.0044059678912162
1783206916336282000,6.0502822265625,-0.0189127902626991,0.0345382294178009,-0.0263023159921169,-0.0081667695194482,0.0073823696002364,0.0042888326570391
1783206916346219000,6.060218994140625,0.0121003520351834,0.0272574247598648,-0.0182902744501829,0.000661076977849,0.009040986187756,0.0026730929967015
1783206916356156200,6.07015625,0.016348492732644,0.0055161330729722,0.0200999542206525,0.0028386926278471,0.0102201476693153,0.0033756145276129
1783206916366093000,6.080093017578125,-0.0105475513689219,0.0237871183007955,0.0504290415108203,-0.0121586322784423,0.0047963545657694,0.0005124500021338
1783206916376030200,6.0900302734375,-0.0114442079477012,0.0436123472332954,0.0683119042038917,-0.0235016271471977,-0.0014869319275021,0.003966812044382
1783206916385967000,6.099967041015625,0.025106676466763,0.0124216746777296,0.0775713154584169,-0.0310322493314743,-0.0081008924171328,0.0068310415372252
1783206916395903200,6.1099033203125,0.0497490964226424,-0.0075917703032493,0.0462964717507362,-0.0240771006792783,-0.0096950009465217,0.0127811525017023
1783206916405840100,6.119840087890625,0.0144748260815627,-0.0103816932827234,0.014763269367814,-0.0188943203538656,0.0004971837624907,0.0088367462158203
1783206916415777300,6.12977734375,-0.0267475755415856,0.0302156900435686,0.0073825114667415,-0.0131107605993747,0.0007452135905623,0.0069181937724351
1783206916425714000,6.1397138671875,-0.0314040230453014,0.0395049119144678,-0.0139876088201999,-0.0103306863456964,-0.0035794940777122,0.0055967336520552
1783206916435651000,6.149651123046875,-0.0009970482133328,0.0065267714202404,-0.0157972885906696,-0.0089903650805354,0.0098664760589599,0.002037604805082
1783206916445588200,6.159588134765625,0.0026142741516232,-0.0179214411377906,-0.0087573069512844,-0.0096385786309838,0.0100640822201967,0.0034016757272183
1783206916455525000,6.169525146484375,0.0099902097471058,-0.0207213009893894,-0.0245440741479396,-0.0087984940037131,0.018314205110073,0.0046478174626827
1783206916465461000,6.1794609375,0.0267519594557583,-0.0358726928919553,-0.0243991127192974,-0.0056849932298064,0.0026668009813874,0.0093855811282992
1783206916475398100,6.189398193359375,0.0141074358075857,-0.0019926351219415,-0.0444014517843723,0.0023014396429061,-0.001703624613583,0.005129987373948
1783206916485335000,6.1993349609375,0.0010213058717548,0.0098000940024852,-0.0381084891200065,-0.0042398171499371,-0.00635456899181,0.0042149256914854
1783206916495272200,6.209272216796875,0.0228058704447932,0.0112947164744138,-0.0480482838541269,-0.0024686958640813,-0.0108802895992994,0.0050356350839138
1783206916505209000,6.219208984375,0.0100530641165561,0.0018529343903064,-0.0639309126406908,0.0024807881563901,-0.0069614481180906,0.0034672990441322
1783206916515146000,6.22914599609375,-0.0014073825798928,-0.0022334581404924,-0.0500654688954353,0.0156355462968349,0.0053147533908486,0.0018790992908179
1783206916525083100,6.239083251953125,0.0011686053879559,-0.0053752632975578,-0.0330196415483951,0.0167010780423879,0.0064551187679171,-0.000460754148662
1783206916535020000,6.24902001953125,0.0022469021439552,0.0031242695003747,-0.0005073650002479,0.0171870552003383,0.0078399004414677,-0.0032335319556295
1783206916544956200,6.2589560546875,0.0007024491809308,-0.0029547581523656,0.0298041866332292,0.0117848338559269,0.0095861349254846,0.0041910950094461
1783206916554893000,6.26889306640625,0.0176003924898803,0.0099210900336503,0.0638496640980243,0.0044922996312379,0.008493173867464,0.0032525968272238
1783206916564830000,6.278829833984375,0.0087242997308261,0.0251455471724271,0.073777768394351,-0.0014944858849048,0.0060752900317311,0.0002586711198091
1783206916574767000,6.28876708984375,0.0054587037973105,0.0296130479753017,0.0520657028019428,-0.0046006636694073,-0.0040050814859569,0.0014908462762832
1783206916584704300,6.298704345703125,0.0180028358109295,0.0254717103868722,0.0413315428197383,-0.0047703078016638,-0.0114185214042663,0.0006484882906079
1783206916594641200,6.30864111328125,0.0198069626234471,0.0261631997823715,0.0471335070967674,-0.0092324996367096,-0.0135121047496795,0.0044523798860609
1783206916604578000,6.318578125,0.0205487209014594,0.027255086672306,0.0273977100133895,-0.0036571724340319,-0.008816685527563,0.0006608380936086
1783206916614514200,6.32851416015625,0.006616075405199,0.0319803616285324,0.0205406837254762,0.0029321480542421,-0.012969970703125,0.0004955860786139
1783206916624451000,6.338451171875,-0.0097134386323392,0.0354869084447622,0.0037304186999797,0.006232869811356,-0.0076689473353326,-9.21736937016e-05
1783206916634388200,6.34838818359375,-0.024271102425456,0.0331166721820831,0.0179687874108552,0.005450963973999,0.0008294228464365,-0.0026856251060962
1783206916644325000,6.3583251953125,-0.015972791288048,0.0188578452050685,0.052768298113346,-0.0025995057076215,0.0038955199997872,-0.0045650177635252
1783206916654262000,6.368261962890625,-0.0044907355479896,0.0045090018570423,0.067861822348833,-0.0040399618446826,0.0073355077765882,-0.0053905760869383
1783206916664199200,6.37819921875,-0.0013699731789529,0.0009410802423954,0.0589794277131557,-0.0123713947832584,0.0062191109172999,-0.0063897939398884
1783206916674136000,6.388135986328125,0.0127162919764406,0.00233107329607,0.042553778091073,-0.0143397273495793,-0.0019198725931346,-0.0035298205912113
1783206916684072000,6.398072021484375,0.0299492941923439,-0.0077758946985006,0.0387713369429111,-0.0155277634039521,-0.0006950851529836,0.0006843656301498
1783206916694009000,6.408009033203125,0.040706213995628,-0.0144669167697429,0.0154378076285123,-0.0089967912063002,0.0002003768458962,0.0039745531976222
1783206916703946200,6.4179462890625,0.0220535725064575,0.0130015203922986,-0.0364677361756563,0.0011075092479586,-0.0007397187873721,0.0009561264887452
1783206916713883100,6.427883056640625,-0.0122219143219292,0.0410357747435569,-0.0381324545174837,0.0082169966772198,-0.0011435933411121,-0.0009105913341045
1783206916723820000,6.437820068359375,-0.0030688860513269,0.0390676895409822,0.0049193362236022,0.0064933984540402,0.0015198336914181,-0.003751119133085
1783206916733757000,6.4477568359375,0.0022966047708876,0.0116050975978374,0.0224281049072742,0.0063674747943878,0.0049523208290338,-0.0034827166236937
1783206916743694000,6.457694091796875,0.0038809513528831,0.0028945523977279,0.0439092843532562,0.0022797891870141,0.0048623057082295,-0.0018938747234642
1783206916753630200,6.467630126953125,-0.0077983805249445,0.0092711016923189,0.051319268348813,0.0003231586888432,-0.0007679485715925,-0.0019703130237758
1783206916763566800,6.47756689453125,0.0141794781304895,0.0005704933643341,0.0583984129548072,-0.0016845986247062,-0.0009082970209419,-0.0036971066147089
1783206916773504000,6.48750390625,0.0178391696818172,-0.0166103585392236,0.0637035336256027,-0.0139568550512194,-0.0007540853694081,0.0001209280453622
1783206916783441200,6.497441162109375,0.0055152562901377,-0.0170388130843639,0.0535164861321449,-0.0208286121487617,0.0013767094351351,0.0001496903132647
1783206916793378000,6.5073779296875,-0.0057853054031729,0.0043693011254072,0.0437725062310695,-0.0134813357144594,-0.0061993398703634,-0.0004701474681496
1783206916803315200,6.517315185546875,0.0230100147147662,0.0214145439505577,0.0104611882597208,-0.006972836330533,-0.0100649185478687,0.0005343968514353
1783206916813252000,6.527252197265625,-0.0063444005906581,0.0183066410630941,-0.0026297639816999,-0.0012326100841164,0.0043821781873703,0.0021964281331747
1783206916823188000,6.53718798828125,-0.0214594060055911,0.0099538232594728,-0.0066956982463598,-0.0014459295198321,0.0081132669001817,-0.0017554365331307
1783206916833125000,6.547125,0.0208868850809521,0.0291688113391399,-0.0161503398120403,0.0064740451052784,-0.0022317823022603,-0.0003753865603357
1783206916843062300,6.557062255859375,0.0307554960086941,0.0253787714064121,-0.0433978276997804,0.0118672121316194,-0.0004922058433294,0.0033839314710348
1783206916852999000,6.5669990234375,0.0226892400614917,0.0139192197591066,-0.0084749828785657,0.0128018027171492,0.0009168116375803,0.0003648868296295
1783206916862936000,6.57693603515625,0.0148743285268545,0.0303325944215059,0.0428407783389091,0.0105064241215586,0.0015162890776991,0.0013308152556419
1783206916872873000,6.586873046875,0.0013258417762815,0.0238204360485076,0.078757310372591,0.0056423847563564,-0.0003303466364741,-0.0031206170096993
1783206916882809000,6.59680908203125,-0.0046406654126942,0.0269143104106187,0.0797299547970294,0.0007735937833786,-0.0068963705562055,-0.0021397746168076
1783206916892746000,6.60674609375,0.0142684715881943,0.0213315418422222,0.0522469045877456,-0.0021856222301721,-0.0069264229387044,-0.0030503957532346
1783206916902683100,6.61668310546875,0.0140283792220056,3.50713133811e-05,0.0676683456033468,-0.0064751766622066,-0.0003633284941315,-0.0032519970554858
1783206916912620000,6.6266201171875,0.0034254626703448,0.0038408933371305,0.1079465799778699,-0.0074159940704703,0.003409773344174,-0.0050760847516357
1783206916922557200,6.63655712890625,-0.0147311206638813,0.0378472078353166,0.0939361748039722,-0.0095782140269875,0.0061517641879618,-0.0033226595260202
1783206916932494000,6.646494140625,-0.0092430446416139,0.0399812972545623,0.0615250205427408,-0.0107269417494535,0.0064696562476456,-0.0062722908332943
1783206916942431000,6.656430908203125,0.0157690854094922,0.0225502699822187,0.0474514870047569,-0.0147698875516653,0.0032807872630655,-0.0065426020883023
1783206916952367000,6.6663671875,0.0167776961964555,0.0076572367548942,0.0556494065076112,-0.0194267034530639,-0.0039303051307797,-0.005863981321454
1783206916962304000,6.676303955078125,0.0075594754688441,0.0175724815696477,0.0600759907782077,-0.021772414445877,-0.0044658668339252,-0.0094193015247583
1783206916972241200,6.6862412109375,-0.0036918219889514,0.0110720136344432,0.0610235007613897,-0.0254080351442098,0.0063561326824128,-0.0076476326212286
1783206916982178000,6.696177978515625,0.0176057993173599,-0.001695113480091,-0.0077542673885822,-0.0178430620580911,0.0060195093974471,-0.003094426356256
1783206916992115000,6.706114990234375,0.0367636503823101,-0.0100566991120576,-0.0412023634821176,-0.0042255269363522,0.0038569180760532,-0.0023628561757504
1783206917002052000,6.716052001953125,0.0209945649728178,-0.0173842655211687,-0.0313356339842081,0.0008869441226124,0.0024403827264904,-0.0059282965958118
1783206917011988200,6.72598828125,-0.0026892390839755,-0.0087444474697113,-0.0439706591516733,0.0037372289225459,0.0035485418047755,-0.0053042299114167
1783206917021924900,6.7359248046875,-0.0158994337908923,-0.0164010997027158,-0.0344411987841129,0.005514889024198,0.0122576113790273,-0.0041609350591897
1783206917031862000,6.745862060546875,0.0067022741176187,-0.0171709150314331,-0.0112824415147304,0.0055254041217267,0.0043992353603243,-0.0030204369686543
1783206917041799200,6.755799072265625,0.0211534087963402,6.60509735345e-05,-0.0238379717051982,0.0031578540802001,-0.0035598878748714,-0.0035248396452516
1783206917051736000,6.765736083984375,0.0040273558199405,0.0027834932386875,0.0165735336601734,0.0010882848873734,-0.0036666742525994,-0.0040584905073046
1783206917061672000,6.775671875,0.0074542797950096,0.0068067574054002,0.0403863709241151,0.0012387540191411,-0.0005190838128328,-0.0033160012681037
1783206917071609000,6.785609130859375,0.0139009534500539,0.0021422727257013,0.0314659823656082,0.003388088196516,0.0071918917819857,-0.0052081444300711
1783206917081546000,6.7955458984375,0.0038007074572145,0.019183423897624,0.0319973127633333,0.0062142345122992,-0.0005661626346409,-0.0043530035763978
1783206917091483100,6.805483154296875,-0.0015067330348305,0.0337596462607383,0.0629366409063339,0.0018248939886689,-0.0029122671112418,-0.0025780966971069
1783206917101420300,6.815420166015625,-0.0048765017288736,0.0087193130284547,0.0752712218225002,0.0046739438548684,0.000640389509499,-0.0049419184215366
1783206917111357000,6.82535693359375,-0.009441325426381,0.0114133744180202,0.0628957243740558,0.0018172319978475,0.0034050641115754,-0.0045826989226043
1783206917121293000,6.83529296875,-0.0008281213872134,0.0267956524670124,0.053960138246417,-0.0007279515266418,0.0006385724991559,-0.003356579458341
1783206917131230200,6.845230224609375,0.0110929102919995,0.0205985513925552,0.0420177715182304,-0.0075326086953282,0.0013852803967893,-0.002189964056015
1783206917141167000,6.8551669921875,0.0036385026328265,0.0161059161484241,0.0525742368459701,-0.0085022645071148,-0.0053522512316703,-0.0020283102057874
1783206917151104000,6.86510400390625,0.0041842999473214,0.0257113643616437,0.0502466706812381,-0.0035868128761649,-0.0023221257142722,-0.0001283406745642
1783206917161041000,6.875041015625,0.004360241036117,0.0292155730903148,0.0422246922671794,-0.0056680729612708,0.0073534045368433,-0.0005997202824801
1783206917170977000,6.88497705078125,-0.0237277710626833,0.0278437002152204,0.0334083486050367,-0.004103978164494,0.0013267640024423,-0.0042720031924545
1783206917180914200,6.8949140625,-0.0122189917124807,0.0378805255830287,-0.0064116206079721,-0.0056635243818163,-0.0026602544821798,-0.0053260819986462
1783206917190851000,6.90485107421875,0.0233202314414083,0.001381809747219,0.0010451251387596,-0.0024874471127986,0.0013488461263477,-0.0007729341741651
1783206917200788000,6.9147880859375,0.0128233873464167,-0.016288871499896,0.037408231896162,-0.003497052937746,0.0033329012803733,-0.0020493871998041
1783206917210725000,6.92472509765625,-0.0179806239791214,0.0124187520682811,0.0439718281954526,-0.0102031584829092,0.0007315254770219,-0.0050478400662541
1783206917220662000,6.934662109375,-0.0052982890712097,0.0219493814796209,0.0322848975330591,-0.0087485387921333,-0.0019196514040231,-0.0037399618886411
1783206917230598000,6.944597900390625,0.0248817816697061,0.0019599018961191,0.0453337641984224,-0.0067689223214983,0.0005404725670814,0.0010531633161008
1783206917240535000,6.95453515625,0.0184400581844151,-0.0041454292416572,0.0335690921247005,-0.009831822477281,-7.33858905732e-05,-0.0012046648189425
1783206917250472200,6.96447216796875,-0.0186924072439782,0.0097439799010753,-0.0161520933777093,-0.0082953767850995,-0.0021044630557298,-0.005348427221179
1783206917260409000,6.9744091796875,-0.0054595805801451,0.0264683202087879,-0.0160234985619783,-0.0022188415750861,-0.0042381873354315,-0.0042799673974514
1783206917270346200,6.98434619140625,0.0210290517643094,0.0102045831501483,-0.0079682024002075,0.0075397924520075,-0.0057506905868649,-0.0035860573407262
1783206917280282000,6.9942822265625,0.0029816461592912,0.003052957829833,0.0010848726272583,0.0121798180043697,0.0014403769746422,-0.0066822483204305
1783206917290219000,7.004218994140625,-0.0148760820925235,0.0128583125293254,0.0143102649033069,0.0158391539007425,-0.0037061721086502,-0.006989762187004
1783206917300156200,7.01415625,-0.0023313655570149,0.0240682733297348,0.0467646737843751,0.0109874065965414,-0.0032648863270878,-0.0063135852105915
1783206917310093000,7.024093017578125,0.006015460897237,0.0100455931961536,0.0906511617839336,0.0051539316773414,0.007436451036483,-0.0058326814323663
1783206917320030000,7.034030029296875,0.0114656891271471,0.0049631753653287,0.1140209314554929,-0.0053285369649529,0.015882134437561,-0.0049762092530727
1783206917329966000,7.043966064453125,-0.0007771218523383,0.0281815538674592,0.0832850169301033,-0.0085495207458734,0.001808913424611,-0.0032268622890114
1783206917339903200,7.0539033203125,0.0188885326042771,0.0443868387371301,0.0557820929765701,-0.0102454219013452,-0.0074506313540041,-0.0026383036747574
1783206917349840100,7.063840087890625,0.0353809638522565,0.0078483754128217,0.0779927557408809,-0.0132216913625597,-0.0007494464516639,0.0006852303631603
1783206917359777000,7.073777099609375,0.0130329384438693,-0.0051911389023065,0.0557668954074382,-0.0123838605359196,0.0045925881713628,-0.0005528733599931
1783206917369714000,7.0837138671875,-0.015607172846049,0.0106961660593748,-0.0185334355562925,-0.0087381321936845,0.0072195935063064,-0.0052741644904017
1783206917379650000,7.093650146484375,-0.0043051498480141,0.0098754973262548,-0.02568096922338,-0.0061055980622768,0.0014535835944116,-0.0051300879567861
1783206917389587200,7.103587158203125,0.0230281348933465,-0.0043915129572153,0.0095364746302366,-0.0029037930071353,-0.0005230880342423,-0.0027480176649987
1783206917399524000,7.113524169921875,0.0151987381756305,-0.0032277298748493,0.0447322911739349,-0.0034239087253808,0.0020681675523519,-0.0004092294257134
1783206917409461000,7.1234609375,-0.0191257023610174,0.0189496151417493,0.0439385104477405,-0.0073154848068952,0.0106227416545152,-0.0011607648339122
1783206917419398100,7.133398193359375,-0.0048202414969913,0.0236281283468008,0.0207066879421472,0.000907558016479,0.0109098302200436,-0.0030982145108282
1783206917429334300,7.143334228515625,0.0048968321308493,0.0087590605169534,0.003278583279252,0.0027048587799072,-0.0010184189304709,0.0003933424595743
1783206917439271000,7.15327099609375,0.0155300159566104,0.0091845924526453,0.0197661922216415,-0.0011849543079733,-0.0031963516958057,0.0010918898042291
1783206917449208000,7.1632080078125,0.0114984406192786,0.0133019646435976,0.0514046085447073,-1.05798244476e-05,0.0033094272948801,0.0002666097134351
1783206917459145000,7.17314501953125,-0.0062733811810612,0.0288823956131935,0.0400111078709363,-0.0001898109912872,0.0076655596494674,-0.0001477780751883
1783206917469082000,7.18308203125,0.013350626090914,0.0254582663834095,0.0073883566856384,-0.0005367780104279,-0.0011925250291824,-0.0025230385363101
1783206917479018000,7.19301806640625,0.0163826872631907,0.0164215579688549,0.027324060255289,-0.0077968211844563,-0.0072834407910704,0.0001201487611979
1783206917488955100,7.202955078125,-0.0021896007324568,0.0275438404858112,0.0768640439718961,-0.010699963197112,-0.0065005011856555,-0.0030236283782869
1783206917498892000,7.21289208984375,-0.0070554714694619,0.0266249720752239,0.0755868636429309,-0.0116794742643833,0.0018410519696772,-0.0050753275863826
1783206917508829200,7.2228291015625,-0.0173038937613368,0.0256108265966176,0.0456955832481384,-0.0125450612977147,0.0056571476161479,-0.0050605246797204
1783206917518766000,7.23276611328125,0.0101097444735467,0.0114981300920248,0.0310363587766885,-0.0059470785781741,0.0128673892468214,-0.0020500875543802
1783206917528702000,7.242701904296875,0.015416910970956,0.0037888708889484,-0.0046750060737133,-0.0068914731964468,-4.08859923481e-05,-0.0020401871297508
1783206917538639000,7.25263916015625,0.0042946284539997,0.0173573775142431,-0.0127443307608366,-0.0047452310100197,-0.0060649565421044,-0.0056216064840555
1783206917548576000,7.262575927734375,0.0045724407483823,0.0171118783205747,0.0036357261538505,-0.0005756597965955,-0.0063119195401668,-0.0066565312445163
1783206917558513200,7.27251318359375,0.002252034976799,0.0055915363967418,0.0330856925219297,-0.0104602491483092,-0.0082206074148416,-0.017796266824007
1783206917568449000,7.282448974609375,-0.015119535459578,0.0265063141316175,0.0818108527243137,-0.0175707265734672,0.0040194652974605,-0.0058708935976028
1783206917578386200,7.29238623046875,0.0036901049559004,0.0001613280415534,0.1013321302741765,-0.0118031194433569,0.009679215028882,-0.004085776861757
1783206917588323000,7.302322998046875,0.0103713362854905,-0.0117523971140384,0.0319300927460193,-0.0088060311973094,-0.0045000058598816,-0.0030668971594423
1783206917598260200,7.31226025390625,0.0272136038844473,0.006290624576807,-0.0080465283334255,-0.0098896715790033,-0.0037910719402134,0.0018032253719866
1783206917608196900,7.32219677734375,0.0295103365194983,-0.0155266549557447,0.0101040453851223,-0.004671280272305,0.0002655847929418,0.0041234651580452
1783206917618133000,7.332133056640625,0.0001790098287165,-0.01074234328866,0.0142424603641033,-0.0061887493357062,0.0006101978942751,0.0018424678128212
1783206917628070100,7.342070068359375,-0.0136943249620497,0.0201245041400194,0.0191027598768472,-0.0025206496939063,-0.0065011596307158,0.0013143790420144
1783206917638007000,7.352007080078125,-0.016107961975038,0.0343991132080554,0.0547626868009567,-0.0055087162181735,-0.0077845370396971,0.0019756418187171
1783206917647944000,7.36194384765625,-0.0097933720007538,0.0053495443344116,0.0559282234489917,-0.005308854393661,-0.0002001258544623,-0.0029060107190161
1783206917657881000,7.371881103515625,-0.0001835398733615,0.012777063986659,0.0470125110656023,-0.0026558144018054,0.0186649076640605,-0.0021960120648145
1783206917667817200,7.381817138671875,0.0184524792745709,0.0393289708256721,0.0167874686717987,0.0058387359604239,0.0140169784426689,-0.0046925577335059
1783206917677754000,7.391754150390625,0.022803367960453,0.0270528420984745,0.0016460136413574,0.0099458629265427,0.0069670588709414,-0.0030746872071176
1783206917687691000,7.40169091796875,0.0196026722230017,0.029241292053461,0.0674655165076255,0.0045547652989625,0.0002439590170979,0.0025025093927979
1783206917697628000,7.4116279296875,0.0029780111637897,0.0204717101424932,0.0493248796612024,0.0019922712817788,0.00341791450046,9.04845073819e-05
1783206917707563500,7.4215634765625,0.0053575815103948,0.0186129305332899,0.0178244105041027,0.0012724110856652,-0.0013075177557766,-0.001251925015822
1783206917717500700,7.431500732421875,0.0020196875256486,0.0216384158343076,0.0209562787890434,0.0018524471670389,0.0020275590941309,-0.0011368764098733
1783206917727437600,7.4414375,-0.0097626663352362,0.0150882635384798,0.0659872606486082,0.0001871967688202,0.0001238593831658,-0.0028335112147033
1783206917737374500,7.45137451171875,-0.0148754975706338,0.026971593555808,0.0866951176345348,-0.0099165700376033,0.0038797154556959,-0.0067547494545578
1783206917747310600,7.461310546875,-0.0133785370111465,0.0222118318080902,0.0861415754050016,-0.0116198929026722,0.0029246397316455,-0.0057822102680802
1783206917757247700,7.471247802734375,-0.0006990881800651,0.0173439335107803,0.0704126758754253,-0.0127410842105746,-0.0053516654297709,-0.005933744367212
1783206917767184400,7.481184326171875,0.0123225982174277,0.0127180272758007,0.0381435604333877,-0.0084859710186719,-0.0064846314489841,-0.0071580838412046
1783206917777121500,7.49112158203125,0.0248289007049985,0.0180927060514688,0.0480973836928606,-0.0112900137901306,-0.0019543282687664,-0.0056097218766808
1783206917787058700,7.50105859375,0.0136554725226946,0.0147205992698669,0.0480903694301843,-0.0094516510143876,0.0018425285816192,-0.0011857186909765
1783206917796994600,7.51099462890625,0.0084145031292922,0.0089355861276388,-0.0010737667113542,-0.0015154313296079,0.000268334057182,-0.0048885778523981
1783206917806931500,7.520931396484375,-0.0041600422888994,0.0100923549473285,-0.0566951161682605,-0.0015017008408904,0.0007333317771553,-0.0013495390303432
1783206917816868600,7.53086865234375,0.0177270876094698,-0.0085866265594959,-0.0580441926896572,0.0042027905583381,-0.0004302035085856,-0.0005897390656173
1783206917826805500,7.540805419921875,0.0189756263658404,-0.0201128137022256,-0.0355447761118412,0.0077924998477101,0.0002472391352057,0.001578026684001
1783206917836741600,7.55074169921875,-0.0087782036088407,-0.0172515790522098,-0.0188590142488479,0.0118215959519147,0.0030291771981865,-0.0022390822414308
1783206917846678500,7.560678466796875,-0.0212185829870402,0.003619944062829,-0.0222527483403682,0.0140240658074617,-0.0013826773501932,-0.0086887385696172
1783206917856615400,7.570615478515625,-0.0105324999302625,0.0078302552342414,-0.0049228433549404,0.0172954928129911,-0.0056008575484156,-0.0052162427455186
1783206917866552600,7.580552490234375,0.0084366966947913,0.004052490261197,0.0569184035301208,0.0152509044855833,0.0037621383089572,-0.0047279121354222
1783206917876488700,7.59048876953125,0.0123090263498015,0.0117418757200241,0.0782277335405349,0.0063570123165845,0.0116283167153596,-0.002140651224181
1783206917886425600,7.600425537109375,0.0025073066458106,0.0082657240420579,0.0426771122097969,-0.0025785798206925,0.0105476854369044,-0.0037872386164963
1783206917896362500,7.610362548828125,0.0149028239689767,0.0247194307148456,0.0283142403364181,0.0009394558146595,-0.0048784087412059,0.0002623640466481
1783206917906299600,7.620299560546875,0.0154494980663061,0.0175993695765733,0.0424585010230541,0.0024415105581283,-0.0117009617388248,-0.0021648886613547
1783206917916235800,7.63023583984375,0.0054291854418814,0.0187315884768962,0.0259177005887031,0.0052604665979743,-0.0102412831038236,-0.0033089828211814
1783206917926172400,7.64017236328125,-0.0063208735845983,0.0181225166678428,0.0111491705238819,0.0075543778948485,-0.0087496470659971,-0.0028138270135968
1783206917936109600,7.650109619140625,-0.0080371759831905,0.0259890122592449,0.0171533793747425,0.0188288707286119,-0.005218029487878,-0.0033568455837666
1783206917946046500,7.66004638671875,-0.0155306004785001,0.0298614697784185,0.0113315413534641,0.0162565223872661,-0.0044065634720027,-0.0046444837935268
1783206917955982600,7.669982666015625,-0.0024643442869186,0.0282896904170513,0.0831786339461803,0.0030408520251512,0.0009770160540938,-0.0044026691466569
1783206917965919500,7.67991943359375,0.0003118424281477,0.0248965408474206,0.1036006597280502,-0.0098484456539154,0.0056340862065553,-0.0025491828564554
1783206917975856600,7.689856689453125,-0.0035614918738603,0.0326473011046648,0.0745394004166126,-0.0103227533400058,0.0074213333427906,-0.0066240858286619
1783206917985793500,7.69979345703125,0.0090234105415642,0.0466787490665912,0.07018003616333,-0.0057622911408543,0.0002354593016207,-0.0057959388941526
1783206917995729700,7.709729736328125,0.0151508073806762,0.0413981783151626,0.082895725351572,-0.0079061361029744,0.001722302287817,-0.0004629585891962
1783206918005666600,7.71966650390625,0.0028238435153849,0.0226087221711874,0.0730389327257871,-0.0075167175382375,0.0049611050635576,-0.0039840200915932
1783206918015603500,7.729603515625,-0.0023089893284253,0.0123187988251447,-0.0038186815053224,-0.0032695084810256,-0.0003489716909825,-0.0030875999946147
1783206918025540600,7.73954052734375,0.0222441449088044,0.0117190793663263,-0.0316547829359769,0.0036229332908988,-0.002740363124758,-0.0021148899104446
1783206918035476700,7.749476806640625,0.0127935767300426,0.0196978031605482,-0.0196966341167688,0.0051193628460168,-0.004262092988938,-0.0034930757246911
1783206918045413400,7.759413330078125,0.0016349077254533,0.0186065007925033,0.0085059625387191,0.0007120026275515,-0.0012988587841391,-0.0037667038850486
1783206918055350500,7.7693505859375,-0.0069183828200213,0.0088654435008764,0.0160363580435514,0.0038220426067709,-0.0041055646724998,-0.0041677756235003
1783206918065287700,7.77928759765625,-0.011000555833429,0.0149140760153532,0.0371089566886425,0.0064290650188922,-0.0067082215100526,-0.0036320716608315
1783206918075224600,7.789224609375,-0.0042728550136089,0.0115641810655593,0.0663695379644632,-0.0019263364374637,-0.0039044450968503,-0.0030072941444814
1783206918085160400,7.799160400390625,-0.011703735666722,-0.0200695590823888,0.0485936427772045,-0.0103128431364893,0.0100284330546855,-0.0020830784924328
1783206918095097600,7.80909765625,0.0147684022006578,-0.0237239899367094,-0.0333884748607873,-0.0031870240345597,0.0044049019925296,0.0033180783502757
1783206918105034500,7.819034423828125,0.0468060287080705,0.0076005381315946,-0.0619856237918138,0.0126786837354302,-0.0071283187717199,0.0035500167869031
1783206918114970600,7.828970703125,0.0130753162808716,0.0120475806683301,-0.0290881473183631,0.0156015027314424,-0.0144679900258779,0.0018256199546158
1783206918124907500,7.838907470703125,-0.0034403497122228,0.0277028304398059,0.0214665663987398,0.0063427709974348,-0.0101393610239028,-0.002434009918943
