time,seconds_elapsed,ax,ay,az,gx,gy,gz
1783206021830758400,0.06075830078125,0.0399221600790042,-0.0131418604447506,-0.0196054487019777,-0.001454004086554,6.94375485181e-05,-0.027933120727539
1783206021840696300,0.0706962890625,0.0376809638733393,-0.0173535370227647,-0.0228974759846925,0.0024089757353067,-0.0046039316803216,-0.031483095139265
1783206021850635300,0.08063525390625,0.0490366099048871,-0.018459785798192,-0.0185579854756593,-0.0029999036341905,-0.0101939076557755,-0.0280116647481918
1783206021860573200,0.0905732421875,0.0466829183516325,-0.0166281636239727,-0.0196060332238674,0.0028671883046627,-0.0034430865198373,-0.0259152483195066
1783206021870512400,0.100512451171875,0.0468839162498712,-0.0124532023271545,-0.012874094620347,0.0011358680203557,-0.0073206489905714,-0.0261962115764617
1783206021880450600,0.110450439453125,0.0444748092815279,-0.0057452610871521,-0.013774842852354,0.001651506870985,-0.0112305972725152,-0.0272470340132713
1783206021890389500,0.120389404296875,0.0401238977627595,0.0014615878520067,-0.0321837752461433,0.0016139559447765,-0.013701744377613,-0.025401996448636
1783206021900327400,0.130327392578125,0.0299224975169636,-0.0066088784794323,-0.0300958630561828,0.0062842587940394,-0.0167423263192176,-0.0253040045499801
1783206021910266400,0.140266357421875,0.0442429184881039,-0.021552582448069,-0.0130471130996942,0.0101144174113869,-0.0150088761001825,-0.0264044255018234
1783206021920204300,0.150204345703125,0.0419562460227636,-0.0298016110836528,-0.0169464586257934,0.0087150875478982,-0.0162437800318002,-0.0250792000442743
1783206021930143200,0.160143310546875,0.0405323643992189,-0.0118869741459842,0.0107271457195281,0.0076447632163763,-0.0098247621208429,-0.026252057403326
1783206021940081400,0.170081298828125,0.0428804618953261,-0.0201555111996363,0.0238894096314907,0.0012306561693549,-0.0052885739132761,-0.0213619377464056
1783206021950019300,0.180019287109375,0.0494891531450906,-0.0113101515055634,0.0069797758847475,-8.7795779109e-06,-0.002702378667891,-0.0248677227646112
1783206021959958300,0.189958251953125,0.0432345177636947,-0.010835035673948,0.0078764324635267,0.0028380434960126,0.0008208742365241,-0.0207245033234357
1783206021969896200,0.199896240234375,0.02048996960168,-0.0208897346251644,0.0246340905189514,0.0021288441494107,-0.0016963453963398,-0.0241045877337455
1783206021979835400,0.20983544921875,0.0206557637557969,-0.0030530126287601,0.0002419920623302,0.0006330860778689,-0.0006319349631667,-0.0186521112918853
1783206021989773300,0.219773193359375,0.0322170130787533,-0.0122329289062879,-0.014722352835536,0.0016040746122598,0.0001198756508529,-0.0190750211477279
1783206021999712500,0.22971240234375,0.0323299787838011,-0.0133605720961932,-0.021160276928544,0.0048849629238247,-0.0060668285004794,-0.0202461425215005
1783206022009650400,0.239650390625,0.0375766700985142,-0.0077648709809873,-0.0391278952956199,0.0137551529332995,-0.0265249665826559,-0.0180010981857776
1783206022019589400,0.24958935546875,0.0404035412546247,-0.0054846054235473,-0.070267714446783,0.0107376286759972,-0.011804879643023,-0.021347926929593
1783206022029527600,0.259527587890625,0.0494472821981646,-0.018250453896448,0.0967260977834463,-0.0075393803417682,0.0006368765607476,-0.0182573292404413
1783206022039466500,0.269466552734375,0.0494865456294734,-0.0217109513475559,0.073093293261528,-0.0088591398671269,0.0104170301929116,-0.0181316025555133
1783206022049404400,0.279404296875,0.0376865556471981,-0.0266629659980535,-0.0099473935186862,-0.0061477748677134,0.0034952082205563,-0.0183427929878234
1783206022059343400,0.28934326171875,0.0265904350513825,-0.0110617936345282,-0.0365823024660348,0.0068530128337442,-0.0071716019883751,-0.022029984742403
1783206022069281300,0.29928125,0.0251446795227471,-0.0084711652199737,-0.0237181447178125,0.0010617030784487,-0.0027805818244814,-0.018819810822606
1783206022079219500,0.309219482421875,0.0341263835141668,-0.0110192970665171,0.0054617725372314,-0.0043084463104605,0.0017100656405091,-0.0171539802104234
1783206022089158400,0.319158447265625,0.026028905878216,-0.0014305625260807,0.0359931044012308,-0.0051492052152752,0.0068987025879323,-0.0180647801607847
1783206022099096300,0.329096435546875,0.0369131761049269,-0.0037091658493969,-0.0130804308474063,-0.0072957491502165,0.0073333815671503,-0.0179528817534446
1783206022109035500,0.339035400390625,0.0416024047835264,-0.0115268538630101,-0.0473451040208339,0.0001573739573359,0.0006949198432266,-0.0204037874937057
1783206022118973400,0.348973388671875,0.0497391778168268,-0.0119612266922835,-0.033428222349286,0.0003074072301387,-0.000875876750797,-0.0183915365487337
1783206022128912400,0.358912353515625,0.0513646875262726,-0.0194276079170405,-0.0320832374811172,0.0006067464128136,-0.0013001183979213,-0.0178205538541078
1783206022138850600,0.3688505859375,0.0467136833826545,0.0028624310932587,-0.0087391867727041,-0.0009466772899031,0.0014709904789924,-0.0168356113135814
1783206022148789500,0.37878955078125,0.0392640980290714,0.0008128690191544,-0.0150239661306142,0.0028286194428801,-0.005424465984106,-0.0159144252538681
1783206022158727400,0.3887275390625,0.0551816839645849,0.0046220337774604,-0.0976391209751367,0.0244879554957151,-0.0275000911206007,-0.0145779196172952
1783206022168666400,0.398666259765625,0.0403242654733359,-0.0076108403299003,-0.1186193651616573,0.0296504944562912,-0.0262358877807855,-0.0080100316554307
1783206022178604300,0.408604248046875,0.0484084315365646,0.0029561829244717,0.015134440767765,-0.0077225491404533,-0.0367484800517559,0.0028755632229149
1783206022188542500,0.41854248046875,0.056963781608385,-0.0464172394530381,0.1980108817845582,-0.0354263484477996,0.0289493072777986,0.0031717070378363
1783206022198481400,0.4284814453125,-0.0243576892969431,-0.0647115050917491,0.1021317562192678,-0.0310807637870311,0.0266760606318712,0.0012614973820745
1783206022208419300,0.43841943359375,0.0325904974500881,0.0054736547712702,-0.2185293536782264,-0.0033250330016016,-0.0230153277516365,0.0008385870605707
1783206022218358300,0.448358154296875,0.0358740856980206,-0.0110101456456817,-0.0784726482123136,0.0015220362693071,-0.0020665191113948,-0.0037621597293764
1783206022228296200,0.458296142578125,0.0288835806399933,0.0067252622675616,0.0402016620069742,-0.027747169137001,0.0099832192063331,-0.0093169808387756
1783206022238235400,0.4682353515625,-0.0110032135813962,0.0198421800673007,0.0312473711788654,-0.0164517164230346,0.030983317643404,-0.0294419731944799
1783206022248173600,0.478173583984375,-0.041408197385678,0.0479276166165247,-0.1201852993041276,0.0195717997848987,-0.0076197343878448,-0.0518809705972671
1783206022258112500,0.488112548828125,-0.0320025688937632,0.0255624482770916,-0.2101414645612239,0.0292384326457977,-0.0186365395784378,-0.0665502622723579
1783206022268050400,0.498050537109375,-0.003134580831835,-0.0082292370897252,0.009058335724473,0.0093195848166942,0.005074915010482,-0.0664988681674003
1783206022277988400,0.50798828125,0.0426954744169721,-0.0345243287566117,0.100641225400567,-0.0162783432751894,0.0195197407156229,-0.0562400333583354
1783206022287927300,0.51792724609375,0.0599542001625988,-0.0391221779408864,0.0485877975583076,-0.0171428062021732,0.0210167039185762,-0.0462172254920005
1783206022297865500,0.527865478515625,0.0628821525064297,-0.0380975110682658,-0.0779950938284397,-0.0026330277323722,0.0062020635232329,-0.0351517722010612
1783206022307804400,0.537804443359375,0.0624670323668979,-0.0282157118653878,-0.1236369010627269,0.0059700482524931,-0.0015533277764916,-0.0253340303897857
1783206022317742300,0.547742431640625,0.0597488229167647,-0.0204901773809455,-0.0411906730443239,0.0038906512781977,-0.0027892179787158,-0.0120333526283502
1783206022327681300,0.557681396484375,0.0392332553662359,-0.0167318386275786,-0.0253296715676784,-0.0001983670517802,0.0035232726950198,-0.0108082983642816
1783206022337619200,0.567619140625,0.0318522714195889,-0.0202909467481076,-0.0144037884056568,-0.0012193080037832,0.0003276877105236,-0.0106794312596321
1783206022347558400,0.577558349609375,0.0412408962610643,-0.0149335753002669,-0.0383440514415502,-0.0014299638569355,0.0012685824185609,-0.0100538544356822
1783206022357496600,0.58749658203125,0.0380570055279415,-0.0066647733851335,-0.060191141590476,0.0028474535793066,-0.0007124347612261,-0.01221280451864
1783206022367434500,0.5974345703125,0.0296512656604172,-0.0037552334808278,-0.0434334835350513,0.0001840256154537,-0.0021468130871653,-0.0084771886467933
1783206022377373400,0.60737353515625,0.0386255991961341,-0.0092832305215299,-0.0410398663967847,-0.000983765348792,0.0006154277361929,-0.0079293213784694
1783206022387311400,0.617311279296875,0.0383531845960766,-0.0046510954751633,-0.0456786321133375,-0.0012966860085725,-0.0007198811508715,-0.0111293755471706
1783206022397250300,0.627250244140625,0.0341129006947972,-0.0134334090035408,-0.0334083486050367,5.17787411808e-05,0.0006011519581079,-0.0069310944527387
1783206022407188500,0.6371884765625,0.0298374084828188,-0.0029517350782174,-0.0542073910057544,-0.0007144128903746,0.0020469818264245,-0.0093220807611942
1783206022417127400,0.64712744140625,0.0266445718248374,-0.0040948498318903,-0.0437333432644605,-0.000838435254991,7.33062624931e-05,-0.009119663387537
1783206022427065300,0.6570654296875,0.0383052081353496,-0.0036323377535212,-0.0507657261192798,-0.0007348386570811,0.0010717255063354,-0.008800083771348
1783206022437004300,0.66700439453125,0.0296980548110557,-0.011600439689029,-0.0492687655597925,-0.0003030681982636,-0.0022820108570158,-0.0091545898467302
1783206022446942200,0.676942138671875,0.0177497321244736,-0.0111364206401631,-0.0513636920124292,0.0025427863001823,-0.0029560574330389,-0.0092019941657781
1783206022456880400,0.68688037109375,0.0207304478436475,-0.0015904018634464,-0.0413391416043043,0.0028729420155286,7.80071131885e-05,-0.0084047121927142
1783206022466819300,0.6968193359375,0.0271322982595651,-0.0039676158561836,-0.0444827003270387,0.0001149717718362,-0.0017209583893418,-0.0078571662306785
1783206022476757200,0.70675732421875,0.0416430153551278,-0.0060449609863571,-0.0504676199555397,-0.00149701628834,-0.0017719147726893,-0.0112326145172119
1783206022486696400,0.716696533203125,0.0331473093489417,-0.0130099046281538,-0.0405921226292848,0.0010614823549985,-0.0019317050464451,-0.009994245134294
1783206022496634400,0.72663427734375,0.0343046170247485,-0.0242966478586662,-0.0398445191323757,-0.0005077375099062,0.000505291391164,-0.0066162524744868
1783206022506573300,0.7365732421875,0.0310373086247593,-0.0122260333746206,-0.0386456647366285,-0.0044284434989094,0.0004147440195083,-0.0079390443861484
1783206022516511500,0.746511474609375,0.0278569021900882,-0.0110266857885289,-0.0361000719070434,-0.0011055907234549,0.0040025832131505,-0.0065792286768555
1783206022526450400,0.756450439453125,0.0191796108056092,-0.009463829519134,-0.0519610733836889,-0.0022155959159135,0.0040233563631772,-0.0103175081312656
1783206022536388400,0.766388427734375,0.020420345281437,-0.0096788148435298,-0.061835986188054,0.0007778834551572,0.0008382112719118,-0.0114101860672235
1783206022546326300,0.776326171875,0.0301928388909436,-0.0068045745814684,-0.0673725775271654,-0.0007342593744397,-0.0007106829434633,-0.0036790296435356
1783206022556265500,0.786265380859375,0.025817596648517,-0.0076018898384645,-0.0530079520881175,0.0014247531071305,0.0021969436202198,-0.0101423114538192
1783206022566203400,0.796203369140625,0.0314038312490563,-0.0117537488209083,-0.0582464372634887,-0.0002098958939313,-0.0004081605002284,-0.0111947925761342
1783206022576142300,0.806142333984375,0.0347873932897229,-0.0143506882452405,-0.0513636920124292,0.0001492500305175,-0.0002965996973216,-0.0075366972014307
1783206022586080300,0.816080322265625,0.0338622458353987,-0.0163621467986609,-0.0489689058303833,-0.0026638461276888,-0.0016367025673389,-0.0085694715380668
1783206022596019500,0.82601953125,0.0227838138766121,-0.001884854765376,-0.0543558595657348,0.0006737411022186,-0.000661427155137,-0.0093385688960552
1783206022605957600,0.83595751953125,0.0262102697775117,-0.0071193396190647,-0.0597428133010864,-0.0018711751326918,0.0019127842970192,-0.0062628844752907
1783206022615896600,0.845896484375,0.0185985857724619,-0.010054224027181,-0.0598912818610668,0.0002959156408905,-0.0011925618164241,-0.0060480581596493
1783206022625834500,0.85583447265625,0.0203718779136543,-0.0115832876248285,-0.0574982492446899,0.0004772767424583,-0.0002063931897282,-0.0078552793711423
1783206022635772400,0.8657724609375,0.026611838599015,-0.0091019922031089,-0.0549549945026636,-0.0007133809849619,0.0003148303367197,-0.0067601250484585
1783206022645711400,0.87571142578125,0.0245110600776155,0.0005843757592141,-0.0495674562454223,-0.0031480425968766,0.0008157710544764,-0.00822832621634
1783206022655649500,0.8856494140625,0.021136019270122,-0.0113356238735374,-0.0564507860183715,-0.0019827615469694,0.0044949855655431,-0.0071212211623787
1783206022665588500,0.89558837890625,0.0253311762548866,-0.0133659971899818,-0.0606412234455347,4.6300701797e-05,0.0003535035066306,-0.0072035128250718
1783206022675526400,0.9055263671875,0.032742080415762,-0.0098777714817319,-0.0604921703636646,-0.0009411554783582,-0.0019535571336746,-0.0056506162509322
1783206022685465300,0.91546533203125,0.0324785386753268,-0.0007188340601511,-0.0589957943260669,0.0003571361303329,-0.0004845573566854,-0.0066447742283344
1783206022695403300,0.9254033203125,0.0250636821418302,-0.0127195525126066,-0.0546563038170337,0.0002285754308104,-0.0002203830517828,-0.0064737843349576
1783206022705342200,0.93534228515625,0.0240659398087533,-0.0105363815209362,-0.0539087003201246,-0.0008374880999326,0.0009159878827631,-0.0059502068907022
1783206022715280400,0.9452802734375,0.0244687256230972,-0.003572990515409,-0.0495668717235326,0.0002742325887084,0.0004986054264008,-0.0071652242913842
1783206022725218300,0.95521826171875,0.0261763241254258,-0.0042314270246773,-0.0542050529181957,-0.000179836526513,0.001874394249171,-0.0077953278087079
1783206022735157500,0.965157470703125,0.0345151225368492,-0.0072811973835807,-0.0545037436038255,-0.0018078265711665,0.0020850505679845,-0.0065963729284703
1783206022745095400,0.975095458984375,0.0324102272460469,-0.0061843877233564,-0.0610866291254758,-0.0010640062391757,0.000428298022598,-0.0077684298157691
1783206022755034400,0.985034423828125,0.0327962902544531,-0.0088797734203282,-0.0770978527277708,-0.0006295656785368,-0.0007223775610327,-0.0033147574868053
1783206022764972500,0.99497265625,0.0222938566688913,-0.0116077096800319,-0.0639303281188011,0.0018410496413707,0.0011029527522623,-0.0064551569521427
1783206022774911500,1.004911376953125,0.023386994800996,-0.0144815206838306,-0.0586941810309886,0.0021725688129663,0.0019623190164566,-0.0063704764470458
1783206022784849400,1.014849365234375,0.0201162888675229,-0.010488816052163,-0.0542073910057544,0.0017675012350082,-0.0024481420405209,-0.0032990525942295
1783206022794788400,1.024788330078125,0.0224546549874823,-0.0006589388327673,-0.0519622424274682,0.0011539096012711,0.0002331286668777,-0.0082804951816797
1783206022804725800,1.034725830078125,0.0262218118015443,-0.0110362847339361,-0.0518114357799291,4.8697926104e-05,0.0019577918574213,-0.0074445288628339
1783206022814664000,1.044663818359375,0.0297212119243573,-0.0032764278547838,-0.0651285979926586,-0.0043723965063691,0.0015250272117555,-0.0054496070370078
1783206022824603000,1.054602783203125,0.0305646085125161,-0.0087091112948488,-0.0726093091368675,-0.0006186719983816,-0.0001205401495099,-0.0048709018155932
1783206022834540800,1.064540771484375,0.0271478771378984,-0.0029693072675261,-0.0642296033263206,0.0002974914386868,-0.0003253882750868,-0.0081141460686922
1783206022844479700,1.074479736328125,0.0304471424455754,-0.0136855571337044,-0.0676706836909055,-0.0022980254143476,-0.0016276738606393,-0.0020456002093851
1783206022854418000,1.08441796875,0.0224606372036971,-0.0029588132729753,-0.0606388853579759,-0.0003680055961012,0.0004182616248726,-0.0061835637316107
1783206022864357000,1.094357177734375,0.0218247002206044,0.0036882326592225,-0.0585439589053392,-0.0020769564434885,-0.0003380761481821,-0.0051830140873789
1783206022874295000,1.104294921875,0.0215142460319446,-0.0038658725147601,-0.056298810327053,-0.0007068095728754,0.0013142856769263,-0.0065687717869877
1783206022884234000,1.11423388671875,0.0251031145364977,-0.0084750285443384,-0.0565969164907932,8.17524269223e-05,3.27723100781e-05,-0.0062438659369945
1783206022894172000,1.124171875,0.0323843256198102,-0.0116232451758813,-0.0637795214712619,-0.0014575207605957,0.0026103942655026,-0.0047165895812213
1783206022904110000,1.134110107421875,0.0241147839191602,-0.0028097601911053,-0.0565963319689035,0.0011316044256091,0.001402917318046,-0.007112103048712
1783206022914049000,1.144049072265625,0.0281836522097117,-0.0138853996878955,-0.056895607176423,-4.42480668425e-05,-0.000280363485217,-0.0066779158078134
1783206022923987000,1.153987060546875,0.0247300913894665,-0.0102505959826521,-0.0679687898546457,-0.0018203109502792,-0.0001852889545261,-0.0057037314400076
1783206022933926000,1.16392578125,0.025626058415079,-0.0048399508444592,-0.0715600923448801,-0.0009399419650435,0.0027889809571206,-0.0077832438983023
1783206022943863800,1.17386376953125,0.0261929122173343,-0.0010324026545044,-0.0658732788801193,0.000390307046473,0.0018592714332044,-0.0049501731991767
1783206022953802800,1.183802734375,0.0263262768230168,-0.0069280548306647,-0.069016253080964,0.0025299740955233,-0.001222260762006,-0.0048827808350324
1783206022963741000,1.193740966796875,0.0196652343315072,-0.0121906332676764,-0.0667728580683469,0.0006990507245063,-0.001408948097378,-0.0060907904990017
1783206022973679900,1.203679931640625,0.0206729021202656,-0.0090656787807121,-0.0483686018496751,0.000550989061594,-3.78875993192e-05,-0.0035768719390034
1783206022983617800,1.21361767578125,0.0139227405901765,-0.012547118555149,-0.055700259912014,0.0004002535715699,0.0009496128186583,-0.0054163173772394
1783206022993557000,1.223556884765625,0.0165672249336843,-0.0188828335158526,-0.0625830051630735,1.471489667892456e-07,-0.0003062379546463,-0.0042607956565916
1783206023003495000,1.233494873046875,0.0298957191078923,-0.0108871311873663,-0.0642296033263206,0.0009812554344534,-0.000356838107109,-0.0026168264448642
1783206023013433000,1.24343310546875,0.0309714768469333,-0.0140161773275583,-0.0604898322761058,0.0007719863206148,0.0026985243894159,-0.0032677936833351
1783206023023372000,1.2533720703125,0.0275280698112328,-0.0138611694289371,-0.0582452682197093,-0.0021385820582509,0.0029030551668256,-0.0057530556805431
1783206023033310000,1.26331005859375,0.022519112225552,-0.0056908685853704,-0.0600397504210472,-0.0024168128147721,-0.0006411392241716,-0.0044500632211565
1783206023043249000,1.273248779296875,0.0224937129228143,-0.0050191524694208,-0.0753033705264329,0.0005867006257176,5.79403713345e-05,-0.0034532418940216
1783206023053186800,1.283186767578125,0.0301664029751671,-0.0081107344097457,-0.0643804099738597,-0.0004528015851974,0.0006565921939909,-0.0068342993035912
1783206023063125800,1.293125732421875,0.0234123438713839,-0.0075294913225341,-0.0540565843582153,0.000698217190802,-0.0004291785880923,-0.0060465359129011
1783206023073064000,1.30306396484375,0.0241558214657357,0.0039541170537937,-0.0681236881554126,-0.0002498608082532,-0.0013266610912978,-0.0039474349468946
1783206023083003000,1.3130029296875,0.0250037754980032,-0.0077931015616282,-0.0699181703567504,0.0004771826788783,0.0018821819685399,-0.0071552125737071
1783206023092940800,1.32294091796875,0.0209499632126884,-0.0114561632469762,-0.052111880031228,8.082948625e-06,0.0016053635627031,-0.0036097690463066
1783206023102880000,1.3328798828125,0.0216216473625972,-0.0111447226776275,-0.0577981089740991,-0.0017243027687072,-0.0006194412708282,-0.0051844962872564
1783206023112818000,1.34281787109375,0.0280711203295039,-0.0110328872004523,-0.0586971036404371,0.0013864068314433,0.0013322136364877,-0.0041644573211669
1783206023122756900,1.3527568359375,0.0219570076636504,-0.010616543218214,-0.072613985311985,-0.0010660989210009,-0.0019663777202367,-0.0059168171137571
1783206023132695000,1.362695068359375,0.0257527192853391,-0.0063439713323954,-0.0748579648464918,-0.0003654463216662,-0.0006802366115152,0.0021220329217612
1783206023142633000,1.372633056640625,0.0263943964560516,-0.0063984505991451,-0.0600450111180543,0.0030974615365266,0.0027299409266561,-0.0002489794860593
1783206023152572000,1.382572021484375,0.0227502678000368,-0.0065945850925985,-0.059447045224905,0.00103310495615,-0.0004575932398438,0.0002246352960355
1783206023162509800,1.392509765625,0.0203803694640751,-0.0049492929704487,-0.0732148738145828,0.0017779907211661,-0.0011755814775824,0.0001109183067455
1783206023172448800,1.40244873046875,0.0142917074749537,-0.0044501843418925,-0.0646861149221658,0.0002805050462484,0.0004868856631219,0.0024135424755513
1783206023182387000,1.412386962890625,0.0244135385368717,-0.0092420947935432,-0.0613952566832304,-0.0016873041167855,-0.0027935961261391,-0.0016307337209582
1783206023192326000,1.422325927734375,0.0315980980124091,-0.0087446301328018,-0.0682803400218486,0.0024906378239393,-0.0027258866466581,-0.0034103184007108
1783206023202263800,1.432263916015625,0.0321757243704283,-0.0076193432967644,-0.0772591807693243,-0.0020804116502404,-0.0010563507676124,-0.0010174682829529
1783206023212202800,1.44220263671875,0.0224074959440855,-0.0088679368520621,-0.0681307024180889,0.0030219769105315,-0.0005258759483695,-0.0015507363714277
1783206023222140700,1.452140625,0.0271870355379302,-0.0011274057278875,-0.0667863020718097,0.0008256677538156,-0.0008451887406408,-0.0013512654695659
1783206023232080000,1.462079833984375,0.0214010200319928,-0.0048059755096212,-0.0657405924111604,0.001399272121489,0.0020553446374833,0.0002526650205254
1783206023242018000,1.47201806640625,0.0282896082186605,0.0023309180324431,-0.0557154574811458,0.0020581381395459,0.0017181886360049,0.0006726454594172
1783206023251957000,1.48195703125,0.0249900438001728,-0.0111387221951037,-0.071129299712181,0.0022651841863989,-0.0016728523187339,-0.0009159808978438
1783206023261895000,1.49189501953125,0.0180401390389481,-0.0101338468683417,-0.0615536621153354,0.0014127064496278,-0.0005953372456133,0.0009825865272432
1783206023271833900,1.501833740234375,0.0186858633387601,-0.0057622898537665,-0.0678384414732456,0.0016327407211065,-0.0006478470750153,-0.0009168847464025
1783206023281771800,1.511771728515625,0.0241275931683834,-0.0004882127752061,-0.069933952447772,0.0005853194743394,-0.001075817272067,0.0015262992819771
1783206023291711000,1.5217109375,0.0170328000437526,-0.0015738891200628,-0.066940615850687,-0.0011505251750349,-0.0005970476195216,0.0011891963658854
1783206023301649000,1.53164892578125,0.0250619194430066,-0.0020922687046695,-0.0714291594415903,0.0017635058611631,-0.0016021248884499,-0.0011961970012634
1783206023311586800,1.5415869140625,0.0207187368562561,-0.0078591525351628,-0.0602069236814975,0.0008305879309773,0.0003775795921683,0.0007746371557004
1783206023321525800,1.55152587890625,0.0214542046740883,-0.0049996988502796,-0.0723275695860385,0.0012689447030425,0.00281463842839,0.0036234206054359
1783206023331464000,1.5614638671875,0.0270519881485262,-0.0009208320388104,-0.0681377166807651,-0.0009182160720229,-0.0002558878622949,0.001223073573783
1783206023341403000,1.57140283203125,0.0187789826990221,-0.00436664337744,-0.0637982261717319,0.0004045767709612,0.0005518486723303,0.0009088205406442
1783206023351341000,1.581341064453125,0.0161792462461162,-0.0026158267878927,-0.0579617751032114,0.0011966405436396,0.0010330006480216,0.0003069159574806
1783206023361280000,1.591280029296875,0.0066238305950362,0.0003133676649536,-0.0759182875543832,-0.0004180334508419,-0.0032403073273599,0.0018739199731498
1783206023371218000,1.601218017578125,0.016168302443705,-0.0087534344937652,-0.0631985067129135,0.0004033092409372,-0.0038415011949837,-0.0011606919579207
1783206023381156900,1.611156982421875,0.0260773184470715,-0.0083572108509484,-0.064993573436141,0.0008171638473868,0.0016488712280988,-0.0011830625589936
1783206023391095000,1.621094970703125,0.0245413661676226,0.0030645204034633,-0.0609551117002964,0.0017063887789845,-0.0006682048551738,0.0026453388854861
1783206023401034000,1.631033935546875,0.0270733505969634,-0.0013012187916785,-0.0643973611086606,0.0002025021240115,-0.0004841801710426,0.0014522426063194
1783206023410972000,1.640971923828125,0.0214137447995366,-0.0132402975842356,-0.0742740274786949,-0.0001080092042684,0.0010346854105591,0.0014093654463067
1783206023420910800,1.650910888671875,0.0251493648310191,-0.0052915670694783,-0.063350482404232,-0.0006180051714181,0.0009364145807921,0.000827731040772
1783206023430848800,1.660848876953125,0.0230082383162109,-0.0072375135054811,-0.0687374361395835,0.001503737643361,0.0016896468587219,6.94133341312e-05
1783206023440787700,1.67078759765625,0.0263314370553242,-0.0098699443683028,-0.0603577303290367,0.0017748475074768,0.0020305316429585,0.000644123472739
1783206023450726000,1.680725830078125,0.0270989599622553,0.0003573712034616,-0.0723281541079282,-0.0012392047792673,-0.0009088469669222,0.0020124942529946
1783206023460665000,1.6906650390625,0.0283798026861855,-0.0028946985282003,-0.0676893883913755,0.000438586808741,0.0029215773101896,0.0001104646362364
1783206023470603000,1.70060302734375,0.0222736632642336,-0.0031626196162309,-0.0696352617621421,0.0016789678484201,-0.0005578664131462,0.0012015217216685
1783206023480542000,1.7105419921875,0.0237946257538162,-0.0015112904789391,-0.0687374361395835,0.0030947048217058,0.0026091649197041,0.0037744017317891
1783206023490479900,1.72047998046875,0.0200007087969919,-0.0053974842625204,-0.0643991146743297,-0.0006641745567321,0.000888442620635,-0.0003233307506889
1783206023500418800,1.730418701171875,0.0157467993708036,-0.0003911364757455,-0.0645493367999792,0.001719887368381,-0.0011033355258405,-0.0004775277338922
1783206023510357000,1.74035693359375,0.0252566245977766,0.0019031850065104,-0.0700865126609802,0.0004965420812368,-0.0006224331445991,0.001261692144908
1783206023520296000,1.7502958984375,0.0267867544912151,-0.0080852437754627,-0.061257894039154,0.0001122476533055,-0.0009598555043339,0.0035972844343632
1783206023530233900,1.76023388671875,0.0220232298838323,-0.0092628179211635,-0.0721814391136169,0.0010844990611076,0.0001219771802425,-0.0016120222862809
1783206023540171800,1.770171875,0.0197590797775541,-0.0053067189728375,-0.0682914459377527,0.000857064500451,0.00014115171507,0.0036479870323091
1783206023550110700,1.78011083984375,0.0261488036475493,0.0041408078654669,-0.062156888705492,0.0016327854245901,0.001414518803358,0.0010203783167526
1783206023560049000,1.790048828125,0.0186144980109354,-0.0010151592587586,-0.0666466013401746,0.0002154512330889,-0.002355451695621,0.0046300268732011
1783206023569987800,1.79998779296875,0.0212187154177809,-0.0013968429195694,-0.0670960986733436,0.0003160675987601,0.0018396978266537,0.0005999034037813
1783206023579925800,1.80992578125,0.0240122665428905,0.0041447259887587,-0.0669464610695838,-0.0006285551935434,-0.0015031015500426,0.0011967178434133
1783206023589865000,1.819864990234375,0.0248181532654096,-0.0049092806204687,-0.0609603723973035,-0.0002198470756411,-0.0021172137930989,0.0031514544971287
1783206023599803000,1.829802978515625,0.0216255974519299,0.0027038429980631,-0.0696393534153699,0.0010944232344627,-0.0018327883444726,0.0011668668594211
1783206023609741800,1.839741943359375,0.0247680099637713,0.003032499563694,-0.0688911653965711,0.0004418166354298,-0.0001215981319546,0.0037901229225099
1783206023619680000,1.849679931640625,0.019492798090761,-0.0031435404564253,-0.0694897158116102,-0.0003661857917904,-0.0006600893102586,0.0001937901834025
1783206023629619000,1.859618896484375,0.0210114978413097,-0.0066823821070604,-0.0644008682399988,-0.0008596694096922,-0.0018352717161178,0.0020952546037733
1783206023639556900,1.869556884765625,0.0294037092236918,-0.004555864072917,-0.0730786802142858,-0.0031174980103969,-0.0007441747002303,-0.0012946831993758
1783206023649495800,1.879495849609375,0.023328544895316,-0.002594975796109,-0.0699351214915514,0.0002289786934852,0.0002780379727482,0.0015432937070727
1783206023659433700,1.889433837890625,0.0246039876416325,0.0048522166709881,-0.0718804103404283,0.002062564715743,0.000968063250184,0.0021148081868886
1783206023669372700,1.89937255859375,0.0214672148527111,-0.0067880253054667,-0.0702343966990709,0.0011239247396588,0.001397798769176,0.0012491571251302
1783206023679310800,1.909310791015625,0.01912520574574,-0.0011048833688255,-0.063799979737401,-0.0011442890390753,0.0012752935290336,0.0009452904341742
1783206023689250000,1.91925,0.0208050017840461,-0.0053555174174718,-0.0600584551215171,-0.0010365489870309,-0.0005533113144338,0.0025209821760654
1783206023699188000,1.92918798828125,0.0185823641483788,-0.0024979816950391,-0.0700841745734214,-1.68243423104e-05,0.0004754681140184,0.0017697042785584
1783206023709127000,1.939126953125,0.0223972942104795,-0.0053587414210196,-0.0802595316290855,-0.0001172246411442,-0.0020176842808723,0.0012084572808817
1783206023719064800,1.94906494140625,0.0183189046063344,-0.0100274547512643,-0.0712824444472789,0.0014745471999049,-0.0010658702813088,0.0023794490844011
1783206023729004000,1.959004150390625,0.0218114936791593,-0.0063628860954195,-0.0648486120074987,-0.0007825754582881,0.0019410923123359,0.002473552012816
1783206023738942000,1.96894189453125,0.0199147041641059,-0.007799796163896,-0.0702343966990709,6.75050541758e-05,-0.0021441970020532,-0.0010442174971103
1783206023748881000,1.978880859375,0.0255543608687585,-0.0098735245648771,-0.0729284580886363,0.0016490090638399,-0.0041642854921519,0.0020069200545549
1783206023758818800,1.98881884765625,0.0176186279745365,-0.0026925178864505,-0.0784650494277477,0.001865791156888,-0.0019575902260839,0.0011967864120379
1783206023768757800,1.9987578125,0.0204524643026175,0.0012544570405036,-0.0811591108173132,-0.0013797152787446,-0.0024556326679885,0.0007965080440044
1783206023778696000,2.008696044921875,0.0210145072157261,-0.0010794292671605,-0.0790635998427867,-0.0008862316608428,0.0006248457357287,0.0015778795350342
1783206023788635000,2.018634765625,0.0226908703295746,-0.0039070904411375,-0.0640998394668102,-0.0008798446506261,-0.001129304524511,0.0016721163410693
1783206023798572800,2.02857275390625,0.0283684364753775,0.0036871732132975,-0.076370122975111,-0.0016228668391704,3.82256694138e-05,0.0017613321542739
1783206023808512800,2.0385126953125,0.0252323578062001,-0.0075641151113435,-0.0635007045298814,0.0004224181175231,-0.0019382764585316,5.84329245612e-05
1783206023818450700,2.04845068359375,0.0179510942072491,-0.0012651154318358,-0.0700847590953111,-0.0005123512819409,0.0003373948857188,0.003994851373136
1783206023828389600,2.0583896484375,0.0243723662762669,0.0092993322729598,-0.0527262125372886,-0.0020209606736898,0.0029882318340241,0.00161926925648
1783206023838327600,2.06832763671875,0.0187950250849477,-0.0085740045399405,-0.0676893883913755,-0.0007130820304155,-0.0021002697758376,0.0058156121522188
1783206023848266500,2.0782666015625,0.0234408073474653,-0.0038380529260728,-0.064396776586771,0.0008381186053156,-0.0019334014505147,0.0019146668491885
1783206023858204700,2.08820458984375,0.0182789230807509,0.0026872845889069,-0.0684369918882846,-0.001035681925714,-0.0023973239585757,0.0028054942376911
1783206023868143600,2.0981435546875,0.0162979235976759,-0.0037297519796993,-0.0831014770567417,0.0012136735022068,-0.0010558469220995,0.0008236207067966
1783206023878081500,2.10808154296875,0.0259649852129747,-0.0090037925256416,-0.0633498978823423,0.0004706522449851,0.0018741632811725,0.0035813238937407
1783206023888020700,2.118020751953125,0.0228691677722381,-0.0019819949969183,-0.0666419251650571,0.0026076147332787,0.0019126082770526,0.0038714343681931
1783206023897958700,2.127958740234375,0.0262230561938486,-0.0015732954650186,-0.0648456893980503,-0.0003146724775433,-0.0010357773862779,0.0007083978271111
1783206023907897600,2.137897705078125,0.0193852026805747,-0.0041925197863951,-0.0651443800836801,-0.0012661516666412,-0.0002392060123383,0.0029129139147698
1783206023917835800,2.147835693359375,0.0193416078507318,-0.0035450978614855,-0.0697837303221225,0.0002808785066008,0.0006537521257996,0.0041408976539969
1783206023927774700,2.157774658203125,0.0200444611737504,0.0026443039637058,-0.0790600927114486,-0.0013002762570977,-0.0019458574242889,0.0016593439504504
1783206023937712600,2.167712646484375,0.0267772514439304,-0.013679876311589,-0.0708300245046615,0.0001149279996752,0.0003316779620945,-0.0003803711151704
1783206023947651600,2.177651611328125,0.0128584312603343,-0.0064397781233768,-0.0678378569513559,-0.0009186873212456,-0.0006308779120445,0.0053422977216541
1783206023957589500,2.187589599609375,0.0201075004895799,-0.0054283725911285,-0.0727758978754282,-0.0004017679020762,-0.0018319636583328,0.0029406591784209
1783206023967528700,2.19752880859375,0.0185837695125315,0.0009272526464425,-0.0733750328123569,0.0004116343334317,-0.0009410344064235,0.0014211125671863
1783206023977466600,2.207466552734375,0.0291021986766019,0.0020102712433319,-0.0700830055296421,-0.0006291288882493,-0.0001958818174898,0.0030760008376091
1783206023987405600,2.217405517578125,0.0243624613701831,-0.0044118433591909,-0.0711304687559604,0.0005350466817617,-0.0010653412900865,0.0030844782013446
1783206023997343500,2.227343505859375,0.0210422583057545,-0.0041137006628327,-0.0675397507876157,-0.000278016552329,-0.0021433890797197,0.0007622017292305
1783206024007282700,2.23728271484375,0.0155051612182112,-0.0071715995292644,-0.0762193163275718,0.0006939880549907,0.000584655907005,0.00465137232095
1783206024017220600,2.247220703125,0.0289780060413526,-0.0042955600357614,-0.0678396105170249,0.00064551923424,0.0007985075935721,0.0009312028414569
1783206024027159800,2.257159912109375,0.0211134169959579,0.0011146193115506,-0.0682885233283042,0.0014025745913386,0.0017509986646473,0.0006354665383696
1783206024037097700,2.26709765625,0.0162711097976309,-0.0098950148774776,-0.0706833095103502,2.06604599952e-05,0.0029254530090838,0.0015952697722241
1783206024047036700,2.27703662109375,0.0205281439043115,0.0008453739161137,-0.0648486120074987,0.0012387996539473,0.0037946619559079,0.001697527943179
1783206024056974600,2.286974609375,0.0246655862023355,-0.0024279395329765,-0.067841364082694,-3.09953466057e-05,-0.0017950469627976,0.0024543981999158
1783206024066913500,2.29691357421875,0.0193270770018803,-0.001940119483415,-0.0760714322894811,0.0023590521886944,0.0011173440143465,0.0004349189694039
1783206024076851700,2.306851806640625,0.016028960188385,0.0048057745802216,-0.074876085025072,0.0027995388954877,-0.001457133796066,-0.0001318017020821
1783206024086790700,2.316790771484375,0.0233018030188628,-0.0042845728508662,-0.0744289257794618,0.0017196014523506,-0.0009932885877788,0.0032665347680449
1783206024096728600,2.326728515625,0.0197011047959094,-0.0086190949238371,-0.0681441464215517,-0.0002322290092706,-0.0006505399942398,0.0031709272880107
1783206024106667800,2.336667724609375,0.0322488718050299,-0.0055732883539982,-0.0545277090013027,0.0013153972104191,-0.0019284388981759,0.0007146474672481
1783206024116606700,2.346606689453125,0.0261631472667329,-0.0054828975236508,-0.0684445906728506,-0.0006787776947021,0.0015925266779959,0.0015514126280322
1783206024126544600,2.356544677734375,0.0218811111495364,-0.004551891150698,-0.0664981327801942,4.67887148261e-05,-0.0001439014449715,0.0016406693030148
1783206024136483600,2.366483642578125,0.0244146573483012,-0.0001307228407356,-0.0669464610695838,-0.0019628321751952,-0.0006712074391543,-0.0004871963756158
1783206024146421800,2.376421875,0.0225728608399396,0.0012384283543098,-0.0763736301064491,-0.0003125248476862,0.0006610765121877,0.0016451149713248
1783206024156360700,2.386360595703125,0.0219473858853569,-0.0055869515531696,-0.0609603723973035,-0.0020646192133426,-0.0032290029339492,0.0010160764213651
1783206024166298600,2.396298583984375,0.019696793946973,-0.0082848762670997,-0.0660480509251356,-0.0019336240366101,-0.001197469420731,-0.0001140052918344
1783206024176237600,2.406237548828125,0.0246961457373807,0.0012296422596555,-0.0738286217987537,-0.0012159021571278,0.0015336023643612,-0.001475679455325
1783206024186175500,2.416175537109375,0.0238249980591936,0.0023472572458907,-0.0777186149746179,-0.0006975391879677,0.0005999226123094,0.0032768538221716
1783206024196114400,2.426114501953125,0.0180349810899293,-0.0057265700864139,-0.0664957946926355,0.0005975561216473,0.0006574466824531,0.0033319813665002
1783206024206052600,2.436052490234375,0.0175870866253797,-0.0084632011092267,-0.0667956544220447,0.0006857421249151,-0.0011703250929713,0.002102100290358
1783206024215991800,2.44599169921875,0.0204971254282514,-0.0066772127415984,-0.0654489159882068,-0.0004695374518632,0.001674463506788,0.0045396918430924
1783206024225929700,2.4559296875,0.0237758936538826,-0.0083204955697525,-0.0720318015098571,-0.00046281889081,0.0017676404677331,0.0024847211316227
1783206024235868700,2.46586865234375,0.020920874115522,-0.0008115447117481,-0.0736778151512145,-0.0005685463547706,0.0019383491016924,0.0021166722290217
1783206024245806600,2.475806640625,0.0232535890961182,0.0006137479841709,-0.0651478872150182,-4.61414456367e-05,0.0005646967329084,-0.0011085532605648
1783206024255745500,2.48574560546875,0.0197476747508393,-0.0140096105894539,-0.0690390494346618,0.001182640902698,0.0010062488727271,0.0030001716222614
1783206024265683700,2.49568359375,0.0167033785764302,-0.0138723301437683,-0.070834700679779,-0.0003044763579964,-0.0014615221880376,-3.38844256475e-05
1783206024275622700,2.50562255859375,0.0181815956195408,-0.0129147645574528,-0.0771200645595788,-0.0020371284335851,-0.000580548774451,-0.0002064572181552
1783206024285560600,2.515560546875,0.0121053524372866,0.0077130220627412,-0.0774175862014293,-0.0012447796761989,-0.0015752408653497,0.0014268304221332
1783206024295499500,2.52549951171875,0.0237204439894645,0.00039423261513,-0.0669429539382457,-0.0019220216199755,3.67704778909e-05,0.0016539980424568
1783206024305437400,2.5354375,0.0261057202743599,-0.0076885908743832,-0.0711328068435192,-0.0010819174349308,-0.0015065087936818,0.0004161831166129
1783206024315376600,2.545376708984375,0.0223249687597854,-0.0034784988986793,-0.0694873777240514,-1.05276703834e-05,-0.0007485728710889,0.0031315421219915
1783206024325315800,2.55531591796875,0.01986080256938,0.0037749976272229,-0.0703828652590513,-0.003056083805859,0.0010362155735492,0.0049180770292878
1783206024335253800,2.565253662109375,0.0171010806486359,0.0024021657709032,-0.0651443800836801,-0.0008078441023826,0.0014769686385989,0.0010916473111137
1783206024345192700,2.575192626953125,0.0228422523658489,0.0019981424141209,-0.0724766226679086,-0.0014963215216994,-0.0013850471004843,0.0013517978368327
1783206024355130600,2.585130615234375,0.0195658861598582,-0.0014847586650401,-0.0581125817507505,-0.0007415823638439,0.0031979868654161,0.0025843088515102
1783206024365069600,2.595069580078125,0.0187131771790154,-0.0066570650027133,-0.063947279253602,-0.0004485575482249,-0.0011163004674017,0.0025667361915111
1783206024375007700,2.6050078125,0.0270296210530912,0.0004827054830268,-0.0756190123468637,-7.27856531739e-05,0.0026323650963604,0.0028005617205053
1783206024384946700,2.61494677734375,0.0244159999220166,-0.0100647088885772,-0.0778641609251499,0.0029176222160458,-0.001574273686856,0.0037930803373456
1783206024394884600,2.624884521484375,0.0164943583435844,-0.0012429218663368,-0.0696352617621421,-0.0004739137366414,-0.0006565484218299,0.002217287896201
1783206024404823600,2.634823486328125,0.0213240115563152,-0.0021515611438546,-0.0732253952085971,0.0004662172868847,-0.0003143399953842,0.001715715159662
1783206024414761500,2.644761474609375,0.0199407587706809,-0.0100595486562699,-0.0804080001890659,0.000392448157072,0.0010124468244612,0.0008597751148045
1783206024424700700,2.65470068359375,0.0236661177030531,-0.0037015305322129,-0.0780143830507993,0.0013906639069318,0.0007637678645551,0.0044603087007999
1783206024434638800,2.664638916015625,0.0196161025267327,0.0012336882471106,-0.0720288789004087,-0.002817397005856,0.0006034453399479,0.002200084272772
1783206024444577800,2.674577880859375,0.0069301212068763,-0.0087990454674698,-0.0652951867312192,0.0014433274045586,0.0028459627646952,0.0032599072437733
1783206024454515700,2.684515625,0.0233180440508993,-0.0060720590558368,-0.0769680888682603,0.0039653414860367,-0.0006837910041213,0.0028907929081469
1783206024464454700,2.69445458984375,0.02303905814616,0.0001698492747265,-0.0796639038234949,0.0017776489257812,-0.0013669608160853,0.002513323444873
1783206024474392600,2.704392578125,0.0188747940565808,0.0045106732243206,-0.0784668029934167,0.0013070683926343,0.0004634293727576,0.000420078926254
1783206024484331500,2.71433154296875,0.0238559457533061,-0.0014237857254222,-0.0657481911957263,0.0011521922424435,0.001594397239387,0.0010278989793732
1783206024494270500,2.7242705078125,0.0234676496886182,-0.0059320660632569,-0.0531798015236854,0.0003505814820528,-0.000581937842071,0.0022998247295618
1783206024504208600,2.734208740234375,0.0202736873693414,0.0029487485366873,-0.0762228234589099,-0.00203871820122,-0.0006398293189704,0.0005977098480798
1783206024514147800,2.74414794921875,0.0275854534211219,0.0008599321644287,-0.0705365945160388,-0.0001657176762819,0.0016741910949349,0.0033743216190487
1783206024524085800,2.754085693359375,0.0248840581084717,-0.0044226387478411,-0.0745750562518835,-0.0021471502259373,-0.0006695557385683,0.0045398003421723
1783206024534024700,2.764024658203125,0.0198970292268088,-0.0019602854886092,-0.0726291828811168,-0.0011982666328549,0.0002300599589943,0.0028257898520678
1783206024543962600,2.773962646484375,0.0224916419800254,-0.0020049831468611,-0.0765197605788707,0.0016793524846434,-0.0040141027420759,0.0016253911890089
1783206024553901600,2.783901611328125,0.0204951823496259,-0.0070479000843595,-0.0639502018630504,0.0016157031059265,0.0007220632396638,0.0031772151123732
1783206024563839700,2.79383984375,0.0280937637028633,-0.0062640288308262,-0.0675420888751745,0.0002566101029515,0.0011416589841246,0.0038704385515302
1783206024573778700,2.80377880859375,0.0243220677110017,0.0047808776009827,-0.0685889675796031,0.0013242708519101,-0.0010152352042496,0.0023694809060543
1783206024583716600,2.813716552734375,0.0203269085440551,0.0036704504073597,-0.0687397742271423,-0.0009125210344791,-0.0029609492048621,0.0027286633849143
1783206024593655600,2.823655517578125,0.0200087665225728,-0.0044655919735785,-0.0726297674030065,0.0004038792103528,0.0003176685422658,0.0013621953548863
1783206024603593500,2.833593505859375,0.0246007316720439,-0.0059222387889865,-0.0681406392902135,-0.0012434413656592,0.0012993784621357,0.0003405550669413
1783206024613532400,2.843532470703125,0.0237311229303944,-0.002882113041263,-0.0688882427871227,-0.0005211923271417,0.0015614335425198,0.0006303070113062
1783206024623471600,2.8534716796875,0.0170343732296198,-0.0035133418831974,-0.0757709880381822,-0.0021204389631748,0.0011497405357658,0.0032612266950309
1783206024633409800,2.863409912109375,0.0181625997997703,0.0054117137172725,-0.0705319183409214,-0.0016591791063547,-0.002070021815598,0.0035128954332321
1783206024643348700,2.8733486328125,0.0162510476820694,-0.0035431433664169,-0.0832516991823911,0.0016356008127331,-0.0005903365090489,0.0028213616460561
1783206024653286700,2.88328662109375,0.0211648069731891,-0.006161180377705,-0.0757704035162925,0.0003716647624969,-0.0028058202005922,0.0034818255808204
1783206024663225600,2.8932255859375,0.0177709027766657,0.0050079186893533,-0.073376786378026,0.0018235249444842,-0.001004135236144,0.0020450525917112
1783206024673163800,2.903163818359375,0.0274932450930238,-0.0015668383247684,-0.0690372958689928,0.0019974298775196,-0.0007727066986262,0.0024250857532024
1783206024683102700,2.913102783203125,0.0255417525489348,-0.0006528561518527,-0.0603600684165954,0.000839696265757,-0.00025783944875,0.001773114548996
1783206024693040600,2.92304052734375,0.0282384328705607,-0.0007166786356829,-0.0663461570888757,0.0009102700278162,3.08472663164e-05,0.004346527159214
1783206024702979600,2.9329794921875,0.0213065626645926,0.004688084750995,-0.0724812988430261,0.002359845675528,0.002097186865285,0.0040555051527917
1783206024712917500,2.94291748046875,0.0188087613493553,-0.0006514953118283,-0.0744271722137928,-0.0002284813672304,0.0012662806548178,0.0002551742945797
1783206024722856700,2.952856689453125,0.0260942261993885,-0.0038263076893519,-0.0720323860317468,-0.0022933734580874,-0.0001311087980866,0.0023600934073328
1783206024732795600,2.962795654296875,0.0292997351092752,-0.006848276725877,-0.0691892715603113,0.0027181636542081,-0.0029929419979453,0.0011683288030326
1783206024742733800,2.97273388671875,0.019848934035073,-0.0016097184852696,-0.0641015930324792,0.0004805093631148,-4.19490970671e-05,0.0008439925732091
1783206024752672800,2.9826728515625,0.0197396809573401,0.0029135676254518,-0.0676934800446033,0.0002951538190245,-0.0008691269904375,0.0003334645589347
1783206024762610700,2.992610595703125,0.0235083515917649,0.006435339410277,-0.0654483314663171,-0.000367903150618,-0.0027883350849151,0.0050169937312603
1783206024772549600,3.002549560546875,0.0204413378371158,0.0022035653257276,-0.0739770903587341,-0.0008043954148888,-0.0007867035456001,0.0030766148120164
1783206024782487600,3.012487548828125,0.0184563437405799,0.0016569277610164,-0.0684399144977331,0.0001768842339515,0.0001677758991718,0.0038621751591563
1783206024792426500,3.022426513671875,0.0207137364541529,-0.0059879701021127,-0.0807096134841442,0.0004099113866686,-0.0018977718427777,0.0013936912873759
1783206024802364700,3.03236474609375,0.0256715712073724,-0.0060682139977812,-0.0709837537616491,0.0006800359115004,-0.0012413198128342,0.003064583055675
1783206024812303600,3.0423037109375,0.0248874761915532,-0.0003732080934103,-0.0675420888751745,-0.0005926890298724,-0.0005185380578041,0.0015162210911512
1783206024822241500,3.052241455078125,0.0239158912130398,-0.0020294874004554,-0.0771188955157995,-0.0001724176108837,-0.0013169343583285,0.0054803979583084
1783206024832180700,3.0621806640625,0.0202413856850704,-0.0009267137903254,-0.0715828886985778,0.0024747643619775,-0.0024796705693006,0.0037711809854954
1783206024842119700,3.07211962890625,0.0160145549204084,-0.0072689406902063,-0.0717348643898963,0.0034484080970287,-0.0026559238322079,0.002557816915214
1783206024852057600,3.0820576171875,0.0186266816390736,-0.006592338336585,-0.067546765050292,0.0009391773492097,-0.0009158146567642,0.001248873071745
1783206024861996500,3.09199658203125,0.0168819888296362,-0.0018437099042348,-0.0653033700376749,0.0018263980746269,0.0015749535523355,0.0007945249672047
1783206024871934700,3.101934814453125,0.0136436405210057,0.0019870821639895,-0.0555763412714004,0.0015496956184506,-0.0005095023661851,0.0022086636163294
1783206024881873700,3.111873779296875,0.0207227874102885,0.0006950421926099,-0.0591693973273038,0.000464386306703,0.0014414801262319,0.0008298882748931
1783206024891811600,3.1218115234375,0.0240507742056623,-0.0048398686460684,-0.0636585254400968,0.0004734406247735,-0.0026102531701326,0.004454982932657
1783206024901750500,3.13175048828125,0.0205304911250248,-0.0067901898630894,-0.0657546209365129,0.0016293181106448,-0.0009539667516946,0.0059563755057752
1783206024911688400,3.1416884765625,0.0249168529830873,0.0033894415088929,-0.0662035337477922,0.0005808323621749,-0.0013771429657936,0.0021898669656366
1783206024921627600,3.151627685546875,0.0241141308986116,-0.0054253221175167,-0.0627618688613176,0.0001795180141925,0.0010666600428521,0.0038353807758539
1783206024931566600,3.161566650390625,0.0175820565405243,0.0030097854083869,-0.079521865004301,-0.0004412643611431,-0.0019752024672925,0.0015256210463121
1783206024941504800,3.1715048828125,0.017409175058495,0.0026491902013774,-0.0672509969741106,0.0003027878701686,-0.001175963319838,0.0036545854527503
1783206024951443700,3.181443603515625,0.0239348151092184,-0.005750672481209,-0.0674018036216497,0.0025520930066704,-0.0015882207080721,0.0015608082758262
1783206024961381600,3.191381591796875,0.0221700476261321,0.0004932451433502,-0.0621656565338373,-0.0004477193579077,0.0004839315079152,-0.0001573452027514
1783206024971320600,3.201320556640625,0.0242540553925326,0.0009569079991895,-0.058872460207343,-0.0011971332132816,0.0013467958196997,0.0012639838969334
1783206024981258800,3.2112587890625,0.0206994476338964,-0.0026379472881555,-0.0675514412254095,-0.0008643437176942,-0.000550280790776,0.001104877796024
1783206024991197700,3.22119775390625,0.0140286281004664,-0.003759608261846,-0.0715893184393644,-0.0006323829293251,0.0046556661836802,-0.000403004058171
1783206025001135600,3.231135498046875,0.0195271547348005,-0.0032502978996839,-0.0744318483889102,-0.0026036985218524,0.0007066186517477,0.0030114676337689
1783206025011074600,3.241074462890625,0.0220946922514238,0.0032649292132351,-0.0724859750181436,-0.0004153801128268,-0.0021637361496686,0.0024862922728061
1783206025021012500,3.251012451171875,0.0148065308375167,0.0026248960103373,-0.0638064094781875,0.0011391816660761,0.0009949887171387,0.001528515247628
1783206025030951700,3.26095166015625,0.0188076630875235,0.0018339556952007,-0.0615630144655704,0.0004792511463165,0.0016586482524871,0.0037384063471108
1783206025040890600,3.270890625,0.0197443708321894,5.40226090233e-05,-0.0672492434084415,0.0014077527448534,0.0004493212327361,0.002427130471915
1783206025050828800,3.280828857421875,0.0208581247773487,-0.0026778957060538,-0.0611135171324014,-0.0016186637803912,-0.000429255887866,-0.0002477485977578
1783206025060767700,3.290767822265625,0.0250837476823246,-0.00962829023269,-0.0666506929934024,0.0001797825098037,0.0005418406799435,-5.13446138938e-05
1783206025070705700,3.30070556640625,0.0159965100903529,-0.0030448749880772,-0.0588683685541152,-0.0044778194278478,0.0027075230609625,0.0024685384705662
1783206025080644600,3.31064453125,0.0173950757511949,0.001787632335443,-0.0612619856923818,0.001449842005968,-0.0019692545756697,0.0011902669211849
1783206025090582500,3.32058251953125,0.0102243335968116,-0.0083125862579327,-0.0685936437547206,0.0014242753386497,3.8812868297e-06,0.0028781783767044
1783206025100521500,3.330521484375,0.0159807359908416,-0.0087880491494201,-0.057969958409667,0.0007845936343073,0.0001866947859525,0.0051412107422947
1783206025110459600,3.340459716796875,0.0122224748692882,0.0001882434479426,-0.060513797673583,-0.0001115603372454,-0.0009933519177138,0.0043393331579864
1783206025120398800,3.35039892578125,0.0143902211046079,-0.0032393198479432,-0.0567728575795888,-0.0021262196823954,0.0017853514291346,0.001977106090635
1783206025130337800,3.360337890625,0.0164635704796761,-0.002895958903525,-0.0650023412644863,-0.0006745308637619,-0.002014712896198,0.0015398152172565
1783206025140275700,3.370275634765625,0.021325630407955,0.003209436166333,-0.059018006157875,-0.0004277247935533,0.0001107729040086,0.0026441987138241
1783206025150214700,3.380214599609375,0.022174200928153,-0.0085278638432733,-0.067546765050292,-0.000225325115025,5.45801594853e-05,0.0042591397650539
1783206025160152600,3.390152587890625,0.0258611777786281,0.0007264419778715,-0.0633563276231288,-0.001484285108745,0.0003246264532208,0.0032788978423923
1783206025170091500,3.400091552734375,0.0102317736928176,-0.0114047527201473,-0.074130235093832,7.31311738491e-05,0.0005968017503619,0.001750776078552
1783206025180029700,3.41002978515625,0.0170889575276465,-0.0058862176275346,-0.0585679243028163,-0.0004171421751379,8.74870456755e-05,0.0032576266676187
1783206025189968600,3.41996875,0.0208396529723191,-0.002339557996625,-0.0678460402578115,0.0017083268612623,-0.0011503505520522,0.0013707769103348
1783206025199906600,3.429906494140625,0.0162028143513714,0.0024696689160075,-0.0663514177858829,0.0030208872631192,0.0014711953699588,0.004084097687155
1783206025209845500,3.439845458984375,0.0199224604955874,-0.0067512186927255,-0.0759288089483976,0.0003531984984874,-0.0032609752379357,0.0035666455514729
1783206025219784700,3.44978466796875,0.0183351193805516,-0.0022278412504587,-0.0638081630438566,-7.71470367908e-05,-0.0001288088969886,0.0005170855438336
1783206025229722600,3.45972265625,0.0251332653628778,0.000388524393551,-0.0578220743715763,0.0005383100360631,0.0028549970593303,0.0032763867639005
1783206025239661600,3.46966162109375,0.0132823066701239,0.002932363657467,-0.0540811342775821,-0.0006356127560138,-0.0003081415779888,0.0025451106484979
1783206025249599700,3.479599853515625,0.0216181219649501,-0.0021739282392896,-0.0614133768618106,-0.0007021920755505,0.0019086739048361,0.0028841309249401
1783206025259538700,3.48953857421875,0.0108892272463301,-0.0055781745916698,-0.0581213495790958,-0.0008524535223841,0.0030957127455621,0.0030023402068763
1783206025269476600,3.4994765625,0.0158042126634449,-0.0005116484497208,-0.0682967066347599,0.0004879161715507,0.0007236353121697,0.0021466666366904
1783206025279415600,3.50941552734375,0.0181572694624599,0.0069960602992679,-0.0676981562197208,-0.0003482829779386,0.0014818902127444,0.002387924818322
1783206025289354500,3.5193544921875,0.0105983237165783,0.0085664148885291,-0.0699421357542276,-0.0025003831833601,-0.0028446810320019,0.0022169498261064
1783206025299292700,3.529292724609375,0.016456806237105,0.0009464231377933,-0.0700917733579874,0.0013595446944236,0.0002016890794038,0.0033530769869685
1783206025309231900,3.53923193359375,0.0125044918396859,-0.002881592451455,-0.0659025049746036,-0.0016442341729998,0.0007162117399275,0.0035682604648172
1783206025319169800,3.549169677734375,0.0130079250169103,0.0041057456852402,-0.0721872843325138,0.0005526700988411,0.0030906626489013,0.0023983479477465
1783206025329108700,3.559108642578125,0.0111059741279052,-0.0031500432624481,-0.0709907680243253,0.0012062098830938,0.0041905483230948,0.0029541496187448
1783206025339046700,3.569046630859375,0.0228802508552558,-0.0055553599716629,-0.0760784465521574,-0.0021879198029637,-0.0006417338736355,0.005403830204159
1783206025348985600,3.578985595703125,0.0146572071859438,0.0032446901428047,-0.0748807612001895,0.0004901550710201,-0.0025458936579525,0.0051814564503729
1783206025358923800,3.588923828125,0.0119868097997561,-0.0029274500203318,-0.0623112024843692,0.0006163576617836,-0.001327599864453,0.0024063074961304
1783206025368862700,3.59886279296875,0.0131841903326916,-0.0026826084137894,-0.0624602555662393,-0.0014047157019376,-0.0005355761386454,0.0013868493260815
1783206025378801700,3.6088017578125,0.0115883485340804,-0.0057305886744055,-0.0662006111383438,0.0017930921167135,-0.0011138641275465,-0.0013414763379842
1783206025388739600,3.618739501953125,0.0127017634108779,-0.0068636112923268,-0.0650040948301553,0.0001264857128262,0.0017519635148346,0.0038820477202534
1783206025398678500,3.628678466796875,0.0229940910598495,0.0040786932815331,-0.0560258386045694,-0.0009780917316675,0.0028223332483321,0.0037661702372133
1783206025408616400,3.638616455078125,0.0217011857220786,0.0032343696781899,-0.0727858347475528,0.0013697510585188,-0.0004416368901729,0.0034146329853683
1783206025418555600,3.6485556640625,0.0163283050362078,-0.0135483040874823,-0.0688952570497989,-0.0001921765506267,0.0012221676297485,0.000368200649973
1783206025428493800,3.658493896484375,0.0196760868023731,-0.0078111212755087,-0.0699427202761173,0.0006701545789837,0.0023609350901097,0.002062237355858
1783206025438432800,3.668432861328125,0.0243085803250549,0.0010300463006366,-0.0726379507094621,0.0013483166694641,-0.0010158740915358,0.0022540926001966
1783206025448370700,3.67837060546875,0.0124225879931822,-0.0026935225334484,-0.0687462039679288,-0.0026275161653757,0.0017434270121157,0.0035081750247627
1783206025458309600,3.6883095703125,0.0192641153178643,0.001510541560268,-0.0596194791823625,0.0010705403983592,7.48187303543e-05,0.0037226260174065
1783206025468248600,3.69824853515625,0.0179689472410595,0.004824972471036,-0.0624631781756877,0.0010151462629437,-0.0016541052609682,0.0028893230482935
1783206025478186500,3.7081865234375,0.0212502065345877,-0.0013075846003834,-0.0554302107989788,0.0010191882029175,-0.0008059958927333,0.0022577301133424
1783206025488125400,3.71812548828125,0.0144679282666067,-0.0043940611073281,-0.0702443335711956,0.0004253033548593,-0.0002371445298194,0.0012345436261966
1783206025498063600,3.728063720703125,0.0239046916823019,-0.0018989015570376,-0.0723404290676116,-0.0023685060441493,-0.0013418775051832,0.0016874545253813
1783206025508002800,3.7380029296875,0.0164243333061866,0.0050621787603944,-0.06680442225039,0.0025253184139728,-0.0019038044847548,-0.0002595825644675
1783206025517940700,3.747940673828125,0.0091428151205531,0.0030556612435728,-0.074286886960268,-0.0005664816126227,0.0010025762021541,0.0026339699979871
1783206025527879700,3.757879638671875,0.012193675749778,-0.0035626700507942,-0.0569289249241352,-0.0005491711199283,-0.0002179509028792,0.0036630153190344
1783206025537818600,3.767818603515625,0.0176890468792233,0.0045806240548379,-0.0593225420624017,-0.0010694321244955,0.0013707606121897,0.0025296697858721
1783206025547756500,3.777756591796875,0.0134947906518238,0.0009798870159778,-0.0671031129360198,0.0009732125326991,-0.0005650911480188,0.0011773165315389
1783206025557695700,3.78769580078125,0.0225871450936188,-0.0032245058713015,-0.0584241319179534,-0.0008649816736578,0.001040818169713,0.0036816839128732
1783206025567633700,3.797633544921875,0.0183454866525833,0.0048107247499749,-0.0597720393955707,0.0011595534160733,0.0024624138604849,0.0040601189248263
1783206025577572600,3.807572509765625,0.0157878300675132,0.0016885102093685,-0.0721931295514106,-0.0011720648035407,-0.0006840098649263,0.0007898642215877
1783206025587510500,3.817510498046875,0.0172617237036,-0.0013216222588904,-0.0727905109226703,2.71564349532e-05,-0.0003263475373387,0.0008263494819402
1783206025597449500,3.827449462890625,0.0208589695941424,0.0044602125455625,-0.0721913759857416,0.0002271682024002,-0.0005428632721304,0.0026989134494215
1783206025607387600,3.8373876953125,0.0175892466164252,-0.0089794161362107,-0.0690489863067865,0.000119843520224,0.0022617115173488,0.002727675717324
1783206025617326800,3.847326904296875,0.0153747648877499,0.0033513653876725,-0.0603705898106098,0.0006256252527236,0.0008061067201197,0.0006709182634949
1783206025627265800,3.857265869140625,0.0172501645549025,-0.0045007180858869,-0.0665051470428705,-0.0011624209582805,-0.0016708998009562,0.002863232512027
1783206025637203700,3.86720361328125,0.0079848578491306,-0.0050146224247757,-0.0642599984645843,0.0003381073474884,0.0007700878195464,-0.0006277349311858
1783206025647142700,3.877142578125,0.019716019237251,-0.0070016771893016,-0.0599205079555511,0.0016558393836021,0.000645984429866,0.0031510242260992
1783206025657080600,3.88708056640625,0.0109494501256325,0.0005051730431616,-0.0696481212437152,0.0024868370965123,0.0009993207640945,-0.0009641842916607
1783206025667019500,3.89701953125,0.015201787507598,-0.0040776338356081,-0.0647094957977533,-0.0018431963399052,0.0008698911406099,0.0051472377963364
1783206025676957700,3.906957763671875,0.0178852761291549,0.0017587989666033,-0.0566278961509466,-0.0009410921484231,-0.0016246824525296,0.0018359932582825
1783206025686896600,3.916896728515625,0.0093028371210093,-0.0005641366887837,-0.0666542001247406,-0.0002172449603676,0.0021878990810364,-0.000809857272543
1783206025696835800,3.9268359375,0.00945017887805,-0.0076766629745718,-0.0657557899802923,-0.000104165636003,0.0006122700870037,0.001338209840469
1783206025706773800,3.936773681640625,0.0147115368972881,-0.0052631264262832,-0.0718909317344427,0.0012905318289995,-0.0013829702511429,0.0011680339230224
1783206025716712700,3.946712646484375,0.018599858705874,0.0042580136375036,-0.0656055678546428,-0.0013118246570229,-0.0022786990739405,0.0007412465056404
1783206025726650600,3.956650634765625,0.0155079936377587,-0.003651855304744,-0.0660533116221427,-0.0004505589604377,0.0003000395372509,0.0026267645880579
1783206025736589600,3.966589599609375,0.0138739832447376,-0.0057622624543029,-0.0690460636973381,-0.0009727021679282,0.0007689497433602,0.0052293185144662
1783206025746527700,3.97652783203125,0.0145900282678252,0.0028026911295019,-0.0645575201064348,0.0010560937225818,0.000584659166634,0.0012404357548803
1783206025756466700,3.986466796875,0.0174751563917263,-0.0067334364408627,-0.0636585254400968,-0.0004392145201563,-0.0005510211922228,0.0004884816007688
1783206025766404600,3.996404541015625,0.004774566591205,-0.0038756084574852,-0.070541855213046,-0.0011622626334428,-0.0011614174582064,0.0007015345618128
1783206025776343600,4.006343505859375,0.0068855913703388,-0.0126978156048338,-0.0676987407416105,0.0007162922993302,0.0011273636482656,0.003058235393837
1783206025786282500,4.016282470703125,0.0100326549411227,-0.0047393034815788,-0.0636591099619865,-0.0011069076135754,0.0007342812605202,0.0024382513947784
1783206025796220400,4.026220458984375,0.0156325470326119,0.0035782055466435,-0.0653045390814542,0.0001014880836009,0.0012261751107871,0.0051742047071456
1783206025806159600,4.03615966796875,0.0162332288975885,0.0113945692528504,-0.0675491031378507,0.0016897972673177,-0.0016114232130348,0.0050298608839511
1783206025816097500,4.04609765625,0.0153249903372256,-0.0042436106528155,-0.0600666384279727,-0.0012170569971203,-0.0007587112486362,0.0025331594515591
1783206025826036500,4.056036376953125,0.0099780272606119,-0.0021543924217578,-0.0612637392580509,0.0005968222394585,-0.0007328786887228,0.0012798758689314
1783206025835974400,4.065974365234375,0.0221738995340536,0.0037377617562189,-0.0596171410948038,3.45921143889e-05,-0.0025607896968722,0.0020506882574409
1783206025845913300,4.075913330078125,0.0177600514474441,-0.0099968678167555,-0.0711380675405263,-0.0006423834711313,-0.0006536999717354,0.004097593948245
1783206025855852300,4.085852294921875,0.0134958295481512,-0.0085588343702722,-0.0708393768548965,0.0015610856935381,0.0021366642322391,6.23111845925e-05
1783206025865790500,4.09579052734375,0.0172944500795565,0.0025816961894277,-0.071588149395585,-0.0013790437951683,-0.0001816172152757,0.0023060243111103
1783206025875729400,4.1057294921875,0.0158829861212347,-0.0093869740237947,-0.0618617051512002,0.0017733927816152,0.0007567577995359,0.0021391643676906
1783206025885667300,4.115667236328125,0.0138652884816285,-0.0049478681983426,-0.0624614246100187,0.0030650254338979,-0.0006414018571376,0.0014898858498781
1783206025895606300,4.125606201171875,0.0152035981554829,-0.0005560264475643,-0.0702443335711956,0.0014467276632785,-0.0005489652976393,0.0014033804181963
1783206025905544200,4.135544189453125,0.0152919111931754,-0.0040909317085985,-0.0726391197532415,0.0007551051676273,-0.0022216965444386,0.0043621524237096
1783206025915483400,4.1454833984375,0.0133861974445055,-0.000300672580162,-0.0745844086021184,-0.0019340924918651,-0.0010277656838297,0.0042610289528965
1783206025925421600,4.155421630859375,0.0148673302471986,-0.0034390802037436,-0.079372811922431,-0.0012504588812589,0.0009951712563633,-0.0002005645656026
1783206025935360500,4.165360595703125,0.0175066463668888,-0.0062762946573551,-0.0606681114524602,-0.0005674650892615,-0.0012058387510478,0.0015993283595889
1783206025945299500,4.175299560546875,0.0220014084943803,0.0046767322399187,-0.0576747748553752,-0.001186117529869,-0.0010529733262956,0.0008906612638384
1783206025955237400,4.1852373046875,0.0219444655591971,-0.0009435005283448,-0.0671007748484611,0.0003707027062773,-0.0027170698158442,0.0025515919551253
1783206025965176300,4.19517626953125,0.0152993124732747,0.0022614786585792,-0.0633604192763566,-0.0008373074233531,-0.0029466343112289,0.0036112635862082
1783206025975114200,4.2051142578125,0.0253215750261908,0.0013049633850343,-0.0608159954905509,-0.0017224308103322,-0.0020294613204896,0.002047243528068
1783206025985053200,4.21505322265625,0.0237046002496499,-0.0066516764415428,-0.0678489628672599,0.0016153091564774,-0.000134355854243,0.0013992963358759
1783206025994991400,4.224991455078125,0.0076209689982701,-0.0140462619385682,-0.0630611440688371,0.000349786132574,0.0009282696992158,0.0018343410920351
1783206026004930600,4.2349306640625,0.0108691000570426,-0.0014203790587838,-0.0522866520762443,-0.0007008304819464,0.0030827668961137,-0.0002956551325041
1783206026014869500,4.244869384765625,0.0213020463196793,-0.005041747893719,-0.0669511372447013,0.0004954412579536,0.0020929328165948,0.0030722946394234
1783206026024807400,4.254807373046875,0.0218091875576414,0.0058930218276567,-0.0688964260935783,0.0001798570156097,-0.0037995777092874,0.0017838571220636
1783206026034746400,4.264746337890625,0.0197122837770497,-0.0058205045807175,-0.0539332502394914,0.0015868470072746,0.0008450276218354,0.0003426233306527
1783206026044684300,4.274684326171875,0.0220894521040143,-0.0019643040766008,-0.0650087710052728,0.0033546527847647,-0.0042858188971877,0.0038036676123738
1783206026054623500,4.28462353515625,0.0175962677289673,0.0009524875523988,-0.0681505761623382,-0.00178849324584,-0.0018085977062582,0.0021832142956554
1783206026064561400,4.2945615234375,0.0204984565855236,-0.0003866429637186,-0.0467512297809123,-0.0023285821080207,0.0023576514795422,0.0006431081565096
1783206026074500400,4.304500244140625,0.0127730145742709,-0.0038381716570816,-0.0575251372516155,-0.0023198677226901,0.0008486742153763,0.0010701906867325
1783206026084439300,4.314439208984375,0.0121630979484238,0.0065615139400586,-0.0630611440688371,0.0001874985173344,-0.0029287533834576,0.0047770445235073
1783206026094377200,4.324377197265625,0.016343655585678,-0.0112738837489392,-0.0765291129291057,0.0026958342641592,-0.0028665163554251,9.41947218962e-05
1783206026104316400,4.33431640625,0.0203097724628751,-0.0020288663459476,-0.0662052873134613,0.0016665225848555,-0.0006196075119078,0.0020750539842993
1783206026114254600,4.344254638671875,0.0192040397106786,-0.003918863077322,-0.0507943676918745,0.0026656715199351,-0.0007779491133987,0.0024778607767075
1783206026124193500,4.354193603515625,0.0130756325163471,-0.0059215538023971,-0.057080316093564,0.0013599228113889,0.0009800032712519,0.0007345555350184
1783206026134131500,4.36413134765625,0.0160012833052373,0.0017716127824038,-0.0501987398862838,0.0011794380843639,-0.0020182244479656,-0.0003977656015194
1783206026144070400,4.3740703125,0.0129820953142654,0.0025264406045433,-0.0721966366827488,0.0002079168334603,-0.0020155617967247,0.002223583869636
1783206026154008300,4.38400830078125,0.0090937084319535,-0.000621072774101,-0.0662123015761375,0.0012238379567861,-0.0010035899467766,0.0021685766987502
1783206026163947300,4.393947265625,0.0103105608503392,-0.011887595200492,-0.0696551355063915,-0.0008363835513591,-0.0012438069097697,0.0016367435455322
1783206026173886200,4.40388623046875,0.0103993020046502,-0.0017546433812938,-0.0584317307025194,0.0001910123974084,-0.0012225080281496,0.0013616622891277
1783206026183824400,4.413824462890625,0.0124159961389028,-0.0098150175769813,-0.0519973137408494,0.001161734573543,0.0012949779629707,0.0015499477740377
1783206026193763600,4.423763671875,0.0141447824180882,-0.0021944687038194,-0.0611252075701952,-0.000788502395153,-0.0020373906008899,0.0006290004821494
1783206026203701500,4.433701416015625,0.0197800106844399,-0.0054516621351707,-0.0783352855682373,0.0036632381379604,0.0005663814954459,-0.0006485179765149
1783206026213640400,4.443640380859375,0.0179918554759002,0.0043151871848385,-0.0621761779278516,0.0039689894765615,-0.001945846248418,2.94776400551e-05
1783206026223578400,4.453578369140625,0.0114534084592422,-0.0023267807134427,-0.0620288784116506,0.0005119396373629,-0.0012536910362541,0.0046492628753185
1783206026233517300,4.463517333984375,0.0125942444908607,-0.005577398273535,-0.0627770664304494,0.0010771872475743,-0.0002749785780906,0.0006242732051759
1783206026243456300,4.473456298828125,0.01628511891503,-0.0072042140240781,-0.063674892053008,-0.0030027758330106,-0.0019580968655645,0.0014280150644481
1783206026253394400,4.48339453125,0.0216823394577135,-0.0002410239479504,-0.0692108988702297,0.0025604339316487,-0.0010513979941606,0.0040493546985089
1783206026263333400,4.49333349609375,0.0178569804747879,0.0037354967338964,-0.0757972915232181,0.0030153021216392,-0.0003014514222741,0.0018056416884064
1783206026273271300,4.503271240234375,0.0234231301268795,-0.0023821184967178,-0.058891164907813,0.0036667874082922,-0.0030104196630418,0.0002148201456293
1783206026283210200,4.513210205078125,0.0179650793501175,0.0056914713735692,-0.0725093558937311,0.0013612890616059,-0.002723064739257,-0.0035048169083893
1783206026293148200,4.523148193359375,0.0167303293737932,-0.0009724069624207,-0.065327335435152,0.0002702251076698,0.0007050307467579,0.0013573500327765
1783206026303087400,4.53308740234375,0.0041575535042909,-0.000449689129414,-0.0629337182968854,0.0013397512957453,-0.0003394610248506,0.0012071477249264
1783206026313026300,4.5430263671875,0.0150432279535103,0.0025640144022647,-0.0520107577443122,-0.000838897190988,-0.0022687609307467,0.0015326656866818
1783206026322964500,4.552964599609375,0.014070551563031,-0.0009163567930925,-0.0609913520574569,0.0014314474537968,-0.0017526405863463,0.0015350626781582
1783206026332903400,4.5629033203125,0.0212532866909517,-0.0040979733707383,-0.0581488221079111,0.0030774809420108,6.66347332298e-05,4.35978872701e-05
1783206026342841300,4.57284130859375,0.0176789182108535,0.001194653144665,-0.052464346730709,0.0038902768865227,-0.0014545628800988,-0.0009324506390839
1783206026352780300,4.5827802734375,0.02136735294112,0.0056201505698729,-0.0677297204017639,0.0021835397928953,-0.0027240281924605,0.0005519463447853
1783206026362718500,4.592718505859375,0.0157858687225787,-0.0074074997775256,-0.0671323390305042,0.0022549126297235,-0.0010057562030851,0.0002741786884143
1783206026372657400,4.602657470703125,0.0085958944280515,-0.0017714575187768,-0.0798550424814224,0.0065191574394702,-0.0050194021314382,0.0001410306431353
1783206026382595300,4.61259521484375,0.0019543535047443,-0.0080139229717664,-0.0651981560975313,0.0078789666295051,-0.0054489700123667,-0.0004137058276683
1783206026392534500,4.622534423828125,0.0209133027304196,-0.0020304829142987,-0.0613128390967845,0.0058473711833357,-0.00378393009305,0.0003328028833493
1783206026402473500,4.632473388671875,0.0273370750004891,-0.0009315726285334,-0.052787002813816,0.004717125557363,0.0011727451346814,-0.0013580380473285
1783206026412411400,4.642411376953125,0.0253957134080585,-0.0017819606464821,-0.0472550876498222,0.0049492055550217,-0.0028535281307995,-0.00151450606063
1783206026422350300,4.652350341796875,0.0263728399280807,0.0069916124530136,-0.0680611443132162,0.0070272707380354,-0.0038602030836045,0.0006253438768908
1783206026432288500,4.66228857421875,0.0318249130552052,0.0190417869372293,-0.0828816968262195,0.007858051918447,-0.0063154674135148,-0.0029851789586246
1783206026442227500,4.6722275390625,0.0183779219092393,0.0065048609825316,-0.0779512546867132,0.0074095758609473,-0.008070757612586,-0.0017010025912895
1783206026452165400,4.682165283203125,-0.001839618251007,0.0097925134842284,-0.0731692811071872,0.0055741099640727,-0.0116637023165822,-0.0033504138700664
1783206026462104300,4.692104248046875,-0.0036030888261506,0.0054996385958977,-0.074374565243721,0.0091435443609952,-0.0125169781967997,-0.0059736277908086
1783206026472042200,4.702042236328125,0.0026914413158607,0.0007325703245587,-0.0567255113065242,0.0061355382204055,-0.0137384198606014,-0.0069837993942201
1783206026481981200,4.711981201171875,0.0025534393509675,-0.0163437982912175,-0.0441635513752698,0.0057120956480503,-0.0089109083637595,-0.008567314594984
1783206026491920400,4.72192041015625,0.0052574261962145,-0.0089620631426107,-0.0603285042345523,0.0035385200753808,-0.0062989983707666,-0.0081512685865163
1783206026501858600,4.731858642578125,0.0075111667896213,-0.0054777007587254,-0.0729009855598211,0.0032066907733678,-0.0134365363046526,-0.0129348384216427
1783206026511797500,4.741797607421875,0.0280283132342388,-0.0004632701301947,-0.0802379043191671,0.0048692123964428,-0.0142455492168664,-0.0151253975927829
1783206026521735400,4.7517353515625,0.033233448695857,0.00712068219278,-0.0736608640164136,0.0048660170286893,-0.0138002689927816,-0.016676690429449
1783206026531674400,4.76167431640625,0.0248097028141841,0.0034872667270246,-0.0519692566901445,0.0025136545300483,-0.0086788069456815,-0.0160788595676422
1783206026541612300,4.7716123046875,0.0210467883503995,-0.0117433096252847,-0.0233890588939189,-0.0034211995080113,-0.003842772450298,-0.0175696965306997
1783206026551551200,4.78155126953125,0.0331505150861805,0.0010264752372168,-0.0486754758417606,-0.0049235951155424,0.0016050371341407,-0.0204982850700616
1783206026561490200,4.791490234375,0.0195367902128258,0.0126024106726516,-0.0661807373940944,-0.0015530977398157,0.0009522964246571,-0.0259098280221223
1783206026571428400,4.801428466796875,0.0093524004673352,0.0196456711145117,-0.0531622658669948,-0.0012855334207415,-0.0033209873363375,-0.0296796802431345
1783206026581367600,4.811367431640625,0.0043160879422037,0.017713123016199,-0.0778530550092458,0.001492409966886,-0.0040802545845508,-0.033846728503704
1783206026591305500,4.821305419921875,0.0132564358682837,0.0001950111154466,-0.0750134476691484,0.0035786600783467,-0.0054292809218168,-0.0338605716824531
1783206026601244400,4.831244384765625,0.0145799384153622,0.0020309487051796,-0.0567635052293539,0.0045246146619319,-0.0067733777686953,-0.038294468075037
1783206026611182300,4.841182373046875,0.0136268606328521,-0.0014667572174686,-0.0666460168182849,0.0035752719268202,-0.0071709174662828,-0.0390348806977272
1783206026621121300,4.851121337890625,0.0133546058629988,-0.0113989440338686,-0.0558767855226993,0.0044184289872646,-0.0038291821256279,-0.0415603592991828
1783206026631059500,4.8610595703125,0.0235806542095728,-0.0071491319691296,-0.0421107104986906,0.0006809579208493,-0.0002974262461066,-0.041013978421688
1783206026640998400,4.870998291015625,0.0311083371675107,-0.0034194347883574,-0.0518371547430753,-0.0009411741048097,-0.0016399258747696,-0.0443530492484569
1783206026650937300,4.880937255859375,0.0259538267814321,0.0032962376669514,-0.0659013359308242,-0.0006469776853919,-0.0029722480103373,-0.0450466461479663
1783206026660875300,4.890875244140625,0.0292835831254953,-0.0004715630345046,-0.0726356126219034,-4.37721610069e-05,-0.0054854732006788,-0.0422553867101669
1783206026670814200,4.900814208984375,0.0313299143461859,0.000289758460503,-0.0715922410488128,0.0035813078284263,-0.0070611392147839,-0.0426763333380222
1783206026680752400,4.91075244140625,0.0262606414080131,-0.0141724182020407,-0.0702513478338718,0.0037711914628744,-0.0051535167731344,-0.0396184921264648
1783206026690691600,4.920691650390625,-0.0077092409367673,-0.0436106484665535,-0.0587315904319286,-0.0004790164530277,-0.0008662967011332,-0.039687305688858
1783206026700629500,4.93062939453125,0.0019321279732044,0.0059829194676596,-0.0476572387099266,-0.0049272943288087,0.0006658197380602,-0.0408263429999351
1783206026710568400,4.940568359375,0.014368537854118,0.0041315468467772,-0.0633668490171432,-0.0008573969826102,-0.0012220321223139,-0.0395629964768886
1783206026720507400,4.95050732421875,0.0420795390422921,0.0350814420495647,-0.069053662481904,0.0017413161695003,-0.0050958660431206,-0.0368090197443962
1783206026730445300,4.9604453125,0.0282547446845448,-0.0001466875948477,-0.0832739110141992,0.0053922436200082,-0.003241506870836,-0.0370995737612247
1783206026740384300,4.97038427734375,0.008566309857252,-0.0240184154391754,-0.0543996987074613,0.0047549493610858,-0.0051869465969502,-0.0351631864905357
1783206026750322400,4.980322509765625,-0.0055668677463661,-0.0214784303664695,-0.0557499442726373,0.0027994271367788,-0.0008750716224312,-0.0352712944149971
1783206026760261400,4.990261474609375,-0.0048608726181904,0.0034158819912467,-0.0394400299847126,0.0007005902007222,0.0009702327661216,-0.0331492871046066
1783206026770199300,5.00019921875,0.0236304299017414,0.0159954506444279,-0.0567997455865144,-0.0003138519823551,0.0028934134170413,-0.031371597200632
1783206026780138500,5.010138427734375,0.0161836575597524,0.0137205371155403,-0.0635328532338142,0.0002565970644354,-0.0019034724682569,-0.0327521786093711
1783206026790076400,5.020076416015625,0.0107107654068851,-0.0161504859425127,-0.0656283642083406,0.0028081852942705,6.55422918498e-05,-0.0293895062059164
1783206026800015400,5.030015380859375,0.0232648160263197,-0.0118576475868001,-0.059193362724781,-0.0027849851176142,-0.0001549674198031,-0.0311011206358671
1783206026809953800,5.039953857421875,0.0266274220439256,-0.0083126867226324,-0.0445247859030962,-0.006029917858541,0.0015028822235763,-0.0300893597304821
1783206026819893000,5.04989306640625,0.0322531141553074,0.009012094563106,-0.0452677132248878,-0.0027238698676228,0.0024642832577228,-0.0305455587804317
1783206026829832000,5.05983203125,0.0412349505774676,0.0070318805313203,-0.0537900423765182,-0.007360303774476,0.0050542396493256,-0.0294272731989622
1783206026839769900,5.069769775390625,0.0265052135864971,-0.01052589665954,-0.0723410135895013,0.0001239785924553,-0.0014454713091254,-0.0292557664215564
1783206026849708800,5.079708740234375,0.0142347154490649,-0.0002684873436111,-0.0876069717824459,0.0043959487229585,-0.0062926281243562,-0.0297241657972335
1783206026859646700,5.089646728515625,0.0121692342866212,0.0167255824167281,-0.0895586903721094,0.0048617348074913,-0.0060103330761194,-0.0364068374037742
1783206026869585700,5.099585693359375,0.0050495555991947,0.0155315411934163,-0.0500590391546487,0.0013368539512157,0.0006818296387791,-0.0416428409516811
1783206026879523800,5.10952392578125,0.0016455798165174,0.0081434402361046,-0.0306049816220998,-0.0022586798295378,0.0048776399344205,-0.0465675592422485
1783206026889462800,5.119462890625,-0.0027329549281159,-0.0090115922396071,-0.0508043045639991,6.46188855171e-05,0.0033216003794223,-0.0561485663056373
1783206026899401700,5.129401611328125,-0.0011680973562353,0.004191113280598,-0.0766957016676664,0.0092724980786442,-0.0034787813201546,-0.0725927874445915
1783206026909339600,5.139339599609375,-0.003934979670128,0.0285831843377556,-0.091075524675846,0.0163613744080066,-0.0082534924149513,-0.0913060754537582
1783206026919278800,5.14927880859375,-0.024819817782822,0.0396759393661282,-0.0952875894129276,0.0218402966856956,-0.0106631210073828,-0.1171917393803596
1783206026929216800,5.159216796875,-0.0415535789394285,0.0595242021143436,-0.0808019679427146,0.0278210639953613,-0.0173350200057029,-0.1484665274620056
1783206026939155700,5.16915576171875,-0.0584736153491772,0.0583520256629679,-0.0880213978022337,0.0333945304155349,-0.0217297673225402,-0.1881929039955139
1783206026949094000,5.179093994140625,-0.0775037483812309,0.0542711678238119,-0.0910574044972658,0.0371686629951,-0.0215451903641223,-0.2339842319488525
1783206026959032800,5.18903271484375,-0.1060703651766758,0.0779157632482238,-0.0584738162785768,0.0154202226549386,-0.0148779656738042,-0.2841243743896484
1783206026968970800,5.198970703125,-0.1074937399101443,0.0792217495465651,0.0203922151654958,-0.0248468313366174,0.0173426885157823,-0.3222781419754028
1783206026978909700,5.20890966796875,-0.0727525078666862,0.038289910101518,0.1145621987253427,-0.0466378778219223,0.0298947002738714,-0.3481494188308716
1783206026988848600,5.2188486328125,-0.0129323801292455,0.0016241397362668,-0.0018061726391315,-0.0299437511712312,0.0179839320480823,-0.3550409376621246
1783206026998786600,5.22878662109375,0.0269143880424322,-0.031338739256747,-0.1991629744291305,0.0062952134758234,-0.0115145714953541,-0.3449387848377228
1783206027008725800,5.238725830078125,0.0338807929889531,-0.0371816657318267,-0.2404921791613102,0.0373535230755806,-0.0402428284287452,-0.326284110546112
1783206027018664000,5.248663818359375,0.047314964610897,-0.0182998642624355,-0.1323550450474023,0.0366613678634166,-0.0370230637490749,-0.2981334328651428
1783206027028603000,5.258602783203125,0.0703755952680483,-0.0174207981392741,-0.0047492403537034,0.01133250631392,-0.0153603162616491,-0.271198570728302
1783206027038540800,5.268540771484375,0.0798099794969894,-0.0417550015293527,0.0630412703245878,-0.0183793175965547,0.0132058151066303,-0.24126598238945
1783206027048479700,5.278479736328125,0.0724919435346266,-0.051085852318583,0.0804383953273296,-0.0369969457387924,0.0283149927854537,-0.2202730774879455
1783206027058418000,5.28841796875,0.0549329014018643,-0.0725474137486424,-0.016328034466505,-0.0380853787064552,0.026138924062252,-0.2087685018777847
1783206027068356900,5.29835693359375,0.0556306470082141,-0.0307972436580341,-0.1096639052897691,-0.021534688770771,0.0201914571225643,-0.2002516239881515
1783206027078295800,5.3082958984375,0.0430814369606785,-0.0084971399114467,-0.1371820268124342,-0.0042723463848233,0.0051959957927465,-0.2009376585483551
1783206027088233700,5.318233642578125,0.0213828313547535,0.0082066142659634,-0.1214689093738794,0.0032248273491859,-0.0052388468757271,-0.202275201678276
1783206027098172700,5.328172607421875,-0.0190742872676113,0.0055907509454526,-0.0905003551363945,0.0061063673347234,-0.0043253824114799,-0.2072806060314178
1783206027108110600,5.338110595703125,-0.0476022479865234,-0.0142972136254888,-0.0460609094291925,-0.0017096912488341,-0.0004738266579806,-0.2139945179224014
1783206027118049800,5.3480498046875,-0.0592474401327315,-0.0114840741672087,-0.0324386267900466,-0.006586205214262,0.0029778964817523,-0.2094208002090454
1783206027127988000,5.357988037109375,-0.0323560607898398,-0.0183342871218454,-0.0526309354692697,-0.0100408587604761,0.0026215657126158,-0.2081286311149597
1783206027137927000,5.367927001953125,-0.0031545093750115,-0.0120799029021989,-0.0675870970606803,-0.0078291036188602,0.0016548382118344,-0.1952586472034454
1783206027147864800,5.37786474609375,0.0254781857934314,-0.0328464586722664,-0.078503627872467,-0.0036606257781386,0.0018854839727282,-0.1762948483228683
1783206027157803800,5.3878037109375,0.0575988966075703,-0.033305682815006,-0.0728173989295959,0.0022204322740435,-0.004047239664942,-0.1583741754293441
1783206027167742700,5.39774267578125,0.0912488993482198,-0.0255512144970241,-0.0788046566456556,0.001260532066226,-0.0048754992894828,-0.1438239514827728
1783206027177680600,5.4076806640625,0.0965574175524991,-0.0068906636960338,-0.0514221442013978,0.0009566647931933,0.0022801484446972,-0.1296980082988739
1783206027187619600,5.41761962890625,0.0878048050426412,0.0046858927939087,-0.034660979014635,-0.0033888602629303,0.0018621427007019,-0.1180634200572967
1783206027197557800,5.427557861328125,0.0665394968370441,0.0023466087919194,-0.0535094718694686,-0.0039555812254548,0.0034374021925032,-0.1111421287059784
1783206027207497000,5.4374970703125,0.0267117096437606,-0.01378022228037,-0.0509603719085454,-0.0050133820623159,0.0038280247244983,-0.1050826907157898
1783206027217435000,5.447434814453125,-0.0189876592969289,-0.0314597535542212,-0.0692108988702297,-0.0032991059124469,0.0033803472761064,-0.1013324260711669
1783206027227373800,5.457373779296875,-0.0339084436142817,-0.0096620372386649,-0.0654658671230077,-0.0037686927244067,0.0039937365800142,-0.0995508879423141
1783206027237311700,5.467311767578125,-0.0240531214263755,0.0062656088665593,-0.0576765284210443,-0.0085472026839852,0.0082835564389824,-0.1010377258062362
1783206027247250700,5.477250732421875,0.0152550600563059,-0.01076798918657,-0.0483890601158142,-0.0106267444789409,0.0089225424453616,-0.109969362616539
1783206027257189600,5.487189697265625,0.0452712842883076,-0.0099228161998558,-0.0498714076280593,-0.0140739399939775,0.0108927488327026,-0.111565925180912
1783206027267127800,5.4971279296875,0.0815529689731076,0.0053874743251595,-0.0576385344982147,-0.0107324812561273,0.011780709028244,-0.1153323873877525
1783206027277066800,5.507066650390625,0.0860722364958375,-0.0039186621479224,-0.0797761320263147,-0.0032513961195945,-0.0011129849590361,-0.1162453219294548
1783206027287004700,5.517004638671875,0.0809142418113071,0.0052822055860888,-0.1225748247891664,0.0054632942192256,-0.0081529719755053,-0.1124536544084549
1783206027296943600,5.526943603515625,0.06580558393877,-0.0001019442708231,-0.1070253734797239,0.0159644056111574,-0.0087758852168917,-0.1063363775610923
1783206027306881800,5.5368818359375,0.044565802900074,-0.0051641321643721,-0.0673842679649591,0.0115221850574016,-0.0091069489717483,-0.1002405285835266
1783206027316820700,5.54682080078125,0.0336797083257464,0.005529056486627,-0.0434498501479625,0.0027569225057959,-0.0043817022815346,-0.0912140160799026
1783206027326759000,5.556759033203125,0.0488889633288141,0.0018834573927335,-0.0239963771373033,-0.0057821702212095,0.0052171619608998,-0.0817380845546722
1783206027336697900,5.56669775390625,0.0598249979920918,0.0025260113462805,-0.0431418071120977,-0.0111657492816448,0.0053572440519928,-0.080184668302536
1783206027346635800,5.5766357421875,0.0564506581542082,-0.0167578772511333,-0.0612368512511253,-0.0110009973868727,0.0086436048150062,-0.0783805251121521
1783206027356574700,5.58657470703125,0.0406405283482745,-0.0162611980416811,-0.0748451053649187,-0.0065705636516213,0.0039218198508024,-0.0828426480293273
1783206027366513700,5.596513671875,0.0228642176024848,-0.0067293173881713,-0.0826210000634193,-0.0039008120074868,0.0028351817745715,-0.0856274589896202
1783206027376451800,5.606451904296875,0.0127211371149169,0.0130401353696361,-0.0764841047435998,0.0020372392609715,0.0005222265608608,-0.0882392227649688
1783206027386390800,5.616390869140625,0.0024193635008763,0.0104746687958016,-0.0591273117512464,-0.0012294463813304,0.0007612868212163,-0.085781842470169
1783206027396328700,5.62632861328125,0.0065714941946673,0.0010889368810225,-0.0577776507079601,-0.0023303972557187,0.0031924864742904,-0.0901534259319305
1783206027406268000,5.636267822265625,0.0084750610812014,0.003696361166751,-0.0468500139802694,-0.0045974468812346,0.0013030208647251,-0.0844601839780807
1783206027416205800,5.646205810546875,-0.0043344558576005,-0.0223286722539458,-0.0586672930240631,-0.003264800645411,-0.0014118053950369,-0.0780526176095008
1783206027426144800,5.656144775390625,-0.0177722419254481,-0.0304253050731029,-0.0803641610473394,0.0015382468700408,1.31730921566e-05,-0.0731265246868133
1783206027436083700,5.666083740234375,-0.0164928879057057,-0.0090772048217244,-0.0710924748331308,0.0059071630239486,-0.0066039832308888,-0.0747308135032653
1783206027446022000,5.67602197265625,0.0076249327873345,0.0054435610271058,-0.0609247165620326,0.0095554795116186,-0.0070811291225254,-0.0736121088266372
1783206027455960800,5.6859609375,0.0146741731621208,0.0193523050579708,-0.0676689301252365,0.0114260837435722,-0.0071303979493677,-0.0786236450076103
1783206027465898800,5.695898681640625,0.0169807878703693,0.0247115214030258,-0.0657294864952564,0.0008491706103086,0.0020580566488206,-0.0834333524107933
1783206027475837700,5.705837646484375,0.0047716782310861,0.0119417182742152,-0.023976503393054,-0.0049035223200917,0.0076453685760498,-0.0893136113882064
1783206027485775600,5.715775634765625,-0.0174505082909483,0.0057545723381917,-0.0426759431660175,-0.0056216986849904,0.0036857512313872,-0.0967895537614822
1783206027495714600,5.725714599609375,-0.0109047741586226,0.0067296918475069,-0.0948953752249479,0.0003347266465425,-0.0003673136234283,-0.1064618900418281
1783206027505652700,5.73565283203125,-0.0032695620058686,-0.0058654214346781,-0.0922030674010515,0.0025283088907599,-0.0010172217153012,-0.1164129748940467
1783206027515592000,5.745592041015625,-0.0068819278337294,0.0038418249188922,-0.0652682987242937,-0.0029695210978388,-0.0001005614176392,-0.1225915104150772
1783206027525529900,5.75552978515625,-0.0101469506617984,0.006989329164382,-0.0615256050646305,-0.001573272049427,0.0033089942298829,-0.1296450644731521
1783206027535468800,5.76546875,-0.0201308060166425,0.0166308990037534,-0.067059858316183,-0.0058990446850657,0.0020535802468657,-0.1356225311756134
1783206027545407700,5.77540771484375,-0.0133521581775858,0.0295749170551542,-0.0588245294123888,-0.0026124343276023,0.0019223191775381,-0.1356758177280426
1783206027555345700,5.785345703125,0.0009059883794165,0.0103569789665751,-0.0609171177774667,-0.0011935019865632,-0.0021547139622271,-0.1338552832603454
1783206027565284600,5.79528466796875,0.0241597464388934,0.0114170459461398,-0.0730348410725593,-0.0025816103443503,-0.0008557238616049,-0.1277059614658355
1783206027575222800,5.805222900390625,0.0444299746259581,-0.0126048674912191,-0.056875148910284,0.0031407233327627,-0.0052083940245211,-0.1201596334576606
1783206027585161700,5.81516162109375,0.0588718848186079,-0.0101589082443621,-0.0742366180777549,0.0035928487777709,-0.0031394595280289,-0.1144666001200676
1783206027595099600,5.825099609375,0.0638750999333802,-0.0130536067725624,-0.0761859985798597,0.0028580827638506,-0.0057999575510621,-0.1105245873332023
1783206027605038800,5.835038818359375,0.0380124608500278,-0.007026738565322,-0.0600268909394741,0.0029663452878594,0.0010722996667027,-0.1066803336143493
1783206027614976800,5.844976806640625,0.0262528713767998,-0.0095831633161753,-0.0483569114118814,-0.0001056110486388,0.003402299247682,-0.104290947318077
1783206027624915700,5.854915771484375,0.0066808728532749,-0.0015392744644079,-0.057335752159357,0.0040380982682108,0.0019068834371864,-0.1120578795671463
1783206027634855000,5.86485498046875,0.0053533534306712,0.0081267082970123,-0.063175125837326,0.0046418365091085,0.00071911374107,-0.1195892989635467
1783206027644792800,5.874792724609375,0.0185148130542133,0.0115377588495146,-0.0702139384329319,0.0045752404257655,-0.0044835130684077,-0.127942755818367
1783206027654731800,5.884731689453125,0.0151366646908922,0.0219550166359636,-0.0697702863186597,0.0046692499890923,-0.0041231880895793,-0.1377812623977661
1783206027664669700,5.894669677734375,0.0152576698552118,0.0109108225902076,-0.061394087639451,-0.0014013294130563,-0.002262954134494,-0.1432958990335464
1783206027674608600,5.904608642578125,0.0127895124762784,-0.0012939305343665,-0.0395411522716283,-0.0104403644800186,0.0046490142121911,-0.1485388725996017
1783206027684546800,5.914546875,0.0109804674600483,-0.0063479625209234,-0.0136392337739467,-0.0169202983379364,0.0101455468684434,-0.1465621441602707
1783206027694485800,5.92448583984375,0.0296329331359942,-0.0152355265220627,-0.0481944143265485,-0.0052633769810199,0.0019246344454586,-0.1412179768085479
1783206027704423700,5.934423583984375,0.0436531907003372,-0.0116845834416802,-0.1242114860802888,0.0082341562956571,-0.0063258879818022,-0.1364856362342834
1783206027714363000,5.94436279296875,0.0358496339600649,-0.0020743494554888,-0.142930215075612,0.0180843919515609,-0.0155750457197427,-0.1296117603778839
1783206027724300800,5.95430078125,0.0302823209724156,-0.0041108054528478,-0.0735123954564332,0.00805723387748,-0.0075509543530642,-0.1254092305898666
1783206027734239700,5.96423974609375,0.0329520653380546,-0.0077741867986042,0.0032552024036645,-0.0155903045088052,0.0086442604660987,-0.1179553121328353
1783206027744178700,5.9741787109375,0.0412254338304512,-0.0160849464256316,0.0227303027242422,-0.0269564650952816,0.0214517749845981,-0.1098683252930641
1783206027754116900,5.984116943359375,0.0357725798186147,-0.0257543175873812,-0.0170469963908195,-0.0246107541024684,0.0173718128353357,-0.104756124317646
1783206027764055800,5.994055908203125,0.0331071348854689,-0.013262600747589,-0.112349783372879,-0.0095567861571908,0.0053251930512487,-0.0971291065216064
1783206027773993700,6.00399365234375,0.0326241188751882,-0.0042596302058547,-0.1416775846660137,0.0065651922486722,-0.0078627802431583,-0.0915721505880355
1783206027783932700,6.0139326171875,0.029085681366641,-0.0226234722157474,-0.121488198596239,0.0157812722027301,-0.0123809929937124,-0.086770974099636
1783206027793870600,6.02387060546875,0.014799005118187,-0.0156231741327792,-0.0635901363790035,0.0095111262053251,-0.0066032647155225,-0.0842649415135383
1783206027803809500,6.0338095703125,0.0176166152556077,-0.0085681501878891,-0.023939093992114,-0.0029729567468166,-0.0003910339437425,-0.0823211967945098
1783206027813747700,6.043747802734375,0.019157666118571,-0.0044499560130294,-0.0243815770626068,-0.01135073043406,0.007586465217173,-0.0783347114920616
1783206027823686700,6.053686767578125,0.0220600844456348,-0.0149810403043404,-0.0360439578056335,-0.008913897909224,0.0050596762448549,-0.0777543410658836
1783206027833624600,6.06362451171875,0.029797407549282,-0.017650378244603,-0.0629705431759357,-0.0064009400084614,0.0036934744566679,-0.0709100142121315
1783206027843563500,6.0735634765625,0.0346136236084159,-0.0138736818506382,-0.0647621027678251,-0.0036428701132535,-0.0005750888958573,-0.069172665476799
1783206027853502700,6.083502685546875,0.0190745840951334,-0.010756728007039,-0.0852612854391336,0.0003324300050735,0.0004957681521773,-0.0637459382414817
1783206027863440600,6.093440673828125,0.0007154685640609,-0.0087797471119556,-0.0843646288603544,0.0036022029817104,-0.0019058012403547,-0.061032548546791
1783206027873379600,6.103379638671875,-0.016134128462756,0.0004156955282669,-0.0602764817863702,0.0022549098357558,-0.0025148657150566,-0.0625409632921218
1783206027883317800,6.11331787109375,-0.000533549754275,0.0166990871354471,-0.0644692573010921,0.0005143955349922,-0.000529714860022,-0.0669681802392005
1783206027893256700,6.123256591796875,0.0281496951411827,0.011360466053849,-0.057285483276844,-0.0046630566939711,0.0005786926485598,-0.0664728283882141
1783206027903194600,6.133194580078125,0.0551403427406214,0.0066702076120767,-0.0586275455355644,-0.004301480948925,0.0004897052422165,-0.0615873970091342
1783206027913133600,6.143133544921875,0.0683616205305559,0.0025065303276758,-0.0493459224492311,-0.0047614071518182,0.0042173317633569,-0.0601255893707275
1783206027923071700,6.15307177734375,0.0563927311216248,-0.0019258808955084,-0.0768774879753589,0.0002807462587952,-0.0017089382745325,-0.0564314685761928
1783206027933010700,6.1630107421875,0.0255857492375769,0.0009657032269984,-0.078376786622405,0.0033550998196005,-0.0030993749387562,-0.0589279159903526
1783206027942948600,6.172948486328125,-0.0023638657446914,0.0029818653549998,-0.078680738005042,0.006489208433777,-0.0042278412729501,-0.0519906096160411
1783206027952887600,6.182887451171875,-0.0087662368931225,0.0010242010817397,-0.0478583142399787,-0.0004736259579658,0.0007946141995489,-0.0531344376504421
1783206027962826800,6.19282666015625,0.0070754799277405,-0.0094007376876659,-0.0313946706950664,-0.0080057028681039,0.0076397443190217,-0.0557580702006816
1783206027972764700,6.2027646484375,0.0117916856615222,-0.0164650591838639,-0.0369236632496118,-0.0077918507158756,0.0021240713540464,-0.0531130172312259
1783206027982703600,6.21270361328125,0.0204915656204335,-0.0081718443466816,-0.0705874479204416,-0.0026071453467011,0.0022531598806381,-0.0546772107481956
1783206027992641800,6.222641845703125,0.0280505478989332,-0.0021781112240627,-0.0855512082964181,0.004369537346065,-0.0050697340629994,-0.0530406981706619
1783206028002580700,6.232580810546875,0.0146941542209358,0.0016347707281354,-0.0789706608623266,0.0066789533011615,-0.0057290350086987,-0.0548566803336143
1783206028012518700,6.2425185546875,0.0118206354780821,-0.0001749821075703,-0.0617646745175123,0.0004777824506163,-0.0005406644195318,-0.0567994564771652
1783206028022457600,6.25245751953125,0.0150058185525704,0.0045835557974409,-0.0373719915390014,-0.0032630655914545,0.0011099115945398,-0.0521608553826808
1783206028032395500,6.2623955078125,0.0385605894022155,0.0122369748937431,-0.0463467406332492,-0.0038753263652324,0.0030553508549928,-0.0522300973534584
1783206028042334500,6.27233447265625,0.0413445666980929,0.003313079203898,-0.0738777216374874,-0.0023079831153154,-0.0005847970023751,-0.0512257814407348
1783206028052272600,6.282272705078125,0.0248403696637949,-0.0014023045459762,-0.081957567718625,-0.001301041804254,-0.0016378108412027,-0.0491775423288345
1783206028062211800,6.2922119140625,0.0098635648598661,-0.0220762501291465,-0.0632522827267646,0.000287851318717,-0.0011274870485067,-0.0509874261915683
1783206028072150800,6.30215087890625,-0.0039729153690976,-0.0200547451057471,-0.0577139378219842,-0.002174774184823,0.0013953256420791,-0.0421286858618259
1783206028082088700,6.312088623046875,-0.0094774995681713,-0.0126208048458676,-0.0535205777853727,-0.0026188632473349,-0.0006885677576065,-0.0426586307585239
1783206028092027600,6.322027587890625,-0.005465939538984,0.0016598047046922,-0.0512742601633071,-0.0046553825959563,0.0029900567606091,-0.0428711511194705
1783206028101965600,6.331965576171875,0.0160326317165046,0.0072466101273894,-0.0560591563522815,-0.0037389388307929,0.0012005409225821,-0.0412593558430671
1783206028111904500,6.341904541015625,0.0613841142347082,0.0125823633984662,-0.0556067364096641,-0.0041128462180495,0.0013467483222484,-0.0416953116655349
1783206028121842700,6.3518427734375,0.0817819645565468,0.0054898843868635,-0.061140405139327,-0.0031083254143595,-0.0012339977547526,-0.039334587752819
1783206028131781600,6.36178173828125,0.0688043273633346,-0.0039827312269248,-0.0665256053090095,-0.000870737247169,-0.0019290833733975,-0.0360679551959037
1783206028141719600,6.371719482421875,0.035940020223835,0.0022223704908974,-0.0798439365655183,0.0027192626148462,-0.00088223349303,-0.0370176173746585
1783206028151658500,6.381658447265625,0.0039157372551853,0.0026254348664544,-0.0600929419130086,-0.0010158205404877,0.0026350033003836,-0.0315093994140625
1783206028161596400,6.391596435546875,0.0089854965338367,-0.0013554149306379,-0.0536573559075593,-0.0013239216059446,0.0018441886641085,-0.0305291917175054
1783206028171535600,6.40153564453125,0.0171420222970889,-0.0072077850874979,-0.0508113188266754,-0.003224354237318,-2.69482843577e-05,-0.0294050704687833
1783206028181473800,6.411473876953125,0.0148519226155127,-0.0148289732814766,-0.0521557191729545,-0.0025268848985433,0.0023835399188101,-0.0306433904916048
1783206028191412700,6.421412841796875,0.0230818515416933,-0.0128635092942509,-0.0713081634104251,-0.0008538868278264,0.0005520838312804,-0.0295608155429363
1783206028201351700,6.4313515625,0.0250964382005389,-0.0077969192202202,-0.0698117873728275,0.0005100313574075,-0.0005354601889848,-0.0291016139090061
1783206028211289600,6.44128955078125,0.0287461905964533,-0.0013763207213487,-0.0612824439585208,-0.0015877410769462,0.0009923954494297,-0.0305655524134635
1783206028221228500,6.451228515625,0.0394904815303161,0.0058696135526057,-0.0635264234930276,-0.0013784160837531,0.0012778863310813,-0.0301919095218181
1783206028231166700,6.461166748046875,0.0272795155773754,0.0106866036465857,-0.065620180901885,-0.000772813335061,-8.4205530583e-06,-0.0272272787988185
1783206028241105700,6.471105712890625,0.0163742893276037,0.0109475835371762,-0.0618786562860012,0.0002183150500059,-0.0016655912622809,-0.0288444757461547
1783206028251043600,6.481043701171875,0.0217657731076003,0.0070668331136927,-0.0641232203423976,0.0001983409747481,0.0004111416637897,-0.0273163542151451
1783206028260982800,6.490982666015625,0.0147642169325961,0.0082238119959365,-0.0626268443048,0.0015827380120754,-0.0005335751920938,-0.0258729457855224
1783206028270920700,6.500920654296875,0.0073564340272801,-0.0008947751489467,-0.0650222150087356,0.0024304222315549,0.000233681872487,-0.0281922928988933
1783206028280859600,6.510859619140625,0.0087181531178299,-0.0090445903269108,-0.0612806903928518,-0.0023006154224276,0.00368247856386,-0.0268897879868745
1783206028290797800,6.5207978515625,0.0088186086844652,-0.0095491514487192,-0.0525999558091163,-0.0037339283153414,0.0021985652856528,-0.0279875434935092
1783206028300736800,6.53073681640625,0.0019385006317752,-0.0143825994871556,-0.0543926844447851,-0.002223677933216,0.004677555989474,-0.023278709501028
1783206028310674700,6.5406748046875,0.011115076458035,-0.000215770775685,-0.0696539664626121,-0.001878798007965,0.0018242453224956,-0.0261743664741516
1783206028320613600,6.550613525390625,0.0413478546337224,0.0308813965438399,-0.0705517920851707,-0.0014082733541727,-0.0013439157046377,-0.0254076439887285
1783206028330552600,6.560552490234375,0.0627453606845112,0.01853203818365,-0.0602262129038572,-4.2542815208e-06,-0.0022025187499821,-0.0250379964709281
1783206028340490500,6.570490478515625,0.0332849185881903,-0.0060507422731723,-0.0663607701361179,-0.0024698236957192,-0.0043079536408185,-0.0230666771531105
1783206028350429400,6.580429443359375,-0.0250241150331334,-0.0121698462079744,-0.0579798952817916,-0.0010567512363195,-0.0018365401774644,-0.0248227640986442
1783206028360367600,6.59036767578125,-0.0516309555133338,-0.0143028487818315,-0.0537871197670698,-0.002406551502645,-0.0017644581384956,-0.0231506377458572
1783206028370306800,6.600306884765625,-0.0443804409623844,-0.0152252791226841,-0.0624643472194671,-0.0009327586740255,0.0030124536715447,-0.0247751660645008
1783206028380244700,6.61024462890625,-0.020440239575284,-0.0089648122221231,-0.0694961455523967,-0.0026097958907485,0.0025865277275443,-0.0209387354552745
1783206028390183700,6.62018359375,0.0296676459730602,-0.0090494308988098,-0.0633604192763566,-0.0004547657445073,0.000601673964411,-0.0244221501052379
1783206028400121600,6.63012158203125,0.0860736247353255,-0.0017455010936129,-0.0512380198061466,0.0002644015476107,-0.0017804335802793,-0.0270681958645582
1783206028410060500,6.640060546875,0.106800844008848,0.0159083203502465,-0.0629097528994083,-0.0006802221760153,-0.0001228819601237,-0.0271102730184793
1783206028419998700,6.649998779296875,0.07157489262179,-0.0011519099814817,-0.0691957013010978,0.0016833906993269,-0.0005979645065963,-0.0253333412110805
1783206028429937700,6.659937744140625,0.0019105645953677,-0.0155028904876671,-0.0681499916404485,0.0013667410239577,-0.0004666703753173,-0.0239745955914258
1783206028439875600,6.66987548828125,-0.0434293781820917,-0.0187577275651507,-0.0542366171002388,0.0037581622600555,0.0008107381872832,-0.02604965493083
1783206028449814500,6.679814453125,-0.0388197243955917,-0.0054430039046797,-0.0412181455731391,-4.35002148151e-05,0.0028214245103299,-0.0241215266287326
1783206028459753700,6.689753662109375,-0.0131242631392669,0.0085412256483454,-0.0573778377354145,-0.0006581582129001,-0.0008124588057398,-0.0271423514932394
1783206028469691600,6.699691650390625,0.0170043856583768,0.0106388372484128,-0.0608200871437787,-4.05712053179e-05,0.0012275227345526,-0.0261300839483737
1783206028479630600,6.709630615234375,0.0556386293852701,0.0065330184979364,-0.0671054510235786,0.0017372975125908,5.3318217396e-06,-0.0276390314102172
1783206028489568800,6.71956884765625,0.0733900842510163,0.0078469780401792,-0.0639642303884029,-9.41585749387e-05,-0.0021550240926444,-0.0274864323437213
1783206028499507700,6.7295078125,0.0680130354217486,0.0072623739521019,-0.0603729278981685,-0.0021933726966381,-0.0007404433563351,-0.0302058607339859
1783206028509445600,6.739445556640625,0.0276239108515437,-0.0117481867298018,-0.0624678543508052,-0.0011648600921034,0.0016239108517765,-0.0268891602754592
1783206028519384600,6.749384521484375,-0.0060664330326486,-0.0075435655136592,-0.0503460394024848,-0.0053757252171635,0.0040498152375221,-0.0233226306736469
1783206028529322800,6.75932275390625,-0.0207960855419398,-0.0002901877187658,-0.0473515337616205,-0.0014054840430617,-0.0008168453350663,-0.0259170811623334
1783206028539261700,6.76926171875,-0.0157215153741417,-0.008882650364004,-0.0582744943141937,-9.94997099041e-05,0.001917275134474,-0.0278800018131732
1783206028549199600,6.77919970703125,-0.0007592254360439,-0.0097433953791856,-0.0492950690448284,-0.0010007135570049,-0.0005458821542561,-0.0277756042778491
1783206028559138600,6.789138671875,0.0267891428111237,-0.0140021122695878,-0.0498930349379777,-0.0012015011161565,-0.0005014678463339,-0.0254014432430267
1783206028569076500,6.799076416015625,0.0357481646132771,-0.003244955004286,-0.0724883131057023,-0.0005157375708222,-0.0015542153269052,-0.023358266800642
1783206028579015700,6.809015625,0.0515839563001412,-0.006419392922474,-0.0626104776918888,-0.0030785119161009,0.0004554660990834,-0.0237350575625896
1783206028588953900,6.818953857421875,0.0422383098005782,0.0108464795165695,-0.0504880782216787,-0.0015935329720377,0.0003755711950361,-0.0239060297608375
1783206028598892800,6.828892822265625,0.0289162248175591,0.0146127458480652,-0.0576695141583681,-0.0005976678803563,-0.0019950135610997,-0.0221100710332393
1783206028608831700,6.838831787109375,0.026383646733174,0.0143408335715066,-0.0531792170017957,0.0006470931693911,0.000125927850604,-0.0204288158565759
1783206028618769700,6.848769775390625,0.0102427117870072,0.0044243192482739,-0.0736819068044424,0.0028113350272178,0.0003697536885738,-0.0174926072359085
1783206028628708600,6.85870849609375,-0.0001628878130999,-0.0135747445698361,-0.0623112024843692,0.0022129230201244,-0.0008648876100778,-0.0194811895489692
1783206028638646500,6.868646484375,-0.008574013673095,-0.0201556664632633,-0.0600683919936418,0.0010859593749046,0.0005989205092191,-0.0206733141094446
1783206028648585500,6.87858544921875,-0.0006798357757346,-0.0077061630636919,-0.052287236598134,-0.0032888147979974,5.45703805983e-05,-0.019293263554573
1783206028658523600,6.888523681640625,0.0245663430619635,0.0157274290916975,-0.0468996983408927,-0.0002638818696141,-0.0006544706411659,-0.0177857726812362
1783206028668462800,6.898462890625,0.029758201200189,0.0033584801150485,-0.0732353320807218,-0.0011597694829106,0.00143105071038,-0.0191666223108768
1783206028678400800,6.90840087890625,0.0297249222683836,0.013304193133302,-0.0748807612001895,-0.0007281117141246,-0.0019543026573956,-0.0181476976722478
1783206028688339700,6.918339599609375,0.0169853772805188,0.0064045241469051,-0.0861047505259513,-0.0017888490110635,-0.0011356472969055,-0.0202734339982271
1783206028698277600,6.928277587890625,0.0125248290915274,0.0115795430314727,-0.0654553457289934,0.0044675562530756,0.0008550225757062,-0.0196224842220544
1783206028708216600,6.938216552734375,0.0185008164949016,0.0040714780894573,-0.0398684845298528,-0.0010718191042542,7.2852242738e-05,-0.020794540643692
1783206028718154800,6.94815478515625,0.0175448309443192,-0.0030992811895906,-0.0455535444289445,-0.0036795083433389,0.0018024905584752,-0.0195537488907575
1783206028728093700,6.95809375,0.0244328163427882,-0.00304829078787,-0.0618617051512002,-0.0001446949318051,0.0004898188635706,-0.0187239088118076
1783206028738031600,6.968031494140625,0.024729171224148,-0.0050348614952061,-0.0642559068113565,0.0006532743573188,0.0031049596145749,-0.0184760894626379
1783206028747970600,6.977970458984375,0.0311125475517474,0.0066488360304851,-0.0623094489187002,-0.0005555339157581,0.0013262345455586,-0.0163594093173742
1783206028757909500,6.987909423828125,0.0200681708429008,-0.0059308239542413,-0.0594663344472646,0.0006720656529068,0.0028502228669822,-0.0178106632083654
1783206028767847400,6.997847412109375,0.0158374310881015,0.0036052031514234,-0.0673977119684219,0.0004238588735461,0.0021138587035238,-0.0152332559227943
1783206028777786600,7.00778662109375,0.0116570252895413,0.0004748875027522,-0.0633569121450185,-0.0018728924915194,0.001511076465249,-0.0180379021912813
1783206028787724800,7.017724853515625,0.0178693376328621,0.000696119904844,-0.0663484951764345,-0.0008009700104594,0.001134505495429,-0.0157675575464963
1783206028797663700,7.027663818359375,0.0326280780976754,-0.0026898327390197,-0.0685924747109413,-0.0015029162168502,0.0006723413243889,-0.0153149645775556
1783206028807601200,7.03760107421875,0.0324564501411048,-0.002505735743232,-0.0627542700767517,-0.0014768168330192,-0.0022478145547211,-0.0147716794162988
1783206028817540000,7.0475400390625,0.0228894045593799,-0.0024419041262473,-0.0712812754034996,-0.004119892604649,-0.0016924832016229,-0.0134368315339088
1783206028827478300,7.057478271484375,0.0185439934829249,-0.002742622372182,-0.0636485885679721,-0.0011885520070791,-0.0016906191594898,-0.0149452462792396
1783206028837417200,7.067417236328125,0.0160154043037793,0.0153260086839552,-0.0636497576117515,0.0004551876336336,-0.0010645585134625,-0.0151062961667776
1783206028847355100,7.077355224609375,0.0030099221202937,0.0025798147595953,-0.0608060586184263,0.0004711663350462,0.0009844773449003,-0.0133810993283987
1783206028857294000,7.087294189453125,0.0025704255913311,0.0044471430014353,-0.0582616348326206,-0.0022511929273605,1.94748863577e-05,-0.0101868556812405
1783206028867232000,7.09723193359375,0.0022667895879363,0.0043702601066324,-0.0504787258714437,-0.00056301523,0.0006493125110864,-0.0120169799774885
1783206028877171000,7.1071708984375,0.0197856641070917,0.0107682266485877,-0.0597562573045492,-0.0026879934594035,0.0011876444332301,-0.0128445699810981
1783206028887109000,7.117109130859375,0.0307455271705286,0.0138475701618473,-0.0684334847569465,-0.0003808969631791,-0.0025996370241045,-0.0150286275893449
1783206028897048000,7.127048095703125,0.0357440706767607,0.0106285624495707,-0.0735211632847785,0.0012166947126388,-0.0030344543047249,-0.0118846921250224
1783206028906986000,7.136986083984375,0.0311832199014723,-0.0028504940602928,-0.0661900897443294,0.0005897870287299,-0.0023811808787286,-0.0114364819601178
1783206028916925200,7.14692529296875,0.0078894380755722,-0.0079639737496618,-0.055565819877386,-0.0016050022095441,0.0011303443461656,-0.0120191350579261
1783206028926863000,7.156863037109375,0.0079546419490245,-0.0010296535749919,-0.0573603020787239,0.0001319115981459,-0.0013991259038448,-0.0108060650527477
1783206028936802000,7.166802001953125,0.0036565086469752,-0.0067948295055888,-0.0549655158966779,-0.0021684952080249,0.0004029483534395,-0.0117726940661668
1783206028946741000,7.176740966796875,0.0163122432423289,-0.0091585172964725,-0.0561602786391973,-0.0023248232901096,1.38604082167e-05,-0.0140504948794841
1783206028956679200,7.18667919921875,0.027216556176648,3.41579979285e-05,-0.0733668495059013,-0.0038887728005647,-0.0008318610489368,-0.012983001768589
1783206028966618000,7.1966181640625,0.0289609384588315,-0.0054997847263701,-0.06857610809803,-0.0038576126098632,4.24548052251e-05,-0.0119419731199741
1783206028976556000,7.20655615234375,0.0275069242752157,-0.0109827279157936,-0.0542085600495338,-0.0049234479665756,-0.0024624764919281,-0.0139438975602388
1783206028986495000,7.216494873046875,0.0221342981760273,-0.0042726814836729,-0.0527098459243774,-0.0038877446204423,0.0020449236035346,-0.0153143601492047
1783206028996433000,7.226432861328125,0.0099238665126264,0.0060805072237737,-0.0515104070067405,-0.0003927806392312,4.8529356718e-05,-0.0147729162126779
1783206029006372000,7.2363720703125,0.0127184976332588,0.0100491642595734,-0.0579430704027414,-0.0024673826992511,0.000939090270549,-0.0134445317089557
1783206029016310300,7.246310302734375,0.0141124658924411,0.0069645691824611,-0.0537508794099092,-0.0064607337117195,0.0003770221956074,-0.0133772976696491
1783206029026249200,7.256249267578125,0.0159813307875301,0.0004656173509079,-0.0613806436359882,-0.0023376271128654,-0.0011942428536713,-0.0138452155515551
1783206029036187100,7.266187255859375,0.0189809783943928,-0.0241665186729747,-0.0579383942276239,-0.0020884005352854,-0.0011185118928551,-0.0156559720635414
1783206029046126000,7.2761259765625,0.0282470545684336,-0.0745474375925958,-0.0639227293342351,-0.0025067832320928,-0.0023153368383646,-0.0141632705926895
1783206029056064300,7.286064208984375,0.0423173344201175,-0.0040612763558514,-0.0567377862662076,-0.0037660673260688,0.0009807585738599,-0.0150636611506342
1783206029066003200,7.296003173828125,0.0436201286809518,0.0061809353909455,-0.0407248090982437,-0.0039146710187196,0.0003740903921425,-0.0134857380762696
1783206029075941000,7.305941162109375,0.0343451294149388,0.0246953100537415,-0.0609229629963636,-0.0032595507800579,0.0002317344769835,-0.0156525336205959
1783206029085880000,7.315880126953125,0.0167889242683013,0.0403336726224981,-0.0719943921089172,9.01734456419e-05,0.0017955424264073,-0.0110077150166034
1783206029095818000,7.32581787109375,0.0148087205113144,-0.0012770798642653,-0.0690039781212806,0.0034058289602398,-0.0039191883988678,-0.0105433072894811
1783206029105757000,7.3357568359375,0.0097765395969618,-0.0021519356031902,-0.0600286445051431,0.0024699941277503,-0.0017207483761012,-0.0111023057252168
1783206029115696000,7.345696044921875,-0.0025276164981885,0.0037114856706466,-0.0532972904235124,0.0030210735276341,0.0003670561127364,-0.0095752486959099
1783206029125634300,7.35563427734375,0.006513665343495,0.0090545637316536,-0.0450683912605047,-0.0003787176683545,0.0009835776872932,-0.0084244962781667
1783206029135573200,7.3655732421875,0.0363971916900947,0.020264734594617,-0.0586836596369743,-0.0031668823212385,0.0015915627591311,-0.0116710811853408
1783206029145511200,7.37551123046875,-0.018483519441873,0.0525925305544864,-0.0247182616710662,0.0050079561769962,0.0351002551615238,-0.0150604862719774
1783206029155450000,7.3854501953125,-0.0741917012237943,-0.006758342553256,0.1555944663375616,-0.0122697325423359,0.0329514630138874,-0.0127707757055759
1783206029165388000,7.395387939453125,0.0267543454923783,-0.0542291644461452,-0.1085024602949619,-0.0193715840578079,0.0044239475391805,-0.0105270622298121
1783206029175327000,7.405326904296875,0.1105327788124792,-0.0231804941771551,-0.3444733626395463,0.0025693904608488,-0.0142797185108065,-0.009364204481244
1783206029185265200,7.41526513671875,0.1064442217240575,-0.0214405551746487,-0.193346981626749,0.0212988704442977,-0.0404258370399475,-0.0109613016247749
1783206029195204000,7.4252041015625,0.0564050700133899,-0.0295720675109419,-0.03489420324862,0.0112427789717912,-0.013321136124432,-0.0085945036262273
1783206029205142000,7.43514208984375,0.0016423626628355,-0.0087123626978602,0.0462076244235038,-0.0059937322512269,-0.0011941660195589,-0.0084275230765342
1783206029215081200,7.445081298828125,0.0092775531243474,-0.0006328819429036,0.0269143104106187,-0.0156937092542648,0.0061497646383941,-0.0076789571903645
1783206029225019100,7.45501904296875,-0.0092502130262728,0.011080754063325,-0.0383200860440731,-0.0046716835349798,0.0050956853665411,-0.0104984454810619
1783206029234958000,7.4649580078125,-0.0403884532833471,0.0101097353403922,-0.1266051032185554,6.31501898169e-05,-0.0067894696258008,-0.0084520727396011
1783206029244896300,7.474896240234375,-0.0287348403686657,0.008267130547855,-0.0812660783231258,-0.0003038328140974,0.0055367047898471,-0.0064344620332121
1783206029254835200,7.484835205078125,0.0120320337560377,0.0028386940246447,-0.0070446578145027,-0.0056182965636253,0.0052232220768928,-0.0077825784683227
1783206029264773000,7.494773193359375,0.0336690956001868,0.0179808705742936,-0.0267938989013433,-0.005438532680273,0.011317066848278,-0.010218571871519
1783206029274712000,7.504712158203125,0.0148614644787041,0.026297493686527,-0.0383159943908453,0.0031566806137561,0.012221866287291,-0.0121603552252054
1783206029284650000,7.51464990234375,-0.0232384166431613,0.0296516994852572,-0.0297907426297664,0.0031596096232533,0.0213850047439336,-0.0140613196417689
1783206029294589000,7.5245888671875,-0.0293931627135025,-0.0708327461847104,-0.0028577275186777,-0.0069031808525323,0.0256588701158761,-0.0132832154631614
1783206029304527000,7.534527099609375,0.0237140484980074,0.0103655458655208,-0.0624099866837263,-0.0051548145711421,0.0143391033634543,-0.0088051110506057
1783206029314466000,7.544466064453125,0.0411413083441089,-0.0211971566065214,-0.129744570288062,-0.0031195916235446,0.0052856630645692,-0.0086527056992053
1783206029324404000,7.554404052734375,0.0770087496722117,0.0217568728485144,-0.153836809015274,0.0059780334122478,-0.0107492301613092,-0.0052156304009258
1783206029334343200,7.56434326171875,0.1015879773319233,0.0123115744999144,-0.1346872873872518,0.0087443981319665,-0.0187862403690814,-0.0086774006485939
1783206029344282000,7.5742822265625,0.1032713273089844,-0.0251909846161957,-0.0684013360530138,0.003335784189403,-0.0175262987613677,-0.0073452875949442
1783206029354220000,7.584219970703125,0.0697646922615123,-0.0165969419352244,-0.0080979662597179,0.0002954863011837,-0.0067832553759217,-0.005682579241693
1783206029364159200,7.5941591796875,0.0503120138352969,-0.0195229306508321,0.0014805939465761,-0.0020206654444336,0.004353018477559,-0.0063473042100667
1783206029374097200,7.60409716796875,0.0154172705889155,-0.0105619817530736,-0.044157706156373,-0.0031909048557281,0.003561892081052,-0.0066006183624267
1783206029384036000,7.6140361328125,-0.0274980559821706,0.0012249204187653,-0.0585229161173105,0.0032142642885446,0.0072801974602043,-0.0008945294539444
1783206029393974000,7.62397412109375,-0.0582679686752846,-0.0104433329426217,-0.0323404271125793,0.0049711819738149,0.0067168995738029,-0.0011706029763445
1783206029403913000,7.633912841796875,-0.0648628871280234,-0.0245275340050924,-0.0429693731546401,0.004549603909254,0.0109401401132345,-0.0006635370664298
1783206029413851100,7.64385107421875,-0.0299850162429851,-0.0198874531142879,-0.0540472320079803,0.002654836513102,0.0110641028732061,0.0001566926948726
1783206029423790300,7.653790283203125,0.0251676905055763,-0.0086209215547423,-0.07260463296175,-0.0003353608772158,0.0034879422746598,-0.0015240282518789
1783206029433728300,7.663728271484375,0.0461923994549084,0.0217616220888681,-0.0866711522370576,0.0019297618418931,0.0024477986153215,-0.0032387659884989
1783206029443667200,7.673667236328125,0.042509322461416,0.0196523200510069,-0.0941530324250459,-0.0010172920301556,-0.0055941483005881,7.63367861509e-05
1783206029453605000,7.683605224609375,0.0223242129912483,0.0277522042731754,-0.0884673880040645,0.0050374045968055,-0.0074551654979586,-0.0029692542739212
1783206029463544000,7.6935439453125,0.0028812853491341,0.0111483120073564,-0.0790431415766477,0.0038831904530525,-0.0060527455061674,-0.00441002426669
1783206029473482200,7.703482177734375,0.0001901454273727,-0.0027119075735099,-0.0576455487608909,0.0004142615944147,-0.0036377036012709,-0.0032381603959947
1783206029483421200,7.713421142578125,-0.0021249220153898,-0.0031899003488011,-0.0438800582587718,0.0005602026358246,-0.000666947569698,-0.0013212170451879
1783206029493359000,7.723359130859375,0.011875596518733,-0.0162124817954376,-0.0337000250279903,-0.0117481537163257,0.0092175900936126,2.39468645304e-05
1783206029503298000,7.733298095703125,0.0423797275652643,-0.0034474735727533,-0.0154325469315052,-0.0251230802386999,0.0148272719234228,0.0008055847138166
1783206029513236000,7.743236083984375,0.0537349511884152,-0.0135015149368438,-0.0076285951822996,-0.0398451015353202,0.0242549404501914,0.0101631078869104
1783206029523175000,7.7531748046875,0.0440671691955532,-0.0254625909320777,0.0048176294147968,-0.0447373241186142,0.0301088355481624,0.0075566717423498
1783206029533113000,7.763113037109375,0.0095213957921136,-0.0179514389838324,-0.047083822736144,-0.0336139239370822,0.0273983888328075,0.0083555001765489
1783206029543052300,7.77305224609375,0.0034649041981669,0.0025635531779611,-0.1178501343548297,-0.018426451832056,0.0180959664285182,0.0096007939428091
1783206029552990200,7.782990234375,0.0140353112862911,0.0230162480927305,-0.1256254445314407,-0.0102861793711781,0.0107285808771848,0.0106019508093595
1783206029562929200,7.79292919921875,0.0179854211685364,0.0159116402519168,-0.0721989747703075,-0.0130465449765324,0.0077511672861874,0.010563600808382
1783206029572867000,7.8028671875,0.0266876346484292,0.0158380863919388,-0.0470516740322113,-0.020654909312725,0.0124007230624556,0.0095867058262228
1783206029582806000,7.812805908203125,0.0291888951459433,0.002388854198181,-0.0433019661098718,-0.0189598090946674,0.0131413480266928,0.0067861257120966
