time,seconds_elapsed,ax,ay,az,gx,gy,gz
1783206708502887400,0.100887451171875,0.0066132075946778,0.0013929887283593,-0.0537590627163648,-0.0044828942045569,0.0092312674969434,-0.0015521236928179
1783206708512823600,0.110823486328125,0.0087988810706883,0.0228355166643857,-0.0811485894232988,0.0024736765772104,-0.0113935805857181,-0.0005069917533546
1783206708522760400,0.120760498046875,-0.0002418093992397,0.0281780467361211,-0.0844201584398746,-0.0026334663853049,0.0005925078876316,-0.0006859560962766
1783206708532697300,0.130697265625,-0.0051394817803055,0.0289394595626741,-0.0184188692659139,-0.0083129853010177,0.0051069655455648,-0.0007834807038307
1783206708542634500,0.140634521484375,0.0093408789929002,0.0202719497866928,-0.0487637386471033,-0.0008172523230314,0.0018762848339974,0.0008367863483726
1783206708552571600,0.150571533203125,0.0247764581317082,0.0016813772156834,-0.071978025496006,0.0044570052996277,0.00233780965209,0.0002683931961655
1783206708562507300,0.16050732421875,0.0342522886158898,-0.0164141783799976,-0.0431195952802896,0.0003874292597174,-0.0014308295212686,0.0024849420879036
1783206708572444400,0.1704443359375,0.0269760505352169,0.0048365533109754,-0.0482002595454454,-0.0037789931520819,0.0037980820052325,0.0046211499720811
1783206708582381600,0.180381591796875,-0.0007530833896249,0.0238962046984583,-0.0363677829325199,-0.0006625624373555,0.0003370377235114,0.0013372059911489
1783206708592318500,0.190318359375,-0.0168833302617073,0.0275245512634515,-0.0737725076973438,-0.0001739654690027,-0.0040545756928622,-0.0005366804543882
1783206708602254300,0.20025439453125,-0.0195987267002463,0.0433959280036389,-0.0668909314900636,-0.0003784960135817,0.0028233039192855,0.0008276568260043
1783206708612191500,0.21019140625,0.0146322999319061,-0.0012988076388835,-0.0553624062597751,-0.001401831395924,-0.0015264488756656,-0.0004643572028726
1783206708622128400,0.22012841796875,0.0214262343883514,-0.0167035897806286,-0.0324555779248476,-0.0025778831914067,0.0034728369209915,0.0003452436067163
1783206708632065500,0.2300654296875,0.0234686269361525,-0.0177840054284781,-0.0456231025338172,0.0027783820405602,-0.0007860115729272,0.0006423485465347
1783206708642001400,0.24000146484375,0.0228569978438317,-0.00493519137986,-0.0505664041548967,0.0004547741264104,-0.0006714956834912,1.1978438124e-05
1783206708651938600,0.2499384765625,0.0221131937392056,0.0178933110218495,-0.0468202033638954,-0.0015314575284719,-0.0012754439376294,0.0004631867632269
1783206708661875500,0.25987548828125,0.0300423793032765,0.0030558073740452,-0.0477045849829912,-0.0022387932986021,0.0001645274460315,0.0001558579970151
1783206708671812600,0.2698125,0.017536533473432,0.0053466217249631,-0.0547270309656858,0.0006097583100199,0.0005721910856664,0.0007577405776828
1783206708681748500,0.27974853515625,0.0251447434548288,-0.004192848579958,-0.0436515101999044,-0.0006166277453303,-0.0013087992556393,-0.0014489546883851
1783206708691685400,0.289685302734375,0.0013187544483691,0.0032846476938575,-0.0578501314222812,-0.0032328143715858,-0.0007995339110493,0.0019030240364372
1783206708701622500,0.29962255859375,-0.0051191696446388,0.0182849406879395,-0.0525929415464401,-0.0016445042565464,0.0007027550600469,0.0025307312607765
1783206708711559400,0.309559326171875,0.0165736067254096,0.0221269300036132,-0.0618617051512002,-0.0014857733622193,0.0016953200101852,0.001221939921379
1783206708721495300,0.319495361328125,0.0189479711739346,0.0237771083634346,-0.0531722027391195,-0.0016069477424025,0.0004462976939976,0.0006853127852082
1783206708731432400,0.329432373046875,0.0105608492419123,0.0303827902387827,-0.0609323153465986,-0.0012076674029231,0.0004364936612546,0.001892187166959
1783206708741369600,0.33936962890625,0.0120410413296893,0.0419758320726454,-0.0737543875187635,-0.007306040264666,-0.0002844240516424,0.003977708518505
1783206708751306500,0.349306396484375,0.0137786787772551,0.0238651519730687,-0.064133741736412,-0.0069270227104425,0.0011445707641541,0.00329604675062
1783206708761242400,0.359242431640625,0.0241480971002951,0.0210146579127758,-0.0574959111571311,-0.0095377191901206,0.0013142139650881,0.0038308093789964
1783206708771179500,0.369179443359375,0.0446724507454782,-0.0095199618868529,-0.0527747278541326,-0.0092375800013542,0.0012220689095556,0.0004965318366885
1783206708781116400,0.379116455078125,0.0495410796951502,-0.0094075875535607,-0.0389507851630449,-0.0074924118816852,0.0008854451589286,0.0033847300801426
1783206708791053600,0.389053466796875,0.0221997395114973,-0.021497838319838,-0.0344219095617532,-0.0020145419985055,0.0023368771653622,0.0009341274853795
1783206708800989400,0.398989501953125,0.0011684592574834,0.0006654781714081,-0.0468073438823223,-0.00604709982872,0.0027430092450231,0.0043187392875552
1783206708810926300,0.40892626953125,0.014594123345986,-0.0024340952791273,-0.0596527969300746,-0.0033854823559522,0.0015910509973764,0.0032437541522085
1783206708820863500,0.418863525390625,0.0247435787754133,-0.0128496177662163,-0.0368903455018997,-0.0024419240653514,-0.0027664131484925,0.000902569387108
1783206708830800600,0.428800537109375,0.0036469416676089,0.008418576516211,-0.0406102428078651,-0.0038062511011958,2.7501955628e-06,-0.0016122161177918
1783206708840737500,0.438737548828125,-0.0168218093328177,0.0085539663989096,-0.0598942044705152,-0.0038443347439169,0.000678926706314,0.0013649316970258
1783206708850673400,0.44867333984375,-0.0115925669098272,0.0190810595016926,-0.0562964722394943,-0.001266130246222,0.003187088528648,0.0008246912620961
1783206708860610600,0.458610595703125,0.01379285343308,-0.0010841419748961,-0.0402905093342065,0.0008633332327008,-0.000386341009289,0.0001373293343931
1783206708870547500,0.46854736328125,0.0257462895445525,-0.0069843789946287,-0.0555669889211654,0.0007443856447935,0.0026944680139422,-0.001596417161636
1783206708880484600,0.478484619140625,0.0253301830243319,0.0155408296115696,-0.0531722027391195,-0.0022316966205835,-0.0004208977334201,0.0001647314056754
1783206708890420500,0.48842041015625,0.0273472219351679,0.0197092744026333,-0.0476373649656772,-0.002223290503025,-0.0010864986106753,-0.0001695074606686
1783206708900357400,0.498357421875,0.0079522741787135,0.0251898977708071,-0.0485170704096555,-0.0024712309241294,-0.0012068734504282,-0.0002278306055814
1783206708910294500,0.50829443359375,0.0066579600518569,0.0047013826239854,-0.0525444262295961,-0.0015403749421238,0.0011059576645493,2.3259781301e-06
1783206708920231700,0.518231689453125,0.017817250110954,0.0046603930264711,-0.0425181222558021,0.0008412897586822,0.0026684342883527,-0.0004831682890653
1783206708930167600,0.52816748046875,0.0286322933096438,0.0049932051774114,-0.0501455483943223,-0.0019355993717908,0.0002552522346377,0.0008066196460276
1783206708940104400,0.5381044921875,0.021139124542661,0.0158675042826682,-0.0549240148425102,-0.0001246500760316,5.68465329706e-05,0.0005056823138147
1783206708950041600,0.54804150390625,0.0128348585885018,0.0210798321034759,-0.0508785388439893,-0.0014619268476963,0.0006874985992908,-0.0006179367192089
1783206708959978500,0.557978515625,0.0090445994600653,0.0198656340081244,-0.0546206479817628,0.000295759178698,0.0018635508604347,0.0008766292594373
1783206708969915400,0.567915283203125,0.0170466310646384,0.0188869982343167,-0.0493804092407226,0.0008862521499395,-0.0002998658455908,-0.0001919250935316
1783206708979851500,0.5778515625,0.0183085042266175,0.0172910342797637,-0.0541699816048145,0.0009610867127776,-0.0020535574294626,0.0009540333412587
1783206708989788400,0.587788330078125,0.0117964554514735,0.0110302203193306,-0.0564133766174316,-0.0006754146888852,-0.0014122612774372,-0.0021614450961351
1783206708999725600,0.5977255859375,0.0171803039142861,0.0112099608004093,-0.0528302574336528,0.0006652204319834,0.0006008222699165,0.0005432611797004
1783206709009662500,0.607662353515625,0.0192700062025338,0.0122393769133836,-0.0580669890433549,-0.0003187749534845,0.0002027987502515,0.0010464612860232
1783206709019598600,0.6175986328125,0.0016891586633399,0.0074934975605458,-0.0538654457002878,0.0005483506247401,-0.0010086731053888,-0.0029085993301123
1783206709029535500,0.627535400390625,-0.0045948900422081,0.0127628162655979,-0.046535541203618,-0.0004039304330945,0.0016044676303863,-0.0029314255807548
1783206709039472600,0.63747265625,0.0130097767639905,0.0115142044439911,-0.0579179359614849,0.0008408306166529,-0.0016784109175205,0.0021650658454746
1783206709049409300,0.6474091796875,0.0265164336668327,0.0196909350283443,-0.0519447067707777,0.0001914165914058,0.0016711298376321,0.0014034183695912
1783206709059345400,0.657345458984375,0.0164210465122014,0.0266338860340416,-0.0512035330146551,0.0020303288474678,0.0016460963524878,0.0004763721954077
1783206709069282600,0.667282470703125,0.0202103923251852,0.0272449306044727,-0.0473123707950115,0.0001196889206767,-0.0011311084963381,-0.0024227136746048
1783206709079219500,0.677219482421875,0.0183635588821023,0.0237852916698902,-0.042661914640665,0.0018752450123429,-0.0037372782826423,0.000574407633394
1783206709089156400,0.68715625,0.0275358398424461,0.014193506655842,-0.0691559538125991,0.0021929051727056,0.0005744346417486,0.0001665679737925
1783206709099093500,0.697093505859375,0.0185792474593967,0.0108464612502604,-0.0558446368187665,0.0018791845068335,-0.0008833794854581,-0.0042484207078814
1783206709109029600,0.707029541015625,0.0070137877522036,-0.0021323358535766,-0.051349078965187,0.0008685514330863,0.0011666570790112,-0.0017791844438761
1783206709118966500,0.716966552734375,0.0119715928226709,-0.0016772124972194,-0.04746434648633,-0.0013714339584112,0.0028156863991171,0.0021705494727939
1783206709128903400,0.7269033203125,0.0102324940703809,0.0005534691642969,-0.0597258621662855,-0.0028472142294049,0.0010821721516549,-0.0009020476136356
1783206709138840300,0.73684033203125,0.0072878189206123,0.0178501294672489,-0.0564332503616809,0.0006292769685387,0.0017511583864688,-0.0018916783155873
1783206709148776400,0.7467763671875,0.0258001020910218,0.0107370095264166,-0.0512029484927654,0.0012003201991319,-0.0007347874343395,0.0008191508240997
1783206709158713600,0.756713623046875,0.030818514774926,0.0032173546113073,-0.0561287144571542,0.0002977754920721,-0.0015193545259535,-0.001122826244682
1783206709168650500,0.766650390625,0.021747356101498,0.0117669370960444,-0.0589706598848104,-0.0007724296301603,-0.0017598452977836,0.0013402516487985
1783206709178587400,0.77658740234375,0.0240295122219249,0.0198476599600166,-0.0646551352620124,0.0006289258599281,-0.0016684988513588,-0.0003141041379421
1783206709188524500,0.786524658203125,0.0046782209441065,0.0126476654533296,-0.0453466236799955,-0.002166423946619,0.0004258304834365,0.0009998709429055
1783206709198460700,0.796460693359375,-0.0047212563682347,0.0109204032693058,-0.0549222612768411,0.0011084657162427,-0.0005395654588937,0.0003375429660081
1783206709208397300,0.806397216796875,0.0069497826052829,0.0158119016379117,-0.0586713846772909,-0.0009707249701023,0.000867168419063,0.0005661970935761
1783206709218334500,0.81633447265625,0.0187379086198285,0.0142646721959114,-0.0588180996716022,-0.0005294391885399,-0.0029094601050019,0.0014016306959092
1783206709228271400,0.826271240234375,0.0150110335838049,0.0045375703644007,-0.0492407085090875,0.0008436143398284,0.0006233528256416,-0.0007767416536808
1783206709238208500,0.83620849609375,0.006135032156296,0.0088477617137134,-0.0525444262295961,-0.0014887824654579,0.0015149791724979,-0.0004417160525918
1783206709248144400,0.846144287109375,0.0090163962788879,0.0027662498429417,-0.0520861610680818,-0.0003245454281568,-0.0040478124283254,-0.0007027348037809
1783206709258081500,0.85608154296875,0.020688933089748,0.0059985097624361,-0.0534223781079053,-0.0001445151865482,-0.0011066175065934,-0.0012641290668398
1783206709268018400,0.866018310546875,0.0224479786515235,-0.0026741876453161,-0.0505745874613523,-0.0001661404967308,-0.002955509815365,0.002366809407249
1783206709277955600,0.87595556640625,0.0096595164880156,-0.009134615831077,-0.0525146156132221,0.0006080409511923,0.0019273962825536,-0.0006548131350427
1783206709287891500,0.885891357421875,0.0009890841025859,0.0124150257412344,-0.0532686488509178,0.0006263861432671,0.000868605915457,-0.0004579359665513
1783206709297828400,0.895828369140625,0.007247158116661,0.0051831017263233,-0.0508721091032028,-0.0006380835548043,-0.0007455362938344,0.0011141281574964
1783206709307765500,0.905765625,0.0242780801555141,0.0006694236941635,-0.04862053078413,-0.0009732628241181,-0.0036829300224781,0.0020801839418709
1783206709317702700,0.91570263671875,0.0257025965332984,0.0029568770442157,-0.048609424868226,0.0003822864964604,-0.0006583775393664,-0.0030799570959061
1783206709327639600,0.9256396484375,0.0176496749917045,0.0042404871139675,-0.0466582908004522,-0.0008654566481709,-0.0009372532367706,-0.0014773396542295
1783206709337575400,0.935575439453125,0.0158726188492029,0.0100546532854437,-0.0511386510848999,0.0002525383606553,-0.0020421990193426,-2.75147613137e-05
1783206709347512600,0.9455126953125,0.0225556768096983,0.0056258039925247,-0.0602729746550321,-0.0007930090650916,0.0018768305890262,0.0007904020603746
1783206709357449500,0.955449462890625,0.0242747191546484,-0.0055121875502169,-0.0502396564185619,-0.0008824914693832,0.0003630896098911,-0.0003576865419745
1783206709367386600,0.96538671875,0.0132076374236494,-0.0120100251369178,-0.0517360324561595,0.0036298185586929,-0.002195933368057,9.88703686743e-05
1783206709377322500,0.975322509765625,0.0232311649184674,-0.0115471568655222,-0.0457452676087617,-0.0031476598232984,-0.0004893797449767,0.003449659794569
1783206709387259400,0.98525927734375,0.0186315621685236,0.0035335809536278,-0.0484235469073057,-0.0018622623756527,0.0016082203947007,0.0001260603312402
1783206709397196500,0.995196533203125,0.0110002635724842,0.0196543293450027,-0.0508206711769104,0.0010773353278636,0.0001892885193228,-0.0005115002859383
1783206709407133700,1.0051337890625,0.0222428114682435,0.0216454300969839,-0.0622018968909978,-0.0014358945190906,-0.0008527631871402,0.0007177211809903
1783206709417070300,1.0150703125,0.0282497602654621,0.0236260825201869,-0.0533697711378335,-0.001373310573399,0.0021262485533952,0.0005017386283725
1783206709427006500,1.02500634765625,0.0214019767299294,0.0242975520409643,-0.0556184268474578,0.0006328439339995,-0.0009777275845408,-0.001674972125329
1783206709436943600,1.034943603515625,0.0159895232271403,0.0149820266850292,-0.0482896913945674,0.000424850732088,0.00097277155146,-0.001167107373476
1783206709446880500,1.044880615234375,0.0154102620344609,0.0069854749731719,-0.0494926374435424,0.001749881543219,0.0002801939845085,0.0004627108573913
1783206709456817400,1.0548173828125,0.002912599511072,0.0164897278342396,-0.0454611899703741,-0.0005092779174447,0.0004029655829071,0.003208962501958
1783206709466754600,1.064754638671875,0.0161610438691452,0.012616247401759,-0.0566881019055843,-0.0006399285048246,-0.0002685473300516,0.0013201362453401
1783206709476690400,1.0746904296875,0.0388075042348355,0.0150811762105673,-0.060133273923397,0.0007798029109835,0.0007112296298146,-0.0017225253395736
1783206709486627600,1.084627685546875,0.0369260378697887,0.0148516783036291,-0.0562514640539884,0.0001810798421502,0.0010069012641906,0.0007916549220681
1783206709496565000,1.09456494140625,0.025536080859974,0.0225000741649419,-0.0567085601717233,-0.0005329139530658,0.0021997310686856,-0.0009585744701325
1783206709506502000,1.104501953125,0.0217057089168578,0.0154185184061527,-0.0520639492362737,-0.0010563060641288,-0.0007447525858879,-0.0015901543665677
1783206709516439000,1.11443896484375,0.0160267864976078,0.0089168083619326,-0.0456236870557069,-0.0002653477713465,0.0010054768063127,-0.0004756215494126
1783206709526375000,1.124375,-1.7170330509e-06,0.0103495445787906,-0.0457692330062389,2.49715521931e-05,-0.0008955961093306,-0.0012721291277557
1783206709536311800,1.134311767578125,-0.005166369787231,-0.0013612053506076,-0.043219548523426,0.0014204671606421,-0.0007840096950531,0.0019428390078246
1783206709546249000,1.1442490234375,0.0086342285608872,0.0051946460336446,-0.0358837988078594,-0.0003585321828722,-0.0021229474805295,0.0006181842181831
1783206709556185900,1.154185791015625,0.0140911422599107,0.0083456574104726,-0.0501034628182649,2.86912545561e-05,0.0006933459080755,-0.0002577293198555
1783206709566122800,1.164122802734375,0.0237299082208424,0.0103757019333541,-0.0454693732768297,-0.0018281210213899,0.0030546856578439,0.0014365268871188
1783206709576059000,1.174058837890625,0.0098111268531531,0.0186378457788378,-0.0556418077230453,0.0011535538360476,-0.0012476509436964,0.0016509112901985
1783206709585996000,1.18399609375,0.0156772424075752,0.0162682671032845,-0.0608913988143205,0.0029343552887439,0.0006756377406418,-0.0006896457634866
1783206709595933000,1.193932861328125,0.0117116632448509,0.0113490770101547,-0.0538742135286331,0.0019899988546967,-3.27629968523e-05,0.000111433211714
1783206709605869800,1.203869873046875,0.0122929337315261,0.0053734366666525,-0.0471422749251127,1.48322433233e-05,-0.0008896249346435,0.0002346183173358
1783206709615806700,1.213806640625,0.0031911972567439,0.0108778793018311,-0.0484855062276124,0.0002960618585348,0.0021618250757455,0.0017379729542881
1783206709625742800,1.223742919921875,0.0118602414026856,0.0097967330016195,-0.0519312627673149,0.0005472162738442,0.0001559383235871,-0.0019368997309356
1783206709635680000,1.233679931640625,0.0181039946304634,0.0087259619649499,-0.0508837995409965,-0.000342546030879,0.0009468970820307,0.000492169521749
1783206709645617000,1.243616943359375,0.002556662212871,0.023117037019506,-0.0489572153925895,0.0040195966139435,-0.0013919444754719,0.0014753558207303
1783206709655553800,1.2535537109375,0.0079669602911919,0.0077218264237046,-0.0411883349567651,0.001391589641571,0.0020781545899808,0.0025131900329142
1783206709665491000,1.263490966796875,0.0166070706035941,0.0143638217214494,-0.0540694438397884,0.0003858469426631,0.0014242348261177,-0.0009018359705805
1783206709675427000,1.273427001953125,0.0195602943859994,0.0085384035035967,-0.0546703323423862,-0.0007579810917377,-0.0038887714035809,0.0009352127090096
1783206709685363700,1.28336376953125,0.0144409786108881,0.0095483842637389,-0.0504787258714437,0.0006452063098549,0.0022273338399827,0.001377142034471
1783206709695300900,1.29330078125,0.0159377199746668,0.0155831343833357,-0.0419482134133577,-0.0003060745075345,1.9040890038e-05,0.0003920386079698
1783206709705237800,1.30323779296875,0.016410159792006,0.0007724456772208,-0.0421031117141246,-0.0007361378520727,0.0009850566275417,-0.0006243872921913
1783206709715175000,1.3131748046875,0.0294247223289683,-0.0020649697057902,-0.0530155508726835,-0.0006013819947838,-0.0005878065712749,-7.5776129961e-05
1783206709725110800,1.32311083984375,0.0197310843756422,8.75321529805e-05,-0.0474772059679031,0.0006690016016364,0.0014892779290676,0.0003910770174115
1783206709735048000,1.3330478515625,0.0154767513994127,0.0067225862532854,-0.0534691398590803,0.0017792731523513,0.0006320062093436,-0.0013871155679225
1783206709744984800,1.34298486328125,0.0245374982766807,0.0020819208405911,-0.0489829343557357,-0.0020584538578987,0.0015800627879798,0.0001085938420146
1783206709754922000,1.352921875,0.0278139626640826,-0.0002251139927655,-0.0416466001182794,-0.0011519137769937,-0.0011808364652097,0.0007336379494518
1783206709764859000,1.36285888671875,0.0112803956881165,0.0069797028195112,-0.0558604189097881,-0.001886055804789,-0.0012584570795297,0.0045913294889032
1783206709774794800,1.372794677734375,0.0130864587293937,0.0055498161468654,-0.0528606525719165,-0.000217318534851,-0.0008235624991357,0.0005579718854278
1783206709784732000,1.38273193359375,0.0180853995278477,0.0079688599873334,-0.0561520953327417,-0.0004944130778312,7.8217126429e-06,-0.0004657325334846
1783206709794668800,1.392668701171875,0.0157564085910096,0.0053130117163062,-0.0518131893455982,0.0009942939504981,-0.0001309285871684,-0.0011797260958701
1783206709804606000,1.40260595703125,0.0283770033743232,0.0047247634995728,-0.045526656422019,0.0008445996791124,-0.0001066192053258,0.0019670266192406
1783206709814542800,1.41254296875,0.0221670062856748,0.024143895849213,-0.0527098459243774,0.000960181467235,-0.0029135909862816,0.0022916661109775
1783206709824479000,1.42247900390625,0.0226203030111268,0.0113900666076689,-0.0447761303156614,-0.0007169675081968,0.0004846053197979,0.0003759325481951
1783206709834415900,1.432415771484375,0.0216985850563272,0.0160882343612611,-0.0414957934707403,0.0017073079943656,0.0003130976110696,0.001069685909897
1783206709844353000,1.44235302734375,0.0173716983005404,-0.0005273118097335,-0.0365571680247783,3.1316652894e-05,-6.49383291602e-05,0.0019906696397811
1783206709854289700,1.45228955078125,0.0144858041333034,0.0044788259144872,-0.0440285268187522,0.0010068323463201,-0.0026474050246179,-0.0009380085393786
1783206709864226800,1.462226806640625,0.0155043700587004,0.0095930271230638,-0.0471563034504651,-0.0032619778066873,-0.001691750716418,-0.0019033628050237
1783206709874163000,1.472162841796875,0.0178984986536204,0.019935849700123,-0.0519341853767633,0.0023176111280918,-0.0004150308668613,-0.0016788583016023
1783206709884099800,1.482099853515625,0.0207117659760639,0.0116804278563708,-0.0556745409488677,-0.0011591557413339,-0.0001644967123866,0.0004387737717479
1783206709894036700,1.49203662109375,0.0220396535789594,0.0146997026123106,-0.0561146859318017,-0.0012007011100649,0.0028195751365274,0.000278984196484
1783206709903974000,1.501973876953125,0.0061577919773757,0.0102687344275414,-0.0532721559822559,-0.002295290119946,0.0026491740718483,-0.0009418106637895
1783206709913910800,1.511910888671875,0.0077521484967321,0.0141825468704104,-0.052522214397788,-0.0001423908397555,-0.000443288590759,0.0004755237605422
1783206709923847000,1.521846923828125,0.0149802731193602,0.0124366530511528,-0.0523807601004838,0.0008016424253582,6.22714869678e-05,0.00077182543464
1783206709933783800,1.53178369140625,0.0141714409545063,-0.0034705256547778,-0.054019759479165,-0.000524079427123,-0.0015886221081018,-0.0022143772803246
1783206709943720700,1.541720703125,0.013373166716285,0.0098820001322776,-0.0517734418570995,0.0008030328899621,-0.0022106040269136,-0.0006809660699218
1783206709953657900,1.551657958984375,0.0131160866826772,0.0052544864621013,-0.048618777218461,-0.0024934280663728,-0.0003061774186789,0.000829046126455
1783206709963595000,1.561594970703125,0.0148136113155633,0.0150417209830135,-0.0475514402478933,-0.0012957314029335,-0.0016295430250465,-0.0001066813711076
1783206709973531000,1.57153076171875,0.015367007414624,0.020721520185098,-0.0426145683676004,-0.000497848726809,0.0028152728918939,-0.0002209309022873
1783206709983467800,1.5814677734375,0.0106736984992399,0.0234041833978146,-0.0466565372347831,0.0005934378132224,0.0006597996689379,-0.0003486236091703
1783206709993405000,1.591405029296875,0.0145167472608387,0.0220291687175631,-0.0527975242078304,-0.0008244290947914,0.0028340043500065,-0.0006943019106984
1783206710003341800,1.601341796875,0.0117312447281554,0.0272173850104212,-0.0547428130567073,0.0003989655524492,-0.0002804077230393,-0.0013578693615272
1783206710013279000,1.611279052734375,0.019248598088324,0.0145114865638315,-0.0435194082528352,0.000533721409738,-0.0019273068755865,-0.003233533585444
1783206710023215900,1.6212158203125,0.018484737576358,0.011097586467117,-0.0490524924606084,-0.0024126786738634,-0.0009062052704393,0.0019637797959148
1783206710033151700,1.63115185546875,0.0082438775364309,0.0056678895685821,-0.0499438883423805,0.0007421020418405,0.0013124742545187,0.0027313027530908
1783206710043089000,1.6410888671875,0.004492635244131,0.0039718993056565,-0.0502396564185619,-0.0007703583687543,0.0016498565673828,3.17108351737e-05
1783206710053026000,1.651026123046875,0.0257898729579523,0.0061583034340292,-0.0520399838387966,0.0016227578744292,-0.0024554058909416,-0.0025888395030051
1783206710062962700,1.660962646484375,0.0226662245120853,0.0006528378855437,-0.0388736282736063,0.0002213232219219,0.0002772766165435,-0.000579071464017
1783206710072899800,1.67089990234375,0.0148880647912621,0.0169662593048065,-0.0466547836691141,-0.0007754983380436,-0.000399965327233,-0.0003266036510467
1783206710082836000,1.6808359375,0.0149707746386528,0.0149565269175916,-0.0435042106837034,0.0002342276275157,0.0009237793274223,3.66938766092e-05
1783206710092772900,1.69077294921875,0.0082919909944757,0.0169591719768941,-0.0488882418096065,-0.0012092059478163,0.0010319035500288,-0.0007247040048241
1783206710102709800,1.700709716796875,0.0051702787773683,0.0156643829260021,-0.0457376688241958,0.0013863025233149,-0.0007120547816157,0.0007420103065669
1783206710112647000,1.71064697265625,-0.0029948709670454,0.0191803551577031,-0.049625908434391,-0.0019019022583961,-0.0003344188444316,0.0004756939597427
1783206710122583800,1.720583740234375,0.0064062503131106,0.0107598789453506,-0.0424351201474666,-0.0006934534758329,0.0002064006403088,-0.0014050876488909
1783206710132521000,1.73052099609375,0.0148047338893637,0.006093786830455,-0.0535047956943511,0.0001960424706339,-0.0009536724537611,0.0005387535784393
1783206710142456800,1.740456787109375,0.0262641759388148,-0.0042251434143632,-0.0499105705946683,0.0018971636891365,-0.002071124035865,-0.0011743598151952
1783206710152393700,1.750393798828125,0.0236748900979757,0.0076307140741497,-0.0427262120485305,0.0003440082073211,-0.0009035938419401,-0.0004808728117495
1783206710162331000,1.760330810546875,0.0188478352677077,0.003872968975827,-0.0448217230230569,0.0023014601320028,0.0008168844506144,-0.0024060625582933
1783206710172268000,1.77026806640625,0.0120068467991426,0.0045342824287712,-0.0382470208078622,0.0006212713196873,0.0004706736654043,0.0007724200841039
1783206710182205000,1.780204833984375,0.017042649009265,-0.0013432313024997,-0.0425970327109098,0.0018893731757998,-0.0008320081979036,-0.0009254275355488
1783206710192140800,1.790140869140625,0.0114028895566239,0.0034404958426952,-0.0463414799362421,0.0007769707590341,-0.0007342700846493,0.0006788608152419
1783206710202078000,1.800077880859375,0.0188181707818061,0.0069055416047573,-0.040647652208805,-0.0001316899433732,-0.0018527624197304,0.0012190546840429
1783206710212014800,1.810014892578125,0.0214853441644459,-0.005035363818705,-0.0479769721835851,0.0025615645572543,-0.0040799635462462,-0.0024664937518537
1783206710221952000,1.819951904296875,0.023834428041242,-0.001292743224278,-0.0449859736740589,-0.0007720179855823,0.0018327855505049,-0.0005485177971422
1783206710231889000,1.829888916015625,0.0130793714014813,0.0068880059480667,-0.0556119971066713,0.0002570282667875,0.000307326670736,-0.0003181542269885
1783206710241824800,1.83982470703125,0.0153249218385666,0.0059824354104697,-0.05263035094738,-0.0020170798525214,-0.0020270347595214,-0.0015934682451188
1783206710251762000,1.849761962890625,0.0162910634569823,0.0070304831586778,-0.0488753823280334,-0.0026466511189937,0.0001213373616337,0.0013368078507483
1783206710261699000,1.859698974609375,0.0104122345514595,0.0078634268514812,-0.0451192446649074,-0.0031338483095169,0.0033146352507174,0.003053288673982
1783206710271635700,1.8696357421875,0.0128677744774147,0.0003639379415661,-0.0493003297418355,0.0016750218346714,-0.0035707014612853,-0.0011987143661826
1783206710281572900,1.87957275390625,0.0081627020590007,0.0083387892782688,-0.0419675026357173,-0.0001047430559992,-3.96063551306e-05,0.0006614744197577
1783206710291509800,1.889509765625,0.0087744407491758,0.0104085082244127,-0.0437672455340623,-0.0015676179900765,0.0011827843263745,0.0016617577057331
1783206710301446000,1.89944580078125,0.0268869840122759,0.0097438337706029,-0.0398714071393013,-0.0002920841798186,-0.0010132994502782,0.0012748634908348
1783206710311382800,1.9093828125,0.0212888352116569,0.0142532009538263,-0.0513911645412445,0.0007422883063554,-0.0007270094938576,0.0013803250622004
1783206710321320000,1.91931982421875,0.012579532120563,0.013299334295094,-0.0485386977195739,-0.00227483920753,-7.8356824815e-06,-0.0012672522570937
1783206710331256800,1.9292568359375,0.006182488027215,0.0120315063163638,-0.044952071404457,0.0012213587760925,-0.0005551152862608,9.94820147752e-05
1783206710341194000,1.939194091796875,0.0077376450473442,0.0091310356345027,-0.0540846414089202,0.0015126122161746,0.000378574244678,0.0001188907772302
1783206710351129900,1.9491298828125,0.0152949650917202,0.0041098464716225,-0.0474912344932556,-0.000283689238131,-0.0002720360644161,-0.0017080378020182
1783206710361066800,1.959066650390625,0.0255860574815422,0.0062913552291691,-0.0394072967588901,0.0003111558035016,0.0009284382686018,0.0009532750118523
1783206710371004000,1.96900390625,0.0186096425976604,0.0030568302873522,-0.0464484474420547,-0.0007626302540302,0.0007886225357651,-0.0003777730744332
1783206710380940800,1.97894091796875,0.0083468629868701,0.016326646227017,-0.0509311458140611,-0.0010137716308236,-0.0003026775084435,0.0024286829866468
1783206710390878000,1.9888779296875,0.0181264987232163,0.0208904470112174,-0.0397007267475128,0.0003340542316436,-0.0016334592364728,-0.0003484615590423
1783206710400814800,1.99881494140625,0.0233945753192529,0.0110020171381533,-0.0524286908954381,0.0013268617913126,0.0012263800017535,-0.0014812330482527
1783206710410751000,2.0087509765625,0.0155924136683344,-0.0013406740192323,-0.0500415034979581,-0.0009887563064694,0.0006018686108291,0.0006682043895125
1783206710420688000,2.01868798828125,0.0185456009181216,0.0078725600060075,-0.0443517674237489,-0.000590106472373,0.0010522119700908,-0.0001192491035908
1783206710430625000,2.028625,0.0134001277884468,0.0122064244918525,-0.0504950924843549,0.0005281548947095,0.0015028188936412,-0.0017384510720148
1783206710440561700,2.038561767578125,0.0104827059717848,0.017030191386491,-0.0551285975039005,0.0016369447112083,-0.0005713892169296,-0.0031322529539465
1783206710450498800,2.048498779296875,0.0238803130095824,0.0144585873328149,-0.0479465770453214,-0.0005697505548596,-0.0007162652909755,0.0011146899778395
1783206710460436000,2.05843603515625,0.0186255342865362,0.0333235198657959,-0.0537777674168348,-0.0001687025651335,0.0011690277606248,-0.0023386292159557
1783206710470371800,2.068371826171875,0.0178695282874628,0.0106363256309181,-0.0477794037848711,0.0016481056809425,-0.0026970831677317,-0.0002906583249568
1783206710480308700,2.078308837890625,0.0066756418390199,0.0263418442849069,-0.0555588056147098,0.0008699838072061,0.0014745239168405,-0.0003144941292703
1783206710490246000,2.088245849609375,0.0063143342459574,0.0188156865637749,-0.0398515333950519,0.000337085686624,-0.0024270075373351,-0.0002708183601498
1783206710500183800,2.098183837890625,0.0014229820078238,0.0172233028057962,-0.0437438646584749,0.0027446607127785,0.0007834886200726,-0.0019698166288435
1783206710510120700,2.10812060546875,0.0214745670421049,0.0039496874738484,-0.0373193845689296,-0.000123031437397,-0.0017779394984245,-0.0001282405573874
1783206710520056800,2.118056884765625,0.0396009561674669,0.0110112233579158,-0.0451081387490034,0.0014766156673431,0.0023711908143013,-1.24205835163e-05
1783206710529993700,2.12799365234375,0.0575461435070261,0.0135682143643498,-0.0517114825367927,-8.42623412609e-05,-0.000198493245989,-0.0038345893844962
1783206710539931000,2.137930908203125,0.0431537167456001,0.0323313670232892,-0.0540992544561624,0.0010766740888357,-0.0005808509886264,0.0011391777079552
1783206710549867500,2.147867431640625,0.0237052487036213,0.0385081559620797,-0.0612847820460796,0.0007150173187255,-0.0005145380273461,0.0005897677037864
1783206710559804700,2.1578046875,0.0320739216635003,0.0257103414483368,-0.0431669415533542,-0.0008045295253396,-0.0020730844698846,0.0003890574444085
1783206710569741800,2.167741943359375,0.0088190105432644,0.0142374188628047,-0.0510866286367177,0.0015283999964594,0.0002361424267292,-0.0005153520032763
1783206710579677700,2.177677734375,-0.0097519074792042,0.0206927324820309,-0.0451145684897899,0.0027680089697241,-0.0006034485995769,-0.0031235981732606
1783206710589614600,2.187614501953125,-0.0113056031946092,0.0044076603744179,-0.056054480177164,0.001301672309637,0.0032078011427074,-0.0027464944869279
1783206710599551700,2.1975517578125,-0.0005013371182605,-0.0107796065591275,-0.0488888263314962,-0.0001576915383338,0.0010878965258598,-0.0004871161654591
1783206710609488600,2.207488525390625,0.0179214046051725,-0.0083262220576405,-0.0453074607133865,-0.0003094924613833,0.0016423664055764,-0.0019875410944223
1783206710619425800,2.21742578125,0.0186929369669407,-0.0111082539916038,-0.0472509959965944,0.0007190173491835,-0.0016064271330833,0.0002646080683916
1783206710629363000,2.227363037109375,0.0149675597682595,-0.0008511369366198,-0.047544425985217,-0.0014732964336872,0.0001422045752406,0.0017394667956978
1783206710639298600,2.237298583984375,0.0044797757625579,-0.0102562402721494,-0.0499234300762414,-1.8374994397e-06,-0.0007953848689794,0.0010245754383504
1783206710649235700,2.247235595703125,-0.0115466454088687,-0.011933160508424,-0.052171501263976,0.0012032436206936,-0.0008105649612843,0.0009886226616799
1783206710659172900,2.2571728515625,-0.0184092611873522,-0.0154115041434764,-0.0357078577190637,0.0015518870204687,0.0023558693937957,0.000987818930298
1783206710669109800,2.26710986328125,-0.0194276079170405,-0.0294178907293826,-0.0409364060223102,-0.001590110361576,-0.0002915789373219,0.0026749316602945
1783206710679046700,2.277046630859375,-0.0201595023881644,-0.0174503895599395,-0.0445335537314414,-0.0006186394020915,0.0015606256201863,0.0004060952924191
1783206710688982800,2.286982666015625,-0.0036576822573319,-0.0228627699974924,-0.0404898312985897,-0.0013699168339371,-0.0010676481761038,0.0012772153131663
1783206710698919700,2.296919677734375,-0.0022099311344325,-0.0162425481401383,-0.0451215827524662,-0.001925952732563,0.0017407955601811,-0.0012511336244642
1783206710708856800,2.30685693359375,0.0049123950261622,0.0063555795717984,-0.0457113653391599,-0.0017339391633868,-0.0009665740653872,0.0008045604918152
1783206710718793700,2.316793701171875,-0.0002183919910341,-0.0011367489449679,-0.0533265165179967,-0.0011815838515758,-0.0007228730246424,0.0006203132215887
1783206710728730600,2.326730712890625,-0.0129499363355338,2.05313313752e-05,-0.039551089143753,-0.0017626853659749,0.0011916733346879,3.068940714e-05
1783206710738667800,2.336667724609375,-0.0114124976351857,-0.0084059362303465,-0.0447831445783376,-0.000706979073584,-0.0001162532716989,-0.0010460140183568
1783206710748604000,2.34660400390625,-0.0136159990288317,-0.0066045858968049,-0.0471709164977073,-0.0026620058342814,0.0011167903430759,0.0019942508079111
1783206710758540500,2.35654052734375,0.0040577509582042,-0.0122505558945238,-0.0446241546243429,-0.0011002728715538,0.0021501029841601,0.0018730440642684
1783206710768477700,2.366477783203125,0.0097337873006239,-0.0073184332545846,-0.0401297658145427,0.0015178807079792,0.00040546618402,0.0028059494215995
1783206710778414800,2.376414794921875,0.0208612574493512,0.0025035072535276,-0.0491138672590255,-0.0004041502252221,0.0033177754376083,-0.0020114525686949
1783206710788351700,2.386351806640625,0.0326148966724053,0.0167076814338564,-0.0402875867247581,-0.0017780745401978,-0.0012996131554245,0.0010802112519741
1783206710798289000,2.396288818359375,0.0366216846283525,0.0107774876672774,-0.0428255807697772,-0.0010437639430165,0.0010854555293917,0.0012788840103894
1783206710808224800,2.406224853515625,0.0422702484419569,-0.0122355044558644,-0.0537415270596742,-0.0012773228809237,0.0007269936613738,0.0001515678595751
1783206710818161700,2.41616162109375,0.0429119073463603,-0.0094077336840331,-0.0468435842394828,-0.0017739254981279,-0.0012454455718398,0.0020321062766015
1783206710828098800,2.426098876953125,0.0254301362674683,0.0049940088950097,-0.0501262591719627,-0.0021142773330211,-0.0002363733947277,0.0025234594941139
1783206710838035700,2.43603564453125,0.0077870371470227,0.0253150585204362,-0.0468371544986963,-0.0005451049655675,0.000519492663443,0.0011725071817636
1783206710847972600,2.44597265625,0.0053451238876208,0.0110332890592515,-0.0475824199080467,0.0016301656141877,-0.0002158060669898,0.0012862239964306
1783206710857909800,2.45590966796875,0.0235413633788004,-0.0020179156936705,-0.0553635753035545,0.0005490984767675,0.0007809372618794,-0.0002220545429736
1783206710867846000,2.465845947265625,0.0446100165011361,-0.0015445260282605,-0.0492202502429485,-0.0044608395546674,5.84213994443e-05,0.0013159210793673
1783206710877782800,2.47578271484375,0.0441437872288748,0.0135324854638427,-0.0378343483537435,0.0005146525800228,0.0011811042204499,0.001832454232499
1783206710887719700,2.4857197265625,0.0148343983752653,0.0329664500564336,-0.0533943210572004,0.0009612645953893,-0.0012727323919534,-8.15596431493e-05
1783206710897656600,2.495656494140625,-0.0006656243018805,0.0436295175638049,-0.0487561398625373,0.0001935670152306,2.19107605516e-05,-0.0013173045590519
1783206710907593700,2.50559375,0.0009071049075573,0.0194219088286161,-0.0584767388880252,-0.002472523599863,0.0008192611858248,0.0023519988171756
1783206710917531000,2.51553076171875,0.0101354634366929,-0.0046088089697062,-0.0453039535820484,0.0001074858009815,-0.0002859034575521,0.0010908041149377
1783206710927466800,2.525466796875,0.0196158604981377,-0.0084633655060082,-0.0451549005001783,-0.0019159838557243,0.0005748299881815,4.41819429397e-05
1783206710937403600,2.535403564453125,0.018226196238026,-0.0009351619582623,-0.0520434909701347,0.0009241010993719,-0.0016351663507521,0.0018358889501541
1783206710947340800,2.5453408203125,0.0102004184316843,0.0084134619496762,-0.0503957237631082,0.000436476431787,0.000403749756515,0.0018771679606288
1783206710957277700,2.555277587890625,0.0046238604083657,0.0327213161889463,-0.0436632006376981,-0.0019843727350234,0.0018828948959708,0.0001713060773909
1783206710967214800,2.56521484375,0.0002856120083481,0.0142301123391836,-0.0454588518828153,-0.0011350912973284,0.0020863604731857,-0.0011959609109908
1783206710977151700,2.57515185546875,0.0069634458044543,-1.63666129112e-05,-0.0480026911467313,0.0016515357419848,-0.0004853080026805,0.0011676209978759
1783206710987087600,2.585087646484375,0.008390848259069,-0.002583002230525,-0.0322854820549488,0.0025980239734053,-0.0013854564167559,0.0014155614189803
1783206710997024800,2.595024658203125,0.0130046987300738,-0.0159924458365887,-0.0499304443389177,-0.0008358098566532,0.0016899593174457,0.0015738143119961
1783206711006962000,2.6049619140625,0.0025933774940669,-0.0236148304738104,-0.0457277319520711,-0.0019466141238808,-0.0024153040722012,-0.0010331538505852
1783206711016898600,2.614898681640625,-0.0100640787009149,0.0006355214245617,-0.042721535873413,-0.0032235812395811,0.0006785807199776,0.0009945291094481
1783206711026835700,2.624835693359375,-0.0077817764500156,-0.0008639233529567,-0.0457072736859321,-0.0022395430132746,1.25239603221e-05,0.0003154228907078
1783206711036772600,2.634772705078125,0.0019254516372457,0.0209687729444354,-0.0371662398338317,-0.0010742601007223,0.0013212743215262,0.001454513054341
1783206711046708700,2.644708740234375,0.0180201157392933,0.0118061731278896,-0.0400093543052673,0.002046431414783,-0.0005226982757449,-0.0026648642960935
1783206711056645600,2.654645751953125,0.024348405445367,0.0001541676484048,-0.0506336241722106,-0.0010312180966138,0.0023277506697922,0.0023300044704228
1783206711066582800,2.664582763671875,0.0261236349569633,0.0353370516452938,-0.0461404044061899,0.0027451440691947,-0.002397496253252,0.0003091976977884
1783206711076519700,2.674519775390625,0.005976992050372,-0.0076690733231604,-0.0438823963463306,-0.0024533784016966,-0.0018580039031803,-0.0009235625620931
1783206711086456800,2.684456787109375,-0.0029930443361401,0.0378713193632662,-0.0369914677888155,-7.73053616285e-05,-0.0022454936988651,0.0004961686208844
1783206711096393700,2.694393798828125,0.006637209524773,-0.0162419636182487,-0.051358431315422,0.0004178322851657,0.0007127579301595,0.0018307066056877
1783206711106329600,2.70432958984375,0.0165902655992656,0.0136132225498557,-0.0355009369701147,0.0005901390686631,0.0021117166616022,-0.0001807787921279
1783206711116266800,2.714266845703125,0.0326429171904921,0.0043836219117045,-0.0389390947252511,-0.0018410552293062,9.41595062613e-05,0.0002870259340852
1783206711126203600,2.72420361328125,0.0219416730972006,0.009306830592826,-0.0479261187791824,0.0003360789269208,0.0020337398163974,-0.0001598524395376
1783206711136140800,2.734140869140625,0.0234210614673793,0.0355797012947499,-0.0299766205906867,0.0017710607498884,-0.0015553599223494,0.0007461248897016
1783206711146077700,2.74407763671875,0.0280960675410926,0.0220703044455498,-0.0359749842226505,0.0009111268445849,0.0031786751933395,-0.0001881120260804
1783206711156014600,2.7540146484375,0.0235878328690305,0.0263465935252606,-0.0373293214410543,0.0024538189172744,0.0001016529276967,-0.0027050911448895
1783206711165950700,2.76395068359375,0.0213785593217238,0.0157209354188293,-0.048999300968647,0.0009342189878225,0.0015621306374669,0.001611360348761
1783206711175888000,2.773887939453125,0.0256541908143088,0.0075189242627471,-0.0445084192901849,0.0016637602820992,-0.0019320370629429,-0.0006046660710126
1783206711185824500,2.783824462890625,0.0229102624010294,0.0069079527575522,-0.0415220969557762,0.0006576180458068,-0.00060924468562,-0.0020140109118074
1783206711195761700,2.79376171875,0.0275774870270863,-0.0002230681661516,-0.0413753819614648,0.0015374198555946,0.000139707699418,-0.0006261416710913
1783206711205698800,2.80369873046875,0.0205098501957952,-0.0117515203312039,-0.0445300466001033,0.0051441388204693,0.0016523832455277,-0.000980342272669
1783206711215635700,2.8136357421875,0.0220971924524754,-0.011344327769801,-0.0410989031076431,-0.0017386134713888,-0.0009258575737476,0.0024146526120603
1783206711225571600,2.823571533203125,0.005885477842018,-0.0049293461609631,-0.0366109440386295,-0.0005881274119019,0.0007111877202987,-0.0011318791657686
1783206711235508700,2.8335087890625,0.0129847884532064,0.002549757548049,-0.0382487743735313,-0.0009887758642435,-0.0010698535479605,-0.0006556482985615
1783206711245445600,2.843445556640625,0.0147058766247704,0.0012768880680203,-0.0397246921449899,-0.0017011715099215,-0.0025926488451659,7.40578398108e-05
1783206711255382800,2.8533828125,0.0244084650695323,-0.0104210023798048,-0.0431651879876852,-0.0002550249919295,0.0039101745933294,0.001050858059898
1783206711265320000,2.86331982421875,0.0243512184569612,-0.0028786972414702,-0.0397188469260931,-0.0010505113750696,-0.0006504883058369,-0.0006157483439892
1783206711275256600,2.873256591796875,0.0152764065217226,0.0079283087812364,-0.0397141707509756,-0.0011330554261803,0.0008804760873317,0.0001250968780368
1783206711285192700,2.883192626953125,0.0111174236787483,0.0153466952789574,-0.0380687416315078,-0.0011775298044085,-0.0006718803197145,0.0007131227757781
1783206711295129900,2.8931298828125,0.0089891429457813,0.0223408650152385,-0.0323807591229677,0.0007677264511585,3.1846575438e-06,0.0020582419820129
1783206711305066800,2.903066650390625,0.0028721579028293,0.012281462489441,-0.0412058706134557,-0.0009753126651048,-0.0009504933841526,-0.0018068035133183
1783206711315003600,2.913003662109375,0.0036787615779787,0.0121356973432004,-0.045987259671092,-0.0002329982817173,0.001887708902359,-0.0014660054584965
1783206711324940800,2.92294091796875,0.0084791475970298,0.0145799486901611,-0.0429927540302276,0.0028424207121133,0.0006812969222664,0.001434709643945
1783206711334877700,2.932877685546875,0.0067665715254843,0.0086794194094836,-0.0380640654563903,7.60424882173e-05,-0.0001867478713393,0.0017508708406239
1783206711344813800,2.942813720703125,0.0142932407032698,0.015230448488146,-0.0438952558279037,-0.0005442081019282,-0.0016307136975228,-0.0004097518976777
1783206711354750700,2.952750732421875,0.0191616504572331,0.0133532564394176,-0.0461415734499692,0.001686006784439,0.0011315429583191,0.0023520933464169
1783206711364687600,2.9626875,0.0111288583882153,0.0195592714726924,-0.0415127446055412,0.0019738944247365,-0.0006743464618921,0.0003491300158202
1783206711374624800,2.972624755859375,0.0062013388581573,0.0202522952381521,-0.0303027838051319,0.0011419737711548,0.0032616867683827,-0.0005275649018585
1783206711384561700,2.982561767578125,0.0179915106993168,0.016648279396817,-0.039288054293394,-0.0007150489836931,0.0007892078720033,-0.0020074835047125
1783206711394498800,2.992498779296875,0.0203826801521703,0.0090551939193159,-0.0397398897141218,0.0010402295738458,0.0012260777875781,0.00020542438142
1783206711404434700,3.0024345703125,0.0213801302243024,0.0206037390243262,-0.0466273111402988,0.0003840271383523,0.0012662913650274,0.0013662963174283
1783206711414371800,3.012371826171875,0.0206238319642841,0.0221260532207787,-0.0394470442473888,0.0007498264312744,6.39557838439e-05,-0.0004734464455395
1783206711424308700,3.022308837890625,0.0181745025834068,0.0124969318710267,-0.0427425786614418,0.0018475819379091,8.20653513073e-05,0.0002240354660898
1783206711434246000,3.032245849609375,0.0233096735147759,0.0102621585562825,-0.0473912812501192,0.0022761914879083,8.61310400068e-05,-0.0016840432072058
1783206711444182500,3.0421826171875,0.0324342063432559,0.0056656245462596,-0.0343763168543577,0.0005278261378407,-8.93711112439e-05,0.001191904535517
1783206711454119700,3.05211962890625,0.0335062925541773,0.0103229488328099,-0.0460480499476194,0.0014484021812677,-0.0016970708966255,-0.0007643362041562
1783206711464055800,3.062055908203125,0.0211652818972244,0.0146739105839282,-0.0545750552743673,0.0008726269006729,-0.0015157097950577,0.0008372887969017
1783206711473992700,3.07199267578125,0.0172804763531312,0.0276226048104465,-0.0417120665699243,0.0026221610605716,0.0006869519129395,-0.0001126681454479
1783206711483929600,3.0819296875,0.0249774971291422,0.0246384013678878,-0.0421650710344314,-0.0027459729462862,-0.00147100770846,0.0004423346836119
1783206711493866800,3.09186669921875,0.0368282035185024,0.0104421912983059,-0.0373766677141189,0.0002803830429911,0.0008559077978134,6.81849196553e-05
1783206711503803000,3.101802978515625,0.0442499875497072,0.0023528467364609,-0.0515881484180688,0.001813830807805,-0.001591803971678,-0.0009520722087472
1783206711513739800,3.11173974609375,0.0266948589736595,0.0080786770373582,-0.0393166958659887,-7.8635290265e-05,-0.000842344481498,-0.0003342628479003
1783206711523675600,3.121675537109375,0.0006693871615454,0.015164251384139,-0.0448567943364381,0.002204492688179,0.0011989683844149,0.0028141262009739
1783206711533612800,3.13161279296875,0.0023423984076827,0.0200705819956958,-0.0480132125407457,0.0011668745428323,0.0012125028297305,-0.0025829456280916
1783206711543549700,3.1415498046875,-0.0051109863381832,0.0185953948765993,-0.0441407550215721,0.0002459539100527,0.0021768333390355,-0.004340898245573
1783206711553486800,3.15148681640625,0.0127908367836847,0.0128721218589693,-0.0441518609374761,0.0001000147312879,-0.0010044970549643,-0.002449050778523
1783206711563423700,3.161423828125,0.0213883500633761,0.0144465315688401,-0.0422094946980476,0.0025357417762279,-0.0028569921851158,-0.0007598076481372
1783206711573360600,3.171360595703125,0.029674495838955,0.0047035745810717,-0.0377279653698205,0.0017006658017635,0.0013102055527269,0.0001396033912897
1783206711583297800,3.1812978515625,0.0375662354694679,0.0080858374305069,-0.0455114588528871,0.000217817723751,-0.0015481654554605,-0.0012337889056652
1783206711593234000,3.19123388671875,0.0217422415349632,0.0033395196862518,-0.0462549706965684,-0.0010298667475581,-0.0004591103643178,-0.0023217047564685
1783206711603170600,3.201170654296875,0.016427841579169,0.0020277795005589,-0.0339729967504739,-0.0031532049179077,-0.0021696588955819,0.0002778067719191
1783206711613107700,3.211107666015625,0.0057042760562151,-0.0053935296066105,-0.042337504991889,-3.63029539585e-05,-0.000933967065066,-0.0022713453508913
1783206711623044600,3.221044677734375,-0.006872187324427,-0.0153457454308867,-0.0475689759045839,-0.0023729605600237,0.0019188108853995,0.0010746505577117
1783206711632981800,3.230981689453125,-0.0037301995042711,-0.0128155693661421,-0.0343885918140411,-0.0017827171832323,-0.0015093963593244,0.0023367572575807
1783206711642919000,3.2409189453125,-0.0117520683204755,-0.0275933787159621,-0.0441039301425218,-0.0006551351398229,-3.7467572838e-05,0.0004168844316154
1783206711652854800,3.250854736328125,-0.0135259095925837,-0.018564122955501,-0.0417190808326005,0.0028229495510458,0.0040844697505235,-0.0007238988764584
1783206711662791700,3.260791748046875,-0.0052700858900323,-0.0046237142778933,-0.0427735583215951,-0.0016157403588294,-0.0006173411384224,0.0011413791216909
1783206711672728800,3.270728759765625,-0.0041791123155504,-0.007947598003596,-0.0453191511511802,0.0007837517186999,-0.0020147901959717,0.0030250085983425
1783206711682665700,3.280665771484375,0.0004555252151563,-0.0120085638321936,-0.032741993650794,-0.0022229570895433,-0.0009647062979638,-0.0005228547379374
1783206711692602600,3.2906025390625,-0.0100130426334217,-0.0028016134172677,-0.0414040235340595,-0.0019400184974074,0.0020216926932334,-7.17241782695e-05
1783206711702539800,3.300539794921875,-0.0087022888284176,-0.0005483545977622,-0.044687282988429,-0.0012830160558223,-0.0015184474177658,0.0015091281384229
1783206711712476000,3.310475830078125,-0.0109454646453261,0.0134117086283862,-0.0458873064279556,-0.0013883542269468,0.0015941918827593,0.0026217687409371
1783206711722412800,3.320412841796875,-0.0025786913815885,0.001392185010761,-0.0511152702093124,0.0012274021282792,-0.0010910732671618,0.0010220080148428
1783206711732349700,3.330349609375,0.004935885499604,0.007237111646682,-0.0478226584047079,0.0006937431171536,0.000266648363322,-0.0006835162639617
1783206711742286600,3.34028662109375,0.0092998893953859,0.0057865475121885,-0.0445393989503383,0.0021704658865928,0.0013534841127693,-0.0003780517727136
1783206711752223700,3.3502236328125,0.0081421341950073,0.010458850172162,-0.0461859971135854,0.0007315138354897,0.0006731636822223,0.0014867119025439
1783206711762161000,3.360160888671875,0.0057871685666963,0.0170800218775868,-0.0461935958981514,0.0001346990466117,0.0023142036516219,-0.0010789772495627
1783206711772096500,3.370096435546875,0.0089226535808295,0.0188997846506536,-0.0497755460381507,-0.0006587328389286,-0.0012879180721938,-0.0018466970650479
1783206711782033700,3.38003369140625,0.0088827599618583,0.0226760152537375,-0.0470803156048059,0.0008680578321218,-0.000686043407768,0.0008806462865322
1783206711791970800,3.389970703125,0.0155654525961726,0.0160004830125719,-0.0391559523463249,0.0002627214416861,-0.0005114921368658,0.001647196477279
1783206711801907700,3.39990771484375,0.013083426522091,0.0184860892832279,-0.032272038051486,-0.0006994782015681,0.0028526128735393,-0.0005773417651653
1783206711811844900,3.409844970703125,0.0132997726865112,0.0206404908381402,-0.0444008672624826,0.0002285270020365,0.002204090822488,0.0002004294656217
1783206711821781800,3.41978173828125,0.0139732149686664,0.0231141144100576,-0.0487491255998611,-0.0002271393314003,-0.00162446917966,0.0022281603887677
1783206711831718700,3.42971875,0.014294702007994,0.0162586955573409,-0.0337929640084505,0.0007686214521527,0.0017429422587156,-0.0009710832964628
1783206711841654800,3.43965478515625,0.0220379000132903,0.0165017835982143,-0.0472749613940715,0.0007430557161569,-0.0023332918062806,-0.0027202474884688
1783206711851592000,3.449592041015625,0.0161909275507554,0.0246066179901361,-0.0463736286401748,-0.0010709483176469,-0.0003430768847465,-0.0020338750910013
1783206711861528600,3.459528564453125,0.0249544815797358,0.0176692930076271,-0.042475452157855,0.0003381306305527,-0.0015489561483263,0.000125682214275
1783206711871465700,3.4694658203125,0.0212210672050714,0.0324267171565443,-0.0403869554460048,0.002680143341422,0.0011932924389839,0.00116484798491
1783206711881402600,3.479402587890625,0.0180004246581345,0.016066387855634,-0.0435287606030702,0.0011727949604392,0.0014982242137193,-0.0006610150448977
1783206711891339800,3.48933984375,0.0197344453765079,0.0120066641360521,-0.0447270304769277,-0.0002424707636237,-0.0007988158613443,-0.0002655051648616
1783206711901275600,3.499275634765625,0.0152163103649392,0.0100244773428887,-0.0504120903760194,-0.0018872395157814,0.002390319481492,-0.0013816358987241
1783206711911212800,3.509212890625,0.0209004934811964,0.0036940322123467,-0.032009003201127,0.0002923589199781,0.0032717657741159,-0.0018040853319689
1783206711921149700,3.519149658203125,0.0158202310748398,0.0068067574054002,-0.0393453374385833,0.0011725332587957,1.65840610861e-05,-0.001431242795661
1783206711931086800,3.5290869140625,0.0083965838801115,0.0166126235615462,-0.0451736052006483,-0.0003091609105467,0.0003323415294289,-0.0010035287123173
1783206711941023700,3.539023681640625,0.0116214642107486,0.0200993696987628,-0.0342494756042957,-0.0023992098867893,-0.0013880603946745,-0.0020464225672185
1783206711950960600,3.548960693359375,0.022661986728385,0.0080402447231113,-0.0447130019515752,-7.07376748323e-05,0.0013000285252928,0.000700315227732
1783206711960896800,3.558896728515625,0.0211007287610322,0.0101397012203931,-0.0366354939579963,0.0026917597278952,0.0020052334293723,6.86135608702e-05
1783206711970833700,3.568833740234375,0.0151739325279369,0.0141620155390352,-0.0336561858862638,-0.0002420973032712,0.0012701624073088,0.0007975799962878
1783206711980770800,3.578770751953125,0.0024988676110282,0.0027527327742427,-0.0487713374316692,0.0002729576081037,0.0013087783008813,-0.0006162922363728
1783206711990707700,3.588707763671875,0.0086825246820226,0.002344225038588,-0.0550637155741453,0.0023609735071659,-0.0001782476902008,-0.0027202889323234
1783206712000644600,3.59864453125,0.008167305168882,-0.0032205694817006,-0.0446013582706451,-0.0004622433334589,0.00163403339684,-0.0011785849928855
1783206712010581800,3.608581787109375,0.0037128830432891,-0.0024905747067183,-0.0432581269681453,0.0008535087108612,0.0020584384910762,0.0006836154498159
1783206712020518700,3.6185185546875,0.0092178371351212,0.0110782972447574,-0.036988545179367,0.0026868293061852,0.0030778967775404,-0.0002713941503316
1783206712030454500,3.62845458984375,0.0137351318964734,0.0099064769864082,-0.0440220970779657,0.0002689454704523,-0.0033463477157056,2.99264211207e-05
1783206712040391700,3.6383916015625,0.0051508068919181,0.0031239041741937,-0.0589846884101629,-0.0009497161954641,-0.000298892147839,-0.0012696962803602
1783206712050328800,3.648328857421875,0.0104550142472609,4.3327685073e-05,-0.0359305605590343,-0.0021448917686939,-1.96835026144e-05,0.0014492291957139
1783206712060265700,3.658265625,0.010442921950668,-0.0037136867608875,-0.0356307008296251,-0.0015155868604779,-0.0021992148831486,0.0010292483493685
1783206712070203000,3.668202880859375,0.0084973043082281,-0.0152291333138942,-0.0453396094173192,-0.00199915189296,0.0021127671934664,-0.0016259881667792
1783206712080139500,3.678139404296875,0.0080977835966274,0.0121743488531559,-0.0372539181172847,0.0006813202053308,-0.0013469452969729,-0.0009151904378086
1783206712090075600,3.68807568359375,0.0032994068715721,0.01176335689947,-0.0463847345560789,-0.0004405546933412,0.0028116572648286,0.0010570511221885
1783206712100012800,3.6980126953125,-0.0012847791135311,0.0080097765196114,-0.0448918656498193,-0.0010205907747149,-0.0022475495934486,-0.0005475035868585
1783206712109950000,3.707949951171875,0.0131790689162909,-0.0027748715408146,-0.0381529127836227,3.87048348784e-05,-7.99144618213e-05,-0.0006385687738656
1783206712119886600,3.717886474609375,0.0096736911438405,-0.0048251551341265,-0.0267863001167774,0.000829130411148,0.0022175945341587,0.0014536106027662
1783206712129823700,3.72782373046875,0.0119951563613489,-0.0065529287748038,-0.0421960506945848,0.0008045881986618,-0.0010358002036809,0.0005058394744992
1783206712139760600,3.7377607421875,0.0003096504710614,-0.0033963644400238,-0.0450409187316894,0.0013524005189538,-0.0007929201237857,0.0009553811978548
1783206712149696800,3.74769677734375,-0.0050520592251792,0.0182091720379889,-0.0466904395043849,-0.0001715859398245,-0.0007838574238121,-0.0010049322154372
1783206712159633700,3.757633544921875,0.0067911579774692,0.0309430544700473,-0.0499824667870998,-0.0002557421103119,-0.0017300783656537,0.0001586028374731
1783206712169570600,3.767570556640625,0.0221285374388098,0.0211295895293354,-0.0478892939001321,8.12839716672e-05,-0.000328054651618,-0.0005076143424957
1783206712179507700,3.7775078125,0.024570194969885,0.0177301563493907,-0.0395107571333646,-0.0011014258489012,0.0019444208592176,-0.0026027229614555
1783206712189444900,3.78744482421875,0.0172819011252373,0.0112785690572112,-0.0453431165486574,-0.0033275345340371,-0.0005007241852581,0.0012796162627637
1783206712199381800,3.7973818359375,0.0203896944148465,0.0081960198067128,-0.0474327823042869,0.0007012961432337,5.2414368838e-05,0.0024207807146012
1783206712209318700,3.807318603515625,0.0102997140876948,-0.0029059505745768,-0.0447515803962945,0.0007642339915037,0.0008380282670259,0.0004794695414602
1783206712219254800,3.8172548828125,0.0056426089968532,0.0102447690300643,-0.0392144045352935,-0.0020166393369436,-0.0002850270830094,-0.0009048415813595
1783206712229191700,3.827191650390625,0.0074326342187821,-0.0005926321309059,-0.0375637147188186,0.0006436305120587,0.0002921083942055,-0.0003711271565407
1783206712239128800,3.83712890625,0.0190332017719745,-0.0067160103820264,-0.0418891767024993,-0.0022512255236506,0.0002327198162674,0.0021330430172383
1783206712249065700,3.847065673828125,0.0106129082227125,-0.0022354309018701,-0.0489122072070837,-0.001492042094469,-0.0006532375700771,0.0019021716434508
1783206712259002600,3.857002685546875,0.0140832512143999,0.0172748868625611,-0.0498018495231866,0.0013279793784022,-3.61828133463e-05,-0.000343938358128
1783206712268939800,3.866939697265625,0.0199139666618779,0.0076372168801724,-0.0444219100505113,0.0004109116271138,0.0008903676643967,-0.0003215353935956
1783206712278876000,3.8768759765625,0.0155269472166895,-0.0034675299800932,-0.0444213255286216,0.0005054539069533,0.0004586693830788,0.0014177751727402
1783206712288812500,3.8868125,0.0112213589772582,-0.0159480221729725,-0.0373760831922292,0.0008978080004453,-0.0027393479831516,-0.00020532310009
1783206712298749700,3.896749755859375,0.0150313091868534,-0.0017371259909123,-0.0346855289340019,0.0001217620447278,-0.0001156013458967,0.0001185170840471
1783206712308686800,3.906686767578125,0.0041064124055206,0.0131824299171566,-0.0406739556938409,-0.0015054056420922,0.0008173724636435,0.0020960003603249
1783206712318623700,3.916623779296875,0.0097099680336192,0.0081299688331782,-0.0491921931922435,-1.72313302755e-05,-0.0001173969358205,0.0004898482002317
1783206712328561000,3.926560791015625,0.0198212468771263,0.0121476069767028,-0.040364159092307,-0.00135488063097,0.0010254005901515,0.0011692992411553
1783206712338496800,3.936496826171875,0.0156720547758042,0.004200447364524,-0.0403501305669546,-0.0013008182868361,-0.0003961948677897,0.0007040449418127
1783206712348433700,3.94643359375,0.018652495358698,0.0107183048259466,-0.0393090970814228,0.0049134623259305,0.0012453733943402,0.0001853969879448
1783206712358370800,3.956370849609375,0.0177840784937143,0.0126537298679351,-0.0462082089453935,-0.0006424244493246,-0.0006460035219788,-0.0005096881650388
1783206712368307700,3.9663076171875,0.0041725364442914,0.0106833796430379,-0.0300455941736698,0.0003719236701726,-7.56429508328e-05,0.002365643158555
1783206712378244600,3.97624462890625,0.0101541316045448,0.0085436642006039,-0.0372182622820138,-0.0005481988191604,-0.0007078773342072,-0.0002027093432843
1783206712388181800,3.986181640625,0.0001423310801386,0.0110050858780741,-0.0425987862765789,-0.0004525892436504,-0.001602207776159,0.002206023549661
1783206712398118700,3.99611865234375,0.0184194537878036,0.0084830931197851,-0.046789223703742,-0.0004640407860279,0.0011906493455171,0.0006992069538682
1783206712408054800,4.0060546875,0.0139445003308355,0.0074901365596801,-0.0402034155726432,-0.0008806157857179,0.0014893896877765,0.0004801789764314
1783206712417991700,4.01599169921875,0.0048356765281409,0.0095461923066526,-0.0442401237428188,-0.0008401358500123,7.8729353845e-06,0.0007254562806338
1783206712427928600,4.025928466796875,0.0101948654737323,0.0099858258329331,-0.0415472313970327,-0.0014554178342223,0.0026459377259016,0.0006394465453922
1783206712437865700,4.03586572265625,0.0049313189223408,0.0126673930671066,-0.0448392586797475,-0.0021758032962679,-0.0012699742801487,0.002130283974111
1783206712447803000,4.045802978515625,0.0070500646419823,0.0060929831128567,-0.0398895273178815,0.0001238193362951,-0.0014036134816706,0.001255304319784
1783206712457739800,4.05573974609375,0.0054299526268616,0.0028024902001023,-0.039883097577095,0.0002979906275868,0.0021178843453526,0.0004563562106341
1783206712467676700,4.0656767578125,0.0013194851007312,0.0126314449708908,-0.0515484009295701,0.0003972239792346,0.0003285240381956,0.0013813513796776
1783206712477612800,4.07561279296875,0.0014963029723614,0.0194650173179805,-0.0546972203493118,0.0008523585274815,0.000700301490724,2.1003652364e-06
1783206712487549700,4.0855498046875,0.0121243722315877,0.0151076988913118,-0.0482674795627594,-0.0019661886617541,0.0005107223987579,-0.0003774070646613
1783206712497486800,4.09548681640625,0.0250306155558675,0.0142182757709175,-0.0481172574371099,-0.000393059104681,0.000397271476686,-0.0008567760232836
1783206712507423700,4.105423828125,0.0284010418370366,0.0003156418204307,-0.0451285970151424,-0.0011814106255769,0.0005499231629073,0.0006359324324876
1783206712517360600,4.115360595703125,0.0162947897840291,-0.0057760991834104,-0.0412286669671535,-0.0022168476134538,-0.0007377150468528,0.000188254751265
1783206712527297800,4.1252978515625,0.0067617857525125,0.0077916037242859,-0.0368956061989068,0.0010298350825905,0.0023683898616582,0.0004028051625937
1783206712537234000,4.13523388671875,0.0009129866590723,0.0039879736576229,-0.0396019425481557,-0.0008199969306588,0.0004644962027668,-0.0007018740288913
1783206712547170600,4.145170654296875,0.0014268909979611,0.0028645225856453,-0.0435129785120487,0.0026330752298235,-0.0001816865988075,0.0003555724397301
1783206712557107700,4.155107666015625,-0.0017840338725596,0.0117223673019558,-0.045606735920906,0.0004500821232795,-2.50926241278e-05,0.0014394791796803
1783206712567044600,4.165044677734375,0.0132741998538374,0.0082312372505664,-0.0435042106837034,-0.0007939487695693,-0.0004229480400681,-0.0017599791754037
1783206712576981800,4.174981689453125,0.025215507136099,-0.0007882277682423,-0.0339192207366228,-9.22055914998e-05,-0.0039404514245688,0.0004046380054205
1783206712586919000,4.1849189453125,0.0313316884614527,-0.0002995674684643,-0.0376467168271541,-0.0003992179408669,-0.0017856596969068,0.0019570516888052
1783206712596855600,4.19485546875,0.019730682516843,0.0071861121118068,-0.034795419049263,-8.01719725131e-05,-0.0006506205536425,-0.0006200894713401
1783206712606791700,4.204791748046875,0.0069991016397252,0.0066464522771537,-0.049920507466793,0.0024683848023414,0.0027401950210332,0.0009021442383527
1783206712616728800,4.214728759765625,-0.0004793079495429,0.0045118514012545,-0.0451285970151424,-0.0007207505404949,-0.0014457614161074,-0.001391370082274
1783206712626665700,4.224665771484375,0.010602313763462,0.0109555476479232,-0.0454284567445516,0.0004828972741961,0.0021868059411644,0.0006031398661434
1783206712636602600,4.2346025390625,0.0203477549692615,-0.0018296996451914,-0.0547112488746643,0.0001800954341888,0.0001894352026283,0.0019072899594902
1783206712646539800,4.244539794921875,0.0127867451304569,0.0056951429016888,-0.0433458052515983,0.0013047102838754,-6.56531192362e-05,-0.0012550922110676
1783206712656476700,4.2544765625,0.00909406462498,0.0059472179666161,-0.0430471145659685,-0.000704645179212,0.0003335545770823,-0.0006811809726059
1783206712666412800,4.264412841796875,0.0076924907313659,0.0047069355819374,-0.0408130719035863,0.0010669669136404,0.0020907786674797,1.28580722957e-05
1783206712676349700,4.274349609375,0.0087101433413103,0.003292100347951,-0.0382715707272291,-2.5583431124e-06,0.0004513366147875,0.0004616007208824
1783206712686286600,4.28428662109375,0.0173936544040218,-0.0036561844199895,-0.0502373183310031,0.0001627076417207,-0.0022359564900398,-0.000685048289597
1783206712696223700,4.2942236328125,0.0153643040008842,0.0025352175660431,-0.0503834488034248,4.87249344587e-05,0.0015175025910139,0.0005799531936645
1783206712706161000,4.304160888671875,0.0112782767962664,0.0196546216059476,-0.0409627095073461,-0.0012235138565301,0.0007256516255438,0.0032629102934151
1783206712716097800,4.314097900390625,0.0050730654805898,0.0263115952771157,-0.047993923318386,-0.001358269713819,0.002022610977292,-0.0022117500193417
1783206712726034700,4.32403466796875,0.0123752782527357,0.0208867937494069,-0.0453051226258277,-0.0011057890951633,-0.0004332247190177,0.00138088921085
1783206712735970800,4.333970703125,0.0045765141353011,0.0190632315840572,-0.0438075775444507,-0.0010709017515182,-0.0011227172799408,0.0005728860851377
1783206712745907700,4.34390771484375,-5.38490790873e-05,0.0134402771357446,-0.0450087700277566,0.0010630702599883,9.6345320343e-06,0.0017704067286103
1783206712755844900,4.353844970703125,0.0095768797058612,0.0126390437554568,-0.0536930117428302,0.0017810584977269,-4.97540459036e-05,-0.0012240514624863
1783206712765781800,4.36378173828125,0.0200486624248325,-0.0018081454005092,-0.0282663095414638,0.000568488612771,-0.0009170467965304,-0.000433579320088
1783206712775718700,4.37371875,0.0159411175081506,-0.011914090481773,-0.0385877970695495,-0.0003388505429029,-0.0009069265797734,0.0014870925806462
1783206712785655800,4.38365576171875,0.0199218942400068,-0.0054792351286858,-0.0468202033638954,-8.36700201034e-05,0.0005096602253615,0.0003800473641604
1783206712795592000,4.393592041015625,0.0117773488922044,-0.0078724869407713,-0.0344032048612833,0.0008204728364944,-0.0009795795194804,0.0011164112947881
1783206712805528600,4.403528564453125,0.0105220881341025,-0.0015671031862497,-0.0427870023250579,-0.0006698621436953,5.70304691791e-05,-0.0023202951997518
1783206712815465700,4.4134658203125,0.0060837038278579,0.0039154929433017,-0.0415834717541933,-0.0002967528998851,0.0030656033195555,-0.0003508874215185
1783206712825402600,4.423402587890625,0.0009406783835962,-0.0020410043083131,-0.0417377855330705,0.0008052755147218,-0.0008629262447357,0.0008726646192371
1783206712835339800,4.43333984375,0.0023745105789974,0.0134419576361775,-0.0329173502177,-0.0008821031078696,0.0006111334078013,0.0013155480846762
1783206712845277000,4.44327685546875,0.0064010626813396,0.0153998867709189,-0.0381558353930711,0.0019992049783468,0.0012514134868979,-0.0018023955635726
1783206712855213600,4.453213623046875,4.99766215682e-05,0.0142505706053227,-0.0348702378511428,-0.0009097652509808,0.0009075994603335,-0.0003808001056313
1783206712865149700,4.463149658203125,0.0038131650799885,0.012416633176431,-0.044001054289937,-0.0021617906168103,-0.0004949430003762,-0.0009839066769927
1783206712875086800,4.4730869140625,0.0087786420002579,0.00326608912386,-0.0450455949068069,0.0004049642011523,0.0005442225374281,0.0001412788406014
1783206712885023700,4.483023681640625,0.0071849065354093,0.0044783144578337,-0.0399567473351955,-0.0006464645266532,-0.0003490098752081,0.0006942795589566
1783206712894960600,4.492960693359375,0.0087033117417246,0.0108357206605374,-0.0446001892268657,-4.03290614485e-05,-0.0026603671722114,0.0005121191497892
1783206712904897800,4.502897705078125,0.0206332939123734,0.0053797933422029,-0.0466968692451715,-0.0004726992920041,0.0010034400038421,-0.0007138703949749
1783206712914834700,4.512834716796875,0.0137674632634967,-0.0038323447044938,-0.0306780468583106,0.0008018892258405,-0.0004250798374414,0.0007604553829878
1783206712924771800,4.522771728515625,0.0115701724149286,0.0010416180074214,-0.039062428843975,-0.0010334532707929,0.0012440057471394,-4.1288556531e-05
1783206712934707700,4.532707763671875,0.0088641648592427,0.0066388534925878,-0.0549175851017236,0.0017580715939402,-0.0012252773158252,0.0010143883991986
1783206712944644600,4.54264453125,0.0047189548132941,0.004026844363287,-0.0405634810566902,0.0008159335702657,0.0042491755448281,0.0013192424084991
1783206712954581800,4.552581787109375,0.0056385904088616,0.0039224341407418,-0.0339881943196058,-0.0006448104977607,0.0006549730896949,-0.0005196705460548
1783206712964519000,4.562518798828125,0.0012367021881043,0.0163929894614964,-0.045360652205348,-0.0014402698725461,-8.28602351248e-05,0.0030404953286051
1783206712974455800,4.572455810546875,0.0052586511805653,0.006643091276288,-0.0457972900569438,-0.0028626639395952,0.0030335711780935,0.0007728138007223
1783206712984392700,4.582392822265625,0.0121801210068166,0.0040447453461587,-0.0396563030838966,-0.0008962620049715,-0.0031702667474746,0.0010150210000574
1783206712994328800,4.592328857421875,0.0213495524229481,0.0066818889167159,-0.0396323376864194,-0.0015599215403199,-0.0020003393292427,0.0009742747060954
1783206713004265700,4.602265625,0.0146302175726741,0.0128215607155114,-0.0456114120960235,-0.0024791350588202,-0.0003554630093276,-0.0001147743314504
1783206713014203000,4.612202880859375,0.011153371774964,0.0121597358059138,-0.0441115289270877,-0.0012069419026374,0.0002187145873904,0.0014604851603507
1783206713024139500,4.622139404296875,0.0051586614048108,0.0200134449809789,-0.0489057774662971,0.0006740363314747,0.0001662895083427,0.0012061675079166
1783206713034076700,4.63207666015625,0.0146553885465487,0.00727108698152,-0.0424672688513994,-7.67083838582e-05,0.0001385924406349,-0.0002567067276686
1783206713044013800,4.642013916015625,0.0035115517849102,0.007785758505389,-0.0469528898328542,0.0006639063358306,0.0034432034008204,0.0006520703900605
1783206713053950700,4.65195068359375,0.010568374961242,0.0092432638373225,-0.0469435374826192,-0.0017473204061388,0.0013094786554574,0.0012108015362173
1783206713063886600,4.661886474609375,0.0180464922895655,0.0115244335770606,-0.0476835421949625,-0.0013750214129686,-0.0024874354712665,0.0002023649867624
1783206713073823700,4.67182373046875,0.0117371995449066,0.0096691610991954,-0.042143443724513,0.0016649765893816,0.001900921575725,0.0023310296237468
1783206713083760600,4.6817607421875,0.013199892508611,0.0081026424348354,-0.0457370843023061,-0.0015598675236105,0.0014455243945121,0.0007015073206275
1783206713093697800,4.69169775390625,0.0073179583305492,0.0154932641427963,-0.0482873533070087,-0.0013934196904301,0.0004825252108275,0.0005031018517911
1783206713103635000,4.701635009765625,0.0101614381281659,0.0093334263388067,-0.0412526323646307,0.0016603963449597,0.0003250227309763,-0.0002392726019024
1783206713113571600,4.711571533203125,0.0088626304892823,0.0062852177493274,-0.0530851089775562,0.000621230341494,0.0020297118462622,0.0010073529556393
1783206713123508700,4.7215087890625,0.0023919731704518,0.0047800008181482,-0.0454611899703741,0.0001872144639492,0.0015106708742678,0.0012670583091676
1783206713133444900,4.73144482421875,0.0111630529187619,0.0088579177815467,-0.04845277300179,0.0005802977830171,-0.0013327863998711,-0.0007135344203561
1783206713143381800,4.7413818359375,0.0043446781408041,0.0043907823048532,-0.0349842196196317,0.000323923304677,-0.0004042293876409,-0.0015031818766146
1783206713153318700,4.751318603515625,0.0111085462525486,0.0034532822590321,-0.0438087465882301,0.0001422958448529,0.0004708850756287,0.0007453251164406
1783206713163255800,4.761255859375,0.0093440938632935,0.0045809711147099,-0.0382832611650228,-0.0001184437423944,0.0026655248366296,0.0011490506585687
1783206713173192700,4.771192626953125,0.0017183482252061,0.0116066319677978,-0.0441179586678743,0.0028086360543966,0.0007834690622985,-0.0004722820594906
1783206713183129900,4.7811298828125,0.006984817386046,0.0133678694866597,-0.0432166259139776,-0.0009820824488997,0.0012421705760061,-0.0017343093641102
1783206713193066800,4.791066650390625,0.0045704497206956,0.0072334583848714,-0.0436661232471466,0.0001857141032814,0.0007481542415916,0.0008478914387524
1783206713203002600,4.801002685546875,0.0087947163522243,0.0113020229980349,-0.0481622656226158,-0.0006089368835091,0.0005034450441598,-0.0006287512369453
1783206713212939800,4.810939697265625,0.0104090196810662,0.000745484605059,-0.0514607226461172,-0.0008294470608234,-0.0011636936105787,-0.0027470295317471
1783206713222876700,4.820876708984375,0.0163057495694607,0.0009456833522766,-0.0402507618457078,0.0014525223523378,0.0001039421185851,-0.0022981364745646
1783206713232813800,4.830813720703125,0.009327654185146,0.0080759736236184,-0.0450508556038141,0.0007073692977428,-0.0007631829939782,0.0029637373518198
1783206713242750700,4.840750732421875,0.0064472033780068,-0.0009836042098701,-0.0496960510611534,0.0024680430069565,0.0010083867236971,-0.0005998655688017
1783206713252687600,4.8506875,0.0056066243680194,-0.0069229311309754,-0.037134091129899,-0.0003748815506696,0.002198020927608,0.0014134841039776
1783206713262623700,4.860623779296875,0.0044105099186301,0.0089903850547969,-0.0497071569770574,0.0009611332789063,0.0009975610300898,0.0016538656782358
1783206713272561000,4.870560791015625,0.0023300869153812,0.0037748423635959,-0.0423760834366083,-0.0007440885528922,-0.0003691730089485,0.0029026221018284
1783206713282497500,4.88049755859375,0.0083196461863815,0.0023011896144598,-0.0459691394925117,-0.0006317421793937,-0.0014367341063916,-0.00077910348773
1783206713292434700,4.8904345703125,0.0120941962890326,0.00231024970375,-0.0390852251976728,-0.0001638242974877,0.0007001864723861,-0.0012680597137659
1783206713302371800,4.900371826171875,0.0064024143882095,0.010913535137102,-0.0402764808088541,-0.0014119558036327,-0.0001394334249198,-0.000380155397579
1783206713312308700,4.910308837890625,0.0040141675448045,0.0059104661528021,-0.0464063618659973,0.0005507934838533,0.0004355432465672,0.0030286908149719
1783206713322246000,4.920245849609375,0.0060085927650332,0.0032625819925218,-0.0369873761355876,0.0024277763441205,0.0019511738792061,0.0009754735510796
1783206713332181800,4.930181640625,0.0131484545823186,0.0121718646351248,-0.0474631774425506,0.0007212227210402,-0.0027517024427652,-0.0007643694989383
1783206713342118700,4.94011865234375,0.0109595662359148,0.0206111186131834,-0.0473158779263496,-0.0005374206230044,0.0013282783329486,0.0008622426539659
1783206713352055800,4.950055908203125,0.0123395128196105,0.0145009651698172,-0.0519727638214826,0.0003587333485484,6.35432079434e-05,0.0022441572509706
1783206713361993000,4.959992919921875,0.0142506436705589,0.0073741089645773,-0.0432931982815265,0.000413148663938,-0.0014678495936095,-0.0018751376774162
1783206713371929600,4.9699296875,0.0111965898621827,0.0094931469451636,-0.0364081149429082,0.000642979517579,-0.0001722215674817,-0.0031795538961887
1783206713381866800,4.97986669921875,0.0101970574308186,0.007322013451159,-0.0382020126223564,0.001980785280466,0.0032505951821804,-0.0003591133281588
1783206713391803600,4.9898037109375,0.0095217519851401,0.009654109660536,-0.0434440049290657,-0.0031412718817591,0.0021925210021436,0.0013032318092882
1783206713401739800,4.99973974609375,0.0018482582151889,0.0072919836390763,-0.041790977025032,-0.0019674627110362,0.0008909264579415,2.94710043817e-05
1783206713411676700,5.0096767578125,0.0093120182245969,0.0032445348791778,-0.0510801988959312,0.0021631000563502,-0.0025903573259711,-0.0025862858165055
1783206713421613600,5.019613525390625,0.0108952688280493,0.0098652681931853,-0.0410533104002475,0.0009540459141135,-0.0021623433567583,0.0001140113454312
1783206713431550700,5.02955078125,0.0118428884090855,0.0174142222680151,-0.0476402875751256,0.0003119576722383,-0.0005324892699718,-3.77886462956e-05
1783206713441488000,5.03948779296875,0.010876454529725,0.0144010119266808,-0.0434521882355213,-0.0029386896640062,0.0013078339397907,-0.0004212723579257
1783206713451424800,5.0494248046875,0.010929134565033,0.0049957624606788,-0.0413514165639877,-0.000513082370162,0.0001565497368574,-0.0006215421017259
1783206713461361700,5.059361572265625,0.0003772723471745,0.003370426281169,-0.0467430464744567,0.0013483306393027,0.0033718605991452,0.0023046066053211
1783206713471297800,5.0692978515625,-0.0009319105552509,0.0031804566670209,-0.0477922632664442,-0.0011254791170358,-6.8677123636e-05,-0.0016627041622996
1783206713481234700,5.079234619140625,0.0161671082837507,0.0087111297219991,-0.0418108507692813,0.0005483739078044,0.0005435021594166,-0.0006332956254482
1783206713491171800,5.089171875,0.0154645860375836,0.0058207420427352,-0.0478022001385688,0.0020426735281944,-0.0016956836916506,-0.0003581910859793
1783206713501110000,5.099110107421875,0.0052564226908609,0.005865750228241,-0.0508002129107713,0.0005710609257221,0.0001530842855572,0.0006470310036092
1783206713511047200,5.109047119140625,0.008030417448841,0.0003143266461789,-0.0515501544952392,-0.0017389645799994,-0.0006149713881313,-0.0004999926313757
1783206713520984000,5.118984130859375,0.009553608428128,0.0114574327554553,-0.0412175610512495,-0.0007583191618323,0.0011183912865817,-0.0004847447853535
1783206713530921200,5.128921142578125,0.0047235944557934,0.0102345398969948,-0.049148354050517,-0.000570566393435,0.0021261316724121,0.0002982246223837
1783206713540857000,5.138857177734375,0.0049042847849428,0.0053138884991407,-0.0475023404091596,-3.14461067318e-05,-0.0028578503988683,0.0005954820662736
1783206713550794200,5.148794189453125,0.004161978517659,-0.0044523762989789,-0.0409089334934949,-0.0026040589436888,0.0021105431951582,-0.0007835025899112
1783206713560731100,5.158731201171875,0.0053255058716982,0.0066117462899535,-0.0416524453371763,-0.0017073433846235,0.0037620719522237,-0.0056455573067069
1783206713570668300,5.168668212890625,0.0048964302720502,0.009528291323781,-0.0460030417621135,0.0004199901595711,0.0020880089141428,0.000165726756677
1783206713580605000,5.17860498046875,0.0043659401245415,0.0006694236941635,-0.0545335542201995,-0.0020201550796628,0.0020435405895113,0.0012076504062861
1783206713590542000,5.1885419921875,0.0007289353290572,0.0072325816020369,-0.0519786090403795,0.0006707031279802,-0.0001064292155206,-0.0012123642954975
1783206713600479200,5.198479248046875,0.0059359659202396,0.011297566018626,-0.0507850153416395,-0.0008208705112338,0.0001386078074574,-0.0008287676610052
1783206713610415000,5.2084150390625,0.0160890380788594,0.0038999300479888,-0.0513847348004579,-0.0007814560085535,-0.0011658081784844,-0.0009848289191722
1783206713620352000,5.21835205078125,0.0160919241556897,0.011358210164681,-0.0542255111843347,-0.0010134056210517,0.0021911533549427,-0.0008291073609143
1783206713630289200,5.2282890625,0.0046091742958873,0.0123229635436087,-0.0503337644428014,0.0016899686306715,-0.0006179488264024,3.93495429307e-05
1783206713640226000,5.23822607421875,0.0088436700604856,0.0051851475529372,-0.0536269607692956,-0.0015754392370581,0.0001000175252556,-0.0003462340682744
1783206713650163200,5.2481630859375,0.0120087830279022,0.010373583041504,-0.0533230093866586,0.0007537612691521,0.0005889739841222,-0.0002223970368504
1783206713660100000,5.25810009765625,0.0041947482760995,0.0047260786738246,-0.0564583848029375,-0.0009237844496965,0.0017961342819035,0.0005428874865174
1783206713670037000,5.268037109375,0.0123326812200248,0.0097583737526088,-0.0441992072105407,0.0019612181931734,0.0023322287015616,0.0001822956837713
1783206713679973000,5.27797314453125,0.0092100556874647,0.0057976534280925,-0.0346224005699157,-0.0002048620954155,-0.0009822393767535,-0.0003847025800496
1783206713689910300,5.28791015625,0.0048921559557318,0.0019965806446969,-0.0437450337022542,-0.0003888867795467,0.0001685125753283,0.0016787145286798
1783206713699847200,5.29784716796875,0.01175988630075,0.0124775695834308,-0.0465782113015651,-0.0008922945708036,7.74292275309e-05,-0.0006824245210736
1783206713709784000,5.3077841796875,0.0101386783070862,0.0079731708362698,-0.0515139141380786,0.0003588590770959,0.0005267043597996,0.0006478242576122
1783206713719721000,5.317720947265625,0.0017176906380802,0.0054432139672338,-0.0479255342572927,-0.0003580031916499,-0.0011233696714043,0.0011773169972002
1783206713729658000,5.327658203125,0.0073431293044239,0.0070713996909558,-0.0408873061835765,0.0014167269691824,0.0008289939723908,0.0004436164163053
1783206713739595300,5.33759521484375,0.0069923431053757,0.0058828474935144,-0.0446311688870191,-0.00024851039052,-0.0006709704175591,-0.0008636403363198
1783206713749531100,5.34753125,0.0126069315841421,0.0102684421665966,-0.0549625932872295,4.15071845054e-05,-0.000888017937541,-0.003519610967487
1783206713759468000,5.357468017578125,0.0158569098234176,0.0186659758947789,-0.0486807365387678,8.69771465659e-05,0.0004493771120905,0.0007703879382461
1783206713769405200,5.3674052734375,0.0077179904988035,0.0114512222103774,-0.0546598109483718,0.0003373147919774,-0.0011301436461508,-0.0018520266748964
1783206713779342000,5.377342041015625,0.0141069243509322,0.0087006083279848,-0.0441769953787326,3.03927809e-05,-0.0009977458976209,0.0011380556970834
1783206713789279200,5.387279296875,0.0153133775312453,0.0124985393062233,-0.0480599742919206,0.0007521091029047,-0.0001042555086314,-0.0018950182711705
1783206713799216000,5.397216064453125,0.0057605362880975,0.0178776019960641,-0.0479085831224918,-0.0017309561371803,0.0001191771589219,-0.0018116598948836
1783206713809153000,5.407153076171875,0.0090212916497141,0.0082286069020628,-0.0411526791214942,-0.0010031145066022,-0.0014438321813941,0.0009335265494883
1783206713819089200,5.417089111328125,0.0057987128740176,0.0052954760596156,-0.0420475821346044,0.0011214753612875,0.0020082113333046,-7.68222380429e-05
1783206713829026300,5.4270263671875,0.0037059783784672,0.0006400514692068,-0.0314279884427785,-0.0001384662464261,0.0011306996457278,-0.0006773651111871
1783206713838963000,5.436962890625,0.0054829614557325,0.0102901425417512,-0.0487923802196979,0.0002717124298214,-0.0017491299659013,-0.000778431771323
1783206713848900000,5.446900146484375,0.0061461746048182,0.0118031043879687,-0.0451999086856842,0.0009207250550389,0.00320754526183,0.0021507788915187
1783206713858837200,5.456837158203125,0.0168840243814513,0.0067361033219844,-0.0490934089928865,-0.0008459649980068,7.4887648224e-06,-0.0023798388428986
1783206713868774100,5.466774169921875,0.0054319619208574,0.0127818132270127,-0.0398059406876564,-0.0006342437118291,0.0020096534863114,0.0012593707069754
1783206713878711300,5.476711181640625,0.0109137178001925,0.0095028646215796,-0.0408569110453128,-0.0001721819862723,-0.0015459503047168,0.001074498752132
1783206713888647200,5.486647216796875,-0.0001894216248765,0.0062465662393718,-0.0431055667549371,0.0016435608267784,0.0005872417241334,0.0003613044973462
1783206713898584000,5.496583984375,0.0069818947765976,0.004358852796629,-0.0456540821939706,-0.0001985700801014,0.0004676552489399,-0.0016567079583182
1783206713908521200,5.506521240234375,0.014661708689481,0.0030918285354971,-0.0468552746772766,0.0013418020680546,0.0011773877777159,0.0019284395966678
1783206713918458000,5.5164580078125,0.0096854546468704,0.0039265257939696,-0.0368324778348207,-0.0015471670776605,0.0031212903559207,0.0014474592171609
1783206713928395000,5.52639501953125,0.0122442357515916,-0.0016451368585228,-0.0371224006921052,0.0007063997909426,-0.0035488633438944,0.0005627572536468
1783206713938332200,5.536332275390625,0.0136693001186475,0.0073312927361577,-0.0466957002013921,-0.0003851819783449,-0.0002124984748661,-0.0004598216619342
1783206713948269000,5.54626904296875,0.0101120094958692,0.0074411097861826,-0.0466910240262746,-0.0009532338008284,0.0009297314099967,0.0006246175616979
1783206713958205200,5.556205078125,0.0130649775499477,0.0081010349996387,-0.0411544326871633,0.0001506013795733,-0.0004016039893031,0.0032392498105764
1783206713968142000,5.56614208984375,0.0082308353917673,0.0042087037362158,-0.0399526556819677,0.0002669813111424,-0.0024098940193653,-0.000556819839403
1783206713978079000,5.576078857421875,0.0065764192482456,0.001974441878125,-0.0405459453999996,-0.000563196837902,-0.0012920005246996,0.0002074441872537
1783206713988016000,5.58601611328125,0.006665631901659,0.0206337688364088,-0.0394978976517915,-0.0021954486146569,0.0006201490759849,0.001645284704864
1783206713997953300,5.595953369140625,0.0069760130250826,0.0149489281330257,-0.0354570978283882,0.001725360751152,-0.000182915944606,0.0005026636645197
1783206714007890200,5.60589013671875,0.0057570656893774,0.0148762282229959,-0.0371101257324218,0.0004089605063199,0.0002141613513231,-0.0004640638362616
1783206714017827000,5.6158271484375,0.0118804439404979,0.0016251169838011,-0.0430897846639156,-0.0020705834031105,-0.0007049674168229,-0.0009743904229253
1783206714027764000,5.625763916015625,0.004342888042517,0.002605871649459,-0.0432253937423229,-0.0008287513628602,0.0005810731090605,-0.0022210162132978
1783206714037700000,5.6357001953125,0.0121552788265049,0.0006364712726324,-0.0498065256983041,0.0007327310740947,-0.0005333134904503,-2.67827417701e-05
1783206714047637200,5.64563720703125,0.0127335901711136,0.005000000244379,-0.0496592261821031,0.00077960267663,0.000629954971373,-0.0005663393530994
1783206714057574100,5.65557421875,0.010653605559282,0.0040862464003264,-0.0384410820752382,-0.0003224685788154,0.0032772910781204,-0.0013659980613738
1783206714067511000,5.665510986328125,0.0055394408833235,-0.0003190028212964,-0.0453267499357461,-0.0006159488111734,-0.0004764343611896,-0.0018554871203377
1783206714077448200,5.6754482421875,0.0088519629647955,0.0098675332155078,-0.0447229388236999,-0.001122080720961,0.0009434507228434,0.001655688509345
1783206714087385000,5.685385009765625,0.00858596897237,0.0161392338961362,-0.0447094948202371,0.0007482571527361,-0.0011348803527653,-0.0019060233607888
1783206714097322200,5.695322265625,0.0101668449556455,0.0080489394862204,-0.0463572620272636,0.0014410689473152,-0.0006419126875698,-0.0011383220553398
1783206714107258000,5.705258056640625,0.0066917527236044,0.0141826930008828,-0.0355909533411264,0.0007955189794301,0.0014388146810233,-0.0011098261456936
1783206714117195000,5.715195068359375,0.0076971669064834,0.0144016695138067,-0.0477075075924396,0.000929600559175,-0.001164223998785,0.0020900720264762
1783206714127132200,5.725132080078125,0.0118477472472935,0.0014131547335535,-0.0503986463725566,-0.0002658925950527,-0.0014875321649014,-0.002160333096981
1783206714137069300,5.7350693359375,0.0029007629428058,0.0002033405523747,-0.0415787955790758,0.0026837224140763,0.0018127928487956,-0.0023499785456806
1783206714147006000,5.745005859375,-0.0015276479586958,-0.0004462824627757,-0.0448825132995843,-9.07592475414e-05,-0.0007334556430578,0.001190161332488
1783206714156943000,5.754943115234375,-0.0007734685905277,-0.0009046206895262,-0.0477244587272405,0.0020137196406722,0.001552200410515,-0.0004905022215098
1783206714166880300,5.76488037109375,0.0083170889031142,0.003982128438726,-0.0405459453999996,-0.0011040428653359,0.001673374325037,-0.0004015527665615
1783206714176816000,5.774816162109375,0.0050065030504018,0.0085286127619445,-0.044148353806138,0.0003950428217649,-0.0002130344510078,-0.0009214440360665
1783206714186753000,5.7847529296875,0.0103139252761378,0.0105753161586821,-0.0389227281123399,-0.0009088404476642,-0.0007198341190814,0.0016948452685028
1783206714196690200,5.794690185546875,0.0131346087200567,0.0025671470742672,-0.0477285503804683,0.0005604336038231,0.0010625715367496,0.0018212082795798
1783206714206627000,5.804626953125,0.0069547145087271,0.0090973525606095,-0.0472884053975343,0.0015881471335887,0.0022282367572188,-0.0013210554607212
1783206714216564200,5.814564208984375,0.0027967911116778,0.005472732322663,-0.0438432333797216,-0.0008054301142692,-0.0001875320449471,0.0020302305929362
1783206714226501000,5.824501220703125,0.0049978448199108,0.0037397710502147,-0.0448795906901359,-0.0009835949167609,-0.0006953971460461,0.0029050786979496
1783206714236438000,5.83443798828125,0.001304872053489,0.0009400573290884,-0.0478735118091106,0.0001043369993567,0.0004478455521166,0.0011798304039984
1783206714246374100,5.8443740234375,0.0020800211444497,0.009766410928592,-0.0379962609171867,-0.0021428382024168,-0.0002528321929275,-0.000378651311621
1783206714256311300,5.854311279296875,0.0134523328997194,0.0146308020945638,-0.0495189409285783,-0.0004294011741876,0.0002469723112881,0.0018174122087657
1783206714266248200,5.864248291015625,0.0054208560049533,0.0115649847831577,-0.0445908368766307,0.0025304360315203,-0.0019730390049517,0.0023822686634957
1783206714276185000,5.87418505859375,0.0041875513503327,0.0069601213362067,-0.0624018033772706,0.0005164491012692,-0.000393942464143,9.61902551352e-05
1783206714286122000,5.8841220703125,0.0032740167019888,0.0127969377309083,-0.0493839163720607,0.0020008953288197,-0.0011082021519541,0.0005417373031377
1783206714296059100,5.89405908203125,0.0017244126398116,0.0160666070513427,-0.0420639487475156,0.0019135577604174,-0.0008355504833161,0.0003596004098653
1783206714305996300,5.903996337890625,0.0043074148703366,0.0100282767351716,-0.0429676195889711,-0.0011035371571779,0.0006651408039033,0.000514063751325
1783206714315932200,5.91393212890625,0.0152242379430681,0.006022036768496,-0.0434083490937948,6.84158876538e-05,0.0008593825623393,-0.0005668762605637
1783206714325869000,5.923869140625,0.0018757672766223,0.0083986297067254,-0.046106502136588,0.0019627222791314,-0.0021438645198941,3.63297294825e-05
1783206714335806200,5.93380615234375,0.0044131402671337,0.0115734603505581,-0.0314332491397857,-0.0028634071350097,-0.0001134756021201,0.0001266142353415
1783206714345743000,5.9437431640625,0.0068622869849205,0.0119020347177982,-0.0375631301969289,0.0002990961074829,0.0010212971828877,0.0004648356698453
1783206714355680300,5.95368017578125,0.0126226406099274,0.0134526251606643,-0.0412999786376953,0.0007413867861032,0.0017479145899415,-0.0026859883219003
1783206714365617200,5.9636171875,0.002108224325627,0.0041615035936236,-0.044431846922636,-0.002201672643423,-0.0004063164815306,-0.0002651750110089
1783206714375554000,5.973553955078125,0.0049226972244679,0.0002210223395377,-0.0474222609102725,0.0018372517079114,-0.0001693409867584,0.0015903646126389
1783206714385491200,5.9834912109375,0.0114699634434655,0.0083625354800373,-0.0406768783032894,-0.0006642555817961,0.0012205629609525,-0.000462400028482
1783206714395427300,5.99342724609375,0.0169452530493959,0.0099144410971552,-0.0451549005001783,0.0003031194210052,-0.0024737999774515,-0.0018025729805231
1783206714405364000,6.003364013671875,0.0125304688144475,0.0079953096028417,-0.043806993022561,0.001802478916943,-0.0016886997036635,-0.0008670045062899
1783206714415301000,6.013301025390625,0.0099888580402359,0.0046585663955658,-0.0414034390121698,-0.0003908053040504,-0.0029141046106815,-0.0003968840464949
1783206714425238000,6.023238037109375,0.0062530325127765,0.0043596565142273,-0.0424327820599079,-0.0013189176097512,-7.73048959672e-05,-0.0002996786497533
1783206714435175200,6.033175048828125,0.0068767539016902,0.0075344140928238,-0.0401899715691804,0.0020403591915965,-0.0015889788046479,-0.0014376842882484
1783206714445112300,6.0431123046875,-0.0015650573596358,0.0109537940822541,-0.0467863010942935,0.0029154736548662,0.0009325020946562,-0.0011545901652425
1783206714455049000,6.053049072265625,-0.0007580883583053,0.0101815676007419,-0.0444049589157104,0.0001412294805049,0.0008278028108179,0.0014317093882709
1783206714464985000,6.062985107421875,0.0103580566788092,0.0089838091835379,-0.0429068293124437,7.70473852753e-05,0.0004413784481585,-0.0010442312341183
1783206714474922200,6.072922119140625,0.0138954004921019,0.0116460871953517,-0.0514361727267503,-0.0001997519284486,0.0012344256974756,-2.99550592899e-05
1783206714484859100,6.082859130859375,0.0080179963586851,0.0012787877641618,-0.0375187065333127,0.0005126437172293,0.0016328347846865,-0.0011460857931524
1783206714494796000,6.092796142578125,0.0063793988388031,0.0019125556230545,-0.037820319828391,0.0007045967504382,-0.0005566007457673,0.0031053717248141
1783206714504732200,6.102732177734375,-0.000615538082458,0.0055775809366255,-0.0363274509221315,0.0015317741781473,0.0009078714065253,-0.0010683343280106
1783206714514669000,6.1126689453125,-0.009460705980286,0.000104337157309,-0.0346872824996709,0.0013863146305084,0.0014033010229468,-0.000196244334802
1783206714524606200,6.122606201171875,0.0070102806208655,0.0039441345158964,-0.0321568872392177,-0.0003993352875113,0.0014206115156412,0.0037146077957004
1783206714534542000,6.1325419921875,0.010098419361934,0.012146291802451,-0.0451689290255308,-0.0004193978384137,-0.0016757389530539,-0.0008011877071112
1783206714544479200,6.142479248046875,0.0088972634112462,0.0104983053997159,-0.037693478578329,4.0796585381e-05,0.0029568301979452,-0.0002142270095646
1783206714554416000,6.152416015625,0.0042641602504998,0.0114945498954504,-0.0427834951937198,0.0025645466521382,-0.0001986962743103,0.0001459792256355
1783206714564353300,6.162353271484375,0.0152246032692491,0.0151170512415468,-0.0436819053381681,0.00046490970999,-0.0013928576372563,0.0004213501233607
1783206714574290000,6.1722900390625,0.0123056836152449,0.0056323067985475,-0.0514618916898965,-0.0014261277392506,0.0007656044326722,1.46743841469e-05
1783206714584227000,6.18222705078125,0.0088003058427944,0.0042692748170346,-0.0420300464779138,0.0002652462571859,-0.0016418932937085,-0.0003363301511853
1783206714594164200,6.192164306640625,0.0089849782273173,-0.00170863054879,-0.033349896416068,0.0009132605046033,0.0007296158000826,-0.0016546400729566
1783206714604100400,6.202100341796875,0.0052849181329831,0.0088541183892637,-0.0442623355746269,-0.0010785181075334,0.0027379053644835,1.0470394045e-06
1783206714614037000,6.212037109375,0.0116662532005459,0.0132437316503375,-0.03649813131392,0.0010554948821663,-0.0012292880564928,-0.0023944491986185
1783206714623974100,6.22197412109375,0.0068630176372826,0.0145252958934754,-0.0421802686035633,0.0008349856361746,-0.0004074363969266,-0.0036751634906977
1783206714633911000,6.2319111328125,0.0094860596172511,0.0072595426741987,-0.0438280358105897,0.0012127039954066,-0.0007603429257869,-0.0009185075759887
1783206714643848200,6.24184814453125,0.0200633485373109,0.0014290829550474,-0.0342471375167369,0.000259825028479,-0.000247152056545,0.0020482537802308
1783206714653785300,6.251785400390625,0.003640402328968,-0.0081841101732105,-0.0412760132402181,-0.0003257170319557,-0.0005430364981293,-0.0007394531276077
1783206714663722000,6.261721923828125,0.0030455417083576,0.002136281376332,-0.0373848510205745,0.0007605869323015,0.0021523488685488,-0.0022918097674846
1783206714673659100,6.2716591796875,0.0118758773632347,-0.0035359921064227,-0.0399362890690565,-0.0013313246890902,-0.0017175334505736,5.48854004591e-05
1783206714683595300,6.28159521484375,0.0144748443478718,0.0050671471964567,-0.0294599032402038,0.0006335554644465,0.000866531394422,-0.0007738904096186
1783206714693532200,6.2915322265625,0.0057027051536366,-0.0026513912916183,-0.0436778136849403,-0.0034261355176568,-0.0006089713424444,-0.0006588292308151
1783206714703469000,6.301468994140625,0.0048938729887828,0.0033235914647579,-0.0463613536804914,-0.0010111816227436,0.0009385915473103,0.0013151059392839
1783206714713406200,6.31140625,0.0053281362202018,0.0018951660968363,-0.0388742127954959,-0.0010091625154018,0.0015277909114956,0.0026960775721818
1783206714723343000,6.321343017578125,-0.0014372662615031,0.0055116030283272,-0.0274935716032981,-0.0021431362256407,-0.0017311195842921,0.0013903297949582
1783206714733280300,6.3312802734375,0.0049050154373049,-0.0060020168937742,-0.0394517204225063,0.0002605766057968,0.0006071007810533,4.0944898501e-05
1783206714743217200,6.341217041015625,0.0002478738138452,0.002931304211542,-0.0398977106243371,0.0008070571348071,0.0008987169712781,-6.6380482167e-05
1783206714753153000,6.351153076171875,-0.0021717545485123,-0.0043687166035175,-0.0364595528692007,-0.0008660927414894,-0.0019218660891056,-0.0007621541153639
1783206714763090200,6.361090087890625,0.0012328662632033,0.0010687252100557,-0.0463233597576618,-0.0006567677482962,-0.0003250348381698,-0.0001267238985747
1783206714773027000,6.371027099609375,-0.0047558527575805,0.0089671503096818,-0.0446750080287456,-0.0018671723082661,0.0011340244673192,-0.0007947906851768
1783206714782964200,6.380964111328125,0.00187426943928,0.0138218968644738,-0.0403448698699474,-0.0007891245186328,0.0017076693475246,-0.0014371450524777
1783206714792901000,6.390901123046875,0.0071592241048812,0.0144946084942668,-0.0469277553915977,0.0002066437155008,0.000732853077352,0.0021103580947965
1783206714802838000,6.400838134765625,0.0034780148414894,0.0042920711707323,-0.0413800581365823,-0.0003121402114629,-0.0010037943720817,0.0008562754373997
1783206714812775200,6.410775146484375,0.0123426911573857,0.0004309387631714,-0.035227965247631,-0.0014133118093013,-0.0016016489826142,-0.0013795467093586
1783206714822711300,6.420711181640625,0.009597264906764,0.00662299833633,-0.0277525148004293,-7.98674300312e-05,-0.0004900451749563,0.0003246099222451
1783206714832648000,6.43064794921875,0.0097008714117109,0.01538848859407,-0.0379302099436521,0.0029260143637657,0.0001744963228702,0.0031778535339981
1783206714842585000,6.440585205078125,0.0168557116024196,0.0156375679843127,-0.0415302802622318,-0.0006125280633568,-0.0004992834292352,-0.0006475113332271
1783206714852522200,6.450522216796875,0.0092377474119886,0.0066440411243587,-0.0347948345273733,-0.000652871094644,-0.0007038135081529,-0.0015792569611221
1783206714862459100,6.460459228515625,0.0150074899198487,0.000448474419862,-0.0338946708172559,-0.0008118618279695,0.0002333526499569,0.0012508842628449
1783206714872396300,6.470396240234375,0.0197496429456397,0.0122713064216077,-0.0421270771116018,0.0018901266157627,-7.9581514e-06,0.0016264526639133
1783206714882333000,6.4803330078125,0.0202608804034069,0.0133317752599716,-0.0496188941717147,0.0001412285491824,-0.0006029084324836,-0.0014745318330824
1783206714892269000,6.49026904296875,0.0070003072161227,0.0119625327333807,-0.0410854591041803,-0.0009609377011656,0.0009140432812273,-0.0010213700588792
1783206714902206200,6.500206298828125,0.0151298011252656,0.0142425334293395,-0.0416729036033153,-0.0013891737908124,0.0006024530157446,0.0040591424331068
1783206714912143000,6.51014306640625,0.0245023538980633,0.0019774375528097,-0.0487140542864799,0.0002256566658616,-0.0009333193302154,0.0023533517960458
1783206714922080000,6.520080078125,0.0143519120879471,-0.0047683103803545,-0.0448211385011672,0.0003662714734673,0.000369765330106,-0.0025447341613471
1783206714932017200,6.53001708984375,0.0080192384677007,-0.0041338849343359,-0.0349561625689268,-2.69003212451e-05,0.0010445970110595,0.0012499392032623
1783206714941954000,6.5399541015625,0.0038267917465418,0.0111943979050964,-0.0312093772560358,0.0003097224980592,0.0010480592027306,-0.0018020431743934
1783206714951891200,6.54989111328125,-0.0011094956118613,0.0197125623382627,-0.0415332028716802,-0.0015912698581814,-0.0011540288105607,0.0006680344231426
1783206714961828400,6.559828369140625,0.0046289749749004,0.0118680593829602,-0.0430161349058151,-0.0007872618734836,-0.0018477821722626,-0.0018979210872203
1783206714971764000,6.569763916015625,0.0064140682933852,0.0162825148243457,-0.0424234297096729,0.0028492966666817,0.0019330270588397,-0.0029913268517702
1783206714981701000,6.579701171875,0.0086519834132865,0.0129928256291896,-0.0364385100811719,-6.87288120388e-05,-0.0018454659730196,0.0008161945734173
1783206714991638300,6.58963818359375,0.0097339699637144,0.007095730414614,-0.0506593431353569,0.0004812069237232,0.0019000573083758,0.0012656298931688
1783206715001575200,6.5995751953125,0.0055598991494625,0.0057682081378996,-0.0573942043483257,0.0002950523048639,-0.0013604508712887,-0.0019064614316448
1783206715011512000,6.609511962890625,-0.0026733108624815,0.0102830552138388,-0.0461731376320123,-0.0007488634437322,-0.0012159398756921,-0.0005208628717809
1783206715021449200,6.61944921875,-0.0094146748814731,0.0025892858408391,-0.0436363126307725,0.0005920380353927,0.001599820330739,0.0008069889154285
1783206715031386000,6.62938623046875,0.0021451588025316,-0.0044685237161815,-0.0400415030092,-0.0010080970823764,-0.0011529293842613,0.0023906149435788
1783206715041322200,6.639322265625,0.0213041789112612,-0.0171219613231718,-0.0380897844195365,0.0010638423264026,-0.0001457221806049,-0.0016310247592628
1783206715051259100,6.649259033203125,0.0124643082430586,-0.0100324414536356,-0.0413864878773689,-0.001068752259016,-0.000238683540374,0.0008430113084614
1783206715061196000,6.659196044921875,-0.0021624752635136,0.010099442275241,-0.0443786554306745,0.0008913343772292,0.0010345741175115,0.0023671383969485
1783206715071133200,6.66913330078125,-0.0024280673971399,0.0142738784156739,-0.0431967521697282,0.0018678503111004,0.001295433845371,-0.0003899312578141
1783206715081070000,6.679070068359375,0.0063994187135249,0.0174753778707236,-0.0455903693079948,-0.0030965488404035,0.0012466982007026,-0.0035793329589068
1783206715091007200,6.68900732421875,0.0013608400244265,0.003361073930934,-0.0377986925184726,-0.0010454477742314,-0.0010715168900787,-0.0010373697150498
1783206715100944100,6.698944091796875,0.0061099707802757,0.0008368892155587,-0.0430325015187263,0.0029514245688915,0.0003484804183244,-0.0006964851636439
1783206715110881000,6.708881103515625,0.0155733071090653,0.0030536884821951,-0.0428910472214221,0.002183761447668,-0.0006752489134669,-0.0017488265875726
1783206715120817200,6.718817138671875,0.0133169795496389,0.0044285570319741,-0.0360100555360317,-0.001129743643105,5.33917918801e-05,-0.0013807776849716
1783206715130754300,6.72875439453125,0.0078275883531197,0.0065573857542127,-0.0415472313970327,0.0010603256523609,0.0004195505753159,0.0015051157679408
1783206715140691000,6.73869091796875,0.0175256467532366,-0.0042173254340887,-0.0467921463131904,0.0010051978752017,0.0014581833966076,-5.30998222529e-05
1783206715150628000,6.748628173828125,0.0145345021132379,0.0002573357619345,-0.0397644396334886,5.4836273193e-06,-0.003648797981441,0.0011898030061274
1783206715160565200,6.758565185546875,0.0142097636708989,0.0012564298018813,-0.0436456649810075,-0.001605462282896,-0.0016184039413928,0.0024015412200242
1783206715170502100,6.768502197265625,0.0096270024579018,0.0033591011695563,-0.0410889662355184,-4.1741877794e-06,0.0007294779643416,0.0001977207139134
1783206715180439300,6.778439208984375,0.0124307347670197,0.0015399229183793,-0.0425900184482336,0.0018555112183094,-0.0025275684893131,0.0003788154572248
1783206715190375200,6.788375244140625,0.0060553910488262,0.0150154174979776,-0.0393073435157537,0.0029599471017718,0.0004654033109545,-0.00170653546229
1783206715200312000,6.79831201171875,0.0099641254577785,0.0113368020504713,-0.0379646967351436,-0.0019117733463644,-0.0004105102270841,0.001443451270461
1783206715210249200,6.808249267578125,0.0172779556024819,0.0025351445008069,-0.0413981783151626,-0.0018219258636236,0.0017216708511114,-0.0002433836925774
1783206715220186000,6.81818603515625,0.0064994815545156,-0.0004752162963151,-0.0370522580653429,-0.0007822280749678,0.0022737442050129,0.0005430476740002
1783206715230123000,6.828123046875,0.0019885069360956,-0.0049185325060039,-0.0416956999570131,0.0009331190958619,-3.39057296514e-05,-9.36414580792e-05
1783206715240060200,6.83806005859375,0.0061436538541689,0.0005032733470201,-0.0318237097620964,0.0001115342602133,0.000639874022454,0.0034872449468821
1783206715249997000,6.8479970703125,0.0080676441866904,0.0129324006788432,-0.0333101489275693,-0.0008978405967354,-9.3448907136e-06,0.0002304359804838
1783206715259933200,6.85793310546875,0.0004720744911581,0.0071202072687447,-0.0485685083359479,-0.0019162334501743,0.0008471277542412,-0.0007458787877112
1783206715269870000,6.8678701171875,0.007054813882336,0.0065555591233074,-0.0530488686203956,-0.0001855120062828,0.0011234199628233,-0.0002138067502528
1783206715279807000,6.877806884765625,0.0109413729920983,0.0109168230727314,-0.0427256275266408,0.00091437343508,-0.0017088516615331,-0.0024889453779906
1783206715289744100,6.887744140625,0.0089131185675039,0.0096850162554532,-0.0410743531882762,-0.0011440385133028,-0.0017293407581746,0.0013163038529455
1783206715299681300,6.897681396484375,0.0115725470351055,0.0087103260044008,-0.0446545497626066,-0.0018271394073963,-0.0014390558935701,0.0006204200908541
1783206715309618200,6.9076181640625,0.0075207508936524,-0.0010194792408496,-0.0494435376048088,-0.0005150586366653,0.0019876859150826,0.0012770788744091
1783206715319555000,6.91755517578125,0.0007767930587753,-0.0006803834795951,-0.035237317597866,0.000334489159286,0.0003511733375489,0.001134599559009
1783206715329491200,6.9274912109375,0.0020061887232586,0.0144677935525774,-0.0419838692486286,0.0030440222471952,-0.0001275767572224,0.0002349927090108
1783206715339428000,6.937427978515625,0.0070133858934044,0.0174435944929718,-0.0472287841647863,-0.0008095717057585,-0.0018620938062667,0.0006166237872093
1783206715349365200,6.947365234375,0.0113603655891492,0.0136371148820966,-0.0392921459466218,-0.0007734382525086,-0.0007868316024541,-0.0043637487106025
1783206715359302100,6.95730224609375,0.0019196064183488,0.0116067780982702,-0.0466185433119535,-0.0019521536305546,-0.0016227979212999,-0.0003002977464348
1783206715369239000,6.967239013671875,-0.0005234758848324,0.0136105191361159,-0.0347924964398145,-0.0009491872042417,-0.0005345651879906,0.0007276048418134
1783206715379176200,6.97717626953125,-0.0018838775178417,0.0052601124852895,-0.0409188703656196,-0.0010935300961136,-0.0017002308741211,0.0001563564874231
1783206715389113000,6.987113037109375,0.008068886295706,0.0107202775873243,-0.0442021298199892,0.0016092816367745,0.0017243572510778,4.77554276585e-05
1783206715399050200,6.99705029296875,0.0055111646369099,0.0128603583559393,-0.0383703549265861,0.0019592205062508,-0.0009017856791615,0.0016238139942288
1783206715408986000,7.006986083984375,0.0066713309900835,0.0129440911166369,-0.047954760351777,-0.000293425284326,0.0010430631227791,0.0010614425409585
1783206715418923300,7.01692333984375,0.0067819882903248,0.0066422875586897,-0.0443576126426458,-0.0006236573681235,-0.0018153078854084,-0.0004461728967726
1783206715428860200,7.026860107421875,0.0080641370553523,-0.0044382747083902,-0.0388169296503067,-0.0007921420037746,0.0017391424626111,-0.0025850925594568
1783206715438797300,7.03679736328125,0.0016048413807526,-0.0002680763516575,-0.0374696066945791,0.0009109489619731,-0.0018795607611536,0.0008663642220199
1783206715448734000,7.04673388671875,0.0101645799333229,0.0079383917838335,-0.0449532404482364,-0.0010356931015849,-0.0022855391725897,-0.0004012559074908
1783206715458671000,7.056671142578125,0.0070050199238583,0.0158306063383817,-0.0558750319570302,0.0010788571089506,0.001013052649796,0.0011226048227399
1783206715468608300,7.066608154296875,0.0074994158446788,0.006979629754275,-0.0430202265590429,0.0024818386882543,0.0014805658720433,0.0002684486098587
1783206715478544100,7.076544189453125,0.0106406364798545,0.0032984570235013,-0.0547030655682086,-5.56213781237e-05,0.0016083973459899,0.0010913654696196
1783206715488481000,7.08648095703125,0.0051385319322347,0.0018077800743281,-0.0482850152194499,0.0006646001711487,0.0011994671076536,-0.0008719535544514
1783206715498418200,7.096418212890625,0.0101406510684639,0.0058861354291439,-0.0436591089844703,-0.000965254381299,0.0004966589622199,-0.0015076500130817
1783206715508354600,7.1063544921875,0.0136596920400857,0.00994037925601,-0.0403536376982927,-0.0009070867672562,-0.0002759331837296,-0.0008443493861705
1783206715518291700,7.116291748046875,0.0125629828445613,-0.0050802258737385,-0.0412543859302997,0.0014743125066161,-0.0002208058722317,0.0016166777350008
1783206715528228900,7.126228759765625,0.0086795290073379,-0.002278393260762,-0.0415548301815986,0.0002777548506855,-0.0024900087155401,0.0002511192578822
1783206715538165800,7.136165771484375,0.010374277161248,0.007207301030308,-0.0451484707593917,0.0027707396075129,0.0012599881738424,0.0008159754797816
1783206715548103000,7.14610302734375,0.0003343099882826,0.0125455202531069,-0.0481494061410427,0.0025021480396389,-0.0004774648696184,0.0018279931973665
1783206715558038800,7.156038818359375,0.0029081425316631,0.0142973323564976,-0.0385685078471899,0.0002730824053287,-0.000469475518912,9.80037730187e-05
1783206715567975700,7.1659755859375,0.0126847095280885,-0.001953983611986,-0.0443950220435857,0.0003676898777484,0.0008432464674115,0.0009312506299465
1783206715577912800,7.175912841796875,0.0202129861410707,0.0009984364528208,-0.0430436074346303,-0.0017617736011743,-0.0009786221198737,-0.0021542876493185
1783206715587849700,7.185849609375,0.0098002401329576,-0.0058488721586763,-0.0364478624314069,-0.0008883252739906,0.0031149326823651,-0.0017433683387935
1783206715597786600,7.19578662109375,-0.0037556627390906,-0.0004116495408117,-0.0376589917868375,-0.0007232092320919,0.0011364701204001,0.0002401540987193
1783206715607723800,7.205723876953125,0.0035920331425964,0.0074365066763013,-0.036910219246149,-0.0019468702375888,0.0029074358753859,-0.0001317674759775
1783206715617660700,7.21566064453125,0.0179619192786514,0.0055287002936005,-0.0387152228415012,0.0001618210226297,-0.002955247182399,-0.0028950634878128
1783206715627596800,7.2255966796875,0.0283805835708975,0.0076400664243847,-0.0406511593401432,0.0011449633166193,-0.0017394092865288,-0.0020807720720767
1783206715637533700,7.23553369140625,0.0194787535823881,-0.0014162234734743,-0.0397556718051433,0.000826715491712,-0.0014776205644011,0.0010684158187359
1783206715647470600,7.245470703125,0.0013667948411777,-0.0003457446977496,-0.0345317996770143,-3.34624201059e-05,0.000447813887149,0.0001893728040158
1783206715657407700,7.25540771484375,0.0054418987929821,0.0070461921844631,-0.0393231256067752,-0.0007072417065501,0.0015447698533535,0.0005014953203499
1783206715667345000,7.265344970703125,0.0018271788945421,0.0021273674175143,-0.0408107338160276,-0.0032214932143688,0.0028797425329685,0.0010891403071582
1783206715677281800,7.27528173828125,0.0060428603608161,0.0089924308814108,-0.0423106169849634,-0.000645151361823,-0.0037659094668924,-0.0004680098500102
1783206715687218700,7.28521875,0.0102489337485283,0.0202300103411078,-0.0527794040292501,4.87528741359e-05,-0.0017806384712457,-0.000146267004311
1783206715697155800,7.29515576171875,0.0177023184943944,0.0108937344580888,-0.0512847815573215,0.0016676886007189,-0.0016312347725033,-0.000364646082744
1783206715707091700,7.305091796875,0.0297243628626689,-0.0042575843792408,-0.0515787960678338,-0.0021862816065549,-0.0003245496191084,0.0019771363586187
1783206715717028900,7.31502880859375,0.0228896945370361,-0.0026777678418904,-0.0434913512021303,-0.0019793538376688,-0.0018606605008244,-0.0017803175142034
1783206715726965800,7.3249658203125,-0.0020930998217314,0.0032039836730808,-0.0413888259649276,0.0001396732404828,0.0008623343892395,-0.0018149806419387
1783206715736902700,7.334902587890625,-0.0103070206113159,0.0151667356021702,-0.0511199463844299,-0.0019429186359047,-0.0002215718850493,-0.0004618286620825
1783206715746839800,7.34483984375,0.0046992271995171,0.0086692633416503,-0.0553033695489168,2.18022614717e-05,0.0006959312595427,-0.0008117028046399
1783206715756776700,7.354776611328125,0.0114991530053317,0.004628463518247,-0.0403314258664846,-0.0015806211158633,-0.0001805149950087,-0.0039116223342716
1783206715766713900,7.3647138671875,0.0147347373930737,0.0093548344530165,-0.0388327117413282,-0.0006081834435462,2.66935676336e-05,-0.0008056026417762
1783206715776650800,7.374650634765625,0.0144157711043953,0.0099452015615999,-0.0442313559144735,0.0022682966664433,0.0004200423136353,0.0021185481455177
1783206715786587000,7.3845869140625,0.0175445706494152,0.0045469957798719,-0.0475233831971883,-0.0020976588129997,-0.0028663650155067,-0.0002761334180831
1783206715796523800,7.394523681640625,0.0129994745656847,-0.0041539778742939,-0.0388268665224313,-0.0012076301500201,0.0022964386735111,-0.0017730962717905
1783206715806461000,7.4044609375,0.0140670672645792,0.0054112113937735,-0.0410696770131587,-0.0007940754294395,0.0004882710054516,-0.0005770006682723
1783206715816397600,7.4143974609375,0.0119825891407206,0.0141195646367967,-0.0476379494875669,0.00024189427495,-0.0016579702496528,0.0017045293934643
1783206715826334700,7.424334716796875,0.0093477836577221,0.0067904638577252,-0.044344168639183,0.0004135239869356,0.0014907428994774,-0.0005335274618119
1783206715836271900,7.43427197265625,-0.0045910175846889,0.0203347858898341,-0.0458645100742578,0.0016415072605013,0.0023373616859316,0.0011423998512327
1783206715846208800,7.444208740234375,0.0005717354733496,0.0161108845844864,-0.0460328523784875,0.0002331128343939,0.0010996726341545,-0.0017173308879137
1783206715856144600,7.45414453125,-0.0044239173894748,0.0095398356311023,-0.0532189644902944,-0.0005812821909785,0.0005923402495682,-0.0014667274663224
1783206715866081800,7.464081787109375,0.0096951723232865,0.0050330257311463,-0.0445475822567939,0.0019149165600538,-0.0024630222469568,0.0010536047630012
1783206715876018700,7.474018798828125,0.018122918526642,-0.0134870388869196,-0.0318289704591035,-0.0007040360942482,0.0008986857719719,-0.0003133958671241
1783206715885955800,7.483955810546875,0.0070632163845002,-0.0068562956355512,-0.0349807124882936,0.0010105818510055,5.7877041399e-06,-0.0007419507019221
1783206715895892700,7.493892822265625,0.0016172990035265,-0.001574848101288,-0.0421627329468727,-4.2431987822e-05,-0.000557470601052,0.0012540884781628
1783206715905829600,7.50382958984375,0.0045103900965303,-0.0057504532855004,-0.041419805625081,0.0003652730956673,0.0008106417953968,0.0007067120168358
1783206715915766800,7.513766845703125,0.012708090403676,0.0013176584698259,-0.0529348868519067,-0.0014246376231312,9.7713433206e-05,-0.002158316783607
1783206715925703700,7.52370361328125,0.0182963388647884,0.0100844639018177,-0.0403583138734102,-0.0004677893593907,-0.0013630273751914,0.0022984289098531
1783206715935639800,7.533639892578125,0.0129598366750404,0.0187045543394982,-0.0455892002642154,0.0007820324972271,-0.0019641024991869,0.0002832149621099
1783206715945576700,7.54357666015625,0.005816175465472,0.0152452076658606,-0.0499251836419105,0.0006157550960779,0.0009866673499345,-0.0013482992071658
1783206715955513600,7.553513671875,0.0036297348044812,0.0092803809773176,-0.0481418073564767,0.0008501140400767,0.0018785600550472,0.0009454812388867
1783206715965450800,7.56345068359375,-0.0017554653652012,0.010582914943248,-0.0277875861138105,0.0010316791012883,-0.0017719455063343,-0.0009494854602962
1783206715975388000,7.573387939453125,0.0038594153745099,-0.0041592385713011,-0.0283878900945186,-0.0018858145922422,-0.0005016177892684,0.0006313668563961
1783206715985324800,7.58332470703125,0.001415748549439,0.0020779022525995,-0.0490250199317932,-0.0021207248792052,-0.0016543492674827,0.001424302579835
1783206715995261700,7.59326171875,0.0046578722758218,0.0059494829889386,-0.0528986464947462,-0.0007420061156153,-0.0016548819839954,-0.0039105420000851
1783206716005197800,7.60319775390625,0.0216395118128508,0.0116448450863361,-0.0421288306772708,0.0023395316675305,0.0022631362080574,-0.0008792660664767
1783206716015134700,7.613134765625,0.018743973034434,0.0124457131404429,-0.0427513464897871,0.0012255311012268,0.0014799004420638,-0.0003117464948445
1783206716025071900,7.62307177734375,0.0203380738254636,0.0027297902900725,-0.0402104298353195,0.0013305013999342,6.50570727884e-05,-0.0028151804581284
1783206716035008800,7.6330087890625,0.0121438441170379,0.0042457478109747,-0.0412578930616378,-0.0006506238132715,-0.0007085911929607,-0.0013294029049575
1783206716044945700,7.642945556640625,0.0002969371199607,0.0105038583576679,-0.0487327589869499,0.0016772951930761,-0.0010883305221796,-0.0006449148058891
1783206716054882800,7.6528828125,-0.0034901436707004,0.0076246496595442,-0.0352694663017988,0.0028408300131559,-0.0002518314868211,0.0002443145494908
1783206716064819700,7.66281982421875,0.0100953140893951,0.0009011866234242,-0.0378039532154798,-0.0013448474928736,0.0008047018200159,-0.0011929343454539
1783206716074756900,7.6727568359375,0.0086045275423675,0.0015080664753913,-0.0433411290764808,-0.000790910795331,0.0030582686886191,0.0002526296302676
1783206716084692700,7.682692626953125,0.0051965457297861,0.0101402857422828,-0.0463350501954555,0.0002188878133893,0.0005126590840518,0.0009211911819875
1783206716094630000,7.6926298828125,0.0155383819261565,0.0018712737645953,-0.0458890599936246,0.0007001208141446,0.0026365299709141,-0.0010082691442221
1783206716104566800,7.70256689453125,0.0184124029925093,0.0049447629258036,-0.0434819988518953,0.0003125378862023,-0.0042559052817523,-0.0011284914799034
1783206716114504000,7.71250390625,0.0074422422973439,0.011368950754404,-0.0404839860796928,-0.0016360972076654,0.0009500416927039,-0.0007330121006816
1783206716124440600,7.722440673828125,0.0027429054999724,0.0135125386543571,-0.0457160415142774,-0.0013169832527637,-0.0001685810275375,-0.0003865007311105
1783206716134377700,7.732377685546875,-0.0008396291619166,0.0054083618495613,-0.0451151530116796,-0.0010392153635621,-0.0020077596418559,-0.0006674642208963
1783206716144315000,7.74231494140625,-0.00511471266523,-0.003448752214387,-0.0412134693980216,-0.0032576657831668,0.0012365169823169,-0.0009191641584038
1783206716154250800,7.752250732421875,0.0002846621602773,0.0084006755333393,-0.0429991837710142,0.0005005858838558,-0.0004202350974082,-0.0007258187979459
1783206716164187600,7.762187744140625,0.0167929120318964,0.0054859571304172,-0.043601825839281,0.0021778428927063,0.0019668224267661,0.0005057542584836
1783206716174124800,7.772124755859375,0.020352065818198,0.0037037498887628,-0.0490022235780954,0.002545092254877,0.0018970477394759,-0.0010327538475394
1783206716184061700,7.782061767578125,0.0169671360876411,0.0132933429457247,-0.0455722491294145,-0.0012610349804162,0.0022627143189311,-0.0019693542271852
1783206716193998800,7.791998779296875,0.0138027537725865,0.0220077606033533,-0.0442243416517972,-0.0020783590152859,0.0002482994459569,-0.0002185921184718
1783206716203935700,7.801935791015625,0.0097486560761928,0.0067739511143416,-0.0404863241672515,-0.0005354303866624,0.0008935942314565,0.0005997894331812
1783206716213872600,7.81187255859375,0.0077042542343959,0.0077544135190546,-0.0473795908123254,-0.0011447621509432,0.0010659005492925,-0.0001054154708981
1783206716223809800,7.821809814453125,0.0021640826987102,-0.0074640522703528,-0.0386930110096931,-0.0005224291235208,-0.000447844620794,-0.0004038035403937
1783206716233746000,7.831745849609375,-0.0017760697618126,-0.0058498950719833,-0.0335936420440673,-0.0018388293683528,0.0025271726772189,6.43802341073e-05
1783206716243682800,7.841682861328125,0.0049170712012797,0.0070205462865531,-0.0530371781826019,-0.0017763841897249,0.000828344374895,-0.0003157504834234
1783206716253619700,7.85161962890625,0.0169000256681814,0.0115100397255271,-0.0392699341148138,0.0025629708543419,-0.0008403924293816,-0.0008060385007411
1783206716263556600,7.861556640625,0.0141669839750975,0.0158034260705113,-0.05125029476583,0.0012559546157717,0.0006017838604748,-0.0003381303977221
1783206716273493800,7.87149365234375,0.0147591777145862,0.0115432113427668,-0.0398842666208744,0.0016349228098988,0.0007160333916544,0.000858694082126
1783206716283431000,7.881430908203125,0.014423954410851,0.0070754182789474,-0.0427367334425449,0.001609768718481,0.0006518866866827,-3.11555340886e-05
1783206716293367800,7.891367919921875,0.0074428633518517,-0.0052418461762368,-0.0417015451759099,-0.0006424663588404,0.0028460652101784,0.0002173173706978
