time,seconds_elapsed,ax,ay,az,gx,gy,gz
1783206683646504000,0.09550390625,-0.0020433789284899,0.0136859955251216,0.0572024811685085,-0.0150847202166914,0.006041292566806,-0.0016597086796537
1783206683656439800,0.105439697265625,0.0005770327029749,0.0009507979188114,0.0011216975063085,0.0025834897533059,-0.0025165094994008,-1.09456013888e-05
1783206683666376000,0.1153759765625,0.0079107000593096,0.0204033941466361,-0.0921551366060972,0.014876177534461,-0.0079077463597059,-0.002292051911354
1783206683676312800,0.125312744140625,0.0158691117178648,0.0090665920961648,-0.0874029736429452,-0.0011267578229308,0.0024064101744443,0.0025762065779417
1783206683686248700,0.135248779296875,0.0177267222832888,0.0100463238485157,-0.0150917706698179,-0.0113298613578081,0.004673559218645,0.0014744570944458
1783206683696184800,0.145184814453125,0.020129216847755,-0.0008916150774806,0.0126163204669952,0.00186104234308,0.0002702889032661,-0.0019924461375921
1783206683706122000,0.1551220703125,0.0292590469058603,0.0027971564378589,-0.057600540575385,0.0073789847083389,-0.006528009660542,0.0013554247561842
1783206683716057900,0.165057861328125,0.025845219874382,0.0098022128943353,-0.092647888559103,-0.000764962285757,0.0041845557279884,-0.0024390472099184
1783206683725994000,0.174993896484375,0.0168689364101737,0.009322101227194,-0.038016134661436,-0.0060213627293705,0.0038103337865322,6.3774641603e-06
1783206683735931000,0.184930908203125,0.0017456380909308,0.017807532434538,0.0044955578535795,1.89533457159e-05,0.0019887317903339,0.0013872263953089
1783206683745866800,0.19486669921875,0.0078654361454769,0.0103218528542667,-0.0404079982340335,0.0043155336752533,-0.0028189327567815,0.0015519426669925
1783206683755803000,0.204802978515625,0.0078179072093218,0.0134364046782255,-0.0812760151952505,0.0019999155774712,-0.0013464707881212,0.0015053374227136
1783206683765740000,0.214739990234375,0.0084849928159266,0.0136019705034792,-0.0470019896715879,-0.0082111237570643,0.0022751404903829,0.0003530839458107
1783206683775675600,0.224675537109375,0.01235668315012,0.0045350130811333,-0.0107779991239309,0.002092913724482,0.0013986942358314,0.0024460621643811
1783206683785611800,0.23461181640625,0.0101460578959435,0.0109758597835898,-0.0538905801415443,0.0013941265642642,-0.000687105115503,-4.7008274123e-05
1783206683795549000,0.244548828125,0.0140076286949217,0.0144448510684072,-0.0673673168301582,0.0027480777353048,-0.0004120008088648,-0.0009684618562459
1783206683805484800,0.25448486328125,0.0103786610754206,0.0216682264506816,-0.0404547599852085,-0.0006130980327725,0.0038170991465449,-0.0019136178307235
1783206683815421000,0.2644208984375,0.0101350250452756,-0.0047637072704732,-0.0253442846149206,-0.001132414676249,0.0032903258688747,0.000528500881046
1783206683825357800,0.27435791015625,0.0161957863889634,-0.0022868688281625,-0.0445072502464055,0.0025054812431335,-0.0003010425716638,0.0013438151217997
1783206683835293700,0.284293701171875,0.0214251749424263,-0.001304506727308,-0.0654687897324562,0.0013659140095114,-0.0007923957891762,-0.0012988394591957
1783206683845229800,0.294229736328125,0.018306969856657,0.0041976708855479,-0.0445277085125446,0.0013437662273645,0.0004601962864398,-0.0006035235710442
1783206683855167000,0.3041669921875,-0.0015509557690471,0.0098147801149636,-0.0336029943943023,-0.0010184571146965,0.0008253157138824,0.0013262031134217
1783206683865102800,0.314102783203125,0.0032884105535224,0.0142148417048156,-0.0463134228855371,-0.0005165887996554,-0.0017076735384762,0.0003055187407881
1783206683875039000,0.3240390625,0.0096662019571289,0.013662906910479,-0.046779871353507,0.0034967949613928,-0.0006213700398802,-0.0023597727995365
1783206683884975900,0.333975830078125,0.0215465728323906,0.0156176211748272,-0.0433481433391571,-0.000275750644505,0.0006261891685426,-0.0014424502151086
1783206683894911700,0.343911865234375,0.0216316938325762,0.0076312985960394,-0.053090954196453,0.0014385264366865,0.0053738062269985,0.001191149931401
1783206683904848000,0.353847900390625,0.0079347385220229,0.0216989138498902,-0.0474316132605075,0.000373818911612,0.0020877192728221,-0.0013967298436909
1783206683914785000,0.363784912109375,0.0235729640934616,0.0019639204841107,-0.0577729745328426,0.0043717566877603,0.0005598641000688,-0.0005378604400902
1783206683924720600,0.373720703125,0.0175651385134086,-0.0092775314331054,-0.0428501306891441,0.0040318965911865,-0.0003447025083005,0.0025561656802892
1783206683934656800,0.38365673828125,0.0012261077288538,-0.0058577130522578,-0.0377735580772161,-0.0021405117586255,-0.0005082208663225,0.0012482870370149
1783206683944594000,0.393593994140625,0.00978650386855,0.0088411127772182,-0.0536310524225234,-0.0003849240019917,0.0020263823680579,0.0005810915026813
1783206683954529800,0.40352978515625,0.0119390787925571,0.0209277833469212,-0.0515372950136661,0.0007439898326992,-0.0004578144289553,-0.0013145464472472
1783206683964466700,0.413466796875,0.0226078819209709,0.031871056035161,-0.050351300099492,0.0001941239461302,0.0013526496477425,0.0021642243955284
1783206683974402800,0.42340283203125,0.0315244710871949,0.020474413556233,-0.0573848519980907,-0.0003443676978349,-0.0015973336994647,0.0021674202289432
1783206683984338700,0.433338623046875,0.0380087550725787,0.0031543723776936,-0.044206221473217,0.0005120756104588,0.0004348526708781,0.0025844888295978
1783206683994275800,0.44327587890625,0.0154418992817401,-0.0048708209067583,-0.0376315192580223,0.0006175367161631,-1.12266279757e-05,-0.0009572489652782
1783206684004212000,0.4532119140625,-0.0030000585988163,-0.0240562906309962,-0.0419815311610698,0.0005735233426094,0.0023907148279249,0.0006124097853899
1783206684014147800,0.46314794921875,-0.0091261402636766,-0.0055574149314314,-0.0535047956943511,-0.0050177834928035,-0.0003246441483497,0.0026795554440468
1783206684024084700,0.473084716796875,-0.0067637585138902,0.0101238460641354,-0.0515349569261074,-0.0017409222200512,0.0007284898310899,-0.0008959623519331
1783206684034020900,0.483020751953125,0.0049243046596646,0.035310090573132,-0.0468938531219959,0.0005094492807984,-0.0015551708638668,-0.0009532202966511
1783206684043956700,0.492956787109375,0.0216473297931253,0.0206492586664855,-0.064103931120038,0.0001424653455615,0.0008587180636823,-0.0002056709490716
1783206684053894000,0.502893798828125,0.016273637398146,0.0114134474832564,-0.0552776505857706,-0.000810413621366,-0.0007791258394718,0.0022447037044912
1783206684063830000,0.512830078125,0.0100756230082362,-0.0005138678062707,-0.02790039883852,0.0019817166030406,0.0004800613969564,0.0020900345407426
1783206684073765600,0.522765625,-0.0118893944319337,-0.0092016897179186,-0.0481172574371099,-0.0003171246498823,0.0028342958539724,-0.0016402550972998
1783206684083702800,0.532702880859375,-0.0055263987386599,-0.0068517655909061,-0.0639665684759616,-0.0031148931011557,-0.0006831362843513,0.0005528600886464
1783206684093639000,0.542638916015625,0.0044081352984532,0.0007433657132089,-0.0525830046743154,-0.0005297614261507,0.0012702923268079,-9.90817788988e-05
1783206684103575800,0.552575927734375,0.0081407094229012,0.0212182176608592,-0.0289449394553899,0.0010661482810974,0.0016529886052012,-0.0012908920180052
1783206684113511700,0.56251171875,0.0188301900131627,0.034302594031021,-0.0395773926287889,0.0008893143385648,0.0028756456449627,-0.0026709421072155
1783206684123447800,0.57244775390625,0.0153044270398095,0.0279538095261901,-0.0466208813995122,-0.0020599281415343,-0.0001148926094174,0.0007494438905268
1783206684133384700,0.582384765625,0.0179172398867085,0.0053708063181489,-0.0491688123166561,0.0005835248157382,0.0002337149344384,-0.0003200815990567
1783206684143320800,0.59232080078125,0.0089053005872294,-0.0002563859138637,-0.0391489380836486,-2.44639813899e-05,0.0020176679827272,-0.0012624646769836
1783206684153257000,0.602257080078125,0.0067558309357613,-0.0154593618731945,-0.057843117159605,0.0005792742595076,-0.0001536072231829,0.0008326440583914
1783206684163193600,0.612193603515625,0.0058639235973358,-0.0027194880917668,-0.0590296965956687,-0.0027567092329263,0.0015015532262623,0.0013721091672778
1783206684173129700,0.622129638671875,-0.0046906420342624,0.0074693860325962,-0.0419698407232761,-0.0018219398334622,0.0042874859645962,0.0013436134904623
1783206684183067000,0.63206689453125,-0.0099626641530543,0.0308480696629732,-0.0612713380426168,-0.0029405700042843,0.0012131188996136,0.0010640944819897
1783206684193002800,0.642002685546875,0.0066134998556226,0.0384387439876794,-0.0699368750572204,-0.0038969116285443,-3.21748666465e-05,0.0014150992501527
1783206684202939000,0.65193896484375,0.0194106567822396,0.0184359665311872,-0.0555552984833717,-0.0018288167193531,0.0010359045118093,0.0011917143128812
1783206684212875800,0.661875732421875,0.0310089958457276,-0.025504882004112,-0.0428191510289907,-0.0033502811565995,-0.0018032910302281,0.0043313149362802
1783206684222811600,0.671811767578125,0.0273587662424892,-0.0379033219367265,-0.052376668447256,-0.0014682719483971,0.0007619932293891,0.0020431871525943
1783206684232748800,0.681748779296875,0.0022334216078743,-0.0248008253879845,-0.0411427422493696,0.0001693060621619,0.0021447064355015,0.0013989685103297
1783206684242685000,0.691684814453125,-0.0236021171227097,-0.0029534429781138,-0.0448819287776947,-0.001540096476674,0.0017543956637382,0.0006866101175546
1783206684252620800,0.701620849609375,-0.0190342612178996,0.0093126027464866,-0.0586392359733581,-0.0014804415404796,0.0041496427729725,0.0024112733080983
1783206684262557700,0.7115576171875,-0.0182018655143678,0.0187947899062186,-0.0622375527262687,-0.0015517920255661,0.002504417207092,-1.19034666568e-05
1783206684272493800,0.721493896484375,-0.0015407631685957,0.0145309219166636,-0.0415741194039583,-0.003332913853228,0.0009632459841668,0.0016440502367913
1783206684282429700,0.7314296875,0.0229626501753926,0.0369933674849569,-0.0553320111215114,-3.1211413443e-05,-0.0001828297972679,0.0021570974495261
1783206684292366800,0.741366943359375,0.0743626921428367,0.011534589644894,-0.0578530540317296,-0.001656805165112,-0.0020017689093947,0.0006516126450151
1783206684302302700,0.751302734375,0.0621471344964578,0.0407107805728912,-0.0641354953020811,-0.0013068858534097,0.0009340750984847,0.0029856243636459
1783206684312239900,0.761239990234375,0.0102945995211601,0.0565231206022202,-0.0571136338412761,0.0008662538602948,-0.0008289376273751,0.0004399085883051
1783206684322175700,0.77117578125,0.002287745610997,0.0376596493739634,-0.0693804102182388,-0.0025174720212817,0.0026735179126262,-0.0022064617369323
1783206684332112000,0.78111181640625,-0.0003648512570187,0.0326159561183303,-0.0544242486268281,0.0019193552434444,-0.0013451920822262,0.0005935858935117
1783206684342048800,0.791048828125,0.0138792530748993,-0.0005544190123677,-0.0432043509542942,-0.0008014235645532,0.000882658176124,-0.0006547754164785
1783206684351984600,0.800984619140625,0.0232002948561683,0.0102083094771951,-0.0500847581177949,-0.0025335438549518,-6.0367397964e-05,-0.0006489164661616
1783206684361921800,0.810921875,0.0115380967762321,0.0382907138191163,-0.0696715021193027,-0.0003470880910754,-0.0006740866228938,-0.0009240002837032
1783206684371858000,0.82085791015625,0.0133011243933811,0.0580636280424892,-0.0627852497369051,-0.0008003581315279,0.0014939927496016,-0.0006944357883185
1783206684381793800,0.830793701171875,0.0159906922709196,0.0355742944672703,-0.0550011717319488,0.0001171939074993,-0.0016577797941863,-0.001537074916996
1783206684391730700,0.840730712890625,0.0193130050940439,-0.0014781827937811,-0.0517120670586824,0.0017883274704217,0.0009481236338615,-0.0017610468203201
1783206684401666800,0.850666748046875,0.0173794066829606,-0.0327441856078803,-0.0392985756874084,-0.0006696553900837,0.0005615223199129,-0.000399298267439
1783206684411604000,0.86060400390625,0.0052328226195648,-0.0190117205925285,-0.0425888494044542,0.0036443984135985,0.0007468783296644,-0.0008357902988791
1783206684421539800,0.870539794921875,0.0081623732654377,-0.0129652800351381,-0.046947629135847,0.0024867160245776,0.0017743925563991,0.0001371630933135
1783206684431476000,0.88047607421875,-0.0034083836713805,0.0071436612095683,-0.0562438652694225,0.0007314262911677,-0.0015566889196634,-0.0017765844240784
1783206684441412900,0.890412841796875,0.0067367974417284,0.026546353881061,-0.0565220976889133,-0.0030429884791374,-0.0008976752869784,-0.0015556990401819
1783206684451348700,0.9003486328125,0.0191181035764515,0.0402574838474392,-0.0560702622681856,0.0011621424928307,-0.0004127132706344,-0.0012611534912139
1783206684461286000,0.910285888671875,0.0294372895495966,0.023977891632542,-0.0526373652100563,0.0014859801158308,-0.0017762021161615,-0.0005034997593611
1783206684471222500,0.920222412109375,0.0180433870170265,0.0230243172347545,-0.0515852258086204,0.0020764032378792,-0.0021999105811119,0.0003231454174965
1783206684481158100,0.930158203125,0.000871997061558,-0.0027416268583387,-0.0604103372991085,-0.000817141495645,-0.0006421175785362,0.0003959436435252
1783206684491095300,0.94009521484375,-0.0202875857472419,0.0131988695953041,-0.0545540124863386,-0.0028195725753903,-0.0019332184456288,-0.000371845671907
1783206684501031400,0.950031494140625,-0.0141629653871059,0.0020684768371284,-0.0530535447955131,0.0007781581953167,-0.0015300833620131,-0.0006754838395863
1783206684510968300,0.95996826171875,-0.0128357353713363,-0.011857611054182,-0.0533580807000398,0.0022551473230123,-0.0002246019430458,-0.0002738791517913
1783206684520904200,0.969904296875,0.0015618424892425,-0.0131317226432263,-0.0442348630458116,0.0015713982284069,-0.0018263780511915,-0.0009522358886897
1783206684530841300,0.97984130859375,0.0203888541646301,-0.0146137778945267,-0.0560521420896053,0.0027730166912078,-0.0020817751064896,-0.0011138897389173
1783206684540777200,0.989777099609375,0.0192521782848984,0.0110276630360633,-0.0536713844329118,0.0023628883063793,-0.000935791991651,-0.0009536433499306
1783206684550713300,0.99971337890625,-0.0011912921437993,0.0071747139349579,-0.0578676670789718,-0.0014462312683463,0.0007422659546136,0.0018562579061836
1783206684560650200,1.009650146484375,-0.0033959991138428,0.016939736624062,-0.0607066898971796,-0.0008284104987978,0.0026281266473233,6.7488290369e-06
1783206684570586000,1.019586181640625,0.0121710609175264,0.0212086461149156,-0.0541284805506467,5.33619895577e-05,0.0020768523681908,-0.0012550569372251
1783206684580523300,1.029523193359375,0.023012699862197,0.0161817578636109,-0.0483013818323612,0.0010437630116939,-0.0018979124724864,-6.19613565504e-05
1783206684590459400,1.03945947265625,0.033795594356954,0.001667714016512,-0.053382046097517,0.0009755864739418,-0.0022204210981726,0.0018877387046813
1783206684600395300,1.049395263671875,0.0252887915680184,-0.0098979283537715,-0.0530786792367696,-0.0015291031450033,0.0003142515197396,0.0007790848612785
1783206684610332200,1.059332275390625,0.0107941100085154,-0.0124246703524142,-0.0288262815117835,-0.0010361522436141,-2.66330316662e-05,-0.0013999135699123
1783206684620268300,1.069268310546875,0.00351772579737,-0.013234525430575,-0.0367500602483749,-0.0003727814182639,-0.000774254091084,-0.0013960215728729
1783206684630205400,1.079205322265625,-0.0059148500669747,-0.0091564623367041,-0.0490349568039178,-0.0018108887597918,0.0004968727007508,0.0011371772270649
1783206684640141300,1.089141357421875,0.0010378551477566,-0.0067618222851306,-0.0312315890878438,0.0003719525411725,0.0007739607244729,0.0006167534738779
1783206684650078200,1.099078125,0.0076683426707983,0.0020395430035889,-0.035578678381443,0.0010372102260589,-0.0008063591085374,-0.0014280214672908
1783206684660014300,1.109014404296875,0.015574585750699,0.0093627254985272,-0.0499444728642702,0.0001431554555892,0.0007462780922651,2.00152862817e-05
1783206684669950200,1.1189501953125,0.0187449594151228,0.0246112941652536,-0.0551852961272001,0.0009698001667857,-0.0008311117999255,0.0020823671948164
1783206684679887400,1.128887451171875,0.027335823758319,0.0207049343764781,-0.0530868625432252,1.86376273632e-05,-0.0030572251416742,-0.0002102744765579
1783206684689823500,1.138823486328125,0.0264143980644643,0.0109978524196892,-0.0529214428484439,-0.0007994854822754,-0.0009669098071753,-0.0007828541565686
1783206684699760000,1.148760009765625,0.0306412219792604,0.0017696400210261,-0.0461842435479164,0.0004383223131299,-0.0012646508403122,7.61670526117e-05
1783206684709696300,1.1586962890625,0.0232270732652395,-0.0023247166205197,-0.0529226118922233,-0.000729207880795,0.0006799893453717,-0.0006141243502497
1783206684719633400,1.16863330078125,0.0050348158294335,-0.0022337504014372,-0.0457446830868721,-0.0006777225062251,-0.0027785548008978,0.000946867512539
1783206684729569300,1.1785693359375,-0.0015441607020795,0.004257657444477,-0.0542664277166128,-0.0020918603986501,0.00300636398606,-0.0016947217518463
1783206684739505400,1.18850537109375,0.0007893602794036,0.0057619975928217,-0.0594832855820655,-0.0017756707966327,-0.0019923443906009,0.0046527520753443
1783206684749442300,1.1984423828125,0.0149160122441127,0.0170777568552643,-0.0557242253094911,-0.0028715608641505,-0.0008037756197154,0.0006982241757214
1783206684759378200,1.208378173828125,0.0116170437639579,0.0161141725201159,-0.0370084189236164,-0.0010216021910309,-0.0017791050486266,0.0001578838564455
1783206684769315300,1.2183154296875,0.0205282261027023,0.0095484573289752,-0.0429857397675514,0.0017579393461346,-0.0013290308415889,-0.0035393824800848
1783206684779251500,1.22825146484375,0.0220827620683237,0.0059469987709075,-0.0570540126085281,-0.0007245708256959,-0.0027570649981498,0.0022313653025776
1783206684789188400,1.238188232421875,-0.0032973610449582,0.0099562344122678,-0.0396849446564912,-0.00167425442487,-0.002827638760209,-4.0922313928e-06
1783206684799124200,1.248124267578125,-0.0016139380026608,0.0048170448929071,-0.0410199926525354,-0.0012463219463825,-0.0001523965038359,0.0022565696854144
1783206684809060400,1.258060302734375,-0.0155876644279807,0.0121129009895026,-0.0661409899055957,-0.0031792446970939,-0.0021364516578614,-0.0009461480658501
1783206684818997500,1.26799755859375,-0.0189128633279353,0.0190734607171267,-0.0610375292867422,-0.0019051497802138,0.0021458254195749,0.0020554182119667
1783206684828933000,1.27793310546875,-0.0151753573000431,0.0256323808412998,-0.0482926140040159,-0.0019046170637011,-0.004328319337219,-0.0004231859929859
1783206684838870300,1.287870361328125,0.0085756667740643,0.0109703068256378,-0.0496177251279354,-0.0008483678102493,-0.0050915870815515,-2.71620228886e-05
1783206684848806400,1.297806396484375,0.0241611757775768,-0.0009733020115643,-0.0389765041261911,-0.003818592056632,-0.0004262612201273,0.0020011013839393
1783206684858743600,1.30774365234375,0.0280898569960147,-0.0229193955555558,-0.0455453611224889,0.0003640437498688,-0.0032054595649242,0.0005722064524888
1783206684868679200,1.31767919921875,0.0070044719345867,-0.0148871880084276,-0.0438888260871171,0.0003395434468984,-0.0011012959294021,0.0022409430239349
1783206684878616300,1.3276162109375,-0.0105890889557078,0.0039491760171949,-0.0438911641746759,0.0002183960750699,0.0011015045456588,4.45605255663e-05
1783206684888552400,1.337552490234375,-0.0092145126668736,0.0057023763600736,-0.056013563644886,-0.0008085183799266,0.000386712141335,0.001026467885822
1783206684898489300,1.3474892578125,0.0115440881256014,0.0216467452712357,-0.0598825140327215,-0.0017781527712941,-0.0024782032705843,0.0009704169351607
1783206684908425200,1.35742529296875,0.0290948327874764,0.0237216518491506,-0.0511760604858398,-0.001008765771985,-0.0021961745806038,0.0047118924558162
1783206684918361300,1.367361328125,0.0320372794475406,0.0275811037562787,-0.0543009145081043,-0.0022031795233488,-0.0019476963207125,0.0015163919888436
1783206684928298200,1.37729833984375,0.0280894186045974,0.0289673704829066,-0.0521750083953142,0.0012035360559821,-0.0057086125016212,0.0024181380867958
1783206684938234400,1.387234375,0.0089671503096818,0.0262520471096038,-0.0460129786342382,-0.0008003702387213,-0.0005859374068677,0.0013689012266695
1783206684948171300,1.397171142578125,0.0125357295114547,0.0050286418169736,-0.0485597405076026,-0.0004277937114238,-0.0010298863053321,0.0002503735013306
1783206684958107100,1.407107177734375,0.0065827393911778,-0.0121189654041081,-0.0584393294870853,0.0021491916850209,-0.0020394991151988,0.0012429237831383
1783206684968044300,1.417044189453125,-0.0010162278378382,-0.0018996230762451,-0.0467582440435886,-0.0012569911777973,0.001424740999937,-0.0033363816328346
1783206684977980400,1.42698046875,0.0106374581420794,-0.0091743633195757,-0.0380786785036325,-8.6267478764e-05,0.001360083464533,0.0009383505675941
1783206684987917300,1.436917236328125,0.0109286231083795,0.0218009129196405,-0.057393619826436,-0.0009890794754028,-0.0004106522537767,0.0025418398436158
1783206684997853200,1.446853271484375,0.0203305115735158,0.0130197136361151,-0.0644318479001522,0.0007624337449669,-0.0006931615062057,-7.85933807492e-05
1783206685007790300,1.456790283203125,0.0184648638321086,0.0253193693693727,-0.0494610732614994,-0.0010170899331569,0.0031519106123596,0.0004854642320424
1783206685017726500,1.4667265625,0.013646942156367,0.0198179224088788,-0.0430015218585729,0.0007370728999376,-0.0015029036439955,0.0015133125707507
1783206685027662300,1.476662353515625,0.004661050613597,0.0044355712946504,-0.0570639494806528,0.0002204198390245,-0.0018712184391915,0.0018579252064228
1783206685037599200,1.48659912109375,-0.005763166636601,0.0005316226586699,-0.0479331330418586,-0.0016001975163817,0.0014068018645048,0.0008246470242738
1783206685047535400,1.496535400390625,-0.0056879825085401,-0.0029671061772853,-0.0500263059288263,0.0007140897214412,0.0005450025200843,0.001090164296329
1783206685057472300,1.50647216796875,0.0014547653855755,0.0021299247007817,-0.045683308288455,0.0003859596326947,0.0019206679426133,0.0018107052892446
1783206685067408400,1.516408447265625,0.0029246187424287,0.011508943746984,-0.0417962377220392,-0.001619666814804,0.0014165318571031,0.0019803489558398
1783206685077345300,1.52634521484375,0.0064133741736412,0.019689765984565,-0.055407414445281,0.0008710511028766,-0.0010723555460572,0.0001759638544172
1783206685087281200,1.53628125,0.0104946521379053,0.0241680073771625,-0.0515203438788652,0.0018095485866069,0.0032765865325927,-0.0010682649444788
1783206685097218300,1.54621826171875,0.0262214693082496,0.0108648006245493,-0.0431295321524143,-0.0010633217170834,-0.0019412860274314,0.0010376109275966
1783206685107154400,1.556154541015625,-0.0030044059803709,0.0241585819616913,-0.0414718280732631,-0.0031488444656133,-0.0007862728089094,-0.0010686833411455
1783206685117091300,1.56609130859375,0.0176437567075714,0.0044173049855977,-0.039659225693345,-0.00092513859272,-0.0012265583500266,0.0002896354999393
1783206685127027200,1.576027099609375,0.0060127940161153,0.0071813628714531,-0.0593973608642816,-0.0025062579661607,-0.0018595913425087,0.0003503556363284
1783206685136964400,1.58596435546875,0.0173730865400284,0.004614946449548,-0.0471142178744077,-0.0015543606132268,-0.000613410025835,0.0018840220291167
1783206685146900500,1.595900390625,0.0200244778316468,-0.0076205580063164,-0.0487532172530889,0.0008392883464694,0.0019248486496508,0.0013673685025423
1783206685156837000,1.605837158203125,0.0173325353339314,0.0095100250147283,-0.0466699812382459,0.0003433311358094,0.001963117159903,-9.96300950646e-05
1783206685166773200,1.615773193359375,0.0140405811164528,0.0131620447162538,-0.0507031822770834,-0.0015312684699892,-0.0026452168822288,-0.0008708813693374
1783206685176710400,1.62571044921875,0.0186749263862147,0.0066224868796765,-0.0536994414836168,0.0007010595872998,-0.0010152445174753,0.0007683744188398
1783206685186646300,1.635646240234375,0.0018840601809322,0.0274054549284279,-0.046056233254075,0.0005844132974743,0.0011099576950073,0.001011787680909
1783206685196582400,1.64558251953125,0.0006815890559926,0.0263695360094308,-0.0468114355355501,0.0001788074150681,0.0020423172973096,0.0004785577766597
1783206685206519300,1.655519287109375,0.007536569517292,0.00985650036484,-0.0595277092456817,0.001956732943654,0.0022495111916214,-0.0015307972207665
1783206685216455200,1.665455078125,0.0128869541019201,-0.0087226740293204,-0.0472691161751747,0.0016132341697812,-0.0019169524312019,0.0036439239047467
1783206685226392300,1.675392333984375,0.0114610129520297,-0.0141345430102199,-0.0448696538180112,0.0009144200012087,0.0009126560762524,-0.0011939743999391
1783206685236328400,1.685328369140625,0.0092269702896475,-0.0073405720211565,-0.0475619616419076,-6.58724457025e-05,0.0021110419183969,-0.0024540722370147
1783206685246265300,1.695265380859375,0.0073167892867699,-0.0022550123851746,-0.0444067124813795,-0.0017617736011743,3.61730344593e-05,-0.000474011991173
1783206685256201200,1.705201171875,0.0102255528729408,0.0135527975995093,-0.0481406383126974,2.67112627625e-05,-0.0025015883147716,0.0001716520637273
1783206685266138400,1.715138427734375,0.0033619507137686,0.0156746851243078,-0.059652212408185,-0.0001796837896108,-0.0012930454686284,-0.0008422133978456
1783206685276074500,1.725074462890625,0.0135908645875751,0.0093004008520394,-0.0610071341484785,-0.0005354071035981,-0.0009846114553511,-0.0012934698024764
1783206685286011100,1.73501123046875,0.0109920802660286,0.0077386314280331,-0.0426046314954757,-0.0008970648050308,-0.0038669509813189,0.0031289753969758
1783206685295947300,1.744947265625,0.0081455317284911,0.0053452334854751,-0.0442447999179363,0.0021054483950138,-0.0012601781636476,0.0001631085760891
1783206685305884400,1.754884521484375,0.0082481153201311,0.0106241968017071,-0.040353053176403,0.0016188882291316,-0.0028681950643658,0.0012520749587565
1783206685315820300,1.7648203125,0.0057574675481766,0.0031323066763579,-0.0470896679550409,0.0008506067097187,-0.0010543982498347,0.0007230266928672
1783206685325757200,1.774757080078125,0.0135534917192533,0.0035580578077584,-0.04843406830132,-0.0005861688405275,0.0011693411506712,0.0025414328556507
1783206685335693300,1.784693359375,0.0139691233154386,0.0071766136310994,-0.0497726234287023,-0.000430840998888,0.0003527500666677,0.0009475229308009
1783206685345630500,1.79463037109375,0.013526347984001,0.0118924631718546,-0.0461754757195711,-0.0012186039239168,0.0002353047020733,0.0024466160684823
1783206685355566300,1.80456640625,0.0189540355885401,0.0153626235004514,-0.05305939001441,0.0014767833054065,0.0001446795649826,-0.001323981792666
1783206685365503200,1.814503173828125,0.0232965217722579,0.0068273618020117,-0.0503705893218517,0.0022930419072508,-0.000412187539041,0.0046414993703365
1783206685375439400,1.824439453125,0.0118923901066184,0.0079267744112759,-0.0524649312525987,-0.0006053932011127,-0.0001537129282951,0.000898455036804
1783206685385376300,1.834376220703125,0.0063475423958152,0.0140677613843232,-0.0451332731902599,-0.0019921017810702,0.0005019572563469,0.0012774227652698
1783206685395312400,1.8443125,0.0055776905344799,0.0117019090358167,-0.0494587351739406,0.0022736890241503,-0.001848298124969,-0.0003698982764035
1783206685405249300,1.854249267578125,0.0057328810961917,0.0081442165542393,-0.048706455501914,-0.0002501895651221,-0.0020051589235663,0.0038458853960037
1783206685415185200,1.86418505859375,0.0124283236142247,0.0105709322445094,-0.049303252351284,0.0014783395454287,-0.0012140600010752,0.0013536303304135
1783206685425122300,1.874122314453125,0.0110949195859953,0.01855199412629,-0.055741176444292,-0.0002457909286022,0.0009979619644582,-0.0012341631809249
1783206685435058400,1.884058349609375,0.0183346250485628,0.0148929601620882,-0.0597737929612398,-0.0014753900468349,-0.000913506373763,-0.0010518287308514
1783206685444995300,1.893995361328125,0.0175382870391011,0.0097822660848498,-0.0542313564032316,0.0006498116999864,0.000937923323363,0.000219031702727
1783206685454931200,1.90393115234375,0.0120000882647931,0.0117838151656091,-0.055133273679018,0.0006353110074996,-0.0005133966915309,0.0015922961756587
1783206685464868400,1.913868408203125,0.005132394452393,0.0099277389701455,-0.0542418777972459,-0.0008177096024155,0.0014080740511417,-0.0002713841386139
1783206685474804200,1.92380419921875,0.0012165727155283,0.000450227985531,-0.0579798952817916,-0.0001164283603429,-0.0006461068987846,-0.0008760867640376
1783206685484740900,1.933740966796875,0.0124752314958721,0.003377367478609,-0.0523047722548246,0.0019810777157545,0.0007773526012897,0.0004741358570754
1783206685494677000,1.943677001953125,0.0140605644585564,0.0054802580419927,-0.0532172109246253,0.0008900770917534,0.0037428487557917,-0.0004210148472338
1783206685504614100,1.9536142578125,0.0134814128637313,0.0150572838783264,-0.0429097519218921,0.0006226953119039,0.0022227163426578,-0.0012135717552155
1783206685514550000,1.963550048828125,0.008172529333271,0.0097442721620202,-0.0530745875835418,0.0198145434260368,-0.0434878170490264,-0.0033723569940775
1783206685524487000,1.97348681640625,0.0097621000796556,0.0214594790708273,-0.0087602295607328,0.081365518271923,0.0070227575488388,0.0009552796836942
1783206685534423000,1.983423095703125,0.0105150373388081,0.0517734418570995,0.2129185280591249,0.0338134542107582,-0.0178176909685134,-0.0031825471669435
1783206685544360200,1.993360107421875,-0.0383291826659813,0.0267467718239873,-0.3498737603783607,-0.0173280257731676,-0.0356504842638969,-0.0014448346337303
1783206685554296000,2.003296142578125,0.0523318063922226,-0.0202782333970069,-0.2446235798776149,-0.0086559653282165,0.0431637465953826,-0.0030792206525802
1783206685564233000,2.01323291015625,0.0149788848798722,-0.0106743926189839,0.3087362788259983,-0.0026657171547412,-0.0264824423938989,0.0003946067299693
1783206685574169000,2.023169189453125,0.0521443209961056,-0.0036717473153024,-0.2040256120294332,0.0028499104082584,0.0062602362595498,0.001534939976409
1783206685584106000,2.03310595703125,0.011160312972404,0.0167729286897927,-0.2462064651548862,-0.0207006894052028,0.0118174543604254,-0.0027873707003891
1783206685594042000,2.0430419921875,-0.0174435944929718,0.0114960112001746,0.0960135655999183,-0.0355621464550495,0.0275786612182855,-0.0001076974440366
1783206685603979000,2.05297900390625,0.0022154110271483,0.0075850483015179,0.0476730208009481,-0.0307879000902175,0.0236917771399021,0.0006718100048601
1783206685613915000,2.062914794921875,-0.0184351262809708,0.0192312085621058,-0.1104910037636756,-0.0185027867555618,0.0011696824803948,-0.0006063624750822
1783206685623852000,2.07285205078125,0.0018307225584983,0.0125075263302773,-0.0957832639753818,0.0106005035340785,0.0018748873844742,-0.0015613720752298
1783206685633788200,2.0827880859375,0.0156102415859699,0.0164402626693248,0.0505856933772563,0.0096418503671884,0.0014793146401643,0.0008141959551721
1783206685643725000,2.09272509765625,-0.0028988997792825,0.0203279177576303,-0.061921910905838,-0.0099462326616048,-0.0076124505139887,-0.0020231360103935
1783206685653661000,2.102660888671875,0.0037710429713129,0.0109691377818584,-0.1634638845384121,-0.0072727343067526,0.0148708270862698,-0.0025582364760339
1783206685663598000,2.11259814453125,0.0112119700944051,0.0008232990816235,0.0418102662473916,0.0030400911346077,-0.0025678183883428,-0.0005629961378872
1783206685673534200,2.1225341796875,0.0392264602992683,-0.0059239101562649,0.0012444471031427,0.0047965617850422,-0.006029930897057,-0.0003147679381072
1783206685683470800,2.132470947265625,0.0296222907276824,0.0072730597428977,-0.1636591148495674,-0.0034887976944446,0.0004141200333833,-0.0013613902265205
1783206685693407000,2.142406982421875,-0.0131201418032869,0.0201276459451764,-0.0392962375998496,-0.0043478142470121,0.0045592752285301,-0.0036014881916344
1783206685703344000,2.15234423828125,-0.0176573833741247,0.0233509188406169,0.0235486333698034,0.0008645243942737,-0.0010972791351377,-0.0036590124946087
1783206685713280000,2.162280029296875,0.0059532458486035,0.0192390265423804,-0.0823901139169931,0.002627270296216,-0.0049447482451796,-0.0001416285522282
1783206685723217000,2.172216796875,0.0246823501074686,-0.0070339902900159,-0.1026063879936933,0.0021755984053015,0.0017658853903412,-0.0003871719818562
1783206685733153000,2.182153076171875,0.0166051709074527,-0.0119700584527105,-0.0099935707479715,-0.0016722064465284,0.0030825114808976,-0.0006328194867819
1783206685743090200,2.192090087890625,0.027532332711108,-0.0076704615626484,-0.0192740247905254,0.0003683073446154,-0.0003620209172368,-0.0021409676410257
1783206685753026000,2.202026123046875,0.0152227766383439,0.0039084056153893,-0.0745078362345695,0.0036615887656807,-0.0021678800694644,0.0005623414181172
1783206685762963000,2.211962890625,0.0162443747710436,0.0104974286168813,-0.0646504590868949,0.0026170974597334,0.0006564017385244,-0.0016960192006081
1783206685772899000,2.221899169921875,0.0067279200155287,0.0050454468213021,-0.034571547165513,-0.003330074250698,0.0025089625269174,-0.0030844535212963
1783206685782836000,2.2318359375,0.0087464567637071,-0.0010869184538722,-0.0433978276997804,-7.80876725912e-05,0.0026490448508411,-0.0001488509587943
1783206685792772000,2.241772216796875,0.01028765832372,0.0159776135936379,-0.0528361026525497,0.0024612722918391,0.0033519144635647,0.0024031528737396
1783206685802709000,2.251708984375,0.0226833583099767,0.0074049424942582,-0.0468774865090847,0.0022205226123332,0.0002266950905323,-0.0024528547655791
1783206685812644900,2.261644775390625,0.0215347362641245,0.0038620091903954,-0.0440425553441047,-0.001453255303204,0.001036652829498,-0.0016662915004417
1783206685822582000,2.27158203125,0.0187902598615735,0.0098020667638629,-0.0473392588019371,0.0012647667899727,0.0014310670085251,9.69874672591e-05
1783206685832518100,2.28151806640625,0.0079931907109916,0.0155352035883814,-0.0464636450111866,0.0022968733683228,0.0021414617076516,-0.0005583125166594
1783206685842455000,2.291455078125,-0.0017164485290646,0.0072944678571075,-0.0602466711699962,0.0013131015002727,0.0028618469368666,-0.0001212877687066
1783206685852391000,2.301390869140625,-0.0117968573102727,0.0071294865537434,-0.0627910949558019,-0.0010016169399023,0.0002272576093673,-0.0032703247852623
1783206685862328000,2.311328125,0.0114868415130302,0.0092636490382254,-0.0401958167880773,0.0004636542871594,0.0025021298788487,0.0015539915766566
1783206685872265200,2.32126513671875,0.0109346144577488,0.0128284288477152,-0.0475362426787614,0.0009884694591164,0.0033185007050633,-0.0019065062515437
1783206685882200800,2.331200927734375,0.0089206077542155,0.016461451587826,-0.0605792641252279,0.0034905085340142,0.0009869034402072,-0.0008947714231908
1783206685892138000,2.341137939453125,0.0135925816206261,0.0152273797482252,-0.0438508321642875,0.001313024200499,0.0039093289524316,0.0008527457248419
1783206685902074000,2.35107421875,0.004137720859237,0.0129294780693948,-0.0523947886258363,-0.0003929967060685,0.0017819958738982,0.0033369425218552
1783206685912011300,2.36101123046875,0.0106639077575877,0.0067216364052146,-0.0612386048167943,-0.001073001883924,0.0022288202308118,1.30501575767e-05
1783206685921947000,2.37094677734375,-0.0024317206589505,0.0065961103294044,-0.0416407548993825,0.0004117107018828,-0.0003184932284057,-0.0005973463412374
1783206685931884000,2.380884033203125,-0.0067258376562967,0.0112791535791009,-0.0420914212763309,0.0021209754049777,0.0017372672446072,-0.0001489066053181
1783206685941820200,2.390820068359375,0.0002442570846527,0.0236282744772732,-0.0486900888890027,-0.0018559228628873,0.0004701353609561,0.0009405924938619
1783206685951757000,2.400757080078125,0.0106659170515835,0.0184376470316201,-0.055711365827918,-0.0013923216611146,-0.0016937106847763,0.002432087669149
1783206685961693000,2.41069287109375,0.0125912590909749,0.0188355603080242,-0.0607902765274047,-0.0044629452750086,0.0012948890216648,0.001688532764092
1783206685971630000,2.420630126953125,0.0134426882885396,0.0169890556585043,-0.0493920996785163,-0.0041816160082817,-0.0014179805293679,0.0028252424672245
1783206685981566000,2.43056591796875,0.0246508955232799,0.0135864076081663,-0.0559393293648958,-0.0056767147034406,0.0015602326020598,0.0047219460830092
1783206685991503000,2.440503173828125,0.0302705620359629,-0.0070188657861202,-0.0516851790517568,-0.0093550020828843,0.0007660957053303,0.0049011493101716
1783206686001439000,2.45043896484375,0.010499401378259,0.0057172816682606,-0.0480319172412157,-0.0109640834853053,0.0032462975941598,0.0050726570188999
1783206686011376000,2.460376220703125,0.016576858128421,-0.0018025924425572,-0.0521405216038227,-0.0165690220892429,0.0034332659561187,0.0051609328947961
1783206686021312000,2.47031201171875,0.0637137262260541,-0.0006203238554298,-0.0496405214816331,-0.0109745189547538,-0.0010751993395388,0.0034192255698144
1783206686031249200,2.480249267578125,0.1034068176563829,0.0308737155608832,-0.0491308183938264,-0.0017625503242015,0.0023954026401042,0.0027843413408845
1783206686041186000,2.49018603515625,-0.0168109226126223,0.0007837707888334,-0.0202647893935441,0.0006430828943848,0.0042143417522311,-0.0015827100723981
1783206686051122000,2.500121826171875,-0.097168580853939,0.0313573343593627,-0.0337239904254674,-0.0032852906733751,-0.0008362117223441,-0.0005288710817694
1783206686061059000,2.51005908203125,-0.0563727523460984,-0.0148545278478413,-0.0666202978551387,-0.0049867834895849,0.0044735986739397,0.0001124180853366
1783206686070995200,2.5199951171875,-0.0122630135172978,-0.0227217540916055,-0.0362386035948991,-0.0004880633205175,-0.0018479702994227,-0.0005616112612187
1783206686080932000,2.52993212890625,-0.0159206957746297,-0.0190934075266122,-0.0374415496438741,-5.50337135791e-05,0.0021888487972319,-0.0002976921387016
1783206686090868000,2.539867919921875,-0.0052756023153662,-0.0016454291194677,-0.0682674805402755,-0.0002875728532671,0.0009496151469647,-0.0027895425446331
1783206686100805000,2.54980517578125,0.0285357741326093,0.0490831067945808,-0.0491208815217018,0.0001470558345317,0.0009269779548048,0.0010070600546896
1783206686110741200,2.5597412109375,0.0335797231165692,0.0401249435089528,-0.0377577759861946,0.0021780477836728,-0.0007172608748078,0.0024640795309096
1783206686120678000,2.569677978515625,0.0171490319931879,0.0336106662441045,-0.0658995823651552,0.0023255869746208,0.0014209910295903,-0.0006488894578069
1783206686130614000,2.579614013671875,0.023498583682999,-0.0073611033525317,-0.0579687893658876,-0.0016683293506503,0.0012138313613831,-0.0004522479139268
1783206686140551200,2.58955126953125,0.0207255022404715,-0.0201076991356909,-0.0447901588410139,-0.0003423411399126,-0.0016253646463155,0.000125657999888
1783206686150487000,2.599487060546875,-0.0030551863195374,-0.0046457799792289,-0.0341577056676149,-0.0004879646003246,0.0009819385595619,0.0022023238707333
1783206686160424000,2.609423828125,-0.0094494904665276,0.0027152503080666,-0.0500257214069366,0.0001839511096477,-0.0022359588183462,0.0002297207247465
1783206686170360000,2.619360107421875,0.0013119228487834,0.0024447628036141,-0.0583908141702413,-0.001638519577682,-0.0023951297625899,-0.0016646744916215
1783206686180297200,2.629297119140625,0.0313037775412201,0.0221661660354584,-0.0473065255761146,-0.0016483729705214,0.0021405001170933,0.0013409692328423
1783206686190233900,2.63923388671875,0.0428918144064024,0.0255584388222545,-0.0476058007836341,0.0027505345642566,-0.0027820379473268,-0.000608654692769
1783206686200170000,2.649169921875,0.0365444546736776,0.018080650287494,-0.0456634345442056,-0.0007608430460095,0.0003423825837671,-0.0006925442721694
1783206686210107100,2.659107177734375,0.0158238843366503,0.0081168170906603,-0.0482031821548938,0.0002895537763833,0.0007041874341666,0.0011572772637009
1783206686220043000,2.66904296875,0.0083311174284666,-0.0045303369060158,-0.0326414558857679,-0.0021384498104453,0.0035875919274985,-0.0003418163396418
1783206686229980000,2.67897998046875,-0.0074380045136436,0.0007614128265529,-0.0366711497932672,-0.0007231635972857,0.0025964675005525,0.0004768734797835
1783206686239916000,2.688916015625,-0.0121000780405476,0.0118045656926929,-0.0481920762389898,0.0003074798732995,-0.001454999204725,-0.0033277184702455
1783206686249853200,2.698853271484375,-0.0102071039007976,0.0212851454172283,-0.0432604650557041,7.79405236244e-05,0.0004151063039898,-0.0019744667224586
1783206686259789000,2.7087890625,-0.0025922084502875,0.0274469559825956,-0.0429524220198392,-0.002515978179872,0.0002782195806503,0.0004878919571638
1783206686269726000,2.718725830078125,0.0198100678959861,0.0362619114052504,-0.0490881482958793,0.0004340652376413,0.000542661640793,-0.0004653765354305
1783206686279662000,2.728662109375,0.033583485976234,0.0220460467871278,-0.0473100327074527,0.0020159827545285,0.0009549190290272,-0.0001247581094503
1783206686289599000,2.738598876953125,0.0247134758980944,-0.0047269554566591,-0.0546510431200265,-0.001821800135076,0.0018147253431379,-6.2184408307e-05
1783206686299536000,2.748535888671875,0.0010839958444237,-0.009560878419131,-0.038486090260744,-0.0004627890884876,-0.0004707993939518,-0.001615073531866
1783206686309472000,2.758471923828125,-0.0071108183858916,0.0007044219423085,-0.0419154801875352,0.0018057748675346,-0.0014145192690193,8.19268170744e-05
1783206686319409200,2.7684091796875,-0.0095465211002156,0.0082023764822632,-0.0592699350923299,0.0016499795019626,-0.0004445961676537,-0.0020723042543977
1783206686329345000,2.778344970703125,0.0039515141047537,0.0065426265764981,-0.0513368040055036,-0.0004742117598652,-0.0003610416315495,0.000927812885493
1783206686339282000,2.788281982421875,0.0188866329081356,0.0138872902508825,-0.0487888730883598,0.0022525992244482,-0.0038740178570151,0.0011488553136587
1783206686349218000,2.798218017578125,0.031129407355003,0.0154857384234666,-0.0523830981880426,-0.0007879324257373,-0.0006931377574801,0.0014410037547349
1783206686359155200,2.8081552734375,0.0378214158069342,0.0203234607782214,-0.0525321512699127,0.0024960115551948,-0.0023395037278532,-0.0009145620279014
1783206686369091000,2.818091064453125,0.0080572689231485,0.0297302446141839,-0.0481909071952104,0.0015878370031714,-0.0001993458718061,-0.0013311252696439
1783206686379028000,2.828028076171875,-0.0089798636607825,0.0272040871374309,-0.0502858336478471,-0.0005818409845232,-0.0001085321418941,-0.0005425631534308
1783206686388964000,2.837964111328125,-0.0128823509920388,0.0189694158207625,-0.0405535441845655,6.25299289822e-05,-0.0024704718962311,-0.0003006260376423
1783206686398901000,2.84790087890625,-0.0012208104992285,0.0081548840787261,-0.0399579163789749,0.000572258606553,-0.0033397283405065,0.0021651946008205
1783206686408838100,2.857838134765625,0.0183588827069848,0.0025441315248608,-0.0555208116918802,0.0016449149698019,0.0010220310650765,-0.0010116177145391
1783206686418774000,2.86777392578125,0.0115049251589924,0.0143289696037769,-0.0407201329231262,0.0004771184176206,-0.0014176904223859,-0.000354615971446
1783206686428711200,2.877711181640625,0.0186897951617836,0.0150583067916333,-0.0468476758927106,0.0006031775847077,-0.0001975880004465,-0.0007617766968905
1783206686438647000,2.88764697265625,0.0164375957882031,0.0203353704117238,-0.0458037197977304,0.0007760170847177,-0.0014676498249173,-0.0014808301348239
1783206686448584200,2.897584228515625,0.0060035147311165,0.0168789463475346,-0.0447533339619636,-0.0002170857042074,0.0002893144264817,-0.0016181940445676
1783206686458520000,2.90752001953125,-0.0162291772019118,0.0197337512567639,-0.0456616809785366,0.002517182379961,0.0029064028058201,0.0015642836224287
1783206686468457000,2.91745703125,-0.0072574968475848,-0.0061292234700173,-0.0467179120332002,0.0012251324951648,0.0032807188108563,-0.0014324360527098
1783206686478394000,2.92739404296875,0.0090935897009447,-0.0143379566278308,-0.0386433266490697,-0.0008249683305621,0.0006593693979084,0.0008232612162828
1783206686488330000,2.937330078125,0.0046379254663363,-0.0180045893765985,-0.0335661695152521,-0.001043957658112,0.0006416095420718,0.001043414697051
1783206686498267000,2.947266845703125,0.0086111764788627,-0.0109518213208764,-0.047337505236268,-0.0010519474744796,-0.0014111548662185,-0.0001696553081274
1783206686508203000,2.957203125,0.0157902377953752,-0.0037044805411249,-0.0438829808682203,8.91871750354e-05,-0.0038985828869044,0.0008057598024606
1783206686518140000,2.967139892578125,0.0084232892239466,-0.0103784053470939,-0.0434223776191473,-0.0028634583577513,-0.001200268510729,-0.001362053095363
1783206686528076000,2.977075927734375,-0.0158333097521215,0.0138466659795492,-0.0484977811872959,0.0004198914393782,0.0021326057612895,0.0033840308897197
1783206686538013000,2.987012939453125,-0.0293789104258641,0.0179068280905485,-0.0453483772456645,-0.001083462499082,0.0009285905398428,0.0009568259119987
1783206686547948800,2.99694873046875,-0.0070700114514678,0.0060215253118425,-0.0540168368697166,-0.0018864860758185,-0.000175685621798,-0.0014149699127301
1783206686557886000,3.006885986328125,0.032540625859797,-0.0180606304127722,-0.0408271004289388,0.0003830594941973,-0.0006720987148582,0.0015552537515759
1783206686567822800,3.01682275390625,0.0432367188539355,-0.0138152479279786,-0.0499625930428504,0.0003734473139047,0.0009663733653724,0.0020990727934986
1783206686577759000,3.026759033203125,0.034822453186661,-0.0067491819992661,-0.0414373412817716,0.001359349116683,0.0017485441640019,0.0003347285091876
1783206686587695900,3.03669580078125,-0.0026182562069967,0.0199294930245727,-0.0484749848335981,0.0011028088629245,-0.003227038308978,0.0002022206317633
1783206686597632000,3.046632080078125,0.0065255293112248,0.009546338437125,-0.0532698178946971,0.001834113150835,0.0039962534792721,0.0004549545701593
1783206686607569000,3.05656884765625,0.0071857833182439,0.0115624274998903,-0.049226679983735,-0.0006824424490332,0.0009976834990084,0.0008255406282842
1783206686617504800,3.0665048828125,0.0169857677228748,0.0141225603114813,-0.0384457582503557,-0.0006656637415289,-0.0007312409579753,-0.0014812895096838
1783206686627442000,3.07644189453125,0.0278913022166118,0.0050977615304291,-0.0505634815454483,-0.0021954076364636,2.45352275669e-05,-0.0003046265337616
1783206686637378000,3.0863779296875,0.0251783534634858,0.0089611589603126,-0.042182606691122,0.0001734737306833,-0.0001525646075606,0.0017593232914805
1783206686647315000,3.09631494140625,0.0220626325957477,0.0059875499770045,-0.0400824195414781,0.0008348925039172,0.0003363816067576,0.0012482055462896
1783206686657251800,3.106251953125,0.0253836667772382,0.0112583299867808,-0.0376782810091972,-0.0005427608266472,-0.001027955673635,-0.0006578189786523
1783206686667188000,3.11618798828125,0.0374310282498598,0.0044382747083902,-0.0445516739100217,-0.0017007142305374,-0.0001554237678647,-0.0004571946337819
1783206686677124900,3.126124755859375,0.0286596927732229,0.003005830752477,-0.0426093076705932,0.0006133066490292,-0.0012723533436655,0.0029300798196345
1783206686687060700,3.136060791015625,0.0259587632514536,-0.0014255758237093,-0.0421586412936449,-0.0012687146663665,-0.0027787662111222,0.0012042829766869
1783206686696998000,3.145997802734375,0.0048701633196324,0.0112584761172533,-0.0454360555291175,-0.0018010810017585,0.0005794796161353,0.0025494457222521
1783206686706934000,3.15593408203125,-0.0202168585985898,0.0441078756652772,-0.0497679472535848,-0.0009971344843506,-0.0020871250890195,0.002507529919967
1783206686716871000,3.165870849609375,-0.0054025531632825,0.0439759198486804,-0.0509545266896486,-0.0009087175130844,-0.0024724840186536,3.66491731256e-05
1783206686726807800,3.175807861328125,0.0171063618952408,0.0161575002051889,-0.0515402176231145,-0.0026991134509444,-0.0017300778999924,0.0021663082297891
1783206686736744000,3.185743896484375,0.0154615172976627,0.0087600834302604,-0.0406055666327476,-0.0016844496130943,-0.0009010359644889,0.0001870470587164
1783206686746681000,3.19568115234375,-0.0019079890457913,0.0077496642787009,-0.0326665903270244,-0.0005440423265099,-0.0008487510494887,0.0005921751726418
1783206686756616700,3.20561669921875,-0.0092826094670221,0.020324702887237,-0.0381990900129079,-0.0003701383247971,-0.0001209089532494,0.0010896534658968
1783206686766553900,3.215553955078125,0.0042916693119332,0.0194839412141591,-0.0423825131773948,-6.2575563788e-06,-0.004627532325685,0.0013389855157583
1783206686776490000,3.225489990234375,0.0210956872597336,0.0078624039381742,-0.0453776033401489,0.0003556665033102,0.0003906623460352,-0.0014991452917456
1783206686786427100,3.23542724609375,0.0152819960122928,0.0178093590654432,-0.0524210921108722,-0.0013880860060453,0.0017086910083889,0.0009023295715451
1783206686796362800,3.24536279296875,0.0100958620786666,0.0127151777315884,-0.0466004231333732,0.0019661653786897,-0.0014191912487149,-6.43981620669e-05
1783206686806300000,3.2552998046875,-0.002436762160249,0.0032732495170086,-0.0421025271922349,-0.0008234418928623,-0.0001451908610761,0.000612263334915
1783206686816237000,3.265237060546875,-0.00451097461842,0.0073172642108052,-0.0483867220282554,0.0001374259591102,0.0015906575135886,-0.001164597691968
1783206686826173000,3.2751728515625,-0.0060058528186753,0.0064681731007993,-0.0454097520440816,0.0005700178444385,0.0017138882540166,0.001477925106883
1783206686836109800,3.28510986328125,-0.0066254825543612,0.0208561794154346,-0.047220016336441,0.0052308160811662,-8.6440704762e-06,0.0014259936287999
1783206686846046000,3.2950458984375,0.0051842707701027,0.0227262110710144,-0.0550187073886394,0.0003719683736562,0.001954757142812,-4.50306106358e-05
1783206686855983000,3.304983154296875,0.0115344800470396,0.0289275499291718,-0.0553331801652908,-5.70667907595e-05,0.0012916298583149,-0.0010636895895004
1783206686865919700,3.314919677734375,0.0236404398391023,0.0125704354986548,-0.0375344886243343,0.0052421977743506,-0.0002713748253881,3.08251474052e-05
1783206686875856000,3.32485595703125,0.0047927872344851,0.0171687230743467,-0.0469698409676551,-0.0007800087332725,0.0003781705163419,-0.0012008867925032
1783206686885793000,3.33479296875,-0.0139185987045988,0.0183797062993049,-0.0583498976379632,0.0018346235156059,0.0017626699991524,-0.0014545071171596
1783206686895729000,3.34472900390625,-0.0139785487309098,0.0184852125003933,-0.0454980148494243,0.000970427878201,0.0014393622986972,-0.0018225560197606
1783206686905665800,3.354665771484375,-0.0171069098845124,0.0009239099118858,-0.0541898553490638,-0.0010153343901038,0.0002218103036284,-0.0013860176550224
1783206686915602000,3.364601806640625,0.0025525705596432,0.0017331074029207,-0.047913843819499,0.0019857818260788,0.0008724206127226,0.0003572874702513
1783206686925539000,3.3745390625,0.0122003966098651,0.0123101040620356,-0.0522644402444362,0.0020295595750212,-0.0001510828733444,-0.0007540085352957
1783206686935475700,3.384475830078125,0.0060251055084168,0.0069474810503423,-0.0410568175315856,0.0008726827800273,0.0017227171920239,-0.0009694583714008
1783206686945411800,3.394411865234375,0.0103003716748207,0.0023312924917787,-0.0398638083547353,0.0016871681436896,-0.0003574942238628,0.0003615254536271
1783206686955349000,3.404348876953125,0.0046023426963016,0.0087252313125878,-0.0473550408929586,0.0021729292348027,-0.0003479071892797,0.0011349071282893
1783206686965284900,3.414284912109375,0.006611892420426,-0.0034463410615921,-0.0548480269968509,0.0016985423862934,0.0008801314979791,-0.0033212699927389
1783206686975221800,3.4242216796875,0.010238777680695,-0.0172102971937507,-0.0433358683794736,0.0007464624941349,-0.0014501344412565,-0.0019060663180425
1783206686985158000,3.434157958984375,0.0129736460046842,-0.0100707276374101,-0.0374888959169387,0.001462198793888,0.0002331924624741,0.0016800113953649
1783206686995095000,3.444094970703125,0.0161062814746052,0.0041382688485085,-0.0419844537705183,0.00018494669348,0.0010345373302698,0.0016576405614614
1783206687005032000,3.454031982421875,0.0254071937832981,0.0069373980477452,-0.0428840329587459,0.0012798942625522,-0.0004808604717254,-0.001066782977432
1783206687014967800,3.4639677734375,0.0271614170394837,0.0031953619752079,-0.045722471255064,-0.002210178412497,-0.0013485183008015,0.0002328397240489
1783206687024905000,3.473905029296875,0.028610519869253,-0.0043820875417441,-0.0352308878570795,-0.0017155203968286,-0.0008064452558755,0.0022403774783015
1783206687034840800,3.4838408203125,0.0190882929600775,0.010234612962231,-0.040019291177392,-0.0002995170652866,0.0007317964918911,0.001483506988734
1783206687044778000,3.493778076171875,0.0204068647453561,0.0042258740667253,-0.044364626905322,-0.0001270985230803,0.0010936185717582,-0.0012017766712233
1783206687054713900,3.5037138671875,0.0222875639254227,0.0061213324245065,-0.0573754996478557,0.000928577966988,0.0012933555990457,-0.000198031309992
1783206687064651000,3.513651123046875,0.0135543319694697,0.0100393095858395,-0.0436070865362882,0.0015795156359672,-0.001551937777549,0.0029117071535438
1783206687074588000,3.523587890625,-0.0019864245768636,0.017304332152754,-0.0424041404873132,-0.0019555641338229,0.0025666404981166,0.0014688062947243
1783206687084524000,3.53352392578125,-0.0047345907738432,0.0215912887569516,-0.0403185663849115,0.0032039284706115,-0.0007998323999345,-0.0023001967929303
1783206687094461000,3.5434609375,-0.0025828561000525,0.012593377982825,-0.0448217230230569,-0.0018179938197135,0.0012476057745516,-0.0019172341562807
1783206687104396800,3.553396728515625,0.0093429978847503,0.0168295542478561,-0.0512561399847269,0.0011747358366847,0.0016427696682512,-0.0002843944821506
1783206687114334000,3.563333984375,0.0093245489126071,0.0149007781423628,-0.0500607927203178,0.0005169352516531,-0.0006115962751209,0.0012280147057026
1783206687124270800,3.573270751953125,0.0117777872836217,0.0105514968916773,-0.0484182862102985,-0.0007295627146959,-0.0001589288003742,-0.0024295938201248
1783206687134207000,3.58320703125,0.0122988520156592,0.0123914987351745,-0.0356938291937112,0.000382306985557,0.0004844907671213,0.0016921805217862
1783206687144144000,3.593143798828125,0.0148473309220746,0.0240948690757155,-0.0416816714316606,0.0018885098397731,-0.0001337029971182,0.0024595535360276
1783206687154080000,3.603080078125,0.0031416590265929,0.0275464708343148,-0.0404980146050453,-0.0001746406778693,0.001148875337094,0.0005058587994426
1783206687164017000,3.613016845703125,0.0079900854384526,0.0156524732924997,-0.0434831678956747,0.0019711209461092,0.0004433272406458,0.0005186181515455
1783206687173952800,3.622952880859375,-0.0017053060805425,0.0188333683509379,-0.0562216534376144,0.0020731203258037,0.001999678555876,0.0009785462170839
1783206687183890000,3.632889892578125,0.0021307649509981,0.0128126467566937,-0.0408089802503585,-0.0001364210620522,0.0026179596316069,-7.2538619861e-05
1783206687193826800,3.642826904296875,0.0062143444702029,0.0111870913814753,-0.0430593895256519,-0.0004826318472623,0.0016496344469487,-0.0016704351874068
1783206687203763000,3.652762939453125,0.0103655823981389,0.0002479103464633,-0.0559346531897783,0.0019717523828148,0.001903616823256,-0.0003109963145107
1783206687213699800,3.662699951171875,0.0294356821143999,0.0051832478567957,-0.041722003442049,-0.0001566456630825,0.0003248946741223,0.001382507616654
1783206687223636000,3.672635986328125,0.0283404342235997,0.0027625965811312,-0.0448585479021072,0.0007553519681096,-0.0009140400215983,-0.0003822373691946
1783206687233572900,3.68257275390625,0.0102612452408298,0.0099881639204919,-0.0408206706881523,0.0025870744138956,-0.0009675696492195,-0.0001707824412733
1783206687243510000,3.692510009765625,-0.0008327244970947,0.0006390285558998,-0.0483031353980302,0.0022311750799417,-0.0007322039455175,0.0001774462871253
1783206687253446000,3.70244580078125,-0.0052811552733182,0.0097813893020153,-0.0557780013233423,-0.0008841911330819,-0.0015066508203744,0.0006403035949915
1783206687263382800,3.7123828125,0.016880115391314,-0.0010908639766275,-0.0505325018852949,-0.0019865091890096,-0.000600547529757,0.0025275880470871
1783206687273319000,3.72231884765625,0.0115638522719964,-0.008448387132585,-0.0461877506792545,0.0004484187811613,-0.0004476821050047,-0.0023587797768414
1783206687283256000,3.732256103515625,-0.0071139236584305,0.0084833123154938,-0.0481342085719108,0.0017324183136224,0.0010756966657936,-0.0017989961197599
1783206687293192000,3.74219189453125,-0.0023481340287253,-0.0051496378481388,-0.0385685078471899,0.0022088577970862,0.0006085783243179,-0.0004823294002562
1783206687303128800,3.75212890625,0.0167465521395206,0.0025821254476904,-0.0435170701652765,0.000687351450324,-0.0003406177274882,0.0012543597258627
1783206687313066000,3.76206591796875,0.0095498821010813,0.0121528676737099,-0.0412608156710863,-0.0016961777582764,-0.0012474237009882,-0.0005201045423746
1783206687323001900,3.772001953125,0.0088993457704782,0.010288681237027,-0.037976971694827,0.0011362507939338,0.0039845602586865,0.0013116837944835
1783206687332939000,3.78193896484375,0.0056220046002417,0.0195830907396972,-0.045321489238739,0.001885931007564,-0.0018733292818069,-0.0010100600775331
1783206687342875000,3.791875,0.0001221285423263,0.0135827543463557,-0.0412906262874603,0.0020314427092671,-0.0002270601689815,-0.0003266076091676
1783206687352812000,3.80181201171875,0.0113864498784765,0.0113063338469713,-0.0451771123319864,-0.0001829760149121,-0.0011972496286034,0.0002084216102957
1783206687362749000,3.8117490234375,0.0112902229623869,0.0103021252404898,-0.0462251600801944,0.0004128385335206,0.0006535430438816,0.0021100479643791
1783206687372685000,3.82168505859375,-0.0021336510278284,0.0160813662290573,-0.0468178652763366,-0.0015128934755921,0.0012511564418673,-0.0008902691770344
1783206687382622000,3.8316220703125,-0.0030897461762651,0.0170939773377031,-0.0511632010042667,-0.0012567527592182,0.0006458372808992,-0.0002471052575856
1783206687392557800,3.841557861328125,-0.0020544483117759,0.0187871911216527,-0.0501198294311761,0.0004175761714577,-2.1099112927e-06,-0.0012588400859385
1783206687402495000,3.851494873046875,0.0042690190887078,0.0086042352814227,-0.0460772760421037,-4.6743080019e-06,-0.000673989765346,0.0020568333566188
1783206687412432000,3.861431884765625,0.0217475387645885,-0.0077095514640212,-0.0450245521187782,0.001025702804327,-0.0015698773786425,0.0001342971809208
1783206687422368000,3.871367919921875,0.006291318696551,0.0095221538439393,-0.0498053566545248,-0.0022792536765336,0.000567655544728,-0.0021243677474558
1783206687432305000,3.881304931640625,-0.0075348524842411,0.0222883311104029,-0.0468009141415357,-0.0008027972653508,0.0005857646465301,-0.0025518049951642
1783206687442241000,3.891240966796875,-0.0082798986978828,0.0318963366068899,-0.0492032991081476,0.0020593600347638,0.0009274426847696,0.0024819714017212
1783206687452178000,3.901177978515625,-0.0017861527644097,0.0189696350164711,-0.0463712905526161,0.0020026350393891,0.0001913453452289,0.0010675666853785
1783206687462115000,3.911114990234375,0.0062488312616944,0.0020628508139401,-0.0341208807885646,0.001490038819611,0.0020256275311112,-0.001406286843121
1783206687472051000,3.921051025390625,0.012464819699712,-0.0015552666179835,-0.0362280822008848,0.0007400931790471,-0.0002654897980391,0.0005735070444643
1783206687481988400,3.93098828125,0.0072309741668403,0.0091902915410697,-0.038769583377242,-0.0010383138433098,-0.0013832291588187,-0.0010795202106237
1783206687491924500,3.940924560546875,0.015569032792747,0.0004359802644699,-0.0332405908226966,0.0003870101645588,-0.0017076018266379,0.0001793559640645
1783206687501861400,3.950861328125,0.0273540535347536,0.013456351487711,-0.039963177075982,-0.0004969695582985,-0.0009472393430769,-0.0004834758583456
1783206687511797500,3.960797607421875,0.0209029046339914,0.0206860835455358,-0.0437087933450937,7.58757814764e-05,-0.0004100799560546,-0.0004288810305297
1783206687521734400,3.970734375,0.0216032714556902,-0.0012926701590418,-0.0417488914489746,-0.0006943168118596,-0.0004306500777602,0.003497717436403
1783206687531671600,3.980671630859375,0.0174717611415311,0.0025869477532804,-0.0427928475439548,0.000931542366743,-0.0004524877294898,-0.0024469909258186
1783206687541607400,3.990607421875,0.0140573861207813,0.0038873628273606,-0.0377069225817918,-0.0015921620652079,-7.17313960194e-05,-4.3885782361e-05
1783206687551544300,4.00054443359375,0.0040868309222161,0.001714841093868,-0.0475748211234807,-0.0006848229095339,9.7379554063e-05,-0.001148564973846
1783206687561480400,4.01048046875,0.0146544752310961,0.0053086278021335,-0.0351572380989789,-0.0023314142599701,0.0031456912402063,0.0035247693303972
1783206687571417300,4.020417236328125,0.0125422323174774,0.0022021131541579,-0.0445879142671823,-0.0013250056654214,-0.0011270842514932,-0.0006854222156107
1783206687581354500,4.0303544921875,0.018651801238954,0.0097221333954483,-0.0400853421509265,-3.87001782655e-05,-0.0011045271530747,-0.0023111598566174
1783206687591290400,4.040290283203125,0.0195154688635841,0.0087423285778611,-0.0402349797546863,0.0030004987493157,-0.0021897652186453,-0.0005553376395255
1783206687601227500,4.0502275390625,0.0171381818056106,0.0178173231761902,-0.0335135625451803,0.0022400468587875,-0.0006190803833305,0.0022178953513503
1783206687611163400,4.060163330078125,0.0055357510888949,0.0016968670457601,-0.0460837057828903,0.0010695876553654,-0.0013277474790811,0.0029129805043339
1783206687621100500,4.0701005859375,-0.0018224296541884,-0.0011303192041814,-0.0429494994103908,0.0009115878492593,0.0016110222786664,-0.0006859470158815
1783206687631037400,4.080037353515625,0.0036680209882557,0.0062736003767699,-0.0457885222285985,0.0019536828622221,4.64152544736e-05,-0.001132026547566
1783206687640973300,4.089973388671875,0.0103392058478668,0.0131911246802657,-0.039209728360176,-0.0017359182238578,0.0018848711624741,0.0013496002648025
1783206687650910500,4.099910400390625,0.0085098349962383,0.0088392861463129,-0.0383124872595071,-8.68896022439e-05,-0.0005194307304918,-0.0001052846200764
1783206687660846600,4.1098466796875,0.0079505571456626,0.012716054514423,-0.0562660771012306,-0.0001103207468986,-0.0010955058969557,0.0010147071443498
1783206687670783500,4.119783447265625,0.0159890483031049,0.0087848525453358,-0.0454845708459615,0.0011056791990995,-0.0016459813341498,0.000229074852541
1783206687680720400,4.129720458984375,0.0109439302753657,0.0105662560693919,-0.0537058712244033,-0.0004974231123924,0.0003415001556277,0.0019400555174797
1783206687690656500,4.139656494140625,-0.0007294467857107,0.0262681945268064,-0.0411357279866933,-0.0009802542626857,-0.0010417457669973,0.0005786474794149
1783206687700593400,4.149593505859375,0.0063210197150707,0.0062454702608287,-0.0519108045011758,0.0010865237563848,0.0029291580431163,-0.0001739358995109
1783206687710529300,4.159529296875,0.0149716514214873,0.003777984168753,-0.0550549477458,-0.002139363437891,0.0004718592390418,0.0011065118014812
1783206687720466400,4.169466552734375,0.0121021969323977,-0.0013498802389949,-0.0358995808988809,-0.0006232289597392,0.0027499350253492,-0.0008649788796901
1783206687730403300,4.1794033203125,0.0062396615745499,0.0220940506473183,-0.0453238273262977,-0.0002791490405797,-0.0007563829421997,0.0014767386019229
1783206687740339500,4.18933935546875,0.0036433249384164,0.029775691191107,-0.0474134930819273,-0.0006142947822809,0.0001713903620839,0.0007244853768497
1783206687750276400,4.1992763671875,0.0166880268853157,0.023336744184792,-0.0454664506673812,0.0026107933372259,0.0004771212115883,0.0043506454676389
1783206687760212500,4.20921240234375,0.0080249375561252,0.0146230571795254,-0.0454746339738368,-0.0003434186801314,-0.0020418344065546,0.0009192982688546
1783206687770149400,4.2191494140625,0.0001501125277951,0.0042419484186917,-0.0465156674593687,0.0003604544326663,-0.0002183681353926,0.00108601199463
1783206687780086500,4.22908642578125,-0.0076559215806424,0.0163777188271284,-0.0547480737537145,0.0021569784730672,0.0018664230592548,-0.0022356638219207
1783206687790022400,4.2390224609375,8.23445212095e-05,0.0129219523500651,-0.0568611203849315,0.0029042614623904,0.0040187900885939,0.0015425626188516
1783206687799959300,4.248959228515625,0.0048339229624718,0.0168247319422662,-0.0438631071239709,0.0021890848875045,0.002010513562709,0.0003118715249001
1783206687809895400,4.2588955078125,0.008049487475492,0.0105573421105742,-0.042083822491765,0.0017928062006831,-0.0002292050048708,-0.0012924167094752
1783206687819832300,4.268832275390625,0.0105360801268368,0.004785115384683,-0.059741644257307,0.0003235479816794,-0.0012663807719945,-0.0005866861902177
1783206687829769500,4.27876953125,3.18564429879e-05,0.0196340902745723,-0.0522580105036497,-0.0001744637265801,0.001747518312186,-0.0003776280209422
1783206687839705300,4.288705322265625,-0.0095921868728473,0.0051080637287348,-0.0428249962478876,9.07769426703e-05,-0.0037537505850195,-0.0005673288833349
1783206687849642500,4.298642578125,0.0033812399361282,0.0108623164065182,-0.0446218165367841,-0.0012392057105898,0.0017456770874559,0.0001972645986825
1783206687859578400,4.308578369140625,0.0118266313940286,0.0021607582304626,-0.0464192213475704,0.0002138996496796,-0.000656159594655,0.0003866215702146
1783206687869515500,4.318515625,0.0158966573119163,0.0011344108574092,-0.0440320339500904,-0.0004644077271223,0.0029066172428429,0.0017259255982935
1783206687879452400,4.328452392578125,0.0032011341288685,0.0062901861853897,-0.0403016152501106,0.0015377355739474,0.0017183385789394,0.0010261223651468
1783206687889388300,4.33838818359375,0.0034233620448037,0.002473842767626,-0.0492944845229387,0.0034208567813038,0.0014770561829209,-0.0016458268510177
1783206687899325400,4.348325439453125,0.0154897204788401,-0.0044821138501167,-0.0482493593841791,0.0008306810632348,-0.0038416837342083,-0.0015716188354417
1783206687909261600,4.358261474609375,0.0113829792797565,0.0031367636557668,-0.0545294625669717,-0.0001381766051054,0.0014026127755641,0.0004848740063607
1783206687919198500,4.368198486328125,0.007118599833548,0.0091650109693408,-0.0548293222963809,0.0024285037070512,-0.0029599787667393,-0.0013008737005293
1783206687929135400,4.37813525390625,0.0016974150350317,0.0103404114242643,-0.0537812745481729,-0.0005217464640736,0.0006677797064185,0.0003763851709663
1783206687939071500,4.388071533203125,0.005639759452641,0.0120313601858913,-0.0479407318264245,0.000651516020298,-0.0016058012843132,0.0009770961478352
1783206687949008400,4.39800830078125,0.0062152577856555,0.0143989661000669,-0.0394043741494417,0.0018451446667313,-9.2363916337e-06,0.0003222248051315
1783206687958945500,4.407945556640625,-0.0026191695224493,0.01013860524185,-0.0497241081118583,-2.78474763035e-05,-0.0005615008994936,-0.0003592621069401
1783206687968881400,4.41788134765625,0.0143078172178938,0.0058076633654534,-0.0349099853396415,0.0011862879619002,0.0003301254473626,-0.0025507775135338
1783206687978818300,4.427818359375,0.0128782958714291,0.0137494892153888,-0.0401566538214683,0.0009361989796161,-0.0004845648072659,0.0023958059027791
1783206687988754400,4.43775439453125,0.0067388067357242,0.0149459324583411,-0.0420908367544412,-0.0028694588690996,-0.0027655623853206,0.0007616900838911
1783206687998691300,4.44769140625,0.0104025168750435,0.0274840731225907,-0.0398404274791479,-0.0006507225334644,-0.001399899367243,-0.0017848756397143
1783206688008628500,4.45762841796875,0.0123490843655541,0.006560600624606,-0.0410334366559982,0.0001524863764643,-0.0007929648272693,-0.0004620836116373
1783206688018564400,4.467564453125,0.0177307043386623,0.0260360662713646,-0.0488163456171751,0.000463050790131,-0.0007396317087113,-0.0007270269561558
1783206688028501500,4.47750146484375,0.0273454683694988,0.0019346213243901,-0.0527045852273702,0.0003679757937788,-0.0003968831151723,0.0013126882258802
1783206688038437400,4.487437255859375,0.0049704818889498,0.0121911538574844,-0.0489671522647142,-0.0014137886464595,-0.000298730097711,-0.0014028707519173
1783206688048374500,4.49737451171875,0.0040401422362774,0.0117612380076199,-0.0536088405907154,0.0014845300465822,-0.0002369447611272,-0.0025634763296693
1783206688058311400,4.5073115234375,0.0043566973721608,0.0077681497834622,-0.0465787958234548,-0.00043186545372,0.0013317028060555,9.15790442377e-05
1783206688068247300,4.517247314453125,0.0062162441663444,0.0110918873786926,-0.0383545728355646,-0.000962633639574,0.0009540668688714,-3.3760443329811096e-08
1783206688078184400,4.527184326171875,0.0153325206231325,0.0071150196369737,-0.0468780710309743,-0.0027061700820922,0.000896967947483,-0.0006810235790908
1783206688088120600,4.53712060546875,0.0085527242898941,0.0203217072125524,-0.0452250431269407,-0.0001740371808409,-0.0027867164462804,0.0019435214344412
1783206688098057500,4.547057373046875,0.0167505707275122,0.0135648533634841,-0.0413274511665105,0.0003816597163677,-0.0010907961986958,0.0017883062828332
1783206688107994400,4.556994384765625,0.0257141408406198,0.0094254154711961,-0.039530630877614,-0.0002622930333018,-0.0012021162547171,0.0005938783288002
1783206688117930500,4.566930419921875,0.0070541562952101,0.0158700615659356,-0.0508954899787902,0.0005219811573624,-0.0017959186807274,-0.0009111554827541
1783206688127867400,4.576867431640625,-0.0011222454955801,0.0174886026784777,-0.0414759197264909,0.0011432962492108,0.0013719117268919,0.0001796754077076
1783206688137804500,4.586804443359375,0.012376081970334,0.0228444306232035,-0.0459790763646364,0.0015193661674857,0.001221930142492,0.0005166281480342
1783206688147740400,4.596740478515625,0.0055394408833235,0.0112098146699368,-0.0388034856468439,-0.0010796124115586,0.0005899621173739,-0.001018151640892
1783206688157677300,4.60667724609375,0.0076333444226533,-0.0070886430867016,-0.0443313091576099,-0.000649394467473,0.0012729321606457,-0.0001996157225221
1783206688167613400,4.616613525390625,0.0085900971582159,0.0039342707090079,-0.0459708930581808,0.0011165468022227,0.0012574861757457,0.0011436829809099
1783206688177550600,4.626550537109375,0.0062771440407261,0.0195086372639983,-0.0355056131452322,0.0018096109852194,-0.0014915992505848,0.0009501513559371
1783206688187487500,4.636487548828125,0.0029928616730496,0.0141497405793517,-0.0452279657363891,0.000116373412311,-5.29596582055e-05,0.0007072708103805
1783206688197423400,4.64642333984375,0.0037140520870685,0.0161140994548797,-0.0389396792471408,-0.0001385146751999,-0.0013318434357643,-0.0021978020668029
1783206688207360500,4.656360595703125,0.0222282714862376,0.0065874155662953,-0.0419318468004465,0.001300124451518,0.0017957729287445,-0.0035557479131966
1783206688217296400,4.66629638671875,0.0174476130809634,0.015265446736291,-0.0417880544155836,-0.0018684677779674,0.0015865433961153,0.00120813655667
1783206688227233500,4.676233642578125,0.0111136973517015,0.0180029088761657,-0.0447743767499923,-0.0006607240065932,-0.0001519680954515,0.0013365007471293
1783206688237170400,4.68617041015625,0.0088050550831481,0.0196368667535483,-0.0413344654291868,-0.0010465942323207,-0.0038308841176331,-0.0008758201729506
1783206688247106600,4.6961064453125,-0.0039085517458617,0.0186259361453354,-0.0483703554153442,0.0019606472924351,-0.0009421533904969,0.0031045405194163
1783206688257043500,4.70604345703125,0.0006477963842451,0.0137274965792894,-0.0399906496047973,-0.0005183788016438,-0.0003094421699643,0.0009822747670114
1783206688266980400,4.71598046875,0.0103526133187115,0.0082912238094955,-0.0428361021637916,0.0010222597047686,-0.0024543520994484,-0.0025986114051193
1783206688276916500,4.72591650390625,0.0042938247364014,0.01053023490794,-0.051817280998826,-0.00013386644423,0.0020896680653095,-0.0026287632063031
1783206688286853600,4.735853515625,0.004619111168012,0.0162407215092331,-0.0525660535395145,0.0015535121783614,-0.0028978995978832,-0.0004007627721875
1783206688296789500,4.74578955078125,0.0116097737729549,0.0113817371707409,-0.0419435372382402,-0.0007946444675326,-0.0029905755072832,0.0005409307777881
1783206688306726400,4.755726318359375,0.018842063114047,0.0119563221883028,-0.0389350030720233,0.0002820715308189,0.0003815190866589,0.0008210954256355
1783206688316663600,4.76566357421875,0.013189151918888,0.0135661685377359,-0.0429711267203092,-0.0006003165617585,-0.0008254060521721,0.0016883197240531
1783206688326599400,4.775599365234375,0.0079608958765864,0.016322846834734,-0.0483691863715648,-0.0010237591341137,-0.0014238180592656,7.25800637155e-05
1783206688336536300,4.785536376953125,0.0155512048751115,0.0074893328420817,-0.0458265161514282,-0.0004360703751444,0.0008651493117213,0.0009351789485663
1783206688346472400,4.795472412109375,0.0103238986808806,0.0136734283044934,-0.0443213722854852,-0.0023676613345742,0.0001106755807995,-0.0010179833043366
1783206688356409600,4.80540966796875,0.0069426952773705,0.0123700175557285,-0.0420727165758609,-0.0008568875491619,0.0006370865739881,0.0007782960310578
1783206688366346200,4.81534619140625,0.0070164546333253,0.0171280257377773,-0.0455149659842252,0.000883487984538,-0.0002148584462702,0.0011561987921595
1783206688376282400,4.825282470703125,0.0123522261707112,0.0057640434194356,-0.0497130021959543,-3.40994447469e-05,0.001120239496231,-0.0010346616618335
1783206688386219500,4.835219482421875,-0.0011463204909116,0.0263450591553002,-0.04746434648633,-0.0005584759637713,-0.002732555847615,-0.0032940874807536
1783206688396156700,4.84515673828125,0.0118696302855387,0.0046950990136712,-0.0413332963854074,0.0022985748946666,0.0024462330620735,0.0010196389630436
1783206688406092300,4.85509228515625,0.0182027057645842,-0.0005477700758725,-0.0411807361721992,-0.0015640733763575,-0.0004691295325756,0.0015538693405687
1783206688416029400,4.865029541015625,0.0108507720991969,0.024878639864549,-0.0410252533495426,-0.0008195107802748,-0.0023215976543724,-0.000372972106561
1783206688425965600,4.874965576171875,0.0152381934031844,0.0174129801589995,-0.0522469045877456,-0.0011883592233061,0.00202361587435,0.0001005379017442
1783206688435902500,4.88490234375,0.0066066682560369,0.0178642310578376,-0.0456499905407428,9.88757237792e-05,-0.0025283093564212,1.56152527779e-05
1783206688445839400,4.89483935546875,0.0086285660050809,0.0133312638033181,-0.0431108274519443,-0.0017616087570786,0.000748976599425,0.0010105720721185
1783206688455775500,4.904775390625,0.007737206655927,-0.005787424295023,-0.0375713135033845,-0.0016808928921818,0.0022237787488847,0.0004972256720066
1783206688465712600,4.914712646484375,0.0045947439117357,0.0184618316248059,-0.0520814848929643,-0.0016971388831734,0.0015649124979972,-0.0006125136278569
1783206688475648800,4.924648681640625,0.0096239337179809,0.0144669898349791,-0.0465507387727499,-0.0005827397108078,0.0015775961801409,-0.0019892475102096
1783206688485585700,4.934585693359375,0.0137940590094774,0.0176535109166055,-0.0411678766906261,0.0014854716137051,0.0008886363357305,0.0019618184305727
1783206688495522800,4.944522705078125,0.0049879444804042,0.0186393801487982,-0.0393780706644058,-0.0003670565783977,-0.0001610261388123,-0.0017458059592172
1783206688505458700,4.954458740234375,0.0121281716238707,0.0067482321511954,-0.0483528197586536,-0.0006935596466064,8.47838819026e-05,-7.44061544537e-05
1783206688515395600,4.9643955078125,0.0075064301073551,0.003151376703009,-0.0429763874173164,0.0007687006145715,-0.0024560852907598,0.0009013242088258
1783206688525332700,4.974332763671875,0.0032865839226171,0.0092410718802362,-0.0372813906461,0.0003921296447515,0.001055825036019,-0.0001932349987328
1783206688535268900,4.984268798828125,0.0117844362201169,0.0077972297474741,-0.0398193846911191,0.000730543397367,0.0005971533246338,-0.0002606047783046
1783206688545205500,4.99420556640625,0.0114693789215758,0.0152782331526279,-0.0405681572318077,-0.0001064883545041,-0.0011717183515429,-0.000589505303651
1783206688555141600,5.0041416015625,0.0113523649457842,0.0134076900403946,-0.0410211616963148,0.0006370460614562,-0.0014086519367992,0.0008941597770899
1783206688565078800,5.014078857421875,0.008533288937062,0.0124420598786324,-0.0437204837828874,-0.0010519307106733,-0.0002288715913891,0.0018459733109921
1783206688575015700,5.024015625,0.0124603627203032,0.0163330029025673,-0.0348901115953922,-0.0004490669816732,-0.0017666351050138,-0.0005070760380476
1783206688584951600,5.03395166015625,0.0090929686464369,0.0130840841092169,-0.0392243414074182,-0.0001057861372828,0.001272830646485,-0.0002996157854795
1783206688594888700,5.043888671875,0.0054929713930934,0.0062132484916597,-0.0455044445902109,-0.0006328877061605,-0.0005694888532161,0.0021170028485357
1783206688604825900,5.053825927734375,0.0096352953622117,0.0017980623979121,-0.0422141708731651,-0.0012672524899244,0.0007767393253743,0.0015822402201592
1783206688614761500,5.063761474609375,0.0167182393604889,0.0068153791032731,-0.0425058472961187,-0.0016410537064075,0.001554206945002,-0.0001480057835578
1783206688624698600,5.07369873046875,0.0117773123595863,0.0194816761918365,-0.0453448701143264,0.0009440761059522,-4.68855723738e-05,-0.0012686639092862
1783206688634634800,5.083634765625,0.0018086568571627,0.017310908024013,-0.0487900421321392,-0.0017582522705197,0.0008610794320702,0.0003302944824099
1783206688644572000,5.093572021484375,-0.0098593864416703,0.015217954332754,-0.0432592960119247,-0.0001896508038043,0.0018917229026556,-0.0002121913712471
1783206688654508500,5.103508544921875,0.0231256587173789,0.0114504915580153,-0.0393640421390533,-0.002071957103908,0.0011107590980827,-0.0015336209908127
1783206688664444700,5.113444580078125,0.0309731208147481,0.0046468759577721,-0.044001054289937,-0.0018887314945459,-0.0007542525418102,0.0006136856973171
1783206688674381800,5.1233818359375,0.0010711363628506,-0.0074177289105951,-0.0452010777294635,0.0020379601046442,-0.0015682508237659,0.0023634792305529
1783206688684318700,5.133318603515625,0.0051799964537844,0.0186192872088402,-0.0456534976720809,0.0002272771671414,-0.0007266919128596,-3.52300703525e-05
1783206688694254600,5.143254638671875,0.0082692677060142,0.0003933101665228,-0.0495364765852689,0.0015061181038618,-0.0018470357172191,0.0010041538625955
1783206688704191700,5.153191650390625,0.0127615741565823,0.0236899415366351,-0.0423614703893661,0.0017721680924296,0.0017596837133169,0.0001721824519336
1783206688714128000,5.1631279296875,0.0142994877809658,0.0101114249739795,-0.0438654452115297,0.0005546147003769,0.0010801339522004,-4.3027102947e-06
1783206688724064500,5.173064453125,0.0050252077508717,0.0169140176609158,-0.0299427183210849,0.0006744572892785,0.0010231425985693,0.0012085009366273
1783206688734001700,5.183001708984375,0.0070767334531992,0.0040976445771753,-0.0417699342370033,-0.0004936512559652,-0.0017067557200789,-0.0015998948365449
1783206688743937800,5.192937744140625,0.0079902681015431,-0.0027537556875497,-0.0489490320861339,-0.0007522450760006,-0.000154931563884,-3.23583371937e-05
1783206688753874700,5.202874755859375,0.0067624068070203,0.0129882955845445,-0.0383101491719484,-0.0009575737640261,-0.0001576081849634,0.0011110513005405
1783206688763811600,5.2128115234375,0.0065801821079105,0.0130381991408765,-0.0405424382686614,0.0005239434540271,-0.0025051846168935,8.22723377496e-05
1783206688773747700,5.222747802734375,0.0066750938497483,0.0137291770797222,-0.033506548282504,-0.0009226473048329,-0.0007394044660031,0.0011213282123208
1783206688783684600,5.2326845703125,-9.28293826058e-05,0.0166773593608289,-0.0514548774272203,-3.4749507904e-05,0.0002917712554335,0.002867029979825
1783206688793620500,5.242620361328125,0.019775727234967,0.0074660980969667,-0.0465115758061409,-0.0012117326259613,0.0003911033272743,0.0003296087961643
1783206688803557600,5.2525576171875,0.0152559117229655,0.0197414961718022,-0.0414256508439779,0.0010828468948602,0.0011596917174756,-0.0013516447506844
1783206688813494800,5.262494873046875,0.0149997084721922,0.0156982121303677,-0.0548971268355846,-0.0013620229437947,-0.0007367166690528,-0.001112604746595
1783206688823430700,5.2724306640625,0.0034347602216526,0.0230786777704954,-0.0502642063379287,0.0015762420371174,-0.001076802611351,-0.0007914276793599
1783206688833367600,5.282367431640625,0.0005250467874109,0.0048893064115196,-0.0453337641984224,0.0016854126006364,0.0024647749960422,0.000828803051263
1783206688843304700,5.2923046875,0.0062942047733813,0.0140745564512908,-0.0453472082018852,0.0007791388779878,-0.0002697585150599,0.0009044366888701
1783206688853240800,5.30224072265625,0.0110900242151692,-0.0022073007859289,-0.0532797547668218,0.0019861785694956,-0.0012951167300343,-0.0012796951923519
1783206688863177700,5.312177734375,0.0144245389327406,0.0174046507220715,-0.0498375053584575,0.0012109326198697,-0.0002658045850694,0.0034639274235814
1783206688873113600,5.322113525390625,0.006229286311008,0.0159655578296631,-0.0422264458328485,0.0030493382364511,-0.0019609904848039,-0.0009840931743383
1783206688883050800,5.33205078125,0.0134211340438574,0.0216021754771471,-0.0461246223151683,0.0006463676691055,0.0004800627939403,-0.000773170730099
1783206688892987600,5.341987548828125,0.0200158561337739,0.007589943672344,-0.0507668951630592,0.000501474365592,6.9766305387e-05,-0.0006567258387804
1783206688902923500,5.351923583984375,0.0128161173554137,0.0055360068172216,-0.035353052932024,-0.0004830965772271,0.0006822934374213,0.0016154833137989
1783206688912860700,5.361860595703125,0.0038044703168794,0.0069634092718362,-0.0428249962478876,-0.000481778755784,-0.0028502577915787,0.0004413749556988
1783206688922797600,5.371797607421875,0.0205592422954738,0.0027953298069536,-0.0435690926134586,0.0008894829079508,0.0033168240915983,-0.0018161868210881
1783206688932733700,5.381733642578125,-0.0115844201359897,0.0373928151313215,-0.0461205306619405,-0.001435350626707,-0.0044076410122215,-0.0010521220974624
1783206688942670600,5.391670654296875,0.0028783319152891,0.0054771162368357,-0.0384878438264131,-0.0007591741159558,0.002096330281347,0.0006235388573259
1783206688952606700,5.401606689453125,0.0233165781795978,0.0133110977981239,-0.0393868384927511,0.0002188365906476,0.0025225037243217,-0.0006175416056066
1783206688962543600,5.411543701171875,0.0271796833485364,-0.0075875325195491,-0.0381827233999967,-0.0021580345928668,0.0007238048128783,-0.0020881390664726
1783206688972480800,5.421480712890625,0.0142209426520392,0.0204332778282463,-0.053147068297863,0.0009534815326333,-0.0018724193796515,0.0012285117991268
1783206688982416600,5.431416748046875,-0.0014199498005211,0.0263473241776227,-0.0401437943398952,0.00201927870512,0.0004301499575376,0.0025880550965666
1783206688992353800,5.441353759765625,-0.0023741817854344,0.021980945661664,-0.050468788999319,0.0005789157003164,-0.0025198049843311,-0.0016127122798934
1783206689002290700,5.451290771484375,0.0110914489872753,0.0083409812353551,-0.041339726126194,-0.0004586521536111,0.0005838423967361,-0.0011322781210765
1783206689012226600,5.4612265625,0.0114818365443497,0.0045313598193228,-0.0426835419505834,-0.0011549303308129,7.21076503396e-05,0.0002164337784051
1783206689022163700,5.471163818359375,0.0095273049430921,0.0119091951109468,-0.0497083260208368,-0.0004811501130461,-0.0016882419586181,0.0002246897201985
1783206689032100600,5.4811005859375,0.0104279070446267,0.0226399940922856,-0.0489630606114864,0.000505993142724,0.0027717808261513,-0.0008737181778997
1783206689042036700,5.49103662109375,0.0097275036903098,0.0208227886024862,-0.0399871424734592,-0.000692163594067,0.0003014327958226,-0.0013530870201066
1783206689051973600,5.5009736328125,0.0120850266018882,0.0096030370604246,-0.042682372906804,-0.0004963660612702,0.0016565220430493,0.0013849840033799
1783206689061909800,5.51090966796875,0.0168788367496803,0.0097555972736328,-0.0411743064314126,-0.0020255530253052,-0.0028034737333655,0.0026790138799697
1783206689071846700,5.5208466796875,0.0090596143661066,0.0170975575342774,-0.0383212550878524,-0.0013713473454117,-0.0016374476253986,0.001110557001084
1783206689081783800,5.53078369140625,-0.0008678688757121,0.0103654728002846,-0.0464040237784385,0.0002529146149754,0.0013146665878593,-0.0022080081980675
1783206689091719700,5.5407197265625,0.0003416530445218,0.0123629302278161,-0.0372796370804309,0.0002909461036324,0.0002658194862306,0.0036622385960072
1783206689101656600,5.550656494140625,-0.0012144903562963,0.0068103376019746,-0.0490904863834381,-0.00072718039155,-0.0006274050101637,-0.0002126607578247
1783206689111593700,5.56059375,0.0078340180939063,0.0107353290259838,-0.0443020830631256,0.002162005752325,0.0014795195311307,-0.0003574639558792
1783206689121529600,5.570529541015625,0.0098118940381333,0.0089689769405871,-0.035336101797223,0.0010112533345818,-0.0002579265274107,-0.0013995588524267
1783206689131466800,5.580466796875,0.0114958285370841,0.0092005206741392,-0.0444569813638925,0.0004390850663185,-0.0004951916635036,-0.001188114634715
1783206689141403600,5.590403564453125,0.0131122507577762,0.016476722222194,-0.0499906500935554,0.0003037964925169,0.0017623701132833,-0.0002725198864936
1783206689151339800,5.60033984375,0.0092592651240527,0.0188633250977844,-0.0484866752713918,-0.0040214881300926,0.0016259429976344,-0.0021215453743934
1783206689161276700,5.610276611328125,0.0010359554516151,0.0183891317147761,-0.0416010074108839,0.0008526286110281,-0.0013722437433898,0.0014071429613977
1783206689171212800,5.620212890625,0.0111059159040451,0.0105425829328596,-0.0408639253079891,-0.0001065274700522,0.0019307495094835,0.0010981315281242
1783206689181149700,5.630149658203125,0.0165837262606248,0.0050156362049281,-0.0470019896715879,-0.0013693990185856,-0.0002458523958921,0.0005926636513322
1783206689191086800,5.6400869140625,0.0315523454748094,0.011279518905282,-0.0341430926203727,0.0030795447528362,0.0002419967204332,-0.0015304501866921
1783206689201022700,5.650022705078125,0.0100929394692182,0.0079854457959532,-0.0506114123404026,-0.0004371590912342,-9.80892218649e-05,-0.0004145856946706
1783206689210959600,5.659959716796875,-0.0001996872905641,0.0368124579600989,-0.0498690695405006,-0.0011516259983181,0.0006480310112237,0.0022133598104119
1783206689220896800,5.669896728515625,0.000328209041059,-0.0031695699468255,-0.0423819286555051,-0.0021236799657344,-0.0008473340421915,0.0014386461116373
1783206689230832600,5.67983251953125,0.0153819492554292,0.0089992990136146,-0.0462730908751487,-0.0006640022620558,0.0021071545779705,0.000497163971886
1783206689240769500,5.68976953125,0.0203568881237879,0.008295899984613,-0.0509200398981571,0.0008534668013453,2.00350768864e-05,-0.0023191289510577
1783206689250706700,5.699706787109375,0.0046809243578463,0.0203706609208136,-0.0492693500816822,0.0001301569864153,-0.0026638037525117,0.0002049664035439
1783206689260642800,5.709642822265625,0.0064939651291817,0.0282496506676077,-0.0414946244269609,0.000654799863696,-0.0012816227972507,0.000232130754739
1783206689270579500,5.719579345703125,0.0143540309797972,0.0169913937460631,-0.0519698412120342,-0.001378746703267,-0.0010483302175998,0.0019725065212696
1783206689280515600,5.729515625,0.0083975702608004,0.0112391868948936,-0.0350596229434013,0.0022087981924414,-0.0022113327868282,0.0010433297138661
1783206689290452700,5.73945263671875,0.0042849107775837,0.0054532969698309,-0.0352039998501539,0.00080650113523,-0.0029857703484594,0.0016911106649786
1783206689300390000,5.749389892578125,0.0136178987249732,0.0131323802303522,-0.0280342543512582,0.0011724196374416,-0.0015399400144815,0.0015899108257144
1783206689310325500,5.759325439453125,0.0013336597565561,0.020859467351064,-0.0482493593841791,0.0008212551474571,0.0035663587041199,-0.0012238088529556
1783206689320262700,5.7692626953125,0.0032071620108559,0.0156652597088366,-0.0360030412733554,0.0027536451816558,0.00306355394423,-0.0025521935895085
1783206689330199800,5.77919970703125,0.0145773548742756,0.0038959114599972,-0.0280710792303085,-0.000293125398457,0.0009866040199995,8.63564200699e-05
1783206689340135700,5.7891357421875,0.0099633948054164,0.005237754523009,-0.0336065015256404,1.87307596206e-05,-0.0010515130124986,-0.0003815609961748
1783206689350072600,5.799072509765625,0.0037676454378291,0.0115060942027717,-0.0307645560979843,-0.0018911287188529,0.0020394194871187,-0.0012252260930836
1783206689360009700,5.809009765625,0.0053155689995735,0.0105373953010886,-0.0280634804457426,-0.0011904509738087,-0.0019140429794788,0.0014461909886449
1783206689369945900,5.81894580078125,0.0061974298680201,0.0150557495083659,-0.0235655845046043,0.0002973452210426,-0.0007526986300945,-0.0023774045985192
1783206689379882500,5.828882568359375,0.0254939952839165,0.0126898971598595,-0.0271533798635005,0.0022731442004442,0.0005216235294938,-0.0017496974905952
1783206689389818600,5.838818603515625,-0.0187896022744476,0.0418735407419502,-0.0416857630848884,-0.0016370872035622,-0.0016237180680036,0.001928640063852
1783206689399755800,5.848755859375,0.0043739407679066,-0.0033322131626307,-0.033299627533555,-0.0002682218328118,0.0005132025107741,-0.0007544946856796
1783206689409692700,5.858692626953125,0.0165185886025428,0.0223147807259112,-0.0265641817986965,0.0013362476602196,-0.0004048915579915,0.0013115191832184
1783206689419628500,5.868628662109375,0.0189851613791659,7.75222156196e-05,-0.0222328745961189,0.001009477302432,0.0030774576589465,-0.0018922634189948
1783206689429565700,5.878565673828125,0.0088051281483843,0.0132801181379705,-0.0366132821261882,-0.0002552261576056,0.0021069599315524,0.0008939090184867
1783206689439502600,5.888502685546875,-0.0101715576633811,0.0039043139621615,-0.0235860427707433,-0.0017314162105321,-0.0015935022383928,0.0010867216624319
1783206689449438500,5.8984384765625,0.0004826689504086,0.0035885260112583,-0.018334698113799,-0.0006496291607618,0.0004886724054813,0.0015539810992777
1783206689459375600,5.908375732421875,0.0099260219370946,-0.0065508829481899,-0.0220715465545654,0.0020420281216502,-0.0025627776049077,-0.0001341968309134
1783206689469312800,5.918312744140625,0.0088890435721725,0.0079507398087531,-0.0211719673663377,0.0008224183693528,0.0010641147382557,-0.000907139154151
1783206689479249400,5.92824951171875,0.0001061272555962,0.0095413700010627,-0.0160784436196088,-0.0015552518889307,-0.0009662793017923,-0.0003356246743351
1783206689489186600,5.9381865234375,0.0060011401109397,0.0168552001457661,-0.0151712656468152,0.001082201488316,0.0021182289347052,-0.0023981011472642
1783206689499122400,5.948122314453125,0.0125325511736795,0.0174080847881734,-0.0230891991645097,-0.0030800523236393,-0.0047873477451503,-0.0011243113549426
1783206689509059300,5.958059326171875,0.0170263189289718,0.0072150459453463,-0.009901216289401,-0.0008980333805084,-0.0022950791753828,0.0023412522859871
1783206689518996500,5.96799658203125,0.0079897566448897,0.0167686909060925,-0.0223152921825647,-2.4121254682e-06,-0.0016772258095443,0.0008275115396827
1783206689528932600,5.9779326171875,0.0089472035001963,0.0111032855555415,-0.0166284787178039,0.0029597440734505,-0.0001776968128979,-0.000573419034481
1783206689538869500,5.987869384765625,0.0042734030028805,0.0133469728291034,-0.016641338199377,0.0011309506371617,0.0002010045573115,-0.0008879383094608
1783206689548806400,5.997806396484375,0.0073301967576146,0.0097615886230021,-0.0145505033999681,-0.000384041108191,0.0012713852338492,0.0009924848563969
1783206689558742500,6.007742431640625,0.012533427956514,0.0169013773750513,-0.0211328043997287,-0.0001829722896218,0.0008484753780066,0.0006864874158054
1783206689568679700,6.0176796875,0.0144764517830684,0.0152645699534565,-0.0146995564818382,0.0009686788544058,0.0003153840079903,-0.0002501043491065
1783206689578616300,6.0276162109375,0.008641790812835,0.0103116237211972,-0.014548749834299,0.0007665446028113,0.0006213812157511,0.0001360538881272
1783206689588552400,6.037552490234375,0.0117804176321253,0.0056029345735907,-0.0114069446772336,0.0019066538661718,0.0009725652635097,-0.0005249420646578
1783206689598489600,6.047489501953125,0.0080056483337655,0.0184460495337843,-0.0132137018382549,0.0015460615977644,0.0002388642169535,0.0005480456165969
1783206689608425500,6.057425537109375,0.0150479680607095,0.0160316818684339,-0.0156061499327421,0.0005553783848881,-0.0011354875750839,-0.0004760874435305
1783206689618362400,6.0673623046875,0.0134546709872782,0.0210048671711236,-0.0194973121523857,-0.0009786030277609,0.0002059466205537,-0.0012875525280833
1783206689628299500,6.077299560546875,0.0023017741363495,0.0192748285081237,-0.0133639239639043,0.001730278134346,-0.000466039404273,0.0018588926177471
1783206689638235600,6.087235595703125,0.0044316623045131,0.0215675425551831,-0.0088771339386701,-0.0004830751568078,-0.0006322204135358,0.0005869667511433
1783206689648172300,6.09717236328125,0.0079039049923419,0.0236440565682947,-0.0178530520766973,-0.0001381812617182,-0.0009461254812777,-0.0002615584526211
1783206689658109400,6.107109375,0.0245928451931104,0.0144408324804157,-0.0084165306895971,-0.0035488912835717,-0.0018393499776721,0.0014575121458619
1783206689668045600,6.117045654296875,0.0225950589720159,0.0132809218555688,-0.009606617256999,-0.0016255183145403,0.0017096069641411,0.0026891601737588
1783206689677982500,6.126982421875,0.0179467582421377,0.018827523132041,-0.0082610478669404,0.0008711954578757,0.0004472685977816,-6.93420879542e-05
1783206689687918300,6.13691845703125,0.0168508162315934,0.017238135048747,-0.0100637133747339,0.0012897290289402,0.0006098495796322,0.0015822481364011
1783206689697855500,6.14685546875,0.0083022566601634,0.022494228946045,-0.0070732993870973,0.0007879892364144,0.0013033365830779,0.0002077906392514
1783206689707792600,6.156792724609375,0.0038854996638372,0.025319150173664,-0.0085942253440618,0.0049358550459146,-0.0020621558651328,0.0007824900094419
1783206689717728300,6.166728271484375,0.0026721052860841,0.022136209288612,-0.0029290391892194,0.0020641684532165,0.0031813420355319,0.0002549178898334
1783206689727665400,6.17666552734375,0.0150583433242514,-0.0012917933762073,-0.0032347441375255,4.76222485303e-05,-0.0015650521963834,-0.0014428872382268
1783206689737602600,6.1866025390625,0.0260161559944972,0.0070871087167412,-0.0021919570863246,0.0007259296253323,0.0025151770096272,9.42894257605e-05
1783206689747538700,6.19653857421875,0.0053296705901622,0.0007302139706909,-0.0017389526218175,-0.0018923003226518,-0.001101825851947,-0.0013754136161878
1783206689757475300,6.206475341796875,0.0057993704611435,0.0115262602079659,5.61141014099e-05,0.0026867389678955,0.0018058135174214,0.0010840157046914
1783206689767411500,6.216411376953125,0.0016148513181135,0.0187657830074429,-0.0039946225941181,0.0002098651602864,0.001389155164361,0.0018318663351237
1783206689777348600,6.2263486328125,0.0102639851871877,0.0158013802438974,0.0045312136888504,-0.0008551329374313,0.0002562464214861,0.0004656645469367
1783206689787285500,6.236285400390625,0.0227125113392248,0.0071429305572062,-0.0008498948276042,0.0003456808626651,-0.0015977104194462,-0.0003176520112901
1783206689797221400,6.246221435546875,0.0119429147174581,0.012608283291012,-0.0056207624912261,-0.0032210908830165,0.0010041981004178,0.0004714427050203
1783206689807158500,6.256158447265625,0.0053042073553428,0.0074044310376048,0.0094990652292966,0.0022491449490189,0.0014668744988739,0.0020154695957899
1783206689817094700,6.2660947265625,-0.0039307635776698,0.0232041307810693,0.0009586158990859,-0.002269173040986,-0.0001869485713541,-0.0011616817209869
1783206689827031300,6.27603125,3.86149773374e-05,0.005672346547991,0.0003653261810541,-0.0003966344520449,0.0002989103086292,-0.0015319177182391
1783206689836968400,6.285968505859375,-0.001956065971218,0.0022238865945488,0.0051636663734912,1.69547274708e-05,0.0017593880183994,0.0009695892222225
1783206689846904600,6.295904541015625,-0.0052362201530486,0.0137650521107017,-0.0050303953826427,0.0007594190537929,0.0049364422447979,0.0011273911222815
1783206689856841500,6.305841552734375,0.0251650555904954,0.0052193420834839,-0.0020230302602052,-0.0008805552497506,-0.0052445558831095,0.0010184678249061
1783206689866778400,6.3157783203125,0.0165323979321867,0.0414830801196396,-0.0014390928924083,0.0003698356449604,0.0034093323629349,-8.24821181595e-05
1783206689876714500,6.325714599609375,-0.0106692780524492,-0.0026361206572502,-0.001732522881031,-0.0002269791439175,-0.0016613262705504,-0.0030068992637097
1783206689886651400,6.3356513671875,-0.0038113749817013,0.0329599472504109,-0.0123509475290775,-0.0020635407418012,0.0015750466845929,-0.0005453911144286
1783206689896587300,6.345587158203125,0.0304082534736022,-0.0356620458159595,-0.0021644845575094,-0.0007332926616072,-0.0005432316102087,0.0020916708745062
1783206689906524400,6.3555244140625,0.0125845370892435,-0.0008621697872877,0.0015688567519187,0.0002585984766483,0.0019216700457036,0.0010194911155849
1783206689916461600,6.365461669921875,-0.0086610435025766,0.0119886900879442,0.0049947395473718,0.0007451577112078,0.0002326932735741,-0.0011123695876449
1783206689926397400,6.3753974609375,0.0078595178613439,0.0181773155950009,-0.0113175128281116,0.0017172181978821,-0.0008352166041731,0.0011614831164479
1783206689936334300,6.385334228515625,0.0156907594762742,-0.0082176471166312,-0.0077314710348844,0.0025878055021166,-0.0009593195281922,0.0026371404528617
1783206689946270500,6.3952705078125,0.0124473936408758,-0.0070197425689548,-0.0021925416082143,0.0004026051610708,-0.0008131605572998,3.43846622854e-05
1783206689956207600,6.40520751953125,0.0166537592895329,-0.0011362374883145,0.0081470660984516,-0.0018879799172282,-0.0017106458544731,6.6878274083e-06
1783206689966144500,6.41514453125,0.0169475911369547,0.0180032742023468,-0.0057686465293169,-0.0007423488423228,0.0001317686401307,0.001271246233955
1783206689976080400,6.425080322265625,0.0234712938172742,0.0199050892356783,-0.0024754502028226,-0.0015295799821615,-0.0009249737486243,0.0013633912894874
1783206689986017500,6.435017578125,0.0261566239111125,0.0175942550100386,0.0035147301226854,-0.0011504981666803,-0.0020786807872354,0.0005238105077296
1783206689995953700,6.44495361328125,0.0273874443477019,0.0103494715135544,0.003659107029438,0.001141152344644,-0.0004528206773102,0.0012234228197485
1783206690005890300,6.454890380859375,0.014686660467647,0.0047410570472478,0.0011100070685148,0.000841018743813,-0.0016571804881095,0.0035298557486385
1783206690015827500,6.464827392578125,0.0027118162419646,0.0125384329251945,-0.0035240824729204,-0.0018237400799989,-0.0022595874033868,0.0013127739075571
1783206690025763600,6.474763671875,-0.0014889964487403,0.0113767687346786,-0.0009656301617622,-0.0004931557923555,0.0007884972728788,0.0004675576929003
1783206690035700500,6.484700439453125,0.003108779670298,0.0048290275916457,-0.0102478377699851,0.0004898170009255,-0.0001574573107063,-0.0003279284574091
1783206690045636400,6.49463623046875,0.0061859220933169,0.0063546297237277,0.0021732523858547,-0.001198187470436,0.0009328788146376,-0.0005082669667899
1783206690055573500,6.504573486328125,0.0143976509258151,0.0199555773138999,-0.0069423664838075,-0.0004194788634777,-0.0011800732463598,0.0012888340279459
1783206690065510400,6.514510498046875,0.0153697838936001,0.0210207223273813,-0.0031996728241443,-0.0004697237163782,-0.0020969868637621,0.0006156757008284
1783206690075446300,6.5244462890625,0.0062992462746798,0.0180458712350577,-0.0011041618496179,0.0023588202893733,0.0009941440075635,0.0013376586139202
1783206690085383400,6.534383544921875,0.0115048886263743,0.0146413965538144,0.0078700027227401,0.0006476733833551,-0.0008397148922085,-0.0006889691576361
1783206690095319600,6.544319580078125,0.0117125765603035,0.0168438750341534,0.0042903906702995,-0.0027846088632941,-0.0015582358464598,-0.0008868419099599
1783206690105256400,6.55425634765625,0.0073357497155666,0.0170110482946038,0.0024982465565204,0.0023599304258823,0.000868743751198,0.0013855779543519
1783206690115193300,6.564193359375,0.0115600163470953,0.0187396987181156,0.004295066845417,0.0005543073639273,-0.0021281111985445,-0.0004083272069692
1783206690125129500,6.57412939453125,0.0167203217197209,0.0175067959222942,0.0047381344377994,-0.0002942625433206,-0.0004513948224484,0.001730537507683
1783206690135066600,6.584066650390625,0.0250931959306821,0.0063761839684098,-0.0021229835033416,-0.0002034492790699,-0.0014111977070569,-0.0005991957150399
1783206690145002200,6.594002197265625,0.0094798856047913,0.0115714875891804,0.0005780921489,0.0009874450042843,0.0009987894445657,0.0012752413749694
1783206690154939400,6.603939453125,0.00585015080031,0.0107963384982198,0.0010158990442752,0.0018239440396428,-0.0001168088056147,8.40092543512e-05
1783206690164876500,6.61387646484375,0.0187638467786833,0.0095184275168925,0.0098404260128736,0.0006763348355889,-0.0002108793705701,-0.0002609344664961
1783206690174812700,6.623812744140625,0.012513335016556,0.0160970752548426,0.0123860188424587,0.001234533265233,0.0005345395766198,-0.0003038113936781
1783206690184749300,6.633749267578125,0.0133889853399246,0.0224782276593148,-0.0028852000474929,-0.0003811297938227,0.0016597150824964,-0.0009291362948715
1783206690194685400,6.643685546875,0.0071218147039413,0.0270207664597779,-0.001829553514719,0.0006322031840682,-0.0029723206534981,0.0015404131263494
1783206690204622600,6.65362255859375,0.005628690069355,0.0164425276916474,0.0035538930892944,0.0014731166884303,0.0007423609495162,0.0006169446278363
1783206690214558500,6.663558349609375,0.0140039754331111,-0.0005317687891423,0.0062409402161836,0.0015026777982711,0.0002661873586475,-0.001861659460701
1783206690224495400,6.673495361328125,0.0163449125360697,-0.0031374943081289,0.007877601507306,0.0018018670380115,-0.0007434440776705,0.0019417947623878
1783206690234432500,6.6834326171875,0.0125823816647753,0.001512450389564,-0.0013952537506818,-8.2831829786e-06,-3.13147902488e-05,0.0023663027677685
1783206690244368600,6.69336865234375,0.0112177057154476,0.0126622785005718,0.0096709146648645,-0.0001266738399863,0.0011504460126161,0.0001334010157734
1783206690254305300,6.70330517578125,0.0043481487395241,0.0113668318625539,0.0063759647727012,0.0008781375363469,0.0016085095703601,0.0011784257367253
1783206690264241400,6.713241455078125,0.0023158757269382,0.0218642604794353,-6.42974078655e-05,0.0002441350370645,0.0012374287471175,0.0016174321062862
1783206690274178600,6.723178466796875,0.001494439808838,0.0192697139415889,0.0105377606272697,0.0034385966137051,-0.0005596727132797,0.0038233282975852
1783206690284115500,6.733115478515625,0.0472178243793547,-0.0130411948155611,0.0229664495676755,0.0020945789292454,0.0028402002062648,0.0009502249304205
1783206690294051300,6.74305126953125,0.0020469591250643,0.0517760722056031,-0.0062315878659486,0.0007006805390119,-0.0014030141755938,7.48441088944e-05
1783206690303988500,6.752988525390625,-0.0108464612502604,0.0075933046732097,0.0063344637185335,0.0016416311264038,2.60644592344e-05,0.0014148394111543
1783206690313924600,6.762924560546875,0.0075556760765612,0.0032530835118144,0.0018394903868436,-0.0008116727694869,-0.0020309607498347,-0.0019234330393373
1783206690323861200,6.772861328125,0.0172656806427985,-0.0138416975434869,0.0139618898570537,0.0009900871664285,0.0018553300760686,0.002725105267018
1783206690333797400,6.78279736328125,0.0051741147022694,0.0296131941057741,0.0124620066881179,-0.0007793167605996,-0.0011002463288605,0.0009775389917194
1783206690343734500,6.792734619140625,0.0007249898063018,0.0306958747759461,-0.000706686964631,-0.0003598593175411,-0.0004430073313415,0.0037350670900195
1783206690353671400,6.80267138671875,0.0086626144051551,0.0141249714642763,0.0010918868899345,0.0006542727351188,-0.0008579278364777,-0.0010863195639103
1783206690363607300,6.812607177734375,0.012147680041939,0.0093020813524723,0.0127682961583137,-0.0005904026329517,-0.0013618734665215,0.0004662473220378
1783206690373544400,6.82254443359375,0.0052785249248147,0.0008641425486654,0.0049924014598131,0.0002966960892081,-0.0010287119075655,0.0006095254793763
1783206690383480600,6.83248046875,-0.0053032940398901,-0.0017686171077191,0.0051391164541244,-0.0020542265847325,0.000835389830172,0.0021791122853755
1783206690393417500,6.84241748046875,0.0166029058851301,0.0070015493251383,0.0027519290566444,4.48767095804e-05,-0.0021747811697423,0.0021721883676946
1783206690403353300,6.852353271484375,0.0205924139127135,0.0099091073349118,0.0048456864655017,0.0007502231746912,-0.0006305458955466,0.0004413048736751
1783206690413290500,6.86229052734375,0.0199027146155014,0.0286786166694015,-0.0017354454904794,-0.0010663196444511,0.0011902572587132,-0.002072186442092
1783206690423227600,6.8722275390625,0.0237152221083641,0.0140147160228341,0.0111363110423088,0.0017047571018338,0.0001570670865476,-0.0003007918130606
1783206690433163500,6.88216357421875,0.0290111365593969,0.0203116242099553,0.0129331313312053,0.000369980931282,-0.000587286427617,0.0023048450239002
1783206690443100400,6.892100341796875,0.0177341018721461,0.011579305569455,0.0063572600722312,-0.001474960707128,-0.0001653861254453,-0.0011960484553128
1783206690453036500,6.90203662109375,-0.0002007832691073,0.0057250996485352,-0.001117021331191,-0.0020147832110524,0.0026466455310583,0.0002473848871886
1783206690462973700,6.9119736328125,0.0037216508716344,0.0134214993700385,0.0054687867999076,-0.0005909213796257,0.0007658824324607,-0.0020260205492377
1783206690472909600,6.92190966796875,0.013509725642763,0.0084424688484519,-0.0011269582033157,-0.0004572309553623,0.002825304865837,0.0018608630634844
1783206690482846200,6.93184619140625,0.0147080685818567,0.0098153646368533,-0.005175356811285,0.0010953834280371,0.0009076395072042,-0.0006818044930696
1783206690492783000,6.941783203125,0.0173657434837892,0.0198773975111544,0.0091857614964246,0.0006873868405818,0.000156095251441,-0.0016091172583401
1783206690502719200,6.95171923828125,0.0134274176541715,0.016002601904422,0.0115939916819334,-0.0002537555992603,-0.0037572416476905,3.20165418088e-05
1783206690512656100,6.96165625,0.0143804805953055,0.0153615275219082,0.0044172319203615,0.0004503838717937,0.0008201994933187,0.0023297918960452
1783206690522592000,6.971592041015625,0.0113039592267945,0.018413024047017,0.0138426473915576,0.0020395228639245,0.0004319371655583,-0.0008483869023621
1783206690532529200,6.981529052734375,0.0034795492114499,0.0238387023575603,0.0105342534959316,0.0020749429240822,-0.0011238814331591,0.0019695039372891
1783206690542465300,6.99146533203125,0.0282578339740633,0.0104201255969703,0.0132271458417177,0.0010326886549592,-0.0019911131821572,-0.0010608747834339
1783206690552402200,7.001402099609375,0.0403234982883557,-0.0021142887402325,0.0115764560252428,0.0001168269664049,0.0037722331471741,0.0017077473457902
1783206690562339000,7.011339111328125,0.0136884432105347,0.0152440386220812,0.0133773679673671,-0.0028643198311328,-0.0010173702612519,0.0002442651893943
1783206690572275200,7.021275146484375,0.0137003528440371,0.0236859229486435,0.0115893155068159,-8.37137922644e-05,0.0008282004855573,0.0020325779914855
1783206690582212000,7.031212158203125,0.0208784643124789,0.0179628691267222,-0.0033779520004987,-0.0026465905830264,-1.54972076416e-05,0.0040740324184298
1783206690592148200,7.041148193359375,0.0219021813370287,0.0286078895207494,0.0098053546994924,0.000716982409358,0.0008758627809584,0.0009091312531381
1783206690602085000,7.051085205078125,0.0240740820160135,0.0160331431731581,0.0069593176186084,-0.0009774779900908,0.000632501207292,-0.0017213377868756
1783206690612021200,7.061021240234375,0.0126360846133902,0.0115644733265042,-0.0041121114939451,-0.0002128845080733,-0.0015438343398272,0.0008235790301114
1783206690621958100,7.070958251953125,0.0076032415453344,0.00650653234981,0.007122399225831,-0.0029477309435606,-0.0005538091063499,0.0009028462227433
1783206690631894000,7.08089404296875,0.002885930699855,0.0144814567517489,0.0110065471827983,0.0029511703178286,-0.0003138580359518,0.0003012379165738
1783206690641831200,7.0908310546875,0.0086532985875383,0.0088934274863451,0.0094879593133926,-0.0006340770050883,-0.0006491942331194,-0.0005112418439239
1783206690651767300,7.100767333984375,0.0144909917650744,0.0040440877590328,0.0136824883937835,-0.0001192884519696,0.0003114081919193,0.0002557483967393
1783206690661704200,7.1107041015625,0.0132678797109052,0.0114596247125416,0.0222042330235242,0.0007182611152529,0.0026267194189131,0.0021708032581955
1783206690671641000,7.12064111328125,0.0169539112798869,0.0098481709279119,0.0090431381553411,-0.0017475597560405,-0.0015893308445811,-0.0002670544199645
1783206690681577200,7.1305771484375,0.01938789696116,0.0173924488276243,0.0047118309527635,6.54989853501e-05,0.0004331753589212,-0.000824857270345
1783206690691514400,7.140514404296875,-0.0003888166544958,0.0304174962259829,0.0118815764516592,0.0020439615473151,0.0023314766585826,0.001148278824985
1783206690701450000,7.150449951171875,0.0055629313567653,0.0080908789318054,0.0102308866351842,-0.0014854175969958,-0.0066573712974786,3.87418549507e-05
1783206690711387100,7.16038720703125,0.0508835803452879,-0.0058093438658863,0.0136707979559898,0.0007015699520707,0.0075676376000046,0.0003913445398211
1783206690721323300,7.1703232421875,-0.0284076177082955,0.0091110888250172,0.0052770636200904,0.0001056045293807,-0.0027035712264478,0.0001739969011396
1783206690731260400,7.180260498046875,-0.0288342456225305,0.0240608206756412,0.0033159926801919,0.0016457103192806,0.0021982428152114,0.0019324822351336
1783206690741196000,7.190196044921875,0.0158221307709813,-0.008512173083797,0.0182785840123891,-0.0013532415032386,-0.0015050219371914,0.0018075075931847
1783206690751133200,7.20013330078125,0.0240509568687528,0.0147412036664783,0.0173877726525068,0.0008811512961983,0.0026415197644382,0.0003145392984151
1783206690761069300,7.2100693359375,-0.0027383754553273,0.0262448867164552,-0.0017822072416543,-0.0003475109115242,-0.0030343336984515,-0.0014875270426273
1783206690771006200,7.220006103515625,-0.0015192454565316,0.0109424689706414,0.010635960304737,0.0020807590335607,0.0003851647488772,-0.0024364113342016
1783206690780943000,7.229943115234375,0.0224551755772903,0.0102935035426169,0.0071931263744831,-0.0018345778807997,0.0019414387643337,-0.0002287661191076
1783206690790879200,7.239879150390625,0.0152684058783575,0.0048271278955042,0.0076484689265489,0.0001241769641637,-0.0041918214410543,-0.002013883087784
1783206690800816400,7.24981640625,-0.0059774669744074,0.0162215784173458,0.0124351186811923,-0.0005340678617358,0.0008589522913098,-0.0009066320490092
1783206690810752300,7.259752197265625,0.0006004866437986,0.013284428986907,0.0176794490754604,-0.0004661567509174,0.0006906404159963,-0.0013513799058273
1783206690820689200,7.269689208984375,0.0212806884378194,0.0167126498699188,0.0091460140079259,0.0021544806659221,0.0029370833653956,-0.0011286559747532
1783206690830625300,7.279625244140625,0.0256659908499568,0.0211273975722491,0.0104711251318454,0.0024679349735379,0.0005615437403321,0.0003746983129531
1783206690840562200,7.289562255859375,0.0183337847983464,0.0246195505369454,0.0062777650952339,-0.0004463475197553,0.001156757120043,0.0002721459604799
1783206690850498300,7.299498291015625,0.0149664637897163,0.0172817549947649,0.0204968445837497,0.002261022105813,-0.0020158663392066,-0.0007212131749838
1783206690860435200,7.309435302734375,0.0095655545942485,0.0159611008502542,0.0083680153727531,0.0038251504302024,-0.0010984819382429,-0.0003813153598457
1783206690870371000,7.31937109375,0.0137185826204717,0.0088855364408344,0.0065624272555112,-0.0016215462237596,-0.0029336661100387,9.80535987764e-05
1783206690880308200,7.32930810546875,0.006342281698808,0.0101263302821666,0.0110585696309804,0.0016293367370963,-0.0039957691915333,0.0002109524793922
1783206690890244400,7.339244384765625,0.0089748586921021,0.0071473875366151,0.0139157126277685,-0.0001744218170642,-0.0005562962032854,-0.001056445762515
1783206690900181200,7.34918115234375,0.0126307143185287,0.0127694652020931,0.0166109430611133,-0.0008367067202925,0.0020459494553506,-0.0003776701632887
1783206690910118100,7.3591181640625,0.0141448086759075,0.0235611275251954,0.0068833297729492,-0.0003863666206598,0.0007982584647834,0.0012378031387925
1783206690920054300,7.36905419921875,0.0177342845352366,0.0183916159328073,-0.0007540332376956,0.0002830177545547,0.0017107813619077,-0.0023524104617536
1783206690929991200,7.3789912109375,0.0209983643651008,0.0254113585017621,0.0112234048038721,-0.0006003528833389,-0.0033958302810788,-0.0006679608486592
1783206690939927000,7.388927001953125,0.0037632249910384,0.0251609639372676,0.0077764792203903,0.0004065511748194,0.0053266184404492,0.0007581713143736
1783206690949864200,7.3988642578125,0.0016658873856067,0.0284697231590747,0.0052431613504886,0.0020039156079292,-0.0036415765061974,0.0004867950920015
1783206690959800300,7.40880029296875,0.0271075679603964,0.0100078915342688,0.0109346509903669,0.0001025442034006,-0.0004489389248192,-0.0031648485455662
1783206690969737200,7.4187373046875,0.025083478254266,0.0169749540679156,0.0136240362048149,-0.0002545854076743,0.0010967599228024,-0.0022828094661235
1783206690979673000,7.428673095703125,0.0176716310951858,0.0099424250826239,0.0182592947900295,-0.0007336270064115,-0.0006429525092244,-0.0001030687708407
1783206690989610200,7.4386103515625,0.018077179688774,0.0173451025545597,0.0189998840242624,0.0005771806463599,0.0009624012745916,5.45904040336e-05
1783206690999546400,7.44854638671875,0.0131033002663403,0.0264526111830025,0.0109258831620216,0.0001473408192396,-0.0022444943897426,-0.0004903024528175
1783206691009483000,7.45848291015625,0.0118952031182125,0.0364395329944789,0.0068769000321626,0.0014024889096617,-0.0017347647808492,0.0013592629693448
1783206691019419100,7.468419189453125,0.0245419552560895,0.0134198188696056,0.0141986212223768,0.0017951028421521,-0.0008450453169643,0.0009761149995028
1783206691029356300,7.478356201171875,0.0268521318946033,0.0056142596852034,0.010156652355194,8.98810103535e-05,0.0020977475214749,-0.0019307252950966
1783206691039292200,7.488292236328125,-0.0010944076405838,0.0205474057272076,0.0071679919332265,-8.77305865287e-05,-0.0003859321586787,0.0005029630847275
1783206691049229000,7.49822900390625,-0.0021492504557594,0.0274153187353163,0.007318214058876,-0.0005734907463192,-0.0016386830247938,-3.55280935764e-05
1783206691059165200,7.508165283203125,0.006734240158461,0.0129275053080171,0.0062649056136608,-1.09374523162e-05,-0.0008646450005471,-0.0023179203271865
1783206691069102300,7.518102294921875,0.0108669195163995,0.0148101772494614,0.0153951375305652,-0.0007251966744661,0.0013021030463278,0.0016706958413124
1783206691079038200,7.5280380859375,0.0145986168580129,0.013860109983012,0.0146510411649942,0.0020429631695151,-0.0024699931964278,0.0021623922511935
1783206691088975000,7.53797509765625,0.0133906293077394,0.0224076466411352,0.0143500123918056,0.0017433576285839,0.0033607312943786,0.0025610676966607
1783206691098912300,7.547912353515625,0.0078348948767408,0.0220675279665738,0.0119464583814144,0.0006593689322471,-0.0008833589963614,-0.0006436994299292
1783206691108848000,7.55784814453125,-0.0029439444974064,0.0211157801996916,0.0143330612570047,0.0025454200804233,-0.0003981310874223,0.0016966862604022
1783206691118785000,7.567784912109375,-0.001651091675274,0.0145291683509945,0.0249433025985956,0.0004053656011819,-0.0007129088044166,0.0023241161834448
1783206691128721200,7.57772119140625,0.0157123867861926,0.0048740357771515,0.0144692548573017,0.0009507816284894,-0.0009973347187042,0.0004186246078461
1783206691138658300,7.587658203125,0.0124552481537684,0.003360708604753,0.0111684597462415,-0.0009346520528197,-0.0022035432048141,-0.0026081530377268
1783206691148594200,7.59759423828125,-0.009156425804086,0.0212434982325881,0.0186474173247814,-0.0018678233027458,0.0047787325456738,0.001125066075474
1783206691158531000,7.607531005859375,0.0214560450047254,-0.0015008330170065,0.0053571431189775,-0.0014257561415433,-0.0066987951286137,-0.0013698132243007
1783206691168467200,7.61746728515625,0.0129060606611892,0.0368139923300594,0.0026624972075223,-0.0015360116958618,-8.45682807266e-05,-0.0012787331361323
1783206691178404000,7.627404052734375,-0.0021305092226713,-0.0051755760069936,0.0152484225362539,-0.0004304973408579,-0.0009253164753317,-0.0022197710350155
1783206691188340200,7.63734033203125,0.0170561295453459,0.0309381590992212,0.0019219079732894,-0.0004925485700368,-5.55282458662e-05,-0.0004109521396458
1783206691198277000,7.647277099609375,0.0437452528979629,-0.0229253869049251,0.0068792381197214,0.0003442857414484,-0.0015308889560401,2.96151265501e-05
1783206691208213000,7.657212890625,0.018772760737501,0.0250628373250365,0.014371639701724,-0.0007364246994256,0.0003173449076712,0.0008706413209438
1783206691218150100,7.667150146484375,-0.0086804057901725,0.0274142227567732,0.0035866263151168,0.0019687265157699,0.0020238682627677,-0.0005836675409227
1783206691228086300,7.677086181640625,0.0015796338742598,0.018721797735244,0.0113543377071619,-0.0018537091091275,0.002382063306868,0.0009620310738682
1783206691238023200,7.687023193359375,0.0159990217078477,-0.0011013853706419,0.0112064536690711,-0.0006992723792791,0.0018260548822581,0.0021059194114059
1783206691247959000,7.696958984375,0.0116947851752862,0.009055924571678,0.015692074650526,-0.0012872982770204,0.0028870580717921,-0.0010975972982123
1783206691257896200,7.706896240234375,0.0083271719057112,0.0103919224157929,0.0113619364917278,-0.0019623534753918,-0.00021931855008,-0.0015144419157877
1783206691267832300,7.716832275390625,0.0147460259720683,0.0324395766381174,0.0046469490230083,-0.0009657982736825,0.002096832729876,0.0021524645853787
1783206691277769200,7.726769287109375,0.0300679156033322,0.0241962105583399,0.0082359134256839,0.0010262290015816,-0.00182760739699,0.0001524358522146
1783206691287705000,7.736705078125,0.0315049261365085,0.016175547318533,0.0209539407014846,-0.000911752693355,-0.0005484912544488,0.0005780088249593
1783206691297642200,7.746642333984375,0.0215405449504032,0.0174489282552152,0.0082493574291467,2.05375254154e-05,-0.0033481218852102,-0.0016154396580532
1783206691307578000,7.756578125,0.0115871600823476,0.0111143914714455,0.0090104049295187,-0.0007917266339063,-0.0024160160683095,0.0006506440695375
1783206691317515000,7.766514892578125,0.0075785454954951,0.0193343766756355,0.0058820437759161,-0.0028187409043312,4.94248233735e-05,0.0017575749661773
1783206691327451100,7.776451171875,0.0042985009115189,0.0132033265747129,0.0105208094924688,0.0004095435142517,0.0010164184495806,-0.001309321145527
1783206691337388300,7.78638818359375,0.0127466688483953,0.017420067486912,0.0061754737645387,-0.0007600979879498,-0.0005788789130747,-0.0001807010266929
1783206691347324200,7.79632421875,0.0155748049464076,0.0227606247972697,0.0109673842161893,0.0017360830679535,-0.0001029721461236,0.0006555316504091
1783206691357261000,7.806260986328125,0.0241281868234276,0.0234306330133229,0.0027262100934982,-0.0002529369667172,-0.0002483436837792,0.0004233312793076
1783206691367197200,7.816197265625,0.0164766491569578,0.0213961315110325,0.0048269817650318,-0.0004809033125638,-0.0010270518250763,-0.001840355573222
1783206691377134000,7.826134033203125,0.0116551107520237,0.0110679950464516,0.0087234046816825,0.0001057274639606,-0.0002763872034847,-0.0003638218622654
1783206691387070200,7.8360703125,0.0098824019910767,0.0239479348856955,0.008424129474163,0.0006628604605793,0.0003467928618192,0.0013131706509739
1783206691397007000,7.846007080078125,0.0058306789148598,0.0218025934200733,-0.0008498948276042,0.0016951374709606,0.0007766978815197,-0.0016796810086816
1783206691406943000,7.85594287109375,0.0104691523704677,0.0160642689637839,0.0097603465139865,0.0006378619000315,0.0005314205773174,0.0003208855632692
1783206691416880000,7.865880126953125,0.0091428722027689,0.0166907302990555,0.0103571433633565,-0.0018295934423804,-0.0025565144605934,-0.0011730624828487
1783206691426816300,7.875816162109375,0.0135746075725182,0.0134155080206692,0.0136637836933135,0.0011283792555332,0.0012925523333251,-0.0006114018615335
1783206691436753200,7.885753173828125,0.014877981788665,0.0286220641765743,0.0114098672866821,-0.0004946514964103,-0.0017274371348321,-6.39571808278e-05
