time,seconds_elapsed,ax,ay,az,gx,gy,gz
1783205565771005000,0.0910048828125,0.0094165380449965,0.0241486998884938,-0.1362999832808971,-0.0269624441862106,0.0110403764992952,0.0081745721399784
1783205565780941000,0.100941162109375,0.00765924604889,0.0562931660375557,-0.2475064418375492,0.0478875078260898,-0.0134481266140937,-0.0019366885535418
1783205565790877000,0.110876953125,0.0053307665687054,0.0669913687903899,-0.2687543970495462,0.0944094732403755,-0.0243820007890462,0.0006873239763081
1783205565800813800,0.120813720703125,0.0138530957203358,0.0649110645181499,-0.1524064839512109,0.0984312817454338,-0.0284030549228191,-0.0003217505291104
1783205565810750000,0.13075,0.0274190815949812,0.0531097136958502,-0.0519096354573965,0.0586276799440383,-0.0215709842741489,-0.0002639598678797
1783205565820685800,0.140685791015625,0.0104690793052315,0.0348977743120398,0.0008089782953262,0.0048975674435496,-0.0041657541878521,-0.0006996393203735
1783205565830622000,0.1506220703125,0.0117780064793303,0.0059560588601976,0.0967816273629665,-0.0425546392798423,0.0124121569097042,-0.0008969795890152
1783205565840559000,0.16055908203125,0.0132308356361463,0.0072295311284251,0.1262485448658466,-0.0659139901399612,0.0194149874150753,0.002247616648674
1783205565850495000,0.170494873046875,0.0209647908890619,0.0162488865493796,0.0219429517388343,-0.0552847795188427,0.0140652284026145,0.0013557244092226
1783205565860430800,0.180430908203125,0.0099572207929566,0.0243406787966378,-0.0952694692343473,-0.0222737118601799,0.009220328181982,0.0012223094236105
1783205565870367000,0.190366943359375,0.0102739951245486,0.0286748172771185,-0.1461456699907779,0.0202697552740573,-0.0087325740605592,0.0016542740631848
1783205565880303900,0.200303955078125,0.0072192106638103,0.0306274217827711,-0.1498246507644653,0.0477000623941421,-0.014972660690546,-0.0001049793791025
1783205565890240000,0.210239990234375,0.0096949531275779,0.0245942516989074,-0.1225526129573583,0.0483650565147399,-0.0131611786782741,0.0007919732015579
1783205565900176100,0.220176025390625,0.0157683912897482,0.0389212120086885,-0.0606850625872611,0.0298183485865592,-0.0072082304395735,-0.0010191497858613
1783205565910112000,0.230112060546875,0.0160246310731396,0.0302019263796973,-0.0087894556552171,-0.005068527534604,0.0004350421950221,-0.0015366019215434
1783205565920049000,0.240048828125,0.0145498458128422,0.0191125688848085,0.0391430928647518,-0.0311056282371282,0.0108677754178643,-0.0008373521268367
1783205565929985000,0.249985107421875,0.0086136606968939,0.0158914788132999,0.0284825826406478,-0.0459476932883262,0.0172100942581892,0.0001940901856869
1783205565939921000,0.2599208984375,0.0042970396067947,0.0301949029838666,-0.008062310424447,-0.0389282330870628,0.0117217078804969,-0.0006026818882673
1783205565949857000,0.26985693359375,0.0108742991052567,0.0357243339298292,-0.0654606064260005,-0.0120185883715748,0.0020866570994257,0.0010519402567297
1783205565959794000,0.2797939453125,0.0031901378108188,0.0404039705128874,-0.1167927342563867,0.0173780880868434,-0.007207725662738,0.0006416896358132
1783205565969729800,0.289729736328125,-0.0004295505236834,0.0275507268843241,-0.1219505554109811,0.0379456803202629,-0.0124344453215599,0.0007913592271506
1783205565979666000,0.299666015625,0.0156755984397605,0.0286689629250671,-0.0967570774435997,0.0389974266290664,-0.011219872161746,0.0012389586772769
1783205565989601800,0.309601806640625,0.0210375638643279,0.0376046951831784,-0.0510363597542047,0.023291703313589,-0.0045619704760611,-0.0019602968823164
1783205565999539000,0.3195390625,0.0232050075639039,0.0389651516151148,-0.0048211365461349,-0.0004342840984463,0.0008484236896038,0.0003611885476857
1783205566009475000,0.32947509765625,0.0265431390106678,0.0365040130654349,0.0175087686836719,-0.0236418694257736,0.0065313428640365,-0.0009043454192578
1783205566019411000,0.339410888671875,-0.003998750779964,0.0265964766331017,0.0123468558758497,-0.0345623865723609,0.0107417348772287,-0.0017951367190107
1783205566029347800,0.349347900390625,-0.0099579514453187,0.0189122605397366,-0.0118108493030071,-0.0268482733517885,0.0100216167047619,0.0017300895415246
1783205566039284000,0.359283935546875,-0.0005594605136662,0.0410705263965297,-0.0657791708558797,-0.0082422690466046,0.0039346888661384,4.28317580372e-05
1783205566049219800,0.3692197265625,0.0142620418474078,0.0368237648054026,-0.0991483564943075,0.007790227420628,-0.0053837122395634,0.0001088783610612
1783205566059156000,0.379156005859375,0.0307420520052313,0.0502271074642427,-0.0951549029439687,0.0240892078727483,-0.0107819316908717,-0.0006957838777452
1783205566069092900,0.3890927734375,0.0294806902999058,0.0463286478541325,-0.0896837780565023,0.0237840097397565,-0.0085549969226121,-0.0017330851405858
1783205566079028700,0.39902880859375,0.0262385665735229,0.0334996710171457,-0.0668406626075506,0.0151764005422592,-0.0033520576544106,0.001880241325125
1783205566088964900,0.40896484375,0.018384601670131,0.0251878062784206,-0.0234638776957988,0.0005007851868867,-0.001524063758552,0.0009393466170877
1783205566098901000,0.41890087890625,0.0042583880968391,0.0271993744296953,0.0009352350234985,-0.0125225987285375,0.0028318804688751,2.51338351517e-05
1783205566108838000,0.428837890625,0.0015523440085351,0.023114415804157,-0.0141389999896287,-0.0179514531046152,0.0071701696142554,2.83296685665e-05
1783205566118774000,0.43877392578125,-0.002944127160497,0.0310250427982304,-0.0223299052298069,-0.0172137171030044,0.0027689638081938,-0.0026395893655717
1783205566128710100,0.448710205078125,0.0064290466668084,0.02922135437713,-0.0490852256864309,-0.0044574420899152,0.0012696040794253,-0.0001846873201429
1783205566138646800,0.458646728515625,0.0207371926782652,0.0396821681775152,-0.0814022719234228,0.0037350729107856,-0.0015305336564779,-0.0024315901100635
1783205566148583000,0.4685830078125,0.0204313415994867,0.0354553807953372,-0.0770692111551761,0.0098534189164638,-0.0029172413051128,-0.0016283808508887
1783205566158519000,0.47851904296875,0.0180242073925212,0.0353876219219062,-0.0628764351516962,0.0106787560507655,-0.0047619701363146,0.0010866469237953
1783205566168455000,0.488454833984375,0.00900324453637,0.0289523555768653,-0.0667874711155891,0.0054576289840042,-0.0016295597888529,-0.0007349553052335
1783205566178391800,0.498391845703125,-0.0014396408816799,0.0182372108223848,-0.0398562095701694,-0.0018463730812072,0.0023231380619108,-0.001069599064067
1783205566188328000,0.508327880859375,-0.0115878542020916,0.0210410801288206,-0.0376022931635379,-0.0063021089881658,0.0027353952173143,-0.00062937871553
1783205566198263800,0.518263916015625,0.0036857758406549,0.0219423763500992,-0.0329506679654121,-0.0084629449993371,0.002085214946419,0.0029319862369447
1783205566208201000,0.528200927734375,0.0176341120963916,0.0289554334499407,-0.0528477930903434,-0.0034503433853387,-0.0002240119501948,-0.0002899060491472
1783205566218137000,0.53813720703125,0.0182857444055378,0.0221464749542996,-0.0624240152090787,-0.0015975488349795,-0.0016342247836291,-0.0006224995013326
1783205566228073000,0.548072998046875,0.0181999658182263,0.0262367308094631,-0.0526917257457971,0.0005380399525165,-0.0004105023108422,0.0021210887935012
1783205566238009000,0.558009033203125,0.0177848822113126,0.0369529532761778,-0.0561374822854995,0.0038278149440884,-0.0025472766719758,-0.0004610966425389
1783205566247946000,0.567946044921875,0.0161756569163873,0.0419318011346738,-0.0580868627876043,0.000925769098103,0.0013129753060638,-0.0007308749482035
1783205566257881900,0.5778818359375,0.0132983844470232,0.032038795551192,-0.0389238971561193,-0.0014941915869712,0.0037518714088946,5.9914309531e-06
1783205566267818000,0.58781787109375,0.0050313817633315,0.0423460627576801,-0.0465425554662942,-0.0044300612062215,0.0006338423117995,-0.0007085348479449
1783205566277755100,0.597755126953125,0.0124968953384086,0.0371783869293518,-0.0460889664798975,-0.0021105064079165,0.0014274138957262,-0.0027930110227316
1783205566287690800,0.607690673828125,0.0096380353085696,0.0209246506749186,-0.0463777202934026,-0.0020721573382616,-0.0003558387979865,0.0001998492516577
1783205566297627000,0.617626953125,0.0027120719702914,0.0164525010963901,-0.0469821159273386,0.0027246810495853,-0.0010637929663062,0.0014183761086314
1783205566307563000,0.62756298828125,0.0031782281773164,0.026777495755814,-0.0586573561519384,0.0039630504325032,-0.0011940216645598,-0.0019673004280775
1783205566317500000,0.6375,0.0172416421800851,0.0295719761793967,-0.0627086773693561,0.0027481857687234,-0.001262601930648,-0.0007224685978144
1783205566327436000,0.64743603515625,0.0068445686651393,0.0320770726018119,-0.0451975705981254,-0.0021994346752762,0.001845040358603,0.0013984728138893
1783205566337372200,0.6573720703125,0.011024119372107,0.0299091083124279,-0.0362087929785251,-0.0008310386911034,0.0051930276677012,-0.0020936604123562
1783205566347308800,0.667308837890625,0.0133184408543631,0.0249626100872643,-0.0487625696033239,-0.0034286864101886,0.0024795327335596,-0.0011506350710988
1783205566357245200,0.6772451171875,0.0046392041079699,0.0390741832138504,-0.0521849452674388,-0.001682236790657,0.0015293443575501,-0.001964466413483
1783205566367181300,0.687181396484375,0.012511581450887,0.0251238833298906,-0.0509831682622432,-0.0026590842753648,-0.0026875049807131,-0.0011431477032601
1783205566377118200,0.6971181640625,0.0194751733858138,0.0286933119150344,-0.0483013818323612,0.0002210959792137,-0.000557895284146,0.0009996471926569
1783205566387054000,0.70705419921875,0.0226042286591604,0.0277630087949801,-0.0613198533594608,0.0017537456005811,-0.0004236721433699,0.0022436096332967
1783205566396990200,0.716990234375,0.0205962133049964,0.026104473598767,-0.0569786092847585,0.0016684085130691,0.0007182066328823,-0.0005208442453294
1783205566406926000,0.726926025390625,0.0110994496306404,0.0341629115656949,-0.0617635054737329,-0.0005156490951776,0.0019347388297319,-0.0018995627760887
1783205566416863200,0.73686328125,0.0061855932997539,0.031329733966384,-0.04664367775321,0.0022149262949824,0.0008298740722239,0.0006683918181806
1783205566426799400,0.74679931640625,0.0045557270755991,0.0284141387806273,-0.0408007969439029,-0.0020210985094308,0.0039396472275257,-0.00051138876006
1783205566436735200,0.7567353515625,0.0056035556280985,0.0279429228059947,-0.0505161352723836,-0.0031939474865794,0.0030391195323318,-0.0013978551141917
1783205566446672100,0.766672119140625,0.0075037266936153,0.0346707514899782,-0.051252048331499,-0.0006855158135294,0.0009405487217009,-0.0010732156224548
1783205566456608300,0.776608154296875,0.0142107865842059,0.0339083705490455,-0.0566267271071672,0.0003446079790592,0.0005487608723342,-0.0018262073863297
1783205566466544000,0.786544189453125,0.0111798579230904,0.0267960177931934,-0.0646983898818492,0.0005241055041551,0.0012579606845974,0.0003988638054579
1783205566476481300,0.796481201171875,0.0185191147699952,0.0205849247260019,-0.0489876105308532,0.0025763297453522,0.0001161112450063,0.0012280016671866
1783205566486417400,0.80641748046875,0.0178926169021055,0.0330288934339303,-0.0516734886139631,0.0015872316434979,0.0032157644163817,-0.0008375458419322
1783205566496353000,0.81635302734375,0.0168066117636859,0.0347940673423931,-0.0497200164586305,0.0018476722761988,-0.0007662344723939,-0.0004004552029073
1783205566506290200,0.826290283203125,0.0021940759781748,0.0311299736105836,-0.0519593198180198,-0.0010266778990626,0.0011176853440701,-0.002486509270966
1783205566516226300,0.836226318359375,-0.0071464376885443,0.0315835991295985,-0.0459691394925117,-0.0024375570937991,0.0007346160709857,-0.0010882907081395
1783205566526162200,0.846162109375,-0.0049238297356292,0.0455730893796309,-0.0475964484333992,-0.0013113059103488,0.0009181080386042,-0.0008009355515241
1783205566536098300,0.856098388671875,0.0111322559216991,0.0353031859083101,-0.0577659602701663,-0.0024926383048295,0.0015843585133552,0.0002969298511743
1783205566546035200,0.86603515625,0.0186898316944018,0.0290851333773694,-0.0526736055672168,-0.000721369870007,0.0008453312329947,0.0010737737175077
1783205566555971000,0.87597119140625,0.0107936716170981,0.0189585747663397,-0.0463759667277336,8.74176621437e-05,0.000919328071177,0.0002281325869262
1783205566565907200,0.8859072265625,0.0052909460149705,0.0246622023685835,-0.0560965657532215,0.0014349771663546,0.0012607453390955,0.0006992458365857
1783205566575844400,0.89584423828125,0.0018934125311672,0.0277442036298103,-0.0483095651388168,-0.0009077889844775,0.0008701747283339,-0.0007548495195806
1783205566585780200,0.9057802734375,0.0141067782204598,0.0325436580670997,-0.0505500375419855,-7.9069286584e-06,0.0007434082217514,0.0013378623407334
1783205566595716400,0.91571630859375,0.0064612684359773,0.0340383992700371,-0.0514385108143091,-0.0002534165978431,0.0003836532123386,1.88401900231e-05
1783205566605653200,0.9256533203125,0.0008451090546324,0.0172652970503084,-0.0634036738961935,-0.0013599600642919,0.0014736852608621,0.0006502754986286
1783205566615589000,0.935589111328125,-0.010399228939414,0.0266909865161404,-0.0530763411492109,-0.0005949232727289,-0.0006559728644788,-0.0007094957400113
1783205566625525200,0.945525146484375,0.0069844520598649,0.0354931646556127,-0.0551706830799579,-0.0009043822064995,0.0010886639356613,-0.00021947408095
1783205566635462400,0.95546240234375,0.0163300437605008,0.04035098908348,-0.0455892002642154,-0.001766643486917,0.0009611030109226,0.0004286793991923
1783205566645398000,0.96539794921875,0.0144097432224079,0.0314434965391643,-0.0517173277556896,0.0003476403653621,0.0010484545491635,-0.0030792362522333
1783205566655334100,0.975334228515625,0.0045350861463695,0.022126528144814,-0.050213352933526,0.0003252886235713,-6.77527859807e-05,-0.0007751414086669
1783205566665271300,0.985271240234375,-0.0039337957849726,0.0152702599087264,-0.0490191747128963,-1.85258686542e-05,-0.0022107982076704,0.0009785504080355
1783205566675207200,0.995207275390625,0.001217522563599,0.0205862307670991,-0.0547094953089952,0.0009100995957851,-0.0008884626440703,-0.0007256336975842
1783205566685143300,1.005143310546875,-1.68050043284e-05,0.0201794217981863,-0.0442407082647085,0.0005758730694651,-0.0017590499483048,0.001204359345138
1783205566695080200,1.015080078125,0.0070084539899602,0.0247328747183084,-0.056367783910036,-0.000568171031773,-0.0015262537635862,-0.0015647367108613
1783205566705016000,1.02501611328125,0.0088610961193218,0.0404527689575217,-0.065944590550661,-0.0029799304902553,-0.001755285076797,0.0015088173095136
1783205566714952200,1.0349521484375,0.0114594420494511,0.0291864474605303,-0.0550222145199775,-0.0006707282736897,0.0012298910878598,-0.0016280447598546
1783205566724889300,1.044889404296875,0.0051072965437546,0.0260801794077269,-0.0493313094019889,-0.0004792474210262,0.0007427991367876,0.0014721411280333
1783205566734825200,1.0548251953125,0.0016661796465516,0.0249566735368222,-0.0467792868316173,-0.0013604452833533,0.0034147829283028,0.0004471379797905
1783205566744761300,1.06476123046875,0.0041301586072891,0.0287641395283862,-0.045420273438096,0.000202564522624,-0.0004204353317618,0.0011696538422256
1783205566754698200,1.0746982421875,0.0105525198049843,0.0338792997181881,-0.0499152467697858,-0.0041138846427202,-6.90892338752e-05,0.0007594218477606
1783205566764634000,1.084634033203125,0.0091204411752521,0.0219649352417793,-0.0521621489137411,-0.0015745609998703,-0.0027698008343577,0.0010526361875236
1783205566774570200,1.0945703125,0.016486074572429,0.0277189139249268,-0.0485626631170511,-0.0031751310452818,0.0017569283954799,0.0015226313844323
1783205566784507400,1.10450732421875,0.0111293333122506,0.0288169291615486,-0.0605330868959426,-0.0021735168993473,-0.000334451906383,0.000224073883146
1783205566794443000,1.114443115234375,0.0135547338282689,0.029309900310263,-0.0497521651625633,0.0001237457618117,0.0003659171052277,-0.0011181184090673
1783205566804379100,1.124379150390625,0.0149164871681481,0.0347061333306133,-0.0502022470176219,0.0003221509978175,0.0019411765970289,-0.0012126606889069
1783205566814316300,1.13431640625,0.003520502276346,0.0272179421328473,-0.0472083258986473,0.0002794992178678,-0.0003234161995351,0.0014856569468975
1783205566824252200,1.144252197265625,0.0022283070413395,0.0213450132451485,-0.0467553214341402,-0.0001684436574578,-0.0022022761404514,-0.0002725620288401
1783205566834188300,1.154188232421875,0.0076617667995393,0.0212749345504678,-0.0525929415464401,0.0005132993683218,-7.72485509514e-05,-0.0017240721499547
1783205566844125200,1.164125244140625,0.0011318535741418,0.0259953689347952,-0.0617138211131095,-0.0020827502012252,0.001334227155894,-0.0009309828747063
1783205566854061000,1.17406103515625,0.013611615114659,0.0253979601640719,-0.0441927774697542,0.0001121768727898,-0.0004397104494273,-0.0025898974854499
1783205566863997200,1.1839970703125,0.0212235148904845,0.0218017531698569,-0.0491296493500471,0.0004650456830859,0.0003826734609901,-0.0001813345588743
1783205566873934300,1.193934326171875,0.0250830763954669,0.0289311301257461,-0.0570586887836456,-0.000329322181642,0.0019802092574536,0.0008343392983078
1783205566883870200,1.2038701171875,0.0173851788366213,0.0308962379199452,-0.0540554153144359,0.00082569103688,0.0019586374983191,0.0009219571948051
1783205566893807000,1.21380712890625,0.0049589741142466,0.0280406384262721,-0.0459679704487323,0.0003697033971548,0.002101853955537,-0.0008148201741278
1783205566903743200,1.2237431640625,0.0113892994226887,0.0340095659011974,-0.0568839167386293,-0.0002910271286964,0.0007090209983289,0.0002720158081501
1783205566913679000,1.23367919921875,0.0107073815731331,0.0328294253390748,-0.0429635279357433,0.0006337789818644,-0.0015208176337182,-0.0001029605045914
1783205566923616300,1.2436162109375,-0.0025010595681145,0.017002983719157,-0.0486480033129453,0.0002098036929965,0.0020864340476691,-0.0009146919474005
1783205566933552400,1.253552490234375,-0.0001450344938784,0.0247019315907731,-0.0495434908479452,-0.0018090298399329,-0.000671531073749,0.0033066044561564
1783205566943488000,1.263488037109375,0.0005695435162633,0.0290798361477442,-0.0484931050121784,-0.0005248533561825,0.0006629792042076,-0.0015741706592962
1783205566953425200,1.273425048828125,0.0062460182501003,0.0264281160625629,-0.0456412227123975,0.001103020273149,0.001363537274301,0.0033170126844197
1783205566963361300,1.283361328125,0.0044726884346455,0.0319740414856001,-0.0579033229142427,-0.0008091293275356,0.0023078944068402,0.0009697021450847
1783205566973297200,1.293297119140625,0.001176971357502,0.0327010771185159,-0.0558007976770401,0.0016886787489056,0.0038457587361335,5.13442791998e-05
1783205566983234000,1.303234130859375,-0.003391213340871,0.0299880187675356,-0.0472626864343881,0.0029385006055235,-0.0022169272415339,-0.0008016661740839
1783205566993170200,1.313170166015625,0.0044489787654951,0.0243083200301509,-0.0499602549552917,-0.000135138630867,-0.0003575743176043,-0.001696317223832
1783205567003107300,1.323107421875,0.0049441418712958,0.0281189004274085,-0.0487590624719858,0.000485111027956,0.0032387585379183,0.0012131864205002
1783205567013043200,1.333043212890625,0.0164109635096043,0.0336682599165476,-0.0523386745244264,-0.0002899998798966,0.0020464407280087,0.0017676125280559
1783205567022979300,1.342979248046875,0.0035989743400365,0.0294031132853589,-0.0366214654326438,-0.0005898717790842,0.0019159456714987,-0.0018473621457815
1783205567032916200,1.352916259765625,0.0047079219626262,0.0256547205372713,-0.0515793805897235,0.0006104269996285,0.0027466709725558,-0.0004281643778085
1783205567042852000,1.36285205078125,-0.0020705226637423,0.026748899848992,-0.0514262358546257,-0.0040045650675892,0.0002345112152397,-0.0013754507526755
1783205567052788200,1.372788330078125,-0.0019115692423656,0.0150350994459819,-0.0505196424037218,0.0007497034966945,0.0019612573087215,0.0020714560523629
1783205567062725400,1.382725341796875,0.0112101799961179,0.0297838653644081,-0.0457207176893949,0.000296433456242,0.0007692263461649,-0.0016740134451538
1783205567072661200,1.3926611328125,0.0086965897399932,0.0394267047122586,-0.0388309581756591,0.0014501074329018,0.0010257302783429,-0.0005703559145331
1783205567082597400,1.402597412109375,0.0168720782153308,0.0323772793910931,-0.0518541058778762,-0.001447943970561,-0.0013953493908047,0.0006565623916685
1783205567092534300,1.4125341796875,0.007060732166469,0.0247134758980944,-0.0493055904388427,0.0005351547151803,0.0016422937624156,0.0005126977339386
1783205567102470100,1.42247021484375,0.001621609852463,0.0201293081793002,-0.0500502713263034,-0.000562067143619,-0.0007417681626975,0.0001798025332391
1783205567112407300,1.4324072265625,-0.003913848975487,0.0168237455615773,-0.0519879613906145,-0.0014578951522707,0.0030863666906952,-0.0014948168536648
1783205567122343400,1.442343505859375,0.0001196808569133,0.0283754690043628,-0.0599175853461027,-0.0010022278875112,-0.0020146518945693,0.0001640662085264
1783205567132279000,1.452279052734375,0.0075807374525815,0.0260580771737731,-0.0549853896409273,0.0003253724426031,0.0005021896213293,0.0020043738186359
1783205567142216200,1.46221630859375,0.0035764702472835,0.0369820697728078,-0.0467494762152433,-0.0015372429043054,0.0015565352514386,-0.0026921108365058
1783205567152152300,1.47215234375,0.0025478578519076,0.0244408421023283,-0.0397100790977478,0.0042296675965189,0.0017030844464898,-0.0043225437402725
1783205567162088200,1.482088134765625,0.0070671253746375,0.0216094089355319,-0.0428542223423719,-0.0022450098767876,-8.30977223813e-05,-0.0016077173640951
1783205567172025000,1.492025146484375,0.0128614178018644,0.0249372290508355,-0.0549789599001407,-0.0014313263818621,-0.001951708458364,-0.0002054744400084
1783205567181961200,1.501961181640625,0.0069484674310311,0.0326167050370015,-0.0431605118125677,0.0011364929378032,-0.0006635379977524,-0.0023253508843481
1783205567191898000,1.511898193359375,-0.00137176327724,0.0273757813093718,-0.0531815550893545,0.0006751399487257,0.0024857299868017,0.001064506592229
1783205567201834200,1.521834228515625,0.0043766076490283,0.0235835311532486,-0.0552729744106531,0.0022610528394579,0.0005964837037026,-0.0001435033045709
1783205567211770400,1.531770263671875,-0.0034267961109057,0.0143117444743402,-0.0477916787445545,0.0023911260068416,0.0007304227910935,0.0004292945377528
1783205567221707000,1.54170703125,-0.0059231064386665,0.0293280752877704,-0.034161212798953,-0.0003676423802971,0.003193313954398,-0.0005171929951757
1783205567231643100,1.55164306640625,-0.0074881637983024,0.0250588644028175,-0.0347556715607643,0.0013153906911611,-0.0013274438679218,0.0021160508040338
1783205567241579300,1.561579345703125,0.0006881283946335,0.0245440924142487,-0.0531575896918773,-0.0010636113584041,-0.0001114443875849,0.0024334995541721
1783205567251516200,1.57151611328125,0.0148695427538827,0.0307409194940701,-0.0551005404531955,0.0007790131494402,-0.0001789480447769,0.0003615769091993
1783205567261452300,1.581452392578125,0.0147949431477114,0.0242363507724832,-0.039394437277317,0.0020807655528187,-0.000966711435467,-0.0027063847519457
1783205567271389200,1.59138916015625,0.0100569548403844,0.0156866678230464,-0.0498638088434934,0.0001804418861865,0.000564391259104,-0.0013045149389654
1783205567281325000,1.601324951171875,0.0127388508681207,0.0180161245507653,-0.0477688823908567,0.0013983054086565,0.0008837040513753,-7.06724822521e-05
1783205567291261200,1.61126123046875,0.0030052827632054,0.0299038110828027,-0.044618309405446,-0.0018834797665476,0.0041168578900396,-0.0029150077607482
1783205567301198300,1.6211982421875,0.0050149420851841,0.0399131456554867,-0.0435574021756649,-0.0025029303506016,0.0016374550759792,-0.0029245952609926
1783205567311134200,1.63113427734375,-0.0046105625353753,0.0350550380998291,-0.0441518609374761,-0.0037700673565268,-0.0010500596836209,-0.0016695995582267
1783205567321071000,1.641071044921875,-0.0120170028669759,0.0315093283169902,-0.0441471847623586,-0.0012067751958966,0.0044648144394159,0.0009024816099554
1783205567331007200,1.65100732421875,-0.0137931822266429,0.0289896827794145,-0.0436754755973815,-0.0013142004609107,0.0040307147428393,-0.0011798664927482
1783205567340943000,1.660943115234375,-0.0065840180328115,0.0288486760066822,-0.0595142652422189,-0.0015709288418293,0.0072605963796377,0.001239615259692
1783205567350880300,1.67088037109375,0.0013147358603775,0.028211793742096,-0.0590413870334625,0.0014272723346948,0.0030826516449451,-0.0002125538885593
1783205567360816000,1.680816162109375,0.0171260895090177,0.023933541034162,-0.0457055201202631,-0.0004800837486982,0.0048286202363669,0.0006780072581022
1783205567370753300,1.690753173828125,0.0269863892661407,0.012198122454388,-0.0639537089943885,0.0019398359581828,0.0002023656852543,-0.0008419346995651
1783205567380689200,1.700689208984375,0.0253338728187605,0.002079454888869,-0.0563227757245302,0.0005547264590859,-0.0029830415733158,-0.0015093229012563
1783205567390625300,1.710625244140625,0.025164215340279,0.012867692279024,-0.0521375989943742,-0.0013228794559836,1.52778811752e-05,0.0014088365714997
1783205567400562200,1.720562255859375,0.0251603794153779,0.0191436490096617,-0.0394084658026695,-0.0048009669408202,0.0031191920861601,0.0001174695789813
1783205567410498000,1.730498046875,0.0107351828955113,0.0319024923530407,-0.0456862308979034,-0.0018804501742124,3.436580300331116e-07,-0.0002631125971674
1783205567420435200,1.740435302734375,0.0123470385389402,0.0444735854388214,-0.0416419239431619,-0.0018048165366053,0.0030446031596511,-0.0003001305740326
1783205567430371300,1.750371337890625,0.0012811258517205,0.0311089582220185,-0.0548100330740213,-0.0006441185250878,0.0007897405885159,-0.0004709539934992
1783205567440307200,1.76030712890625,-0.0106888960683718,0.0341078751765191,-0.0519593198180198,0.000733801163733,0.0005551157519221,0.0007788673974573
1783205567450244000,1.770244140625,-0.0074195190088823,0.0282336676471866,-0.0486661234915256,-0.0001978147774934,-0.0003734570927917,-0.0019267930183559
1783205567460180200,1.78018017578125,0.011746369232051,0.0267725364529062,-0.0591477700173854,0.0007188450545072,-0.000322856940329,-0.0028240119572728
1783205567470117000,1.7901171875,0.0112694359026849,0.0387545593380462,-0.0492851321727037,0.0008811792358756,-0.0025379518046975,0.0008472192566841
1783205567480053200,1.80005322265625,0.0189279147665947,0.0272663113192189,-0.0487029483705759,-0.0025361888110637,-0.0017762882634997,0.0003215114120393
1783205567489989400,1.8099892578125,0.0049243046596646,0.0295197893344331,-0.0543956070542335,-0.0045536765828728,-0.0024723969399929,-0.0002025868743658
1783205567499926000,1.819926025390625,-0.003413388640061,0.0327656667873263,-0.0481102431744337,-0.0015573548153042,-8.11447389423e-05,-0.0014793062582612
1783205567509862100,1.829862060546875,-0.005780811891146,0.0261870099162217,-0.0490168366253375,0.0018289852887392,-0.0023949230089783,0.0031017973087728
1783205567519799300,1.83979931640625,0.0076801061738282,0.036966004553996,-0.066548986184597,0.0054836412891745,-0.0047166673466563,0.0034131207503378
1783205567529735200,1.849735107421875,0.0196892545279115,0.0299610211627557,-0.0602840805709362,0.0048506427556276,-0.0017830883152782,-0.0005244005005806
1783205567539671300,1.85967138671875,0.0213284365696832,0.0351933779914397,-0.0378454542696475,-0.0016610519960522,-0.0028001498430967,0.0008314149454236
1783205567549608200,1.869608154296875,0.0075422320730984,0.0397647227612789,-0.0374076473742723,-0.0014815758913755,-0.0032235346734523,0.0040259305387735
1783205567559544000,1.8795439453125,0.0007819806905463,0.0430453153345268,-0.0531388849914073,-0.0028272699564695,-0.0064427638426423,0.001643466996029
1783205567569481200,1.889481201171875,0.0138902128603309,0.0279215877570211,-0.0498649778872728,-0.0014876695349812,-0.004119049757719,0.0004177743103355
1783205567579417300,1.899417236328125,0.0179877843722701,0.0240892247862182,-0.0434551108449697,0.0016175769269466,-0.0074741002172231,-0.0005636005662381
1783205567589353000,1.90935302734375,-0.0048463440526276,0.0271652438312303,-0.04468552942276,-6.9573521614e-05,-0.002900612540543,-0.0015620819758623
1783205567599290000,1.9192900390625,-0.0251257830260321,0.0330523747742176,-0.0611649550586938,-0.001932987011969,-0.0041299276053905,-0.0004563375841826
1783205567609226200,1.929226318359375,0.0023067425724118,0.0265586288407444,-0.0555108748197555,0.0012957844883203,-0.0078637152910232,0.0040900986641645
1783205567619163400,1.939163330078125,-0.0016959171976894,0.0128257437002845,-0.0503057073920965,-0.0005721561610698,-0.0058508981019258,0.0046978313475847
1783205567629099000,1.94909912109375,-0.0141419956643134,0.025368186080316,-0.0388046546906232,6.57429918646e-05,-0.0028465623036026,0.0044337511062622
1783205567639035100,1.95903515625,-0.0147575702793896,0.0085842610724736,-0.0403214889943599,-0.0004208162426948,-0.0051509952172636,0.0027242682408541
1783205567648972300,1.96897216796875,-0.0290920197758823,0.0118951574524398,-0.0488823965907096,-0.0017606448382139,-0.0056548211723566,0.0034562235232442
1783205567658908200,1.978908203125,-0.025665004469268,-0.0020526399471797,-0.0498065256983041,-0.0049226153641939,-0.0057368464767932,0.0016426111105829
1783205567668845000,1.988844970703125,0.0019618746574968,0.0150642342089209,-0.0395130952209234,-0.0014414684846997,-0.0082359937950968,0.0027408758178353
1783205567678781200,1.99878125,0.0079672890847548,0.0175872407473623,-0.0503220740050077,-0.0055699003860354,-0.0101662520319223,0.003837033174932
1783205567688717000,2.008717041015625,0.0057213367888703,0.0313232494266703,-0.0585930587440729,-0.0041083432734012,-0.0091638639569282,0.0033934211824089
1783205567698654200,2.018654296875,-0.0045301177103072,0.035479757184768,-0.0522036499679088,-0.0054511092603206,-0.0102682774886488,0.0003704668488353
1783205567708590300,2.02859033203125,-0.0171753720108419,0.0464903138224035,-0.0477624526500701,-0.0028294278308749,-0.0090213725343346,0.0019562973175197
1783205567718527200,2.03852734375,-0.0334213907497003,0.0193684798746369,-0.0534960278660058,-0.0006150100380182,-0.0091840922832489,0.0026447244454175
1783205567728463000,2.048463134765625,-0.0432063967809081,-0.0031523996163159,-0.0351391179203987,-0.0027743307873606,-0.0092580001801252,0.00216606259346
1783205567738400300,2.058400146484375,-0.0426193541405722,0.00589710434773,-0.0458142411917448,-0.003509628586471,-0.0115818744525313,-0.0005831187590956
1783205567748336400,2.06833642578125,-0.029968729545176,0.0430126551739405,-0.0570674566119909,-0.0090436888858675,-0.0034670028835535,0.0022074880544096
1783205567758272300,2.078272216796875,0.0154972461981698,0.0758753799944184,-0.0274450562864542,-0.0083565944805741,-0.0021364875137805,0.0023800611961632
1783205567768209200,2.088209228515625,0.0354466129669919,0.0797876489341724,-0.034181671065092,-0.0089629916474223,-0.0022918237373232,0.0007994261104613
1783205567778145300,2.098145263671875,0.0548495248341932,0.0662427058475557,-0.0481038134336471,-0.0053770458325743,-0.0023466842249035,-0.0009558633901178
1783205567788082200,2.108082275390625,0.037770745065622,0.0273071273867972,-0.0599444733530282,-0.0016739796847105,-0.0027874056249856,-0.0013836326543241
1783205567798018300,2.118018310546875,0.024778467425704,0.0065116651826538,-0.0536918426990509,0.0006650751456618,-0.0088431676849722,0.0014086917508393
1783205567807955200,2.127955078125,0.0208246152333915,-0.019397094047768,-0.0544751020312309,0.003192450851202,-0.0061279339715838,0.003196564503014
1783205567817891000,2.13789111328125,0.0032706922337412,-0.0066238020539283,-0.0503209049612283,-0.0015040338039398,-0.0082712462171912,0.000252972356975
1783205567827827200,2.1478271484375,-0.0143446420969441,0.0218959525256417,-0.0323930340826511,-0.0079033942893147,-0.0061454335227608,0.0014695583377033
1783205567837764400,2.157764404296875,-0.0157805201189592,0.0380519457603339,-0.0289613060683012,-0.0106746805831789,-0.0027027651667594,0.0005078907124698
1783205567847700200,2.1677001953125,-0.0137672806004062,0.0369682969757821,-0.0225222129315137,-0.00938490498811,-0.0011637969873845,0.0008750916458666
1783205567857637000,2.17763720703125,0.0059316550713032,0.0282027838851558,-0.0382248089760541,-0.0061273267492651,0.0039273682050406,-0.0019121727673336
1783205567867573200,2.1875732421875,0.0327955139363184,0.0254830902974121,-0.0528816953599452,-0.0007202727720141,-0.0013735126703977,-0.0001964711118489
1783205567877510400,2.197510498046875,0.0494117176944389,0.041346233498794,-0.068152914249897,0.0023562107235193,-0.0030081607401371,0.0010086090769618
1783205567887446300,2.2074462890625,0.0716454690733924,0.0461457701344741,-0.0584568651437759,0.0062723220326006,-0.0053703552111983,-0.0007712477818131
1783205567897382100,2.217382080078125,0.0694567633900791,0.0329987631571479,-0.0581798017680645,0.0055063972249627,-0.0014168927446007,0.0015062876045703
1783205567907319300,2.2273193359375,0.043552616402693,0.0264004974032752,-0.0505640660673379,-0.0020502675324678,-0.0020462740212678,-0.0003334772773087
1783205567917255200,2.237255126953125,0.0343238194821402,0.0283535631332313,-0.0324655147969722,-0.0022252378985285,0.001541269943118,-0.0013492067810148
1783205567927192300,2.2471923828125,-0.0022792700435966,0.0206397921518189,-0.0240782102018594,-0.0034697325900197,7.94609077274e-05,-0.0028035589493811
1783205567937128200,2.257128173828125,0.0029644027635455,0.0443776416505221,-0.0394873762577772,-0.0048324717208743,0.0006951834075152,0.0022931983694434
1783205567947065000,2.267065185546875,0.0076248323226347,0.0088687725357012,-0.0508504817932844,-0.0011159423738718,0.0008239620365202,-0.001691048964858
1783205567957001200,2.277001220703125,0.0205339251911267,0.0077317130634794,-0.0497977578699588,0.0006364174187183,0.0020428905263543,0.0005169778596609
1783205567966937300,2.286937255859375,0.0236793105447664,0.0032779850576305,-0.0512877041667699,0.0030432306230068,0.0002565165050327,-7.97938555479e-05
1783205567976874200,2.296874267578125,0.0401109880488365,0.0071603200834244,-0.049185763451457,0.0042855953797698,0.0017114011570811,0.0002951791975647
1783205567986810000,2.30681005859375,0.0373933996532112,0.0138650281867245,-0.0515653520643711,0.0026472564786672,0.0017172107473015,0.0024306438863277
1783205567996747300,2.316747314453125,0.0251412363234907,0.0099842138311592,-0.0502197826743125,0.0002237800508737,0.0008175950497388,0.0007283515296876
1783205568006683100,2.32668310546875,0.0019227116908878,0.0161411153259687,-0.0425783280104398,-0.0003062570467591,0.0006226045079529,-0.0046425615437328
1783205568016620000,2.3366201171875,-0.0106885672748088,0.0209362406480126,-0.0365951619476079,-0.0039872787892818,-0.0004290780052542,-0.0006752503104507
1783205568026556200,2.34655615234375,-0.0143726260824128,0.0302151831534923,-0.0406277784645557,-0.0007650172337889,0.0020660336595028,0.0001039821654558
1783205568036492000,2.356491943359375,-0.0025462138840928,0.031562108816998,-0.0452583608746528,-0.002762921154499,0.0004905075766146,-0.000587108079344
1783205568046429200,2.36642919921875,0.0052271235311403,0.0378719860835466,-0.0546773466050624,0.0025333575904369,0.0006275153718888,0.0004572996404021
1783205568056365300,2.376365234375,0.0251631558943539,0.0367210122504038,-0.0448059409320354,0.004546707496047,-0.0016795806586742,0.0008423929102718
1783205568066302200,2.38630224609375,0.0378103098910301,0.027681002200488,-0.0497521651625633,0.0065004667267203,-0.0020063472911715,7.14056659489e-05
1783205568076238000,2.396238037109375,0.0224278857115656,0.0096759424664312,-0.0442290178269147,0.0055899322032928,-0.0040236916393041,0.0001837909221649
1783205568086175200,2.40617529296875,0.0020479455057531,0.0049041386544704,-0.0539653989434242,0.0024309530854225,-0.0004868190735578,-0.0003941666800528
1783205568096111400,2.416111328125,-0.0015165055101737,0.03648376486185,-0.0441015920549631,0.0048128850758075,0.0019587615970522,-0.0019406642531976
1783205568106048000,2.426048095703125,-0.017656433526054,0.0554856581801082,-0.0449964950680732,0.0023211035877466,0.000101008452475,0.0009742192924022
1783205568115984100,2.435984130859375,-0.0172396328860893,0.0522894376883748,-0.0441004230111837,0.0036612059921026,0.0031822859309613,-0.0017528577009215
1783205568125920300,2.445920166015625,-0.0104197237381711,0.0508901105507742,-0.0420066656023263,0.0081606172025203,-0.0006920807063579,-0.0008958524558693
1783205568135857200,2.455857177734375,-0.0193367512958124,0.0233387991445604,-0.0554933391630649,0.013399320654571,-0.0034172935411334,0.0014109774492681
1783205568145793300,2.465793212890625,-0.022130327537097,0.0103192681715358,-0.0591138677477836,0.0158849358558654,-0.0007213954813778,0.0033735304605215
1783205568155730200,2.475730224609375,-0.0194378735827282,-0.000149226611806,-0.0651192456424236,0.0145983630791306,-0.0029334165155887,8.66572372615e-05
1783205568165666000,2.485666015625,-0.0050053705392405,0.0112483931146562,-0.0617085604161024,0.0121596837416291,-0.0049494067206978,-0.0038631483912467
1783205568175603200,2.495603271484375,0.0081192282434552,0.03192757199537,-0.0464770890146493,0.0106579270213842,-0.002761885523796,-0.0012476581614464
1783205568185539300,2.505539306640625,0.0150483333868905,0.0306170008534565,-0.0399164153248071,0.0066120186820626,-0.002682888880372,-0.0006867710035294
1783205568195476200,2.515476318359375,-0.0053189665330573,0.0255377156946342,-0.0402431630611419,0.0074652954936027,-0.0036413604393601,-0.0023195550311356
1783205568205412000,2.525412109375,-0.0263854276983067,0.0041123306896537,-0.0414566305041313,0.007794514298439,-0.0014366484247148,-0.0011471365578472
1783205568215348200,2.53534814453125,-0.0336588162347674,0.0110459750108886,-0.0416238037645816,0.0104158632457256,0.0007285014726221,0.0002121408469974
1783205568225285400,2.545285400390625,-0.024425343139097,0.0250603896396234,-0.03849368904531,0.0052399402484297,-0.0017385808750987,-0.0025140861980617
1783205568235221200,2.55522119140625,-0.026541495042853,0.0323088263979181,-0.0370084189236164,0.0055688405409455,-0.001582785975188,-0.0002717045135796
1783205568245158100,2.565158203125,-0.0183467904103919,0.037469223102089,-0.040461189725995,0.0068293027579784,-0.0001389421522617,-0.0020093200728297
1783205568255094300,2.57509423828125,-0.014664485168457,0.0376939900349825,-0.0386672920465469,0.0050918562337756,-0.0006657154299318,-0.0017858810024335
1783205568265031200,2.58503125,-0.012956585272029,0.0378225848507136,-0.0527402410626411,0.0048088580369949,-0.0004276935942471,-0.001064283773303
1783205568274967300,2.59496728515625,-0.0173924122950062,0.0255348752835765,-0.050966801649332,0.0039377380162477,-0.00386743247509,-0.0005383095704019
1783205568284904200,2.604904296875,-0.0020705226637423,0.0122225171101279,-0.0437982251942157,0.0036135353147983,0.0013913102447986,-0.002164316130802
1783205568294840000,2.614840087890625,0.0036291137499734,0.029385102704633,-0.0444072970032691,0.0020776903256773,-0.0021682707592844,0.0017838203348219
1783205568304777200,2.624777099609375,0.0107157475426793,0.0337876485125161,-0.0505552982389926,0.0014962637796998,-0.0017878548242151,-0.0019031558185815
1783205568314713300,2.63471337890625,0.0117171431375667,0.0359217744643799,-0.044127895539999,0.0035170707851648,0.000211379956454,-0.0008109933696687
1783205568324649200,2.644649169921875,0.003524995788373,0.0400077468700706,-0.0501262591719627,0.0049404688179492,-0.0012553734704852,0.0001263429876416
1783205568334586000,2.654586181640625,-0.0009010770255699,0.042867775943689,-0.0435498033910989,0.0064470190554857,0.0008240225724875,-0.0006483704783022
1783205568344522200,2.664522216796875,-0.0010210866760462,0.0404795838992111,-0.0519435377269983,0.0036952756345272,-0.0017928145825862,0.0002712905406951
1783205568354459400,2.67445947265625,-0.0073253379194065,0.0280239521529525,-0.0594347702652215,0.0034768963232636,-0.0019025369547307,-0.0011071616318076
1783205568364395300,2.684395263671875,-0.0038600364290177,0.0295527782885823,-0.0455395159035921,0.0059989634901285,-0.0032047973945736,-0.0035994928330183
1783205568374332400,2.69433251953125,-0.0112165366716682,0.0257412023774813,-0.0470464133352041,0.0019347136840224,-0.0015909215435385,0.0009654313325881
1783205568384268300,2.704268310546875,9.61173182353e-05,0.0175395474144257,-0.0391220500767231,0.004755400121212,-0.0017378879711031,-0.0013292199000716
1783205568394205400,2.714205322265625,0.0091692122204229,0.029203846119903,-0.0356803851902484,0.0013047428801655,0.0020680353045463,-0.0001060299109667
1783205568404141300,2.724141357421875,0.0192357386067509,0.0208138563773594,-0.0386766443967819,-0.0003518387675285,-0.0001249434426426,-0.0016745352186262
1783205568414078200,2.734078125,0.0137829530935734,0.0323576339757069,-0.0407762470245361,0.0012029148638248,-0.0017947456799447,-0.0008510858751833
1783205568424014300,2.744014404296875,0.0058503699960187,0.0363237154619302,-0.0531979217022657,0.0016104597598314,0.0008729519322514,-0.001629261416383
1783205568433951500,2.753951416015625,-0.0062268386255949,0.0301119648076128,-0.04886310736835,0.0025209942832589,-0.0007124277763068,-0.0003038060385733
1783205568443887400,2.763887451171875,-0.0145520012373104,0.03284735372141,-0.0488759668499231,0.0028754035010933,-0.0011123926378786,0.0010571903549134
1783205568453823200,2.7738232421875,-0.0132794605508446,0.0280425289892591,-0.0494891303122043,0.0048224404454231,-0.0030780714005231,0.0016223131678998
1783205568463760400,2.783760498046875,-0.018167634451203,0.0172027166754938,-0.0459054266065359,0.0041902912780642,-0.0006163083016872,0.0011649997904896
1783205568473696300,2.7936962890625,-0.0117388800453394,0.0287059796003624,-0.0435229153841733,0.0052952375262975,-0.0004791552200913,-0.0003266367129981
1783205568483633200,2.803633056640625,0.0011126739496365,0.013173899550829,-0.0478647439807653,0.0043430775403976,0.0008912980556488,0.0002528671175241
1783205568493569300,2.8135693359375,-0.0009299377938732,0.0267627457112539,-0.0463818119466304,0.0031638303771615,-0.0021819900721311,-0.0012528840452432
1783205568503506400,2.82350634765625,0.0005946779575198,0.0314188552882522,-0.0561129323661327,0.0021607298403978,8.16122628748e-05,-0.0008371407166123
1783205568513442300,2.8334423828125,0.0053818026361986,0.0276152069552801,-0.0471463665783405,0.0059890244156122,-0.0029847510159015,0.0012065689079463
1783205568523379200,2.843379150390625,0.005599208246544,0.0330700839608442,-0.0431131655395031,0.0050631510093808,-0.0007447837851941,-0.0011380778159946
1783205568533315300,2.8533154296875,0.005106054434739,0.0374991889820899,-0.0573380902469158,0.0045494269579648,-0.0006409208290278,-0.0020017409697175
1783205568543252200,2.863252197265625,0.0073803925748914,0.0411673104350455,-0.0555558830052614,0.0038426164537668,-0.0023575229570269,-0.002838191576302
1783205568553188400,2.873188232421875,0.0039054464733228,0.0308669752928428,-0.0464466938763856,0.0037115896120667,-0.0042153438553214,-0.0011995483655482
1783205568563125200,2.883125244140625,0.006654197192192,0.027214708996145,-0.0509521886020898,0.0084619875997304,-0.0032010283321142,-0.0004937862977385
1783205568573061000,2.89306103515625,0.0100972868507727,0.0199184145081322,-0.0599444733530282,0.0058723301626741,-0.0021884953603148,-0.0012756902724504
1783205568582998300,2.902998291015625,0.0179804413160309,0.0263155134004075,-0.0491805027544498,0.0028192633762955,-0.0015558158047497,-0.0001370476093143
1783205568592934400,2.912934326171875,0.0162067827070131,0.0189949338545091,-0.0550298133045434,0.0048235589638352,-0.0004530008882284,0.0009564463980495
1783205568602870300,2.922870361328125,-0.0046260158328339,0.0168000998245086,-0.041418052059412,0.0093319173902273,-8.17808322608e-05,-0.0005003723781555
1783205568612807200,2.93280712890625,-0.0271104175046086,0.0056516964856069,-0.0457704020500183,0.0087404288351535,-0.0032610623165965,-0.0047406572848558
1783205568622743300,2.942743408203125,-0.0301793766211718,0.0177531718987971,-0.0532639726758003,0.0068911905400455,-0.0007284362800419,-0.0014427192509174
1783205568632680400,2.952680419921875,0.000923982977122,0.0330826420483179,-0.0529705426871776,0.0048733130097389,0.0009890361689031,-0.0024331489112228
1783205568642616300,2.9626162109375,0.0197208917751908,0.0258023397138807,-0.0541705661267042,0.0040309838950634,-0.0011444427073001,0.0001858766190707
1783205568652553200,2.97255322265625,0.0267707006888464,0.0165811141784302,-0.0489379261702299,0.004104221239686,0.0008177743293344,-0.0028192345052957
1783205568662489300,2.9824892578125,0.0404660120315849,0.0046524471820332,-0.0360685077250003,0.0040149698033928,0.0007582120597362,-0.0020352243445813
1783205568672426200,2.99242626953125,0.061341407604143,0.008596207238594,-0.0537245759248733,0.0008085239678621,0.0019526395481079,-0.0011558483820408
1783205568682362400,3.0023623046875,0.0723683034552261,0.0058797330878209,-0.0472808066129684,0.0026118569076061,0.0041458518244326,0.0002541961148381
1783205568692299300,3.01229931640625,0.067500003299117,0.0317949129258748,-0.0510194086194038,0.0016222260892391,0.0009324816055595,-0.0009508843068033
1783205568702235100,3.022235107421875,0.0479546142213046,0.0468166414336301,-0.0445890833109617,0.0025507826358079,0.0001813825219869,0.0005686650983989
1783205568712172300,3.03217236328125,0.0309254457481205,0.0410071331709623,-0.0555219807356595,-0.0002591181546449,-0.0039715506136417,-1.19041651487e-05
1783205568722108400,3.0421083984375,0.0157462890557944,0.0346265196226071,-0.0529910009533166,-0.000380284152925,-0.0018682577647268,0.0002267048694193
1783205568732045300,3.05204541015625,0.0049450551867485,0.0363871908858884,-0.0440203435122966,-0.0001243539154529,-0.0011811624281108,-0.0002228366211056
1783205568741981200,3.061981201171875,0.0027007468586787,0.0345211960846092,-0.0507552047252655,0.0018575331196188,-0.0003369222395122,-0.0005573197267949
1783205568751918300,3.07191845703125,0.0002734831791371,0.0352631096262484,-0.0473147088825702,0.0051468033343553,-0.0002612886019051,-0.0009512011893093
1783205568761854500,3.0818544921875,0.0074296020114794,0.0309767010113224,-0.0476151531338691,0.0021647615358233,-0.00144694885239,-0.0022279978729784
1783205568771791000,3.091791015625,0.0208093811316415,0.0284211895759217,-0.0339946240603923,0.0032633151859045,0.0002212552353739,-0.0013555462937802
1783205568781727200,3.101727294921875,0.0133799252506345,0.0366429557452444,-0.0465688589513301,0.0023467289283871,-0.0021878723055124,0.000909254187718
1783205568791664400,3.111664306640625,0.0072446738986298,0.0357652230626437,-0.0477852490037679,0.0022513875737786,-0.0023050513118505,-0.0005349779967218
1783205568801600300,3.121600341796875,-0.0238590510258451,0.0319983448097948,-0.044812370672822,0.0030690422281622,0.0007541570812463,-0.001879021176137
1783205568811537200,3.131537109375,-0.0422907797733321,0.0290656340924557,-0.044970776104927,0.0030245669186115,-0.0001529157161712,-0.0005003027617931
1783205568821473300,3.141473388671875,-0.0560877979248762,0.040600853925012,-0.0482721557378768,0.0038408441469073,-0.0023528281599283,0.0009782013949006
1783205568831409200,3.1514091796875,-0.0523363364368677,0.0392879812281578,-0.0514192215919494,0.0034104771912097,-0.0006979401223361,-0.0014788310509175
1783205568841346300,3.16134619140625,-0.0503289421372115,0.0349470476807095,-0.0412502942770719,0.0038781715556979,0.0009810924530029,-0.0024532896932214
1783205568851282400,3.171282470703125,-0.0344841611430048,0.0242196644991636,-0.0464905330181121,0.0043996190652251,0.0003166338428854,0.0026099123060703
1783205568861219300,3.18121923828125,-0.017523710524477,0.0202265214760787,-0.0512871196448802,0.0050733806565403,0.0010587330907583,0.0007717828266322
1783205568871155200,3.1911552734375,-0.019192447454296,-0.0012394421344622,-0.0379722955197095,0.0039444668218493,-0.0003367634490132,-0.000321710947901
1783205568881092400,3.20109228515625,-0.0243537392076104,0.0175059922046959,-0.0415717813163995,0.0049436036497354,0.0003286013379693,0.0007683832664042
1783205568891028500,3.211028564453125,0.0127425771951675,0.0202053416907321,-0.0451671754598617,0.0033486364409327,-0.0010365350171923,0.0022283282596617
1783205568900965000,3.220965087890625,0.044963506113924,0.0143923354298807,-0.0540098226070404,0.0052281720563769,-0.0002340013161301,0.0019083840306848
1783205568910901200,3.2309013671875,0.0599861936029046,0.0262668062873184,-0.0492272645056247,0.0009729731827974,-0.0030601480975747,-0.0009760858956724
1783205568920838400,3.24083837890625,0.0500302514515817,0.0151611552447546,-0.0425081853836774,0.0041440185159444,-0.0021508205682039,0.0003873566165566
1783205568930774300,3.250774169921875,0.035419944155775,0.01380586817828,-0.0518014989078044,0.0053714700043201,-0.0004328158684074,0.0010243847500532
1783205568940711200,3.260711181640625,0.0232100490652024,0.0228019431883469,-0.0516600446105003,0.0065204720012843,-0.0004333998076617,0.0003825186286121
1783205568950647300,3.270647216796875,0.0060091407543048,0.037632295576157,-0.0543657964378595,0.0020543504506349,-0.0031271874904632,0.0013175541535019
1783205568960584400,3.28058447265625,-0.0177124380296096,0.0362507780898828,-0.0427086763918399,0.0046842936426401,-0.0015885941684246,0.0008495326619595
1783205568970520300,3.290520263671875,-0.0174704459672793,0.0345997868793085,-0.0400122769147157,1.65719538927e-05,0.0004465938545763,0.0001086413394659
1783205568980457200,3.300457275390625,-0.0003150207659229,0.0293802803990431,-0.0452548537433147,4.41195443272e-05,-0.0017599151469767,0.0023088168818503
1783205568990393300,3.310393310546875,0.0189860381620004,0.021608057228662,-0.0398743297487497,-0.0029010698199272,-0.0031535476446151,-0.0005418306682258
1783205569000330200,3.320330322265625,0.0316764833111316,0.0176482136869803,-0.0588759673386812,0.0029626889154314,0.0003561913035809,-0.0019055908778682
1783205569010266400,3.330266357421875,0.0246772355409339,0.0212064724241383,-0.0573825139105319,6.7033804953e-05,0.0013993517495691,0.0009860694408416
1783205569020203300,3.340203369140625,0.011735957435891,0.033336552877305,-0.0506371313035488,0.001893718726933,0.0014617657288908,-0.0012878009583801
1783205569030139100,3.35013916015625,-0.0015740809163078,0.0279798572828993,-0.0412029480040073,0.0002478845417499,0.0004207361489534,0.0030129381921142
1783205569040076300,3.360076171875,-0.0060558659728616,0.033529920024937,-0.0467459690839052,-0.0015893457457423,-0.0018858574330806,-0.0008404010441154
1783205569050012400,3.370012451171875,-0.0041190526913851,0.0366912609995342,-0.0536275452911853,0.0025137858465313,0.000388482119888,-0.0014478680677711
1783205569059949300,3.37994921875,0.0088997476292774,0.029189981991332,-0.0458446363300085,-0.0011116620153188,-0.0020269462838768,-0.0010790857486426
1783205569069885200,3.38988525390625,0.0173551855571568,0.0355326198831666,-0.0552747279763221,0.000136561691761,0.0009206398390233,-0.002592826494947
1783205569079822300,3.399822265625,0.0270571164147928,0.0378933302656747,-0.0554144287079572,-0.0005606291815638,0.0007228651084005,-0.0020222910679876
1783205569089758500,3.409758544921875,0.0203307307692244,0.0237807616252452,-0.0515238510102033,-0.0006642267107963,-0.0009597199968993,-0.0009256012272089
1783205569099695000,3.419695068359375,0.0119402843689545,0.0334362503921147,-0.0578068768024444,-0.0007893303409218,-2.3823231458e-06,-0.0001312664244323
1783205569109631200,3.42963134765625,0.0010869184538722,0.0285922626933548,-0.043736265873909,0.000195506028831,0.0003797812387347,-0.0010327463969588
1783205569119568400,3.439568359375,-0.001167253681086,0.0374273475885856,-0.0546592264264821,-0.0011813296005129,-0.0007445681840181,0.0016435931902378
1783205569129504300,3.449504150390625,-0.0032455212598666,0.0394847459092736,-0.0578004470616579,-0.0029105190187692,-0.0021083727478981,0.0005945740267634
1783205569139441200,3.459441162109375,-0.0042074250945821,0.0324472850205376,-0.0492740262567997,-0.0003923075273633,-0.0002228943631052,-0.001659138360992
1783205569149377300,3.469377197265625,0.015555515724048,0.0324687935994472,-0.0438876570433378,0.0006654998287558,0.0019883285276591,-0.0007102540694177
1783205569159314400,3.479314453125,0.0026070406932383,0.0198118853937368,-0.0552566077977418,0.0001717498525977,0.0026541186962276,0.0013606937136501
1783205569169250300,3.489250244140625,0.0046484103277325,0.0279249852905049,-0.0631774639248848,-0.0025052595883607,0.0007864437066018,0.0021966600324958
1783205569179187200,3.499187255859375,0.0032436580963432,0.0282921472356189,-0.0467114822924137,0.0003802869468927,0.0027531185187399,-3.65681480616e-05
1783205569189123300,3.509123291015625,-0.0007009878762066,0.0363597731560003,-0.0571750086396932,0.0010753720998764,-0.0002858145162463,-0.000675460556522
1783205569199060500,3.519060546875,0.004286773941107,0.0303020805522333,-0.0490963316023349,-0.0013192761689424,-0.0006864219903945,-0.0003736773505806
1783205569208996400,3.528996337890625,0.0002910553684458,0.0317487356965895,-0.0532803392887115,0.000262907706201,0.0010214634239673,-0.0026895622722804
1783205569218933200,3.538933349609375,0.0133615128111094,0.0339820751060731,-0.0534247161954641,-0.0011544609442353,0.0013315770775079,0.0009149368852376
1783205569228869400,3.548869384765625,0.0120875473525375,0.0305633527037687,-0.0517728573352098,-0.00194888189435,0.0001581883989274,-0.003739203326404
1783205569238806300,3.55880615234375,0.0167392090832814,0.0379702405599411,-0.0538677837878465,-0.0005865059792995,0.0012643006630241,0.0005841094534844
1783205569248742400,3.568742431640625,0.0056882017042487,0.0372241896993014,-0.0463794738590717,0.0006220368668437,-0.0002313307486474,-0.0010998072102665
1783205569258679300,3.57867919921875,-0.0030912074809893,0.0262974206212908,-0.0430821858793497,0.0002328474074602,0.001328847836703,-0.0023958035744726
1783205569268615200,3.588615234375,-0.0067366147786378,0.0350488184215966,-0.0511526796102523,-0.0002185581251978,0.0037224972620606,-0.0024288268759846
1783205569278552300,3.59855224609375,0.0008018544347956,0.0369246313639916,-0.0490378794133663,-0.0018613943830132,0.0016075265593826,-0.0021193879656493
1783205569288488400,3.608488525390625,0.006898527342081,0.0373063241579569,-0.0457353307366371,-0.0003537787124514,0.0024352367036044,-0.0012703724205493
1783205569298425300,3.61842529296875,0.0062513154797255,0.0396171401172876,-0.0569482141464948,0.0029177898541092,0.000910815782845,-0.0026709358207881
1783205569308361200,3.628361328125,0.0144286305859684,0.0238915376564953,-0.0585854599595069,0.0015864754095673,0.0033425479196012,0.0005259227473288
1783205569318298400,3.63829833984375,0.0099902462797239,0.0212481378750875,-0.057227615609765,0.0035986881703138,0.0020169792696833,-0.0001941758673638
1783205569328234500,3.648234375,0.0037045901389792,0.0172355229665525,-0.0513894109755754,0.0072884978726506,0.0003053657710552,9.71739646047e-05
1783205569338171100,3.658171142578125,0.0041318756403401,0.0295063544641248,-0.0534884290814399,0.0055825011804699,0.0003116182051599,-0.003531212452799
1783205569348107300,3.668107177734375,0.0041999359078705,0.0293630826690699,-0.0558820462197065,0.000473759137094,-4.92399558424e-05,-0.0001047893892973
1783205569358044700,3.678044677734375,-0.0042283582847565,0.0162681940380483,-0.0478016156166791,0.0007203193381428,0.0010783546604216,-0.003476160345599
1783205569367980800,3.687980712890625,-0.0104384284386411,0.0142166683357208,-0.0452624525278806,0.0031802812591195,-0.000597040168941,8.12902580946e-05
1783205569377917700,3.697917724609375,0.0014031447961926,0.015170845521707,-0.04526362157166,0.0007795952260494,0.0016267946921288,-0.0021169865503907
1783205569387853600,3.707853515625,0.0097321798654273,0.0229180255823768,-0.0546878679990768,-0.002608211711049,-0.0014590104110538,0.0008772055152803
1783205569397790700,3.717790771484375,0.0150378119928762,0.0263210846246685,-0.0569277558803558,0.0008126525208353,0.0020447615534067,0.0003665497060865
1783205569407726800,3.727726806640625,0.0102813016481697,0.019982282657735,-0.0518354011774063,0.000525563955307,-0.0012229369021952,-0.0027671917341649
1783205569417663700,3.737663818359375,0.005946852640435,0.0202464226197917,-0.0525830046743154,-0.0028571505099534,-0.0013166246935725,-0.0012160437181591
1783205569427599600,3.747599609375,0.0069455448215827,0.0183654129124712,-0.040608489242196,0.0005666092038154,-0.0017483229748904,-0.0016938148764893
1783205569437536800,3.757536865234375,0.0068658671814948,0.0295065645266789,-0.0509299767702817,0.0002891281619668,0.0013056620955467,-0.0038156183436512
1783205569447473000,3.767472900390625,0.0063458618953824,0.0333963202405255,-0.0510837060272693,0.0011932719498872,0.0006007230840623,-0.0015623176004737
1783205569457409500,3.777409423828125,-0.0032613033508881,0.0228027651722542,-0.0522796378135681,-0.0003186045214533,0.0001434586010873,-0.0012150413822382
1783205569467346700,3.7873466796875,-0.0054237055491656,0.0107855339764151,-0.0579617751032114,-0.0018475260585546,0.0005679661408066,0.0001253276132047
1783205569477282800,3.79728271484375,-0.0031328911982476,0.0326260391209274,-0.0494195722073316,-0.001024548895657,0.0025886909570544,1.08396634459e-05
1783205569487219700,3.8072197265625,0.0094472254442051,0.0252589626853354,-0.0462538016527891,-8.288770914077759e-07,0.0051751527935266,-0.0031657787039875
1783205569497155600,3.817155517578125,0.0167067315857857,0.0377644888547714,-0.0460854593485593,0.002634841017425,0.0046556522138416,-0.0023690434172749
1783205569507092700,3.8270927734375,0.0161154146291315,0.0244728903415612,-0.0435205772966146,0.0022422904148697,0.003233257913962,-0.000703502446413
1783205569517028900,3.83702880859375,0.0084711104210466,0.0320133871152997,-0.0451508088469505,-5.58430328965e-05,0.0045383311808109,-0.0008838509675115
1783205569526965500,3.846965576171875,0.0016593480469658,0.0291246982027776,-0.0502121838897466,0.0021343408152461,0.0062105301767587,-0.0032221064902842
1783205569536901600,3.856901611328125,-0.0030777269449084,0.0253079346599057,-0.0419563967198133,0.0030756676569581,0.0073068952187895,-0.0008777645416557
1783205569546838800,3.8668388671875,-0.0027066651428118,0.0410469263252336,-0.0437263290017843,0.0015904223546385,0.0059271110221743,-0.0014503442216664
1783205569556774700,3.876774658203125,-0.0040505174998193,0.0443437941798474,-0.0384597867757081,0.000803236849606,0.0073357718065381,-0.0034005676861852
1783205569566711600,3.886711669921875,-0.0083187328709289,0.0398679548068903,-0.0520423219263553,-0.0010130386799573,0.00699994713068,-0.0036373226903378
1783205569576647700,3.896647705078125,-0.0063324909571558,0.023525983146578,-0.0521563036948442,0.002550377510488,0.0067466585896909,-0.0016872034175321
1783205569586584800,3.906584716796875,-0.0041605537455528,0.0314189648861065,-0.0376081383824348,0.0010699266567826,0.0054797930642962,-0.0057077780365943
1783205569596520700,3.916520751953125,-0.0027032310767099,0.0277600131202954,-0.0405687417536973,0.0031068762764334,0.0067819734103977,-0.0048623098991811
1783205569606457600,3.92645751953125,-0.001695807599835,0.0324990426072385,-0.043531098690629,0.0050706919282674,0.0057819564826786,-0.0029091476462781
1783205569616393700,3.936393798828125,6.45531361922e-05,0.0318805362495593,-0.0454547602295875,0.0016258871182799,0.0040302565321326,-0.0029728640802204
1783205569626330600,3.94633056640625,-0.0016025032931938,0.0333122495531104,-0.054859132912755,0.0039681373164057,0.0057991277426481,-0.0042964550666511
1783205569636266800,3.956266845703125,0.0027616102004423,0.0222638359899632,-0.0522796378135681,0.0033309841528534,0.0066516962833702,-0.002933022333309
1783205569646203600,3.96620361328125,0.0001592091497033,0.0293616304975002,-0.0484995347529649,0.0019975397735834,0.0092248423025012,-0.0026360799092799
1783205569656139500,3.976139404296875,-0.0005559899149462,0.0189881935864686,-0.0381330390393733,0.0013438584282994,0.0095174331218004,-0.0043547782115638
1783205569666076700,3.98607666015625,0.0078240446891635,0.0238931542248465,-0.0564957942038774,0.0031833034008741,0.0097784232348203,-0.0042429254390299
1783205569676012800,3.9960126953125,0.0123775067424401,0.030288627415616,-0.0419417836725711,0.0026415893808007,0.0062882229685783,-0.0040090051479637
1783205569685949700,4.00594970703125,0.0065537690250203,0.0292612479961011,-0.049696635583043,0.0027555730193853,0.0048138969577848,-0.0034859601873904
1783205569695886600,4.015886474609375,0.010718414423801,0.0177758860541041,-0.0588040711462497,0.0035049170255661,0.0030080866999924,-0.0002145620528608
1783205569705822700,4.02582275390625,0.0055178135734051,0.0218211702563799,-0.0560994883626699,0.001541101373732,0.0029926404822617,0.0011415195185691
1783205569715759900,4.035759765625,0.0006104235159233,0.0301143394277896,-0.0508510663151741,0.0018208725377917,0.0029019156936556,-0.004238705150783
1783205569725695500,4.045695556640625,-0.0004832169396802,0.0243683431216981,-0.0482978747010231,0.0009508179500699,0.0017567565664649,-0.0029888837598264
1783205569735632600,4.055632568359375,0.008684753171727,0.0298931526914704,-0.0505365935385227,0.0015166662633419,0.0028069179970771,-0.0027612131088972
1783205569745568800,4.06556884765625,0.003816453015618,0.0276721521737519,-0.0526204140752553,0.0019291890785098,0.0021797437220811,-0.001114580547437
1783205569755506000,4.075505859375,0.0030261428881436,0.0245322923786006,-0.0574006340891122,0.002331119030714,0.000893447548151,0.0004369525704532
1783205569765441500,4.085441650390625,0.0007269991002976,0.0261285303277894,-0.0518640427500009,0.0006986018270254,-0.003007551189512,-0.0035668439231812
1783205569775378700,4.095378662109375,0.0079835826324298,0.0279906709378585,-0.0479798947930336,0.0012799017131328,-0.0012601711787283,-0.0007977180648595
1783205569785314800,4.105314697265625,0.0024204320799559,0.0298827043626923,-0.0642921471685171,0.0031331954523921,0.0007819407619535,-0.0011191614903509
1783205569795251700,4.115251708984375,0.0003858575124293,0.0277399384466465,-0.0485772761642932,0.0022169882431626,0.0033029450569301,-0.0007659557741135
1783205569805187600,4.1251875,0.0052600759526714,0.0248856906598433,-0.0389969623923301,-0.0016872063279151,0.0025553957093507,0.0006870648358017
1783205569815124700,4.135124755859375,0.007567403046973,0.02439395248699,-0.051112347599864,-0.0007099183276295,0.0001652697101235,-0.0015138604212552
1783205569825060600,4.145060546875,0.0120925523212179,0.0220533715770579,-0.0593354015439748,-0.0007983352988958,0.0019248202443122,-9.81241464614e-05
1783205569834997800,4.154997802734375,0.0030600086251273,0.0254017595563549,-0.0514028549790382,0.0007523652166128,0.0019760222639888,-0.0025527121033519
1783205569844934700,4.1649345703125,0.0105691786788403,0.0336254619544371,-0.0469090506911277,0.0016676941886544,7.58566893637e-05,0.0003935429267585
1783205569854870800,4.174870849609375,0.0020643851839005,0.0177194614254403,-0.0609755699664354,-0.0011858120560646,0.001032771077007,-0.0001569727901369
1783205569864807700,4.1848076171875,0.0009059723963961,0.024124323499063,-0.0552834958046674,-0.0008103065192699,-0.0001600589603185,-0.0003378014080226
1783205569874743800,4.194743896484375,0.0064038391603156,0.027997794798389,-0.0488449871897697,-0.002226366661489,-0.0006681806407868,0.000595559598878
1783205569884680700,4.2046806640625,-0.0007023761156946,0.0227381755034439,-0.0570674566119909,-0.0018609808757901,0.0007318430580198,7.43789132684e-05
1783205569894616600,4.214616455078125,0.0050234907178208,0.0310356281243264,-0.0539186371922493,-0.0005824128165841,0.0015700086951255,0.0020571495406329
1783205569904553700,4.2245537109375,-0.0018705431122332,0.0165759265466593,-0.0548129556834697,-0.0027819173410534,-9.97930765151e-05,-0.0007724589668214
1783205569914489900,4.23448974609375,0.0097447836186736,0.0328257446778006,-0.0440372946470975,0.0030651399865746,0.0009686923585832,-0.0023932242766022
1783205569924426800,4.2444267578125,0.0067327788537368,0.0254080522998236,-0.0480716647297143,0.001350063830614,0.0033263887744396,0.0008070962503552
1783205569934362600,4.254362548828125,0.0082869494931772,0.0208281954299658,-0.0560001196414232,0.0008217534050345,0.0001976992934942,-0.0001070897560566
1783205569944299800,4.2642998046875,0.0153606507390737,0.0210003188601695,-0.0618307254910469,0.0008217534050345,0.0041290577501058,1.86115503311e-05
1783205569954236000,4.27423583984375,0.0161949096061289,0.0172844310090411,-0.0507394226342439,0.0003383951261639,0.0029780552722513,-0.0006228329148143
1783205569964172500,4.284172607421875,0.0123269090663641,0.0266709301088005,-0.048031332719326,-0.0004720045253634,0.0003447216004133,-0.0002814158797264
1783205569974109700,4.294109619140625,0.0056888592913746,0.0297639824870042,-0.0611965192407369,-0.0018165279179811,-0.0008808812126517,0.0004758762661367
1783205569984045800,4.3040458984375,-0.0005890154017135,0.0216495217502117,-0.0706236882776022,-0.0001118388026952,-0.0003597005270421,-9.48391389101e-05
1783205569993982700,4.313982666015625,0.0042607261843979,0.0242911496996413,-0.0534101031482219,-0.0008187117055058,0.0001370632089674,0.0002560575958341
1783205570003918600,4.323918701171875,0.0098571579519659,0.0331413042998407,-0.047113633352518,-0.0007039289921522,0.0041475174948573,0.0001934731844812
1783205570013855700,4.333855712890625,0.0139411393299698,0.019996493846178,-0.0481406383126974,0.0017371838912367,0.0053497818298637,0.0017014157492667
1783205570023791900,4.3437919921875,0.0081021309781819,0.0328760500929318,-0.0397381361484527,0.0008293120190501,0.0028586608823388,-0.0023234193213284
1783205570033728500,4.353728515625,0.0050771571338176,0.0178568240695167,-0.0448024338006973,0.0005981251597404,0.0072660706937313,-0.0025212750770151
1783205570043664600,4.36366455078125,0.0101995416488498,0.0170928265602327,-0.046565351819992,0.0043228222057223,0.0047041098587214,-0.001374251791276
1783205570053601800,4.373601806640625,0.0101871570913121,0.0296053761254996,-0.0528203205615282,0.0006335033103823,0.0056904912926256,0.0003542033955454
1783205570063537700,4.38353759765625,0.0158155548997223,0.034641543661803,-0.0487561398625373,0.0012798523530364,0.004963181912899,-0.0024133536498993
1783205570073474600,4.393474609375,0.0124316115498542,0.0281036023935768,-0.0577075080811977,0.0014253705739974,0.005208246409893,-0.0036571132950484
1783205570083411700,4.40341162109375,0.009985423974134,0.0204214686594437,-0.0531961681365966,0.00323898345232,0.0040870555676519,-0.0005055286455899
1783205570093347800,4.413347900390625,0.0050088776705786,0.0249272830455563,-0.0500315666258335,0.0020805085077881,0.0057214372791349,9.20847523957e-05
1783205570103284500,4.423284423828125,0.0066206967813894,0.0299888772840611,-0.0488040706574916,0.00038434099406,0.0062210466712713,0.0002617281861603
1783205570113220600,4.433220703125,0.0050598406728357,0.0214489120110403,-0.0480301636755466,-0.0013430407270789,0.0071713663637638,0.0005140667781233
1783205570123157800,4.44315771484375,-0.0079772624894976,0.0265749771873466,-0.055045595395565,0.0014468869194388,7.08466395735e-05,0.0008829145226627
1783205570133093600,4.45309375,-0.006124985686317,0.035853184473887,-0.0644698418229818,0.0019527077674865,0.00171350967139,-0.0011746094096451
1783205570143030500,4.463030517578125,0.0013099866200238,0.0228008106771856,-0.0569780247628688,-0.0007900819182395,0.0028658593073487,-0.003034294815734
1783205570152966700,4.472966552734375,-0.0082805562850087,0.0302017528497613,-0.047835517886281,0.0023020142689347,0.001112803351134,-0.0048237484879791
1783205570162903800,4.48290380859375,-0.0028483751684427,0.018778816018952,-0.0458861373841762,0.0015299646183848,0.0021572951227426,-0.0003408496268093
1783205570172839700,4.492839599609375,-0.0046622561899945,0.0270896578443702,-0.0470662870794534,0.0003078924492001,0.0013455296866595,-0.0025620688684284
1783205570182776600,4.502776611328125,0.0033178193110972,0.0241462522030808,-0.0534890136033296,0.0008098985999822,0.0007681562565267,-0.0010778892319649
1783205570192713700,4.512713623046875,-0.0013558715883642,0.0251834497637115,-0.0542278492718934,-0.0009011691436171,0.001220122911036,-0.0010656837839633
1783205570202649600,4.522649658203125,0.0033421500347554,0.033413490571035,-0.0539238978892564,-0.0003562867641448,0.0015695295296609,-0.0009112204425036
1783205570212586800,4.532586669921875,0.0065295844318345,0.0203915119125973,-0.0623000965684652,0.0003082687035202,0.0019424953497946,-0.0006110984832048
1783205570222522600,4.542522705078125,0.0082657971072942,0.0246844233335461,-0.0561614476829767,-0.0018792515620589,0.000194929074496,-0.0017264303751289
1783205570232459800,4.552459716796875,0.0056330374509096,0.0296436075103469,-0.0545171876072883,-0.0011126268655061,-0.0015021385625004,8.10255296528e-05
1783205570242395600,4.562395751953125,0.0065841276306658,0.0292945383443497,-0.0507780010789632,-0.002777368761599,0.000441170297563,-0.0006835679523646
1783205570252332800,4.572332763671875,0.0070084174573421,0.025569517338695,-0.0467372012555599,0.0002973806113004,0.0009852182120084,-0.0027899246197193
1783205570262268700,4.5822685546875,0.0148109809670597,0.0274965764111373,-0.0373030179560184,-0.0009708162397146,0.001056857407093,-0.0014468925073742
1783205570272205600,4.59220556640625,0.0112554073773324,0.0234403232902754,-0.0467243417739868,0.0003708228468894,0.0022755502723157,-0.0003886769991368
1783205570282142700,4.602142822265625,0.0066869304180145,0.0173521076840814,-0.0516518613040447,0.001886960119009,0.0011793933808803,-0.0010454126168042
1783205570292078800,4.612078857421875,0.0019037877947092,0.0204853550753556,-0.0416185430675744,0.0004199109971523,0.0003649876452982,1.25518999993e-05
1783205570302015700,4.622015625,0.0042215632177889,0.0298654883664101,-0.044010406640172,0.0020763967186212,0.0011354405432939,0.0001968427095562
1783205570311951600,4.63195166015625,0.0031610578468069,0.0339036121755372,-0.0580699116528034,-0.0001143747940659,0.0023552777711302,-0.000503993127495
1783205570321888800,4.641888671875,0.004140862664394,0.0259961817855481,-0.0514829344779253,0.0018688812851905,-0.0016426597721874,-0.0009167829994112
1783205570331825000,4.651824951171875,0.0006518149722367,0.0246357984188478,-0.0498415970116853,0.000944634899497,0.0007239012047648,-0.0009276308119297
1783205570341761500,4.661761474609375,0.0005328647676855,0.0285084294679574,-0.0498427660554647,-0.0009832270443439,-0.0009858482517302,-0.0008368170820176
1783205570351697700,4.67169775390625,0.0039819823082536,0.0346276247343048,-0.0574748683691024,0.0018399721011519,-3.21459956467e-05,-0.001449657138437
1783205570361633500,4.681633544921875,0.0029499358467757,0.0277633741211611,-0.0423643929988145,0.0006037326529622,0.0012853196822106,-0.0030693917069584
1783205570371570700,4.69157080078125,0.0077315441001206,0.0221375701286364,-0.0446148022741079,-0.001958473585546,-0.0010350253432989,-0.0002812813036143
1783205570381506600,4.701506591796875,0.0040549379466101,0.0318605711737647,-0.0510521418452262,-0.0006319535896182,-0.0017112018540501,0.0001823750790208
1783205570391443500,4.711443359375,0.0020088556043803,0.0312274243693798,-0.0453700045555829,0.0006410591304302,0.0002727000974118,0.0001220623962581
1783205570401379600,4.721379638671875,0.0049318669116124,0.0309218472852371,-0.0552501780569553,0.0015872800722718,0.0005432772450149,-0.0007637050002813
1783205570411316700,4.731316650390625,0.0003634995501488,0.0287037602438125,-0.0497170938491821,0.000991977751255,-0.0006083762273192,-0.000188494566828
1783205570421252600,4.741252685546875,0.0095553619937971,0.018877581952,-0.0428285033792257,-0.0009430749341845,0.0004473007284104,-7.05164857208e-05
1783205570431189500,4.751189453125,0.0055782019911333,0.0270230223489459,-0.0455167195498943,4.22252342104e-05,-0.0002820673398673,-0.0009736267384141
1783205570441125600,4.761125732421875,0.004047266096808,0.027635957482364,-0.0465548304259777,-0.0005287565290927,0.0019776248373091,-0.0018495402764528
1783205570451062800,4.771062744140625,0.0010188581863418,0.0263016858044546,-0.0510422049731016,0.0016286615282297,0.0001572906039655,0.0019401994068175
1783205570460999400,4.78099951171875,0.0019042627187445,0.0229478544650599,-0.0636141017764806,0.003622836433351,0.0008454513736069,-0.002636975608766
1783205570470935600,4.790935546875,0.0028989363119006,0.0225537405809387,-0.0529880783438682,-0.0008932333439588,-0.0003993143327534,-0.0002334038726985
1783205570480872700,4.800872802734375,0.0024875790320336,0.0254519919062498,-0.0489484475642442,-0.0007432969287037,0.0010055028833448,-0.0005993221420794
1783205570490808600,4.81080859375,0.0028112214958295,0.0310132427625823,-0.0462549706965684,0.0003078142181038,-0.001058573834598,0.0017084870487451
1783205570500745500,4.820745361328125,0.0021260887758806,0.0250277934111189,-0.0505973838150501,-0.0008394755423069,-0.0006865304894745,0.0005761110223829
1783205570510681600,4.830681640625,0.0018968831298872,0.0259778880770318,-0.0452051693826913,-0.001042359508574,0.0019993230234831,-0.0019274255027994
1783205570520618800,4.84061865234375,0.0054546121440827,0.0267373190090525,-0.0484884288370609,0.0009808437898755,-0.0006819474510848,-0.0046936506405472
1783205570530555400,4.850555419921875,0.0009137538440525,0.0240332568152807,-0.0582213028222322,0.000689148902893,0.0003190711140632,0.0014503344427794
1783205570540491500,4.860491455078125,0.0017855317099019,0.0254093583409208,-0.0467073906391859,0.0018111392855644,-0.0029214634560048,-0.0009017691481858
1783205570550428700,4.8704287109375,0.0047071913102641,0.0220878492353949,-0.0604798954039812,-0.000585607253015,0.0008906638249754,-0.0028461851179599
1783205570560364500,4.880364501953125,0.0023091537252068,0.0257716888472903,-0.0517921465575695,-0.0005174297839403,0.0001164833083748,-0.0024107582867145
1783205570570301400,4.890301513671875,0.0059012599330395,0.0283567917033564,-0.0500029250532388,0.0011806348338723,-0.0001947246491909,0.0007830625399947
1783205570580237600,4.900237548828125,0.009534903727658,0.0274143506209366,-0.0470043277591466,-0.0005259187892079,0.0009365859441459,-0.0010819490998983
1783205570590174700,4.9101748046875,0.0140078478906303,0.022489388374146,-0.047592941302061,-0.0012504588812589,0.0009900527074933,-0.0016210159519687
1783205570600111400,4.920111328125,0.0090994349198415,0.0182292010458651,-0.0466881014168262,0.0024859560653567,0.0035163273569196,0.0027596177533268
1783205570610047500,4.930047607421875,0.0087050653073936,0.024806387479091,-0.0522124177962541,0.0022971434518694,0.0023063300177454,0.0014459551312029
1783205570619984600,4.939984619140625,0.00777706374228,0.0268860432973597,-0.0537017795711755,0.0022830283269286,0.0012162984348833,0.000313312979415
1783205570629920500,4.94992041015625,0.0074221493573859,0.0240229089512024,-0.0569996520727872,4.40832227468e-05,-0.0003956453874707,-0.0019741263240575
1783205570639857400,4.959857421875,0.0062989174811169,0.0204325745753478,-0.058958384925127,-2.522021532e-06,-0.0019653127528727,-0.0003940730821341
1783205570649793500,4.96979345703125,0.0041221944965422,0.0306685301112942,-0.0555260723888874,-0.0010689422488212,-0.0038541108369827,0.001035303575918
1783205570659730700,4.979730712890625,0.0002030482914298,0.0249847397206816,-0.0449058941751718,-0.0013192789629101,-0.0010721730068325,0.0007908253464847
1783205570669667600,4.98966748046875,0.0083477032370865,0.0268515473727136,-0.0516343256473541,-0.0010529104620218,0.0019920016638934,-0.0024907113984227
1783205570679603500,4.999603515625,0.0061208940330892,0.0276117272234056,-0.0517757799446582,0.0004768092185258,0.0011328659020364,-6.19085039943e-05
1783205570689540600,5.00954052734375,0.0114522085910663,0.0286998421205207,-0.0511602783948183,0.0001670140773057,0.0037946314550936,0.0010621063411235
1783205570699476500,5.0194765625,0.0129273226449266,0.0217284322053194,-0.0519008676290512,0.000989930704236,-0.000291989184916,-0.001618631533347
1783205570709413600,5.02941357421875,0.0165455131420865,0.0176487251436337,-0.0517535681128501,0.0016896277666091,0.0001811273396015,-0.0012897315900772
1783205570719349500,5.039349609375,0.0011480740565806,0.0202762697687838,-0.0549053101420402,0.0005252938717603,-0.002996290102601,-0.0001941071823239
1783205570729286700,5.04928662109375,-0.0026383491469547,0.0186599114801734,-0.0541612137764692,-0.0014321403577923,-0.0016595181077718,0.0030208858661353
1783205570739223600,5.0592236328125,0.0044620209101587,0.027058751249453,-0.0447281995207071,-0.0014198897406458,-0.0004003755748271,-0.0012289866572245
1783205570749159700,5.06915966796875,0.0082509283317253,0.0267690019221045,-0.0321516265422105,-0.0013479785993695,0.0037072941195219,-0.0017063666600733
1783205570759096600,5.0790966796875,-0.0013712152879685,0.0313793178623076,-0.0463631072461605,-0.0010097566992044,-0.0018123732879757,0.0002390726003795
1783205570769032400,5.089032470703125,0.006175912155956,0.0277068764272611,-0.0444195719629526,-0.0004051970317959,-0.0001875427551567,0.0007718121632933
1783205570778969600,5.098969482421875,0.0023731954047456,0.0219952299153432,-0.0528127217769622,0.0032127071171998,-0.0020152698270976,-0.0025201211683452
1783205570788905700,5.10890576171875,0.0020666502062231,0.0280490409284364,-0.0513169302612543,0.0001514758914709,0.0002676327712833,-0.0019083194201812
1783205570798842600,5.118842529296875,0.0097316318761557,0.0243041827111504,-0.0465226817220449,-0.0019431002438068,0.0015025404281914,-0.0002020322717726
1783205570808779500,5.128779541015625,0.0067908657165244,0.0311934673008508,-0.0487608160376548,-0.0019556051120162,0.0019240013789385,0.0016070525161921
1783205570818715600,5.138715576171875,0.0034609906414523,0.0231003507461864,-0.0494973136186599,-0.0006075128912925,0.0004201144911348,0.0004531049635261
1783205570828652500,5.148652587890625,0.0038147725151851,0.0252538298524916,-0.0547287845313549,-0.0014861626550555,0.0006182985380291,-0.0003272914327681
1783205570838588400,5.15858837890625,0.0077133873889222,0.0208200669224374,-0.0643067602157592,0.0029061893001198,-0.0001364415511488,-0.0004085178952664
1783205570848525600,5.168525634765625,0.0035685426691547,0.0232099577336572,-0.0571358456730842,0.0024589980021119,-0.0021912758238613,-0.0007809994276612
1783205570858461700,5.178461669921875,0.0015352467432618,0.0274459787350613,-0.0634317309468984,0.000204898416996,-0.0024434770457446,-0.0013772812671959
1783205570868398600,5.188398681640625,-0.0024142946001142,0.0337802232578862,-0.0543161120772361,0.0025026574730873,-0.0015227012336254,-0.0008736518211662
1783205570878335500,5.19833544921875,0.0068836585665121,0.0323888693641871,-0.040841713476181,0.0002962285652756,0.0036725932732224,-0.0001082592643797
1783205570888271600,5.208271728515625,0.0034891938226297,0.0213851534592919,-0.046067339169979,0.0006164805963635,-0.0001083090901374,-0.0021962968166917
1783205570898208500,5.21820849609375,0.0030867505015805,0.0303388962981291,-0.0498106173515319,0.0034905644133687,-0.0003546518273651,-0.0007283624727278
1783205570908144400,5.228144287109375,0.0058548635080456,0.0295086742853745,-0.0568424156844615,0.0003203647211194,-0.0023909956216812,0.002597713842988
1783205570918081500,5.23808154296875,0.0199562714336439,0.0181359880707692,-0.0673188015133142,-0.0001893639564514,0.0003352821804583,-0.0001804956700652
1783205570928018700,5.248018798828125,0.0067056716511026,0.0240301515427418,-0.0560907205343246,-0.0004469426348805,0.0019561406224966,-0.0015730030136182
1783205570937954600,5.25795458984375,-0.0032648470148444,0.0247565387216862,-0.0557937834143638,9.55434516072e-05,-0.0021472577936947,-0.0037192446179687
1783205570947891500,5.267891357421875,0.0021827508665621,0.0290276127701625,-0.0511497570008039,-0.0019946321845054,0.0027390625327825,-0.0012085564667358
1783205570957827600,5.27782763671875,0.0045357802661135,0.0235839604115113,-0.0444119731783866,-0.0007282989099621,0.0006652590818703,0.0010785663034766
1783205570967764700,5.2877646484375,-0.0006576601911336,0.0283155829101335,-0.0491939467579126,-0.0007082028314471,0.0015438958071172,-0.0004635893274098
1783205570977700400,5.297700439453125,0.002046191940084,0.0279886342443991,-0.050683308532834,0.0006779721006751,0.0011950219050049,-0.0002364215906709
1783205570987637500,5.307637451171875,0.0029488398682326,0.0301010141553357,-0.0487386042058467,0.0018305256962776,-0.0006055617704987,-0.0003655957989394
1783205570997574700,5.31757470703125,0.0054627954505383,0.0157050071973353,-0.0494867922246456,0.0015903087332844,2.93357297778e-05,-1.8852064386e-05
1783205571007510800,5.3275107421875,0.0017103841144591,0.0263390130070038,-0.0556289482414722,0.0011965706944465,-0.002744092606008,-0.0006234718021005
1783205571017447400,5.337447509765625,-0.0036526042234152,0.025371136089228,-0.0566781650334596,0.0015113558620214,-0.0006777457892894,-0.0011798061896115
1783205571027383600,5.347383544921875,9.23909911885e-05,0.0270777573440223,-0.0574199233114719,-0.001677768304944,0.0022909147664904,-0.0007100207731127
1783205571037320700,5.35732080078125,-0.0066879898639395,0.0279039973014034,-0.0497837293446064,-0.0050197690725326,0.0006544021889567,-0.000249826349318
1783205571047257600,5.367257568359375,-0.0005913534892722,0.0204356707147322,-0.0475280593723058,-0.0009801974520087,0.0036323119420558,0.0005443440750241
1783205571057193500,5.377193359375,0.0013050912491977,0.0279039151030126,-0.0518558594435453,-0.0023690359666943,7.00675882399e-05,0.0001251625362783
1783205571067130600,5.387130615234375,0.0052817032625898,0.0197082058235537,-0.0419733478546142,-0.0003608390688896,0.000909614842385,0.0001803126651793
1783205571077066800,5.397066650390625,0.0127969742635264,0.023343493585987,-0.050946343383193,0.0007267957553267,0.0028244277928024,-0.0011512679047882
1783205571087003400,5.40700341796875,0.0165106244917958,0.0212340271513443,-0.0554354714959859,0.0018361993134021,-0.0009035640396177,0.0021802685223519
1783205571096939500,5.416939453125,0.0052040714491158,0.024906194591755,-0.0569289249241352,-0.0005340138450264,0.0018440191633999,-0.0013790461234748
1783205571106876700,5.426876708984375,0.0029236323617398,0.0221221807632595,-0.0469002828627824,-0.0006775064393877,0.0018682479858398,-0.0014470083406195
1783205571116813600,5.4368134765625,0.008303169975616,0.0241104045715648,-0.0500333201915025,-0.0008370298892259,-0.0003733346238732,-0.00238310941495
1783205571126749400,5.44674951171875,0.0014901289599016,0.0249820454400964,-0.0425473483502864,-0.0014554988592863,0.0010818960145115,0.0004804453346878
1783205571136686600,5.4566865234375,0.0074305518595501,0.016016292503057,-0.0480740028172731,0.0001746220514178,0.0034076345618814,0.0013177429791539
1783205571146622700,5.466622802734375,0.0096590415639802,0.0241724369571078,-0.0607861848741769,0.000407095067203,0.0031293907668441,-0.0003973008133471
1783205571156559400,5.476559326171875,0.0088992361726239,0.0242676866256631,-0.0537462032347917,-0.0001180805265903,-8.37128609418e-05,7.67416786402e-05
1783205571166496500,5.48649658203125,0.008804324430786,0.0163014752531424,-0.0558434677749872,0.0027341190725564,-0.0021616676822304,0.001210173824802
1783205571176432600,5.4964326171875,0.0053160439236089,0.015210876137996,-0.050008185750246,0.001530104316771,0.003026169957593,0.0007853996939957
1783205571186369500,5.50636962890625,-0.0004361629275605,0.0210522865094244,-0.0449099858283996,0.0001810677349567,0.001944906078279,0.0011628097854554
1783205571196305400,5.516305419921875,0.0030741467483341,0.0269962074072565,-0.0333837986856698,0.0007531139999628,0.0030261494684964,-0.0014857037458568
1783205571206242600,5.52624267578125,0.0087240622688084,0.0315292294607032,-0.0523807601004838,0.0027511483058333,0.0006563439965248,0.0019144790712743
1783205571216179700,5.5361796875,0.0001801788724958,0.029045458954107,-0.0607622194766998,0.0026174578815698,-0.0013546091504395,0.0009725189302116
1783205571226115600,5.546115478515625,-0.0064000032354146,0.0246685499109793,-0.081877488219738,0.0011818083003163,-0.0036825290881097,0.0004704110324382
1783205571236052500,5.556052490234375,-0.0022918007316067,0.0177543135431129,-0.0658913990586996,-0.0013553854078054,-0.0070066866464912,-0.0005245460197329
1783205571245988600,5.565988525390625,-0.00817910520453,0.0245954846747685,-0.0566261425852775,-0.0003032702952623,-0.0001527438871562,-0.0025365399196743
1783205571255925800,5.57592578125,0.0014126432769,0.0315254392015747,-0.0473404278457164,0.0003851568326354,0.003900587093085,-0.0020521110855042
1783205571265862400,5.5858623046875,0.0053880497138947,0.0317994703699834,-0.0390881478071212,-0.0032713068649172,0.0020577074028551,-0.0001929639838635
1783205571275798500,5.595798583984375,0.00586885550078,0.0329786519508808,-0.045664603587985,0.0019026817753911,0.0004462287761271,0.000787079334259
1783205571285735700,5.605735595703125,0.0045067368347197,0.0141250993284396,-0.0613683686763048,0.000606745481491,0.000553086400032,-0.0009353845380246
1783205571295671600,5.615671630859375,0.004518281142041,0.0138439442995004,-0.0670551821410656,0.0010091494768857,-0.0025156745687127,-0.0007636107038706
1783205571305608400,5.6256083984375,0.0037470045085996,0.0188530320326332,-0.0594324321776628,0.0014297859743237,-0.0012618899345397,-0.0025983361992985
1783205571315545600,5.635545654296875,0.0015016367346048,0.0271228020621463,-0.0547848986327648,-0.0001603867858648,0.0030710732098668,-0.0014550409978255
1783205571325481700,5.645481689453125,-0.003756868315488,0.0291275842796079,-0.0459469276607036,-0.0005020052194595,0.0032595861703157,-0.0002059491816908
1783205571335418400,5.65541845703125,0.0082099022015929,0.0274285618093796,-0.0498199697017669,-0.0026016402989625,0.0018750086892396,-0.0011673502158373
1783205571345354500,5.6653544921875,0.0067557944031432,0.0278239908677525,-0.0502612837284803,-0.0005527827888727,0.0003066067583858,-0.0022840648889541
1783205571355291100,5.675291015625,0.0026877047140151,0.0182204514838289,-0.0673182169914245,0.0008930470794439,0.0003691911697387,0.0016885723453015
1783205571365228300,5.685228271484375,0.0046642654839903,0.0217531647877767,-0.0586491728454828,0.0009191902354359,-0.0019777482375502,0.0005294613074511
1783205571375164200,5.6951640625,0.0057963747864589,0.0249344525718595,-0.0412882881999015,-0.0002882862463593,0.0009141783230006,-0.0012338175438344
1783205571385101000,5.70510107421875,0.0029114669999107,0.0256951073465868,-0.0501058009058237,-0.000943960621953,0.0043334532529115,-0.0025078612379729
1783205571395037200,5.715037109375,0.0083011606816202,0.0266193460520356,-0.0430552978724241,-0.0052923699840903,0.0032564711291342,-0.0035515541676431
1783205571404974300,5.724974365234375,0.0084318743892014,0.0238291399447713,-0.0476823731511831,-0.0022051725536584,0.0004308419302105,-0.0003659499343484
1783205571414910200,5.73491015625,0.0050147228894755,0.0192259843977168,-0.0618921002894639,0.0011578667908906,3.58955003321e-05,-0.0017105799634009
1783205571424847000,5.74484716796875,0.0068168038753792,0.0146501735153142,-0.0565063155978918,-0.0005963509902358,0.0003981594927608,-0.0003119155298918
1783205571434784300,5.7547841796875,0.0119767804544419,0.0186695012924261,-0.0606920768499374,0.0002625184133648,0.0003997576422989,0.0006209895946085
1783205571444720400,5.764720458984375,-0.0003510419273748,0.024423954899609,-0.0660825377166271,-0.0009975200518965,-0.0024716728366911,-0.0010709906928241
1783205571454657300,5.7746572265625,-0.0056173649577423,0.0241764098793268,-0.0584486818373203,-0.001270493492484,-0.0002926746383309,-0.0005988122429698
1783205571464594200,5.78459423828125,0.0111958226772025,0.0299287263283506,-0.0439355878382921,0.0004928829148411,-0.0005227057263255,-0.0014483295381069
1783205571474530300,5.7945302734375,0.0072619903596118,0.0258811953700613,-0.0449713606268167,-0.0009241849184036,0.0034299578983336,-1.2619420886e-05
1783205571484467200,5.80446728515625,0.0087281173894181,0.0232447733187116,-0.0611152706980705,0.0003975983709096,0.0020504356361925,0.0011156403925269
1783205571494403000,5.814403076171875,-0.0016543065456673,0.0261519842686131,-0.0540799652338027,0.0005368823185563,-0.0014598770067095,-0.0031992131844162
1783205571504340200,5.82434033203125,0.0004473784413188,0.0182079755947459,-0.0518318940460681,0.0043029673397541,0.0029825703240931,-0.0003704512491822
1783205571514277000,5.834277099609375,0.0009677125209942,0.0181166349163278,-0.0506318706065416,-0.0003192154690623,-0.0006257463246583,0.0001371472608298
1783205571524213200,5.844213134765625,0.0040309360165148,0.0162790716250892,-0.0573626401662826,0.0004181247204542,0.0007899752818048,-1.78925693035e-05
1783205571534150100,5.854150146484375,-0.0021810703661292,0.0182266163631342,-0.0562964722394943,-0.0006748372688889,0.0028680399991571,-0.003007823601365
1783205571544086300,5.864086181640625,0.0027277079308405,0.0122731695851311,-0.0446224010586738,0.000398970209062,0.0005914238281548,-0.001793805276975
1783205571554023200,5.874023193359375,0.0060038069920614,0.0175011059670243,-0.0582306551724672,0.0010487809777259,0.0021437807008624,0.0002906508743762
1783205571563960300,5.883960205078125,0.0050621787603944,0.024391002478078,-0.0585281768143177,-1.37593597173e-05,0.0015322626568377,0.0006699259392917
1783205571573896200,5.893896240234375,0.0059799877250567,0.0190571945689152,-0.0468564437210559,0.0008112881332635,-0.0012480774894356,-0.001448618597351
1783205571583833300,5.903833251953125,-0.0064828957458958,0.025307697197888,-0.0441676430284977,-0.0005529392510652,-0.0006713396869599,-0.000922996783629
1783205571593769200,5.913769287109375,0.003974164327979,0.0256996008586138,-0.0506020599901676,-0.0008730506524443,-0.0009653526358306,0.0004448026884347
1783205571603706000,5.9237060546875,0.0013389204535633,0.0253270412191748,-0.0471551344066858,-0.0010330975055694,0.0012325574643909,-0.0029667504131793
1783205571613643300,5.933643310546875,-0.0038137861344963,0.0300376757286954,-0.0450485175162553,3.93576920032e-05,0.0007595801725983,0.0002649954985827
1783205571623579100,5.9435791015625,0.0053592620108276,0.0252099450449924,-0.0508808769315481,-0.0002650432288646,0.0016466644592583,-0.0010235258378088
1783205571633516300,5.953516357421875,0.0096233491960912,0.0250660339291207,-0.0529646974682807,-0.0002938052639365,0.0019896794110536,-0.0011995608219876
1783205571643452200,5.9634521484375,0.0051214346669614,0.0237661759774666,-0.0540121606945991,0.0007575079798698,-0.002255683299154,-0.0018949152436107
1783205571653389300,5.973389404296875,0.0088975191395729,0.0229191124277655,-0.050722471499443,0.0016629826277494,-0.0007006633095443,-0.0005918305832892
1783205571663326200,5.983326171875,-0.0040935163913294,0.0174792137956246,-0.0472831447005271,5.38546591997e-05,-0.0005385209806263,-0.0018923290772363
1783205571673262000,5.993261962890625,-0.0095668697685003,0.0140907860668841,-0.0640466479748487,0.00261368509382,-0.0022322917357087,-0.0013306684559211
1783205571683199200,6.00319921875,-0.0035171047428622,0.0278097614130005,-0.0652536856770515,-0.0028000986203551,-0.0017111077904701,-0.003176984610036
1783205571693135400,6.01313525390625,-0.0043583048073574,0.0271099060479551,-0.0490939935147762,0.0004204623401165,-0.0020005931146442,-0.001721833483316
1783205571703072300,6.023072265625,-0.0014660904971882,0.0209503239722922,-0.0368260480940341,-0.0015957467257976,-0.0008857352659106,-0.0002592015080153
1783205571713009200,6.033009033203125,0.0028538550611585,0.0219038253048434,-0.0499848048746585,-0.0004987912252545,0.0026956838555634,-0.0019841310568153
1783205571722945300,6.0429453125,0.003204750858061,0.025325552514987,-0.0356073199540376,0.0005284482613205,0.0005967691540718,-0.0033688892144709
1783205571732882200,6.052882080078125,0.0098608477463945,0.0197377881110645,-0.0547580106258392,0.0036645866930484,8.70400108397e-05,-0.0024556913413107
1783205571742819300,6.0628193359375,0.017383352205716,0.0225402326453942,-0.0593944382548332,0.0030058743432164,-6.24493695795e-05,-0.0014059194363653
1783205571752755200,6.072755126953125,0.0099018373439088,0.0256885771411005,-0.058050037908554,0.000324604101479,-0.0002933451905846,-0.0024631943088024
1783205571762692000,6.082692138671875,-0.0048951150977984,0.0331780287141911,-0.0459375753104686,1.20168551802e-05,-0.0022645117715001,-0.0012294199550524
1783205571772628200,6.092628173828125,-0.0043233430918306,0.0262687059834599,-0.0412953024625778,-0.0042495727539062,-0.0006128191016614,0.0005682136397808
1783205571782565000,6.102565185546875,0.0008468626203015,0.0267039190629497,-0.0396422745585441,-0.0051097096875309,0.0017706458456814,-0.0023868991993367
1783205571792502300,6.112502197265625,0.0058182212920859,0.0291734875142574,-0.048463878917694,0.0016858782619237,0.0006033824756741,-0.0007871382404118
1783205571802438100,6.122438232421875,0.0038825039891526,0.0146821486893109,-0.0454570983171463,0.0001473315060138,0.0036791788879781,-0.0016909340629354
1783205571812375300,6.132375244140625,0.0105989892952144,0.0251591555726714,-0.05802022729218,0.003887740895152,0.000798437744379,0.0013583854306489
1783205571822311200,6.142311279296875,0.0033473741991445,0.0203199810463469,-0.0593739799886941,0.0008088471367955,-0.0003011003136634,-0.0010429427493363
1783205571832248300,6.152248291015625,-0.0079564388971775,0.020735904903477,-0.0632692338615655,0.0013651819899678,-0.002416449598968,-0.0029851861763745
1783205571842185200,6.162185302734375,-0.0117861897857859,0.0202315629773773,-0.0646276627331972,-0.0006726207211613,-0.0023488705046474,-0.0019523740047588
1783205571852121000,6.17212109375,-0.0017107129080221,0.0228022628487553,-0.0481739560604095,-0.0018076598644256,0.0006791441701352,-5.32737467437e-05
1783205571862058200,6.182058349609375,-0.0043012408578768,0.0192983555141836,-0.0412877036780118,-0.0005358587950468,0.0033114808611571,-0.0013589911395683
1783205571871995100,6.1919951171875,-0.0045429041266441,0.0225565170599147,-0.0415799646228551,-0.0020309574902057,-0.0020987307652831,-0.0016490092966705
1783205571881931300,6.20193115234375,0.0025311624454334,0.0233070522994268,-0.0540022238224744,-0.0001430986449122,-4.0479004383e-05,-0.0011972342617809
1783205571891868200,6.2118681640625,0.0073554407967254,0.0217663895955309,-0.0575964489221572,0.0014113886281847,0.0004000077024102,-0.0011980332201346
1783205571901804300,6.22180419921875,0.0134124027481302,0.0308618515931535,-0.0577437484383583,0.0014856969937682,0.0015137838199734,-0.0026923033874481
1783205571911741200,6.2317412109375,0.0010512260859832,0.0197577349205501,-0.0418792398303747,0.0009224386885762,0.0006676972843706,-0.0007476632017642
1783205571921678300,6.24167822265625,8.5961250402e-05,0.015741631146986,-0.0640296968400478,5.04162162542e-05,-0.0028653000481426,-0.0018771210452541
1783205571931614200,6.2516142578125,-0.005526106477715,0.0300618420555721,-0.0528103836894035,-0.0011501368135213,-0.0011278535239398,-0.0003998656757175
1783205571941551000,6.261551025390625,0.0055724298374727,0.0154733355996198,-0.0553694205224514,0.0011582113802433,-0.0017212550155818,0.0023881660308688
1783205571951488300,6.27148828125,0.0042604704560711,0.0147117127105128,-0.0471481201440095,-0.0012575425207614,-0.0009329593740403,0.0016549977008253
1783205571961424100,6.281424072265625,-0.0036075229726731,0.02479512629956,-0.0489437713891267,-0.0019480176270008,-0.00214205076918,0.0002518845722079
1783205571971361300,6.291361328125,0.0003882686652243,0.0255715174995362,-0.0505880314648151,0.0004219291731715,0.000444677658379,-0.0033476438838988
1783205571981297200,6.301297119140625,-0.0020200711181387,0.0314999485672917,-0.0463894107311964,-0.0010311175137758,-0.0017629512585699,-0.0041732573881745
1783205571991234300,6.311234375,0.0123360422208905,0.0230666128733661,-0.0553811109602451,0.0006954092532396,-0.0015304572880268,-0.0016352646052837
1783205572001171200,6.321171142578125,0.0127465957831591,0.0235052874184213,-0.0532844309419393,0.0014390004798769,-0.0002287179231643,-0.0015500686131417
1783205572011107300,6.331107421875,0.0021462913136929,0.0216452748333569,-0.0439998852461576,-0.0024771774187684,0.0025135390460491,-0.0014962728600949
1783205572021044200,6.341044189453125,0.0042030411804094,0.0170076142285019,-0.0514800118684768,0.0011241501197218,-0.0017538438551127,-0.002095534466207
1783205572030980000,6.35097998046875,-0.0025825638391077,0.0314753164495341,-0.0695902535766363,-0.0004196837544441,-0.0004281220026314,-0.0021866145543754
1783205572040917200,6.360917236328125,0.0009415916990488,0.0290932162191253,-0.0540250201761722,-0.0004959320649504,0.0024281332734972,-0.0020121349953114
1783205572050854100,6.370854248046875,0.0120090022236108,0.0217062477729748,-0.0484726467460393,-0.0019814427942037,0.0016835136339068,-0.0025562189985066
1783205572060790300,6.380790283203125,0.0124967126753181,0.0172286639675032,-0.0339595527470111,0.0009500384330749,0.0009105782955884,0.0005363526288419
1783205572070727200,6.39072705078125,0.0032406258890405,0.0135905175277031,-0.0544622425496578,0.0007079569622874,-0.0016415291465818,-0.0016290636267513
1783205572080664000,6.4006640625,0.0006823197083547,0.021572346594464,-0.0788607707470655,0.0015560435131192,-0.0016385014168918,-0.0026096005458384
1783205572090600200,6.41060009765625,-0.0079477441340684,0.0156857910402119,-0.0556704492956399,3.0318275094e-05,0.0003455537371337,0.0001944417599588
1783205572100537300,6.420537353515625,0.0044269861293956,0.0175533658772241,-0.0404132589310407,-0.0014914702624082,-0.0010976013727486,-0.0010312272934243
1783205572110473200,6.43047314453125,-0.0004446384949609,0.0234157459714449,-0.0448971263468265,-0.001045124605298,0.0015679565258324,-0.0015132594853639
1783205572120410000,6.44041015625,0.0032542525555938,0.0208063763238023,-0.0417442152738571,-0.0022182893007993,0.0013017477467656,-0.0006632267031818
1783205572130347300,6.45034716796875,0.0060511897977441,0.0293830842774827,-0.0436953493416309,0.0020161364227533,-0.0025198883377015,-0.000938597600907
1783205572140283100,6.460283203125,0.008421718321368,0.0323236403745599,-0.0637538025081157,-0.0011200038716197,0.0007841396145522,-0.0020694441627711
1783205572150220000,6.470219970703125,-0.0032751492131501,0.0256538802870549,-0.0694400314509868,0.0001045167446136,-0.0005708765238523,-0.0023647886700928
1783205572160157200,6.4801572265625,0.0038951077423989,0.0300784735299646,-0.0456517441064119,-0.0044045615941286,-0.0006609000265598,-0.0022623059339821
1783205572170093300,6.49009326171875,0.0096958299104124,0.0190463078487198,-0.0525298131823539,2.58730724453e-05,-0.0001940480433404,-0.0007355154957622
1783205572180030200,6.5000302734375,0.0043446781408041,0.0260878055917564,-0.0504220272481441,0.0001635169610381,0.0045544560998678,-0.0009886610787361
1783205572189966000,6.509966064453125,0.0130150009283795,0.0244492172050289,-0.0504161820292472,0.0012218570336699,0.0010305615141987,-0.0017955988878384
1783205572199903200,6.5199033203125,0.0195887167628854,0.018978274980653,-0.0540133297383785,0.0002140356227755,-0.0023546097800135,-0.0012773444177582
1783205572209840400,6.52984033203125,0.0018230141760781,0.0203273149694316,-0.0582201337784528,0.0008009960874915,-0.0030108131468296,-0.0011260767932981
1783205572219776300,6.5397763671875,0.0058670654024928,0.0198653326140251,-0.0577805733174085,0.0004798956215381,-0.0017455550841987,-0.0020263211335986
1783205572229713200,6.549713134765625,-0.0002969371199607,0.0264486656602472,-0.0366799176216125,0.0010375613346695,0.0014342591166496,-0.0031725456938147
1783205572239650300,6.559650390625,0.001992817785032,0.0223047707885503,-0.0378705887109041,-0.002331675030291,0.0001657414250075,1.62909273058e-05
1783205572249586200,6.569586181640625,0.0056153556637465,0.023828180963546,-0.0499713608711957,0.0008452096953988,0.0058364104479551,-0.0027318249922245
1783205572259523000,6.579523193359375,0.0112788613181561,0.0124958632919471,-0.0530979684591293,5.11882826685e-05,-0.0007559605874121,-0.0022729788906872
1783205572269459200,6.589459228515625,0.01151519082468,0.0209530091197229,-0.05264905564785,0.0038589760661125,-0.0004265275783836,-0.0034093498252332
1783205572279396400,6.599396240234375,0.0070656640699133,0.024577291430952,-0.0586368978857994,-0.0012939935550093,-0.0052614570595324,-0.0019608775619417
1783205572289333000,6.6093330078125,0.0017107859732583,0.0271714452431537,-0.0613397271037101,0.0015984652563929,-1.1567492038e-05,-0.0015821760753169
1783205572299269000,6.61926904296875,-0.0065401423584669,0.0186029023296199,-0.0514694904744625,-0.0031659239903092,-0.0015394808724522,-0.0025906774681061
1783205572309206300,6.629206298828125,-0.0089284257344901,0.0263756095571909,-0.0535632478833198,-0.001654845662415,0.0015870705246925,-0.0022415369749069
1783205572319143200,6.63914306640625,0.0007209346856921,0.0261543406224809,-0.0483136567920446,-0.0010108770802617,0.0016670231707394,-0.0026445109397172
1783205572329079000,6.6490791015625,0.0009112330934032,0.021026165687479,-0.0474170002132654,0.0004831561818718,-0.0009452714584767,-0.0018735259072855
1783205572339016200,6.65901611328125,0.0050616673037409,0.020757577879168,-0.0598351677596569,-3.85744497179e-05,0.0021488878410309,-0.0032229032367467
1783205572348953300,6.668953369140625,0.0085571812693029,0.0230029730526264,-0.0490565841138362,0.0001981807872653,-0.0008599516004323,-0.0032354202121496
1783205572358889500,6.678889404296875,0.0010969649238511,0.0205232850661035,-0.0533984127104282,-0.0018220674246549,-0.0023755221627652,-0.0042958077974617
1783205572368826600,6.68882666015625,0.0003464388174936,0.0183386619028635,-0.0560977347970008,0.0005473475903272,-0.0025188005529344,-0.0065760063007473
1783205572378762800,6.6987626953125,0.0034639497835189,0.0279239167114254,-0.0504161820292472,-0.001512493006885,0.0001568831503391,-0.0027659710031002
1783205572388699600,6.70869970703125,0.00548763763085,0.0325580427854787,-0.0478664975464344,-0.0019393973052501,0.0027625202201306,-0.0041209873743355
1783205572398636500,6.718636474609375,0.0124151718717068,0.0293140832950361,-0.0378349328756332,0.0003096843138337,0.0029197316616773,-0.003873195964843
1783205572408572700,6.72857275390625,-0.0009482041029259,0.0180805589559488,-0.0441097753614187,0.0005150139331817,-0.0007133525796234,-0.0030793077312409
1783205572418509800,6.738509765625,0.0132929045543074,0.0177004187982529,-0.0580208118140697,3.48035246133e-05,0.0006076018325984,-0.0030044228769838
1783205572428446700,6.74844677734375,0.0070586863398551,0.0225083579360973,-0.0566693972051143,-6.61294907331e-05,0.0013213288038969,-0.0024494200479239
1783205572438382600,6.758382568359375,-0.0017286869561299,0.0204463199729099,-0.0488759668499231,-0.0009745424613356,0.0037618172354996,-0.0069352318532764
1783205572448319700,6.76831982421875,0.0004706131864339,0.0260870018741581,-0.053061143580079,-0.0004182085394859,-0.001649459823966,-0.0043482375331223
1783205572458256000,6.778255859375,-0.0055131739309057,0.0115884113245178,-0.0532166264027357,-0.0005901409313082,-0.0005612107925117,-0.0014040208188816
1783205572468192800,6.78819287109375,0.0005532134359702,0.0282265437866561,-0.051416298982501,-0.0036881966516375,-0.0004179328680038,-0.0039284313097596
1783205572478129700,6.798129638671875,0.0042466976590454,0.0282214474864304,-0.0544049594044685,-0.0023154849186539,0.0004954235628247,-0.0022428373340517
1783205572488065800,6.808065673828125,0.0117281394556164,0.0199678431404288,-0.0532072740525007,-0.0006384924054145,-0.0002987310290336,-0.0029933161567896
1783205572498002700,6.818002685546875,-0.0109591643771156,0.0165582173600327,-0.0582967061460018,-0.0011637089774012,-0.0002207183279097,-0.0031986003741621
1783205572507939800,6.82793994140625,-0.0079801120337098,0.0161905896240379,-0.0485685083359479,0.0003556245937943,0.0013231160119175,-0.0032164435833692
1783205572517875700,6.837875732421875,0.0027590163845568,0.0260055067363195,-0.0463216061919927,-0.0006770770996809,-0.0001187031157314,-0.0013511741999536
1783205572527812600,6.8478125,0.0085826079715043,0.0190131179651711,-0.0440676897853612,-0.0008224854245781,0.0033942726440727,-0.0022840795572847
1783205572537749800,6.857749755859375,0.0070044719345867,0.0254365386087913,-0.0506400539129972,0.0007629506289958,0.0014823884703218,-0.0037863012403249
1783205572547685600,6.867685546875,0.0076864263167604,0.0230529770736582,-0.0570645340025424,-0.0016067307442426,0.0020605607423931,-0.0044531566090881
1783205572557622800,6.877622802734375,0.0073696519851684,0.0109370256105437,-0.0468809936404228,0.0006582932546734,0.000388047657907,-0.0013099646894261
1783205572567559700,6.8875595703125,0.0084589450592175,0.0229777838124427,-0.0546574728608131,0.002371771261096,-0.0008921339176595,-0.0038383696228265
1783205572577495800,6.897495849609375,0.0017174349097535,0.027609809260955,-0.04987023858428,-0.001541681587696,0.0012503731995821,-0.0047968453727662
1783205572587432700,6.9074326171875,-0.0117257283028215,0.0256082875796593,-0.0658750324457883,0.0004516942426562,-0.000168559141457,-0.0005770665593445
1783205572597368800,6.917368896484375,4.1281858459e-06,0.0235201379276812,-0.0540565843582153,0.0016686953604221,0.0008577955886721,-0.0016979775391519
1783205572607305700,6.9273056640625,0.0058906289411708,0.018305389820924,-0.0446317534089088,-0.0031867790967226,-0.0002940213307738,-0.0049920417368412
1783205572617243000,6.937242919921875,0.0089209365477785,0.0238075309011619,-0.0485147323220968,-0.0033195111900568,0.0011004977859556,-0.0002256778534501
1783205572627178800,6.9471787109375,0.0090710125429555,0.0217580418922938,-0.0467050525516271,0.0006435383111238,0.0039823041297495,-0.0022611317690461
1783205572637115600,6.95711572265625,0.0030001681966707,0.0258306250934489,-0.0426554848998785,0.0009141005575656,0.0033087565097957,-0.0029201316647231
1783205572647052800,6.967052734375,0.0123066334633156,0.0175181301670614,-0.0529758033841848,0.0007226187735795,0.0016333619132637,-0.0041848667897284
1783205572656988700,6.97698876953125,0.0083958897603675,0.0218478847333695,-0.0600093552827835,0.0012973463162779,-0.0018967259675264,-0.0047976365312933
1783205572666925600,6.986925537109375,-0.0043452991953119,0.0249400055298116,-0.0502811574727296,-0.0008776569738984,-0.0006873845122754,-0.0034908230882138
1783205572676862700,6.99686279296875,0.0019042261861264,0.0279444297764915,-0.0565700284838676,-4.32794913649e-05,-0.0012041288428008,-0.0040404433384537
1783205572686798800,7.006798828125,-0.0038658085826784,0.0265819823168683,-0.0556751254707574,-0.0008749850094318,-0.0009591178968548,-0.0050508463755249
1783205572696735700,7.01673583984375,0.0049442514691501,0.015769532934064,-0.0453483772456645,-0.0016995277255773,-0.0005313195288181,-0.0037967145908623
1783205572706671600,7.026671630859375,0.0059993500126525,0.0226731565763708,-0.0371101257324218,0.0004432518035173,0.0007097134366631,-0.0036659534089267
1783205572716608800,7.03660888671875,0.0069697294147685,0.0232728395025711,-0.0392032986193895,0.0014916295185685,-0.0011549098417162,-0.0022348216734826
1783205572726546000,7.0465458984375,0.0098968689078465,0.0175392825529444,-0.0541705661267042,-0.001768079586327,-0.0007037706673145,-0.0047507099807262
1783205572736481800,7.056481689453125,-0.0002469970310106,0.0303810914720408,-0.0493850854158401,0.0031315525993704,0.0004863669164478,-0.0025961331557482
1783205572746418700,7.066418701171875,0.002228124378249,0.0183330267465207,-0.0565723665714263,-1.79018825292e-05,-0.0003418759442865,-0.0040970905683934
1783205572756355800,7.07635595703125,-0.0028530513435602,0.0199136652677785,-0.0574772064566612,-0.0012812921777367,-0.0024864762090146,-0.0031925272196531
1783205572766291700,7.086291748046875,0.0065409460760653,0.0234102569455746,-0.0494014520287513,-0.0016240403056144,-0.0004009548574686,-0.0032705578487366
1783205572776228600,7.096228515625,0.0083106226297095,0.0285034062329679,-0.0513362194836139,-0.0002016061916947,0.0037155551835894,-0.0028221956454217
1783205572786165800,7.106165771484375,0.0095065178833901,0.0267283593844622,-0.0567161589562892,-0.0007520820945501,-0.0001297830604016,-0.0048922710120677
1783205572796102000,7.116101806640625,0.0118351800266653,0.0179138058206066,-0.05102642288208,-0.0010533137246966,0.0006071291863918,-0.001593941473402
1783205572806038500,7.12603857421875,0.0032702173097059,0.017536012883624,-0.0598544569820165,0.0006926544010639,0.0003346879966557,-0.0031902401242405
1783205572815975700,7.1359755859375,0.0078307666908949,0.0223230736302211,-0.0480289946317672,0.0002032592892646,0.0003242446109652,-0.0047503057867288
1783205572825911800,7.145911865234375,0.0072833984738215,0.0241318126857746,-0.0417395390987396,-0.0009600091725587,-2.35643237829e-05,-0.0011427878635004
1783205572835848700,7.1558486328125,0.0035144378617405,0.0140205703748855,-0.0408376218229532,-0.0017857076600193,0.0013738544657826,-0.0025143169332295
1783205572845784600,7.16578466796875,0.0041012613063678,0.0206267545737326,-0.0536988569617271,1.7519108951e-05,0.0030103668104857,-0.0055894693359732
1783205572855721700,7.1757216796875,0.0085921429848298,0.0228588884068187,-0.0471077881336212,6.62887468934e-05,0.0010605175048112,-0.0043332027271389
1783205572865659000,7.185658935546875,0.0099544077813625,0.019782823696034,-0.0572860677987337,0.0022729840129613,-0.0013829325325787,-0.0025116007309406
1783205572875594500,7.195594482421875,0.0072378422990441,0.0153876118112355,-0.0652168607980012,0.0028473325073719,0.0028293901123106,-0.0047408901154994
1783205572885531600,7.20553173828125,0.000260623697564,0.0187039698176085,-0.0568330633342266,-0.0022717956453561,-0.0002819807268679,-0.0028375287074595
1783205572895468800,7.21546875,0.0077543039212003,0.0295462298167869,-0.0538414803028106,0.0005727363750338,-0.0010312274098396,-0.0012743980623781
1783205572905405000,7.225405029296875,0.0066401321342214,0.0211081814151257,-0.0548924506604671,7.52573832869e-05,0.0006457651033997,-0.0048960307613015
1783205572915341600,7.235341552734375,-0.0008045213159173,0.0255185634695924,-0.055183542561531,-0.003213214688003,0.001863746671006,-0.0039128027856349
1783205572925278700,7.24527880859375,0.0001025470590218,0.0238613708470948,-0.0421563032060861,-0.0011964021250605,0.0011875699274241,-0.004616676364094
1783205572935214800,7.25521484375,-0.0012761574156582,0.0290576791148632,-0.0493295558363199,-0.0004245489835739,0.0024702516384422,-0.0014012032188475
1783205572945151700,7.26515185546875,0.0035617110695689,0.0181530488034244,-0.0536573559075593,0.001429277472198,0.0017250992823392,-0.0058353664353489
1783205572955088600,7.275088623046875,0.0136190312361344,0.0209110970736015,-0.0470680406451225,0.0001958264037966,0.0009213085286319,-0.002538250060752
1783205572965024800,7.285024658203125,0.0095904333071783,0.0205265456022694,-0.0502098458021879,-0.0020489515736699,0.0003479300066828,-0.0025084228254854
1783205572974961700,7.294961669921875,0.0073697615830227,0.0228566690502688,-0.0539566311150789,-0.0012723989784717,-0.0034420792944729,-0.004682820290327
1783205572984898800,7.30489892578125,0.0005165346873924,0.0111956034814938,-0.0493178653985261,-0.0011160718277096,0.0004621152766048,-0.0044138408266007
1783205572994834700,7.314834716796875,-0.0089704017126932,0.0086412610898725,-0.0329933380633592,-0.0034421700984239,0.0001252861693501,-0.0065359799191355
1783205573004771600,7.324771484375,0.0037524113360792,0.0229897665111813,-0.0422691159307956,0.0005685500800609,-0.0017975158989429,-0.0026347152888774
1783205573014708700,7.334708740234375,0.0174791041977703,0.0230211662964429,-0.0524433039426803,-0.0007195007055997,0.0007386384531855,-0.0047749830409884
1783205573024644600,7.34464453125,0.0041606633434072,0.0195312966203782,-0.0400227983087301,0.001303968951106,0.0011034915223717,-0.0046420916914939
1783205573034581800,7.354581787109375,0.0055483548421412,0.0302903261823579,-0.0392687650710344,2.72747129201e-05,-0.0004293741658329,-0.0057746833190321
1783205573044517600,7.364517578125,0.0050806642651557,0.013332980836369,-0.0518389083087444,0.001855001784861,0.0005826270207762,-0.0047525614500045
1783205573054454800,7.374454833984375,0.0083354282774031,0.0173543361737858,-0.0422527493178844,0.0001713735982775,0.0023058447986841,-0.0006458319257944
1783205573064391700,7.3843916015625,0.0120604766825214,0.0136755928621161,-0.0534662172496318,-0.0012994902208447,-0.0010928814299404,-0.0029832883737981
1783205573074327800,7.394327880859375,-0.0080632237398996,0.0210391256337519,-0.0510761072427034,-0.0002897828817367,-1.55996531248e-05,-0.0024636983871459
1783205573084264700,7.4042646484375,0.0006753054456785,0.0182634412421844,-0.0597515811294317,0.0013422025367617,0.0010515288449823,-0.0027332101017236
1783205573094201900,7.414201904296875,0.0101155896924436,0.023214761772938,-0.0462847813129425,7.102265954e-06,-0.0007771155796945,-0.0017114034853875
1783205573104137700,7.4241376953125,0.0016638050263747,0.0151402677203528,-0.0453928009092807,0.0015578605234622,9.85320657491e-05,-0.0028893195558339
1783205573114074600,7.43407470703125,0.0067132339030504,0.02826985320542,-0.0537701686322689,0.0001349309459328,0.0013223127461969,-0.003185563487932
1783205573124011800,7.44401171875,0.0019382380535826,0.0136553355253767,-0.0450830043077468,-0.0016403319314122,0.0010751713998615,-0.0036654651630669
1783205573133947600,7.45394775390625,0.0071705492164939,0.0211431065980345,-0.0456815547227859,0.0018025869503617,0.0009372504428029,-0.0015360134420916
1783205573143884500,7.463884521484375,0.0080806132661178,0.0182925760051235,-0.0610872136473655,0.0005820607766509,0.0024661710485816,-0.0027773128822445
1783205573153821700,7.47382177734375,0.0025699235532432,0.0149885660236701,-0.0606324556171894,0.0007029110565781,0.0013201916590332,-0.0048501472920179
1783205573163757800,7.4837578125,-0.002708126447536,0.0185044834564439,-0.0512041175365447,0.0010866727679967,0.001338833477348,-0.0031217557843774
1783205573173694700,7.49369482421875,0.00074932052996,0.025071696484927,-0.0429600208044052,-0.0005156770348548,0.0048780846409499,-0.0021388509776443
1783205573183631600,7.503631591796875,0.009741459150426,0.0159407156493514,-0.0457908603161573,0.0018500089645385,0.0044570388272404,-0.0017963683931156
1783205573193567700,7.513567626953125,0.0111583036784082,0.0187382100139278,-0.0493652116715908,0.0018482906743884,0.0043834331445395,-0.0059763849712908
1783205573203505000,7.5235048828125,0.0087048826443031,0.025981258211052,-0.0559399138867855,-0.0005221888422966,0.0009234542958438,-0.0016836357535794
1783205573213441500,7.533441650390625,0.0042182752821594,0.0209168052951805,-0.0571300004541873,0.0021264404058456,0.0010321410372853,-0.0024046259932219
1783205573223377700,7.543377685546875,0.0069506593881174,0.0226779423493426,-0.0556353779822587,-0.0010150242596864,-0.0032406351529061,-0.0035077072679996
1783205573233314800,7.553314697265625,0.0047068625167012,0.0126381304400041,-0.0562479569226503,0.0001336932182312,-0.0011647720821201,-0.0014039173256605
1783205573243250700,7.563250732421875,0.000219743697904,0.0253666699766647,-0.045323242804408,-0.001156342215836,0.0009529734961688,-0.0030433591455221
1783205573253187600,7.5731875,0.0038954000033438,0.0131850602656602,-0.0355909533411264,-0.0010173032060265,0.0022929657716304,-0.005319376476109
1783205573263124700,7.583124755859375,0.0014062866013497,0.0208665546789765,-0.0340817178219556,5.46192750334e-05,0.0049611870199441,-0.0034439784940332
1783205573273060900,7.593060791015625,-0.0019490882411599,0.0181297318599186,-0.0473667313307523,-0.0029016016051173,0.0079718818888068,-0.0015393170760944
1783205573282997500,7.60299755859375,0.0127287313329055,0.01976255722614,-0.0334130247801542,0.000764506869018,0.007528465706855,-0.0023968550376594
1783205573292934700,7.6129345703125,0.0189630956778302,0.0160371891606133,-0.0303816942602395,0.001719425432384,0.0091857612133026,-0.0047754039987921
1783205573302870800,7.622870849609375,0.0104733536215499,0.0054879390249494,-0.0514472786426544,0.000234980136156,0.0068544303067028,0.0002768790582194
1783205573312807700,7.6328076171875,0.0036067192550748,0.0231453680648468,-0.0452834953159093,-3.14395874738e-05,0.0055706803686916,-0.0024205427616834
1783205573322744600,7.64274462890625,0.0076534008299931,0.0231547295482363,-0.0484048422068357,6.23036175966e-05,0.0031892820261418,-0.0050003468059003
1783205573332680700,7.6526806640625,-0.0013596709806472,0.0276376197164878,-0.0576589927643537,0.001071685925126,0.0048692990094423,-0.0040232026949524
1783205573342617900,7.662617919921875,0.0059430897807702,0.0185788730000611,-0.0450765745669603,0.0027492111548781,0.002598688006401,-0.0014157018158584
1783205573352554800,7.6725546875,0.0102289869390428,0.0109571094173472,-0.0556786326020956,0.0014457562938332,0.0029368852265179,-0.0026400997303426
1783205573362491400,7.682491455078125,0.008154847546108,0.0152960519371088,-0.0520879146337509,-0.0021236790344119,-0.0043191630393266,-0.0026781829074025
1783205573372428500,7.692428466796875,0.0111254608547315,0.0188622473855502,-0.0589753360599279,-0.0002168621867895,-0.001725498586893,-0.0012698688078671
1783205573382365400,7.702365478515625,-0.0037147096741944,0.0258961280777119,-0.0516489386945962,0.0001868726685643,-0.0003220126964151,-0.0010818496812134
1783205573392301300,7.71230126953125,0.0060747898690402,0.0324869594438001,-0.0489589689582586,-0.0018466226756572,0.0001497203484177,-0.0007943041273392
1783205573402238500,7.722238525390625,0.0089791330084204,0.0308006503246724,-0.0434177014440298,-0.0009547304362058,0.0016988811548799,-0.0018800748512148
1783205573412175400,7.73217529296875,0.0033840164151042,0.0189701830057427,-0.0365168360143899,-7.9460442066e-06,0.0037562004290521,-0.0028039622120559
1783205573422111200,7.742111328125,0.0047510669846087,0.0185080636530183,-0.0414431865006685,-0.0001323157921433,0.0014629522338509,-0.0014428206486627
1783205573432048400,7.75204833984375,0.0177941249636933,0.0230603383962064,-0.0541571221232414,-0.0009238431230187,0.0009266156703233,-0.0017779029440134
1783205573441985300,7.7619853515625,0.0121797191480174,0.0154801489328965,-0.0514589690804481,-0.0001949360594153,-0.0010960549116134,0.0003342500422149
1783205573451921400,7.77192138671875,0.0132220312751829,0.0096601558088324,-0.0546066194564104,-0.0019305292516946,0.0004882183857262,0.0008907362353056
1783205573461858300,7.7818583984375,0.0110689083619043,0.01631347621819,-0.0549018030107021,-0.0008913641795516,-0.0034878812730312,-0.0061176382005214
1783205573471795200,7.791795166015625,-0.0032567002410069,0.0215863294540438,-0.0489262357324361,0.0008512679487466,-0.0005469745956361,-0.0045731682330369
1783205573481731300,7.8017314453125,-0.0004455883430317,0.0257226346743293,-0.0493798247188329,0.0009711105376482,0.0008527832105755,-0.0002239597961306
1783205573491668500,7.81166845703125,-0.0040567280448973,0.0147779372139833,-0.048480830052495,-0.0003584818914532,-0.0002093855291604,-0.0032427078112959
1783205573501605400,7.82160546875,0.0077528791490942,0.0263850806384347,-0.0439835186332464,-0.0013145562261343,0.0011685341596603,-0.000645326799713
1783205573511541200,7.831541259765625,0.0073335212258622,0.0234192439696285,-0.0477186135083436,0.0011993693187832,0.0002567684277892,-0.0016420829342678
1783205573521478400,7.841478515625,0.0081340970190241,0.0223712510203476,-0.0387374346733093,0.0002811113372445,0.0004096338525414,-0.0030623467173427
1783205573531415600,7.85141552734375,0.0092395375102758,0.0258278486144728,-0.04367839820683,-0.0001977114006876,-0.0014872732572257,-0.0017422531964257
1783205573541351400,7.861351318359375,0.00283705005683,0.0175887751173228,-0.0544610735058784,0.0013810107484459,4.8954971134e-06,-0.0021049757488071
1783205573551288300,7.871288330078125,0.0026143106842413,0.0224949778647162,-0.0531248564660549,-0.0019867857918143,-0.0043603545054793,-0.0012804509606212
