time,seconds_elapsed,ax,ay,az,gx,gy,gz
1783197554474609000,0.09860888671875,0.0074875427437946,0.0042009953537955,-0.0842266816943883,-0.0004495149478316,0.0043517164885997,0.0020033586770296
1783197554484545300,0.108545166015625,-0.003267148569785,0.0029206549533642,-0.0548994649231433,0.0031994134187698,-0.0034163622185587,-6.11706636846e-05
1783197554494482200,0.118482177734375,0.0040568741753697,0.0043714200172573,-0.0545943444967269,0.0004057576879858,0.0018204781226813,0.0009542927145957
1783197554504420400,0.12842041015625,-0.0082044588414952,-0.0046142340634949,-0.0707552057027816,-0.0011701025068759,0.000876095611602,-0.0001229397021234
1783197554514357200,0.138357177734375,0.0041311084553599,-0.0104480547835119,-0.0726964028984308,7.62566924095e-05,-0.0021662996150553,0.0015649716369807
1783197554524295400,0.14829541015625,0.008495514209941,-0.0113466658573597,-0.0436532637655735,0.003273463808,-0.0002557034604251,-0.0022490315604954
1783197554534232000,0.158232177734375,-0.0063081602334976,-0.0091057185301557,-0.0577186139971017,-0.0016720267012715,-0.0017132516950368,0.0004277115222066
1783197554544169200,0.168169189453125,-0.0036442382538691,-0.0033858065133914,-0.0642985769093036,-0.0012673307210206,-0.0022161388769745,0.0002836070489138
1783197554554107100,0.178107177734375,-0.0048106151521205,-0.0058171070472337,-0.0514291584640741,0.0022730752825737,0.002754385350272,0.0012921460438519
1783197554564044300,0.188044189453125,-0.0009594196166843,-0.007054813882336,-0.0496416905254125,-0.0012327218428254,0.0025161101948469,-0.0026251366361975
1783197554573982200,0.197982177734375,-0.0037879941061139,-0.0052356356311589,-0.0580149665951728,-0.0005914326757192,-0.0033263326622545,0.0009080790914595
1783197554583919400,0.20791943359375,-0.0067690922761335,-0.0109213348510675,-0.0696779318600893,0.0008422592654824,-0.0006744479760527,0.0014470168389379
1783197554593856300,0.217856201171875,-0.0063052376240491,-0.0044548057180829,-0.051416298982501,0.0026723835617303,0.0013873712159693,-0.0018981797620654
1783197554603794400,0.22779443359375,0.0048011897366493,-0.0117161567568778,-0.0479752186179161,-0.0004762718454003,-0.0020624878816306,-0.0005085421726107
1783197554613731000,0.23773095703125,0.0045496626609936,-0.0095042345947586,-0.0651812049627304,0.0014768904075026,0.0008970834314823,-0.0011186725459992
1783197554623669200,0.247669189453125,0.0023486820179969,-0.0031257125387899,-0.0642874709933996,0.0039530145004391,6.79022632539e-05,0.0006384190637618
1783197554633606100,0.257606201171875,0.0020479455057531,0.0086973934575915,-0.0568014991521835,1.8460676074e-05,-0.0001866961829364,-0.000650018453598
1783197554643544300,0.26754443359375,0.0065218395167961,0.0012388393462635,-0.0572509964853525,0.0003399094566702,0.0005916701629757,-0.0015144413337111
1783197554653481200,0.277481201171875,0.0041204774634912,0.0015526362694799,-0.060094110956788,-0.0016670487821102,-0.0007593515329062,-0.0005290717817842
1783197554663418400,0.28741845703125,-0.0011777020098641,-0.0053221083382144,-0.0527566076755523,0.0004177587106823,-0.0015525678172707,-0.0019466099329292
1783197554673356300,0.297356201171875,-0.0032663083195686,-0.0088604385321959,-0.0579839869350194,0.0001186858862638,-0.0006364407017827,-0.0013260934501886
1783197554683293400,0.30729345703125,0.0008617313958704,-0.0130658178001642,-0.0593260491937398,0.0001406203955411,-0.0022862805053591,-0.0030788446310907
1783197554693231400,0.3172314453125,0.0036988545179367,-0.0088685487734153,-0.0588771363824605,-0.0015622051432728,0.0004277476109564,-0.0001000990159809
1783197554703168300,0.327168212890625,0.0014031082635745,-0.0152289871834218,-0.0624696079164743,-0.0014332188293337,-0.0015338733792304,0.0005372972227632
1783197554713105200,0.337105224609375,-0.0037395518545061,-0.0101688725159503,-0.0588695375978946,0.00225898809731,0.0001646908931434,-0.0005452777259051
1783197554723043300,0.347043212890625,0.0024618600688874,-0.0175136823208071,-0.0518295559585094,0.0013916892930865,-0.0006127920933067,0.0020464991685003
1783197554732980200,0.356980224609375,0.0075286784717813,-0.0154481098268181,-0.0693266342043876,0.0039326110854744,0.0010727224871516,0.0002587190829217
1783197554742918100,0.366918212890625,0.005067914381437,-0.0170734277400188,-0.0549526564151048,-0.0007384046912193,-0.0001401668414473,0.0018970677629113
1783197554752855300,0.376855224609375,-0.0005234028195962,-0.0113181156163103,-0.0622732085615396,-0.0012870151549577,-0.0022733588702976,-0.0030665316153317
1783197554762793200,0.386793212890625,-0.0022498978186398,-0.0058893868321552,-0.0559837530285119,0.0002617910504341,-0.0009414795786142,-3.15422657877e-05
1783197554772730400,0.39673046875,0.0041175183214247,-0.0033661519648507,-0.0619733488321304,-0.0004474082961678,0.0016692173667252,-0.0007774936966598
1783197554782667300,0.406667236328125,-0.0053032209746539,0.0017895868305116,-0.0591319879263639,-0.0020233793184161,0.0009954054839909,-0.0006814044900238
1783197554792605200,0.416605224609375,-0.0041317295098677,-0.0014131547335535,-0.0577840804487466,0.0020251581445336,0.0020734528079628,-0.0023698485456407
1783197554802542300,0.426542236328125,-0.0042529812693595,-0.0083271536394022,-0.0600245528519153,0.0015723407268524,-0.0004661586135625,0.0006480612792074
1783197554812480300,0.436480224609375,-0.009743541509658,-8.95962459035e-05,-0.0532844309419393,9.77488234639e-05,0.0011344011873006,0.0012984052300453
1783197554822417200,0.446417236328125,-0.0056710313737392,-0.0047620633026584,-0.0574777909785509,-0.0007439972832798,-2.80477106571e-05,0.000951912254095
1783197554832355300,0.456355224609375,0.0033189152896404,-0.0052531712878495,-0.0541863482177257,-0.0003306744620203,-0.0002387035638093,-0.0026505459100008
1783197554842292200,0.466292236328125,0.0064421253440901,-0.0020337343173101,-0.0543348167777061,-1.28662213683e-05,-0.0022162068635225,0.0025857496075332
1783197554852229400,0.4762294921875,-0.0004825958851724,-0.0002008198017254,-0.0567307720035314,0.0003618402406573,0.0004892982542514,0.0010722749866545
1783197554862167300,0.486167236328125,0.0023361513299867,-0.0027766981717199,-0.0541886863052845,-0.0012396937236189,0.0026956205256283,0.0001910235732793
1783197554872104200,0.496104248046875,-0.0003302548676729,-0.0058294550721533,-0.0628641601920127,0.0013382462784647,-0.0003246706910431,0.0016802630852907
1783197554882042000,0.5060419921875,0.0054258244410157,-0.0025371537948027,-0.0574772064566612,-0.0023167664185166,-0.0009815655648708,0.0022613764740526
1783197554891979300,0.515979248046875,0.0126910662036389,-0.0074105867837555,-0.0568757334321737,-0.0004687998443841,-0.0003035250119864,0.0005364469252526
1783197554901917200,0.525917236328125,0.0025185221595689,-0.0013230652973055,-0.0534352375894784,-4.6966597437e-06,0.0001259041018784,-0.001729390467517
1783197554911854300,0.535854248046875,-0.0037578546961769,-0.001419566208031,-0.0687000267386436,0.0006717462092638,-0.0023313947021961,0.0003073951229453
1783197554921791200,0.545791259765625,0.0028488866250962,-0.0078754278165288,-0.0600081862390041,0.0035549709573388,-0.0008683814667165,-0.0008644345216453
1783197554931729400,0.5557294921875,-0.0002260638408362,-0.0011460830288939,-0.0598550415039062,-0.0003968942910432,-0.0001871446147561,-0.0017323585925623
1783197554941666300,0.565666259765625,-0.0059201838292181,0.0006109349725767,-0.0629986002266407,8.97580757737e-05,0.0007794983685016,0.0025844953488558
1783197554951604200,0.575604248046875,-0.0091168244460597,-0.0103204098158515,-0.054929860061407,0.0008173342794179,0.0020679356530308,0.0016396057326346
1783197554961541000,0.585541015625,-6.08268091455e-05,-0.0117973870332352,-0.0672001435697078,0.0006911009550094,0.0012579718604683,0.0031557078473269
1783197554971479300,0.595479248046875,0.0008302402790635,-0.0091932506831362,-0.0525432571858167,-0.0018327767029404,0.0011043078266084,-0.0001828309614211
1783197554981416200,0.605416259765625,0.0031839272657409,-0.0079546305325813,-0.055545361611247,0.0005807587876915,0.0015769321471452,-0.0011391714215278
1783197554991353300,0.615353271484375,0.0054781391501426,-0.0087687964596785,-0.060329088756442,-0.0007657352834939,-0.0019363104365766,-0.0003295703791081
1783197555001291300,0.625291259765625,0.0046930531870573,-0.0093623601723462,-0.049099838733673,-4.70830127596e-05,-0.0013998071663081,0.0005918957758694
1783197555011228400,0.635228515625,0.0034294264594092,0.0012999766826629,-0.049547582501173,0.0026424434036016,0.0022457938175648,0.0001668552868068
1783197555021166300,0.645166259765625,0.0038948520140722,0.0010621128061786,-0.0637690000772476,-0.0011876206845045,-0.0007472611032426,0.0019327653571963
1783197555031103200,0.655103271484375,-0.0049913054812699,0.0052409693934023,-0.0494078817695379,0.0001394320279359,0.0014080349355936,0.0013860180042684
1783197555041041200,0.665041259765625,-0.0011145371131598,-0.005333743977081,-0.0579366406619548,-0.0007221344858407,0.0018468229100108,0.0003237626515328
1783197555050978300,0.674978271484375,0.003786313605681,-0.0126894770347513,-0.0592857171833515,-0.0011644857004284,-0.0002978206612169,0.0027887844480574
1783197555060915200,0.684915283203125,-0.0049903556331992,-0.0063079045051708,-0.0601905570685863,-0.0006423387676477,-0.0002060821279883,0.003117207204923
1783197555070853000,0.69485302734375,-0.0072807315926998,-0.0058898617561906,-0.0658802931427955,-0.0020008170977234,0.0027047528419643,7.40131363272e-05
1783197555080790300,0.704790283203125,-0.0003800122935324,-0.0017706081354059,-0.0565998391002416,0.0016480442136526,-0.0015410487540066,2.87117436528e-05
1783197555090728200,0.714728271484375,0.0011461743604391,-0.0150660517066717,-0.0552419947504997,0.0001271134242415,-0.0001388941891491,-0.0040214234031736
1783197555100665300,0.724665283203125,-0.0015712679047137,-0.0168426146588288,-0.0564402646243572,0.001218962483108,0.0007347045466303,0.0014888911973685
1783197555110603300,0.734603271484375,0.0047596521498635,-0.021763302589301,-0.0568944381326436,0.0008067050948739,0.0006923605687916,0.0008707719389349
1783197555120540200,0.7445400390625,-0.0023079481488093,-0.0099709570573642,-0.0552472554475069,-0.0015697674825787,0.0010634451173245,0.0006684574764221
1783197555130477300,0.754477294921875,-0.007234006374143,0.0106926771943457,-0.057345104509592,-0.0009351363405585,0.001597408670932,-0.0014274499844759
1783197555140415200,0.764415283203125,-0.0031859365597367,0.0042070232357829,-0.0578033696711063,8.9400447905e-05,0.0017395848408341,0.002022870350629
1783197555150352100,0.77435205078125,-0.0041658875077962,-0.0032434936995618,-0.0512146389305591,-0.0006863782182335,-0.0024152132682502,-0.0006232464220374
1783197555160290300,0.784290283203125,-0.0009209507698193,-0.0096859661035239,-0.0578016161054372,0.0007968042045831,0.0033156857825815,0.0008726106025278
1783197555170227200,0.794227294921875,-0.0109532826256006,-0.0132878813193179,-0.0582511134386062,-0.0008820528164505,-0.0010492349974811,0.0002949710469692
1783197555180165400,0.804165283203125,-0.0068322571728378,-0.0108103852898813,-0.0678249974697828,-0.0003776028752326,-0.0003394288942217,0.0003573056310415
1783197555190102300,0.814102294921875,-0.0037900764653459,-0.0007343786891549,-0.0565980855345726,0.0018338859081268,0.0010179844684898,0.0024540126323699
1783197555200039200,0.8240390625,-0.0042684710994362,-0.0047342802465893,-0.0525549476236104,0.0002484954893589,-0.0007435050792992,0.0004037972539663
1783197555209977000,0.83397705078125,-0.0075591466752812,-0.0108967118664644,-0.0553986466169357,0.0003947028890252,0.0005092457868158,0.0013398979790508
1783197555219914200,0.843914306640625,0.0045522564768791,-0.0019215061144903,-0.0574941575914621,-0.0001596398651599,0.0041340515017509,0.0003566280938684
1783197555229852200,0.85385205078125,0.0005935819789767,-0.0139641183467581,-0.0666325728148222,0.0006142742931842,0.0028698488604277,-0.0001991738099604
1783197555239789300,0.863789306640625,-0.0048223421225324,0.0046052105068229,-0.0480786789923906,5.15589490532e-05,0.0015057274140417,-0.0017853275639936
1783197555249727200,0.873727294921875,-0.0076750646725296,0.0049051981003955,-0.0582546205699443,0.0002454370260238,-0.0012069684453308,0.0025162103120237
1783197555259664400,0.883664306640625,-0.001608092783764,-0.0009149959530681,-0.058557402908802,-0.0012887055054306,0.000191084574908,0.0017866890411823
1783197555269602300,0.893602294921875,0.001393244456686,0.0045138789615593,-0.0578109684556722,-0.0025656912475824,-0.0020536938682198,0.0001400567125529
1783197555279539500,0.90353955078125,-0.008418247722648,0.0028867344174534,-0.0525648844957351,-0.0016295108944177,-0.0022132182493805,-0.000361792044714
1783197555289476000,0.91347607421875,0.007210442835465,0.0154073028923943,-0.0519639959931373,-0.0017869034782052,0.0004491433501243,0.00192133593373
1783197555299414300,0.923414306640625,0.008818535619229,0.0057158568961545,-0.0471890366762876,0.0007843421772122,0.0027824353892356,0.000224465271458
1783197555309351200,0.93335107421875,0.0120023532871156,-0.0016569003615528,-0.0558715248256921,0.0011856807395815,0.0008953195065259,0.0004622854758054
1783197555319289000,0.9432890625,0.0107909316707402,-0.0100317473338916,-0.0521276621222496,0.0014305626973509,0.0001466674730181,0.0003929832018911
1783197555329226200,0.953226318359375,-0.000997450072132,-0.0002996040010824,-0.0614028554677963,0.0012633167207241,-0.0013817204162478,0.0004574321210384
1783197555339164200,0.9631640625,-0.0005779094858095,-0.0049959451237693,-0.0636468350023031,0.0006388537585735,-0.0009461399167776,0.0009793757926672
1783197555349101300,0.973101318359375,0.0039365357313305,-0.0089276402832008,-0.0563227757245302,-0.0011055171489715,0.0002924962900578,-0.0014044195413589
1783197555359038500,0.98303857421875,0.00560892592296,0.0020293686694465,-0.0528740965753793,-0.0010017976164817,0.000168536324054,-0.0001184260472655
1783197555368976400,0.992976318359375,0.0042512642363086,0.0090066786024719,-0.0576642534613609,0.0003151353448629,0.000743512995541,-2.25524418056e-05
1783197555378913300,1.002913330078125,0.0033696225635707,8.23627875186e-05,-0.0552718053668737,0.000387966632843,-0.0005240365862846,-0.0011752338614314
1783197555388851200,1.012851318359375,-0.0046001142065972,-0.0041202034688554,-0.0573690699070692,-0.0016530798748135,-0.0005964743904769,-0.0006308837328106
1783197555398788000,1.0227880859375,0.0022093100799247,-0.0014130268693901,-0.0527379029750823,-0.0003010360524058,0.0031908403616398,0.0015224635135382
1783197555408726300,1.032726318359375,0.0173306356377899,-0.0082125142837874,-0.0578267505466938,-0.0007591005414724,-8.00541602075e-05,0.0014090130571275
1783197555418663200,1.0426630859375,0.002278722054325,-0.0065881827512755,-0.0507867689073085,5.65014779567e-05,-0.000859095249325,-0.0003323799464851
1783197555428601300,1.052601318359375,0.0029356515930965,-0.0063692245046608,-0.0552747279763221,-0.0017123697325587,0.0004796758294105,-0.0012839275877922
1783197555438538200,1.062538330078125,0.0048384530071169,0.0002486044662073,-0.0596194791823625,0.0005181618034839,0.0011018263176083,0.0022539647761732
1783197555448475400,1.072475341796875,-0.005024623228982,-0.008026270996686,-0.0573754996478557,-0.0010483097285032,-0.0005264300853013,0.0007817691657692
1783197555458413300,1.082413330078125,-0.0074496584188193,-0.0107507823234423,-0.0675450114846229,-0.0021911039948463,-0.0012545143254101,0.0002201423048973
1783197555468350200,1.09235009765625,0.0024584625354036,-0.00941010830421,-0.0560123946011066,0.00139004830271,-0.0022590588778257,-0.0006547060329467
1783197555478289000,1.102288818359375,-0.005299786908552,0.0011134776672348,-0.0607937836587429,-0.0016747610643506,-0.0019137659110128,0.0006186796817928
1783197555488226000,1.11222607421875,-0.0019798852382227,-0.0089126619097776,-0.0613823972016572,0.0012765536084771,-0.0020088399760425,0.0001877802424132
1783197555498164000,1.1221640625,-0.00314133023303,-0.0021458711885847,-0.0636240386486053,6.74175098538e-05,0.0001267287880182,-6.04349188506e-05
1783197555508100900,1.132100830078125,-0.0028161899318918,0.0014609759306535,-0.0678203212946653,-0.0010236790403723,0.0016452632844448,-0.0006489935331046
1783197555518039000,1.1420390625,-0.0034962080853059,0.0057408634732477,-0.0604945084512233,0.0006828857585787,0.0005322792567312,0.0001683353912085
1783197555527975700,1.1519755859375,0.002094707256928,0.0149114821994677,-0.0522603485912084,6.52987509965e-05,-0.0008752015419304,0.0016631679609417
1783197555537912800,1.161912841796875,0.0037847427031025,0.0035719036700204,-0.0525479333609342,-0.0030903220176696,7.44308345019e-05,-0.0023870188742876
1783197555547850800,1.171850830078125,-0.0025782164575532,0.0005120777079835,-0.0497024808019399,-0.000641812570393,-0.0008334405720233,-0.0001310550142079
1783197555557788000,1.181787841796875,-0.0020613895092159,-0.0056909781832247,-0.0589741670161485,0.0022397991269826,-0.001138012856245,-0.0001765256747603
1783197555567725800,1.191725830078125,0.0062632251132279,-0.0094505681787617,-0.0665969169795513,0.0014805318787693,-0.0019284393638372,0.0009111093822866
1783197555577663000,1.2016630859375,0.0077125106060877,0.0069970740794204,-0.054616556328535,0.0002460908144712,-0.0006895782425999,-0.0003424438182264
1783197555587601000,1.211600830078125,0.0120569330185651,0.0054374052809551,-0.0535667550146579,0.0023635700345039,-0.0004839822649955,-0.0002993007656186
1783197555597537800,1.221537841796875,0.0035864801846444,0.0020722944957204,-0.0568535216003656,0.0004304843023419,-0.0009684362448751,0.0031452807597815
1783197555607475700,1.231475830078125,-0.0042051966048777,-0.0012400266563519,-0.0528109682112932,0.0025879107415676,0.0023024582769721,-0.0017629250651225
1783197555617412900,1.241412841796875,-0.0008722527898848,-0.0058514477082528,-0.0511667081356048,0.0035618478432297,0.0006293021142482,-0.0030124683398753
1783197555627349800,1.251349853515625,-0.0060998877776786,-0.011647932092566,-0.0659790773421526,-0.0005783019587397,-0.0004966822452843,-0.0006920560263097
1783197555637288000,1.261287841796875,-0.0013079042607918,-0.0030808322174474,-0.064182257053256,-0.000214796513319,0.0002476526424288,0.0016965307295322
1783197555647224800,1.271224853515625,0.0104641839344054,-0.0085498016804456,-0.0611824907153844,0.000702928751707,0.0007264888845384,-0.0012228263076394
1783197555657163000,1.2811630859375,0.0210207223273813,0.0005643558844923,-0.0548971268355846,-0.0005057649686932,-0.0005780258215963,0.0018991034012287
1783197555667100000,1.291099853515625,0.0055083516253158,0.0046350211231969,-0.0562403581380844,0.001564310863614,-0.0023977635428309,-0.000149134080857
1783197555677038000,1.3010380859375,-0.0097211835473775,0.0072240329694002,-0.0509960277438163,0.0002098437398672,0.0023416741751134,0.0018884732853621
1783197555686974700,1.310974609375,-0.0072588485544547,0.0084555292594246,-0.0472673626095056,0.0013874936848878,0.0007232711650431,-0.0007099732756614
1783197555696912600,1.32091259765625,0.0019179989831522,0.0301557765498757,-0.055349546778202,0.000792883336544,0.0002997196279466,-0.0001586680300533
1783197555706849800,1.330849853515625,-0.0023695056103169,0.0396121168822981,-0.0562573092728853,0.0039332835003733,0.0038877965416759,0.0011348291300237
1783197555716787700,1.34078759765625,0.0092885277511551,0.0355365380064584,-0.0564092849642038,0.0024210503324866,-0.000563443172723,-0.0036070880014449
1783197555726724900,1.350724853515625,0.0102428693339228,0.0090787757243029,-0.0587964723616838,-0.0001395791769027,-0.0009179101325571,-0.0025375625118613
1783197555736662000,1.360662109375,0.0023162410531193,-0.0263901586723513,-0.061647770139575,-4.61535528302e-05,0.0013637063093483,0.000227155862376
1783197555746600000,1.370599853515625,0.0134739602096378,-0.0318562237922102,-0.0514659833431243,0.0014705164358019,0.0008300091139972,-0.0008524896111339
1783197555756537000,1.380537109375,0.0185541130181401,-0.0309597681428305,-0.0469768552303314,-0.0017538797110319,0.0010412354022264,-0.0001407940872013
1783197555766475000,1.39047509765625,0.0165553404163569,-0.0285846730419434,-0.0599906505823135,-0.000729096122086,0.0009536175057291,0.0002653379924595
1783197555776411600,1.40041162109375,-0.0072172013698145,-0.0172936646282672,-0.0510129788786172,4.40124422311e-05,-0.0007165493443608,0.0015928046777844
1783197555786349800,1.410349853515625,-0.0390150825709104,-0.0146775821120478,-0.0468295557141303,-0.001179177314043,0.0013998644426465,-0.0008008445147424
1783197555796286700,1.42028662109375,-0.044014242565073,-0.0348398609791882,-0.0496785154044628,-0.0006152223795652,-0.0006908145733177,-0.0036915356758981
1783197555806225000,1.430224853515625,-0.0292349719105288,-0.0550551304088905,-0.059116790357232,0.0011243550106883,-0.0019747246988117,-0.0002198389265686
1783197555816161800,1.440161865234375,-0.0073711863551288,-0.0230540730522014,-0.0730289958536624,-0.0004570242017507,0.0015372578054666,0.0003607736434787
1783197555826099000,1.450098876953125,0.0202946000099182,-0.0170249306894838,-0.0483469745397567,0.0002087661996483,-0.0016374965198338,0.0014081948902457
1783197555836036900,1.460036865234375,0.034959012113139,0.0168889014859683,-0.0561345596760511,0.0026763239875435,0.0010738628916442,0.000321083003655
1783197555845974000,1.46997412109375,0.0293192891931161,0.0269646340920589,-0.0516290649503469,0.0006725611165165,-0.0026745367795228,0.0007075078319758
1783197555855912000,1.479911865234375,0.0173044417506083,0.020808869674988,-0.0692810414969921,0.0006245663389563,-0.0011344845406711,0.0006184754893183
1783197555865848800,1.489848876953125,-0.0099603260654956,-0.0111581575479358,-0.0564040242671966,-0.0008244598284363,0.0019936645403504,-0.0012880815193057
1783197555875786800,1.499786865234375,-0.0137056866062805,-0.035937045098748,-0.0555085367321968,-0.0034246873110532,-0.0005276356823742,0.0008033898193389
1783197555885724000,1.509723876953125,-0.0189152744807302,-0.0684676975538022,-0.0492237573742866,-0.0015996219590306,-0.0006698481738567,0.0010912774596363
1783197555895661800,1.519661865234375,-0.0271571792557835,-0.0693188344904221,-0.0522112487524747,0.0002385508269071,-0.0006490270607173,0.0027192183770239
1783197555905599000,1.529598876953125,-0.0220348678059875,-0.0483371472654864,-0.0623877748519182,-0.0020155487582087,-0.0018716841004788,8.6531508713e-06
1783197555915537000,1.539536865234375,-0.0034009675499051,-0.0157595321298576,-0.0629828181356191,-0.0003356765955686,-0.0005380515940487,-0.0008070976473391
1783197555925474000,1.54947412109375,0.007883812052384,0.0150740888826549,-0.061785717305541,-0.0018595373257994,-0.0010698847472667,-0.0002611496020108
1783197555935411000,1.559410888671875,0.0264796818530187,0.0258480694185942,-0.0634364071220159,-0.0010336050763726,0.0018704910762608,0.0012917001731693
1783197555945348900,1.569348876953125,0.018920023721084,0.0357635882279835,-0.0590875642627477,0.0001198099926114,-0.0012688431888818,0.0009188577532768
1783197555955285800,1.57928564453125,0.008947093902342,0.0203456726100295,-0.0617746113896369,0.0005217464640736,0.0020536449737846,0.0008901993278414
1783197555965223700,1.5892236328125,0.0100781072262674,0.0120934108377434,-0.0560889669686555,-0.0002939803525805,0.000753756146878,0.0012657053302973
1783197555975160800,1.599160888671875,0.0091501056611537,-0.0109951124733313,-0.0445487513005733,-0.001310545951128,-0.0034476686269044,-9.70289111137e-05
1783197555985098800,1.6090986328125,0.0047838367430493,-0.0364798284722492,-0.0440939932703971,-0.0022644903510808,-0.0002516089007258,0.0001178882084786
1783197555995036000,1.619035888671875,-0.0095083810469135,-0.0442934248326346,-0.0458779540777206,-0.0005638087168335,-0.0009597293101251,0.0026564924046397
1783197556004973800,1.628973876953125,-0.0164018303550779,-0.0324639073617756,-0.057246320310235,-0.0006064195185899,-0.0001868801191449,0.0002175695262849
1783197556014911000,1.638910888671875,-0.0240536602824926,-0.0078990278878249,-0.052013095831871,-0.0006276601925492,-0.0007473528385162,0.0031752258073538
1783197556024849000,1.648848876953125,-0.0091379768319427,0.0091329901295714,-0.0609901830136775,-0.0013445829972624,-0.001192633062601,0.0029453949537128
1783197556034786000,1.6587861328125,0.0086918404996395,0.0176908107196912,-0.0571013588815927,-0.0015861196443438,0.0010110451839864,0.0012377027887851
1783197556044722700,1.66872265625,0.0259779063433408,0.0147654247922822,-0.06143325060606,-0.0010353783145546,-0.0052098329178988,0.0030920619610697
1783197556054660900,1.678660888671875,0.0217849846981465,0.0099546269770711,-0.0567822099298238,-0.0011409278959035,-0.0030565992929041,0.0011319392360746
1783197556064597800,1.68859765625,0.0234265413600951,0.0199812049455009,-0.0546826073020696,-0.0015305476263165,-0.0028552641160786,0.0010238150134682
1783197556074536000,1.698535888671875,0.0039096477244049,0.0218706719539128,-0.0573643937319517,-0.0030947895720601,-0.0026029427535831,9.00151208043e-05
1783197556084472800,1.708472900390625,-0.0230932908177375,0.0271063623839989,-0.0621481208771467,0.0002698479220271,0.0028181883972138,0.0013329121284186
1783197556094411000,1.718410888671875,-0.0268008766314014,0.005100519743096,-0.0639420185565948,-0.0004335166886448,-0.0010125786066055,0.0003391080535948
1783197556104348000,1.728347900390625,-0.0289864405095577,0.0214666759965941,-0.0606575900584459,0.0012232363224029,0.0047236043028533,0.0010674828663468
1783197556114285800,1.738285888671875,-0.0002334434296935,0.019449965879321,-0.0593330634564161,0.000746788457036,0.0039383759722113,-0.0013290885835886
1783197556124222700,1.74822265625,0.0289485927172005,0.0227502130011096,-0.0466220504432916,-0.0021193055436015,-0.0003269426524639,0.000477067194879
1783197556134160600,1.75816064453125,0.0523581464098766,0.0378111136086285,-0.0530541293174028,0.000460909679532,-0.0017315801233053,-0.0002871735487133
1783197556144097800,1.768097900390625,0.0438770625840872,0.0448212846316397,-0.0615858108192682,0.0022241882979869,0.0018301317468285,-0.0015918561257421
1783197556154035700,1.77803564453125,0.0352587257120758,0.0303138166557997,-0.0532107811838388,0.0023170197382569,-0.0012896978296339,-0.0004342687316238
1783197556163972900,1.787972900390625,0.01816383505892,0.0193318559249863,-0.0539542930275201,1.09886750578e-05,-0.0002816910855472,0.0003966374788433
1783197556173910000,1.797909912109375,-0.0082888126567006,-0.0184954051008448,-0.0534907671689987,0.0014085657894611,-0.0010319547727704,-0.0028105890378355
1783197556183848000,1.807847900390625,-0.0303326674867421,-0.0349241782617755,-0.053342883130908,8.87028872966e-05,-0.0007826830260455,-0.0014212178066372
1783197556193784800,1.817784912109375,-0.0385658774986863,-0.0435209426227957,-0.0605354249835014,-0.0012934328988194,0.0008201776072382,-0.0010596120264381
1783197556203723000,1.827722900390625,-0.0156878003342077,-0.025242194213625,-0.0581540828049182,-0.0014340477064251,0.0018372391350567,-0.000380239682272
1783197556213659600,1.83765966796875,0.0147260060973465,-0.0117787371316924,-0.0589122076958417,0.0012229457497596,9.59909521043e-05,-0.001224017702043
1783197556223597800,1.847597900390625,0.0328239728458225,0.0003026179420761,-0.0575631311744451,0.0020466614514589,0.0002613733522593,-0.0012887325137853
1783197556233534700,1.85753466796875,0.0245766612432897,-0.0033755225813947,-0.0599485650062561,0.000402838923037,-0.0024822140112519,4.57700807601e-05
1783197556243473000,1.867472900390625,-0.00039510026481,-0.0063049270967952,-0.05365618686378,-0.0002408474683761,-0.0022875368595123,-0.00258250371553
1783197556253409800,1.877409912109375,-0.0293738689245656,-0.0309602430668659,-0.0530506221860647,0.0020961286500096,0.0010338830761611,-0.0017477732617408
1783197556263348000,1.887347900390625,-0.0577012975361198,-0.0577292632552795,-0.0564940406382083,-0.0011755647137761,0.0026616072282195,-0.0019957134500145
1783197556273284900,1.897284912109375,-0.0466085333745926,-0.061555927137658,-0.0621861147999763,-0.0005186945199966,0.0018872353248298,8.6557585746e-05
1783197556283223000,1.90722314453125,-0.0503362486608326,-0.050541561974585,-0.0621954671502113,-4.99784946441e-05,0.0004027890972793,-0.0003752345219254
1783197556293160000,1.917159912109375,-0.0321727423954755,-0.0404301735332235,-0.057559624043107,-0.0031492467969655,-0.0087068285793066,-5.33687416464e-05
1783197556303097900,1.927097900390625,-0.0644464244147762,0.051073184633255,-0.0551981556087732,0.0024287439882755,0.0147718656808137,-0.0008168970234692
1783197556313034800,1.93703466796875,0.0447143536584451,-0.0100652112120762,-0.0399555782914161,0.0005777375772595,-0.0030505736358463,-0.0006837893743067
1783197556322972000,1.946971923828125,0.0844203411029651,0.0157809950429946,-0.0462204839050769,-0.0041762720793485,-0.0087199117988348,-0.0011085637379437
1783197556332909800,1.956909912109375,0.047169418660365,0.0722439646895043,-0.0619189882963895,0.0089901778846979,0.0063386321999132,-0.0036310199648141
1783197556342847000,1.966846923828125,0.0470572635227814,-0.0071850343995727,-0.0616226356983184,-0.0005841525271534,-0.0022793565876781,0.0014689334202557
1783197556352785000,1.976784912109375,0.0616383812567219,-0.0282447735630907,-0.0488473252773284,-0.0065929340198636,-0.0168435126543045,-0.0016999146901071
1783197556362722000,1.98672216796875,-0.021622962536849,0.0861328806418925,-0.0797001441806554,0.0061337798833847,0.0160217583179473,0.0002298117615282
1783197556372660000,1.996659912109375,0.0524289100911468,-0.0621271694206632,-0.051582303199172,-0.0034932177513837,-0.0054466859437525,9.5616094768e-05
1783197556382596900,2.006596923828125,0.0531851352859288,-0.0840144271831959,-0.0220639477699995,-0.0081359054893255,-0.0109937842935323,-0.0002210338134318
1783197556392535000,2.01653515625,-0.0611022650860249,0.01169471211005,-0.0831453161984682,0.0077005573548376,0.0141329057514667,0.000455600908026
1783197556402471700,2.0264716796875,-0.04147767329216,-0.0534294837021268,-0.0556429767668247,-0.0008386019617319,-0.0067950128577649,-0.0017556219827383
1783197556412409900,2.036409912109375,0.0117683253355324,-0.0657296326257288,-0.0228384392738342,-0.0050300043076276,-0.0083065573126077,-0.0014190224464982
1783197556422346800,2.0463466796875,-0.0356692792743444,0.0236324757283553,-0.0856856483310461,0.0049797529354691,0.018182573840022,-0.0027924147434532
1783197556432285000,2.056284912109375,-0.021363032959029,0.0379650985939428,-0.0432505281835794,0.0038059754297137,-0.0049705128185451,-0.0039377412758767
1783197556442221800,2.066221923828125,0.0805069670515134,-0.0033280667104758,-0.0490349568039178,-0.0048698056489229,-0.0082531254738569,-0.0038144369609653
1783197556452159000,2.076158935546875,0.0425069432746618,0.0610064034961164,-0.0696849461227655,0.0028260825201869,0.0076771695166826,0.0007134454790502
1783197556462097000,2.086096923828125,0.0226613291412591,0.0667067340295761,-0.0807774180233478,0.0011709276586771,0.0044960239902138,-0.002900464227423
1783197556472034000,2.096033935546875,0.0378650722855702,-0.016285072107613,-0.0038303719431161,-0.0018508527427911,-0.0039799837395548,-0.0038505038246512
1783197556481972200,2.10597216796875,0.0036427769491448,-0.0119475178273394,-0.0829781429380178,-0.0012236787006258,0.0061205867677927,0.0003098861780017
1783197556491909400,2.115909423828125,-0.0395140450689941,0.0779979251063428,-0.0550555322676897,0.0051857512444257,0.0062015471048653,-0.0009340760298073
1783197556501847300,2.125847412109375,0.0720097723411396,-0.0829264858160167,-0.0422965884596109,-0.0080680027604103,-0.0116829117760062,-0.000943929888308
1783197556511784200,2.1357841796875,0.0067891486834734,0.0005242430698126,-0.0466220504432916,0.0018641399219632,0.0047523202374577,-0.0036867430899292
1783197556521722000,2.14572216796875,-0.0674335869994014,0.0064745297763496,-0.0970990227490663,0.0018689334392547,0.0033432415220886,0.0008017488289624
1783197556531659000,2.155658935546875,-0.0108885468263179,-0.0183579328589141,-0.0275122763037681,-0.0066862143576145,-0.0085639171302318,-0.0017257046420127
1783197556541597200,2.16559716796875,-0.0123228539457544,0.0274450380201451,-0.0653705900549888,0.0050934785977005,0.0074920137412846,-0.0014332896098494
1783197556551534000,2.1755341796875,-0.0292287248328328,-0.0089851791567169,-0.0717085609048605,0.0004507265985012,0.0019065663218498,-0.0037985839881002
1783197556561472300,2.18547216796875,0.0479033224254846,0.0232749492612667,-0.0426426254183053,0.0022417018190026,-0.0016199918463826,-0.0004690999630838
1783197556571409200,2.1954091796875,0.0598202259188517,-0.0125659054540097,-0.0543190346866846,0.0020810216665267,0.0029713313560932,0.0008753149304538
1783197556581347300,2.205347412109375,0.0166088972344994,-0.0220090940439142,-0.060163084539771,-0.001038072630763,-0.0012369956821203,-0.0017801229842007
1783197556591284200,2.2152841796875,0.0117919254068285,-0.0199863195120356,-0.0438221905916929,0.0015085069462656,-0.0033851014450192,-0.0010289710480719
1783197556601222400,2.225222412109375,-0.0183653124477714,0.0064381615550257,-0.0553466241687536,0.0026118541136384,5.5968761444e-05,-0.0046679144725203
1783197556611159000,2.235158935546875,-0.0353459656041115,0.0365051455765962,-0.0595540127307176,0.0031687216833233,0.0047473930753767,-0.0022098165936768
1783197556621096200,2.24509619140625,0.047008967401646,-0.0315056019899435,-0.0325976167440414,-0.0003581028431653,-0.0092208869755268,-0.0061345170252025
1783197556631034000,2.2550341796875,-0.0060042819160968,0.0699848058521747,-0.0421709162533283,0.0042547853663563,0.0086286514997482,-0.0009239679202437
1783197556640971300,2.26497119140625,0.0156800919517874,0.0099157928040251,-0.0688145930290222,0.0024057524278759,-0.0022500953637063,-0.0047059226781129
1783197556650909200,2.2749091796875,-0.0216491929566487,-0.010767295066826,-0.0435088868588209,0.0003176229074597,-0.0045775990001857,-0.0043514291755855
1783197556660846300,2.284846435546875,-0.0886278392627835,-0.047824430236686,-0.081222823703289,0.0049267560243606,0.0078548360615968,-0.0024107836652547
1783197556670784300,2.2947841796875,-0.0878537130851298,-0.0390605108815245,-0.0633013825654983,0.0044708419591188,0.0092962048947811,-0.0040976689197123
1783197556680721200,2.30472119140625,0.0220566047137603,-0.0194012861656956,-0.0439800115019083,-0.0006940923631191,-0.0090364627540111,-0.0041160443797707
1783197556690659000,2.3146591796875,0.0334980361824855,0.0325702720793895,-0.0656844783097505,-0.0004446553066372,0.0065301130525767,-0.0007418822497129
1783197556700596000,2.324595947265625,0.0729474915826693,0.0593176649578846,-0.045330841588974,-1.5059486031e-06,-0.0030290372669696,0.0008165994659066
1783197556710534100,2.3345341796875,0.0646975130990147,0.0321827888654544,-0.0450327354252338,-0.0018848571926355,-0.0103454049676656,-0.0014990968629717
1783197556720471000,2.344470947265625,-0.012054120006971,0.0892309014561586,-0.0572924975395202,0.0065033007413148,0.006467395927757,-0.0024985810741782
1783197556730409200,2.3544091796875,-0.0282966316144913,0.002912270717509,-0.0697311233520507,0.0007575042545795,0.0017493730410933,-0.0001244475133717
1783197556740346000,2.36434619140625,-0.0422839481737464,-0.0156865034262649,-0.0335024566292762,-0.00133893545717,-0.0032935887575149,-0.0014224722981452
1783197556750284300,2.3742841796875,-0.0325819807834923,0.0369834123465232,-0.0751087247371673,0.0069866478443145,0.0121481176465749,-0.0029640628490597
1783197556760221200,2.38422119140625,-0.0159240567754954,-0.0939342385752126,-0.0519382770299911,-0.0019445288926362,-0.0038886391557753,-0.0045603616163134
1783197556770159400,2.394159423828125,0.0164897278342396,-0.0276444330497644,-0.0403892935335636,0.0003951303660869,-0.0006495360285043,0.0004692724905908
1783197556780096000,2.404095947265625,-0.0045886429645121,-0.0062295603056438,-0.076489365440607,0.0031421808525919,0.0086046829819679,-0.0021510114893317
1783197556790034200,2.4140341796875,0.0205025436721742,-0.0187817842941731,-0.0562865353673696,-0.0039000632241368,-0.0059038843028247,-0.0032473483588546
1783197556799971000,2.42397119140625,0.0402998982170596,0.0426768930140882,-0.0486439116597175,0.0003439504653215,0.0030842837877571,0.0002437895163893
1783197556809908200,2.433908203125,0.0470707805914804,0.0617872516755014,-0.0572036502122879,0.005705420859158,0.0061665275134146,-0.0002098695840686
1783197556819846100,2.44384619140625,0.0888945639075711,0.0340101504230871,-0.0501689292699098,-0.0034622438251972,-0.0013550384901463,-0.0004572772886604
1783197556829783300,2.453783203125,0.1075260164782404,0.0206591772723011,-0.0401344419896602,0.0027162889018654,-0.0003933706320822,0.0010740405414253
1783197556839721200,2.46372119140625,0.0664404112435877,-0.0138231755061075,-0.0582365003913641,-0.0017764633521437,-0.0018804799765348,0.000486014643684
1783197556849658400,2.473658447265625,0.0346152767093852,-0.0357333026875741,-0.0438484940767288,-0.0054500419646501,-0.0071108280681073,0.002268886892125
1783197556859596300,2.48359619140625,-0.0154666318641975,-0.0672055686634965,-0.0671937138289213,-0.0010473029688,0.0021266122348606,-0.0008366249967366
1783197556869533200,2.493533203125,-0.0326811303090304,-0.0614933467628434,-0.0437052862137556,0.0015809014439582,-0.0006214049644768,0.0027408110909163
1783197556879471000,2.50347119140625,-0.018656988870725,-0.0521755198519676,-0.0460877974361181,-0.0030945446342229,-0.0034936242736876,0.0040524182841181
1783197556889408000,2.513407958984375,-0.0627742534188553,-0.0191811954079195,-0.0627098464131355,-0.0033152503892779,0.0046331104822456,-0.0002989240456372
1783197556899346200,2.52334619140625,-0.059855333764851,0.0200222493419423,-0.0666337418586015,-0.0002789795398712,0.0021023084409534,0.0011466399300843
1783197556909283000,2.533282958984375,-0.0059936509242281,0.0351192624424584,-0.0450987863987684,-1.77007168531e-05,-0.0005034604109823,-0.0010230850894004
1783197556919221200,2.54322119140625,0.0258018191240727,0.0388890267721377,-0.0703910485655069,0.0018899217247962,-0.0009090597741305,0.0001542984973639
1783197556929158100,2.553158203125,0.0111221363864839,0.0410086310083046,-0.0636456659585237,0.0004987176507711,0.0026070771273225,-1.58029142767e-05
1783197556939096300,2.563096435546875,-0.0266876255152747,0.0265531306817196,-0.0501788661420345,-0.0003713369369506,-0.0006291959434747,-0.0006634837482124
1783197556949033200,2.573033203125,-0.0043371158888563,-0.0153158982818946,-0.0582639729201793,-0.0035583516582846,0.0020431196317076,0.0020656099077314
1783197556958971100,2.58297119140625,0.0064774158531799,-0.047159700983949,-0.0461316365778446,-8.47913324832e-05,-0.0022296560928225,0.0017542864661663
1783197556968908000,2.592907958984375,0.0011720759866759,-0.0492688568913377,-0.0479150128632783,0.0023374836891889,-0.0029077935032546,-0.00173752149567
1783197556978846000,2.602845947265625,-0.0171173216806724,-0.0425692679211497,-0.0423638084769248,-0.0009888047352433,-0.0004710014909505,0.0017054132185876
1783197556988783000,2.612783203125,0.0006441065898165,-0.0267506625478155,-0.0570271246016025,-0.0026386911049485,-0.0021842145361006,0.0013737089466303
1783197556998721000,2.622720947265625,0.0217874323835596,-0.0110388237508945,-0.0502946014761924,-0.0002373196184635,0.0008861436508595,0.0005505259614437
1783197557008658200,2.632658203125,0.0255883225038647,-0.0054783766121603,-0.0498503648400306,-0.001846888102591,-0.0005201688036322,3.04372515529e-05
1783197557018596000,2.64259619140625,0.0251474103359505,-0.0066001837163232,-0.0503004466950893,-0.002099622040987,-0.0001984592527151,-0.0028495052829384
1783197557028533200,2.652533203125,0.0283860634636133,-0.0159828012254089,-0.0604611907035112,0.0003524431958794,-0.0040907021611928,0.0025047296658158
1783197557038470100,2.66247021484375,0.0180046624418348,-0.0202172969900071,-0.0630009383141994,-0.0036811809986829,-0.0011255391873419,-3.9681326597e-06
1783197557048408300,2.672408203125,0.0040029520310461,-0.016318663849961,-0.0623982962459325,-0.0008080573752522,6.18300400674e-05,0.0041612782515585
1783197557058345000,2.682344970703125,0.017311273350194,-0.0222909614589065,-0.05503624304533,-0.0034714853391051,0.0017326972447335,0.0010059652850031
1783197557068283100,2.692283203125,0.0031419512875378,0.0195709619104862,-0.0523626399219036,0.0006754491478204,0.0008402033708989,0.0006320816464722
1783197557078220000,2.702219970703125,0.0487398828474804,0.0003010653058066,-0.0590846416532993,-0.0018636081367731,-0.0012815371155738,0.0003180946223437
1783197557088158200,2.712158203125,0.0802146330414339,0.0546360282139852,-0.0493371546208858,-0.0034313648939132,-0.0040548504330217,0.0013386451173573
1783197557098095000,2.72209521484375,0.0334666546635329,0.0484055363265797,-0.0643114363908767,0.0012611243873834,0.0027607108931988,0.0017272003460675
1783197557108033300,2.732033203125,0.0362180357309058,0.033438250552956,-0.0548725769162178,-0.0003806585446,-0.0083694346249103,0.0017768756952136
1783197557117970200,2.74197021484375,0.0317352277610451,0.0086112312777899,-0.0491641361415386,-0.0032675247639417,0.0007409728132188,0.0004428981337696
1783197557127908400,2.751908447265625,-0.0095467768285423,0.00429924983019,-0.0547071572214365,0.0017963945865631,0.0008370736613869,0.0009947651997208
1783197557137845200,2.76184521484375,-0.0069566142048686,-0.0198347274132072,-0.0563397268593311,-0.0006638336926698,-0.0033906940370798,0.0029950654134154
1783197557147783200,2.771783203125,-0.0257413211084902,-0.0020734087405726,-0.0581324554949998,0.0019987970590591,0.0009744646959006,0.0015338934026658
1783197557157720000,2.781719970703125,-0.0289525382399559,-0.0016128785567358,-0.076849430924654,0.0006134202703833,0.0001547434367239,0.0021094023250043
1783197557167658000,2.791657958984375,-0.0029253859274089,0.0029324001900851,-0.0503659131467342,-9.71239060163e-05,-0.0030803363770246,-0.003048293525353
1783197557177595100,2.80159521484375,0.0050579409766942,0.0133983011575415,-0.0630944618165492,0.0009220680221915,0.0032574541401118,0.0025635194033384
1783197557187533000,2.811532958984375,0.0038894086539745,0.0175361316146329,-0.0596609802365303,0.0007195323705673,-0.0020143701694905,0.0004016938619315
1783197557197470200,2.82147021484375,0.0092091423720121,0.035443873020634,-0.0419967287302017,0.0012202057987451,-0.0025576553307473,0.0003481642343103
1783197557207408000,2.831408203125,-0.0145776106026023,0.0407471487942151,-0.0539613072901964,2.1178275346e-06,0.0025882089976221,-0.0006110791582614
1783197557217345300,2.84134521484375,-0.0328397549368441,0.0188478900666348,-0.0653401949167251,-0.0002945577725768,-0.0008424753323197,0.0031519676558673
1783197557227283200,2.851283203125,-0.0145772452764213,-0.0087005169964395,-0.0595043283700943,0.0012756288051605,-0.0008088178001344,0.0018668780103325
1783197557237220000,2.86122021484375,-0.0001779869154095,-0.034953112095315,-0.0500765748113393,0.0002684211358428,0.0010146484710276,-0.0014405017718672
1783197557247158000,2.871157958984375,-0.0153274425892159,-0.0696728538261726,-0.0569622426718473,-0.0007835812866687,-0.0010841926559805,0.0005117212422192
1783197557257095200,2.88109521484375,-0.0341935441659763,-0.081219006044697,-0.0493354010552167,-0.0009332513436675,0.0007501929067075,0.0022140140645205
1783197557267033000,2.891033203125,-0.0467759623633697,-0.0687710278819315,-0.0533797080099582,-0.0017692614346742,-0.0004746983759105,0.0014776233583688
1783197557276970200,2.90097021484375,-0.0451581519031897,-0.0301611285784281,-0.0619137275993824,0.0005604717880487,-0.0002829506993293,0.0005902578122913
1783197557286908200,2.910908203125,-0.0255431681878864,0.0011554171128198,-0.054284547895193,-0.0012032156810164,0.0003800811246037,-0.0015073854010552
1783197557296845300,2.92084521484375,0.0085380381774157,0.0255636812529526,-0.059672670674324,0.0005158549174666,0.0015782373957335,0.0001893143635243
1783197557306783200,2.930783203125,0.0427653750151395,0.03789515689658,-0.0593745645105838,0.0012038797140121,0.0007216949015855,-0.0004005518276244
1783197557316720000,2.94072021484375,0.0558513222878798,0.0339693982875905,-0.0506885692298412,-0.0001186458393931,-0.0016344040632247,-0.0004098729696124
1783197557326657000,2.950656982421875,0.0452991678090766,0.028351284411177,-0.0618973609864711,-0.0003269873559474,-0.0004006288945674,0.0013383906334638
1783197557336595000,2.960594970703125,-0.0105155487954616,0.0230504380566999,-0.062041153371334,0.002270926721394,0.0039728144183754,0.0003178673796355
1783197557346532000,2.970531982421875,-0.050860418665409,-0.0067459305962547,-0.0547071572214365,0.0026912419125437,-0.0016795773990452,0.0009391705971211
1783197557356470000,2.980469970703125,-0.041988180097565,-0.030413039246574,-0.0597977583587169,0.0003607096150517,0.0031258303206413,-0.0024270648136734
1783197557366407200,2.9904072265625,-0.0278046103138476,-0.0582595890060067,-0.0627881723463535,-0.0031985491514205,-0.0017099343240261,-0.0017169252969324
1783197557376345000,3.000344970703125,-0.0473615436989814,-0.0512332522994838,-0.0590565846025943,-4.11048531532e-05,0.0015284693799912,0.0011355865281075
1783197557386282200,3.0102822265625,-0.0562522677715867,-0.055936644217465,-0.060866264373064,0.001520394347608,0.0031182423699647,-0.0023697931319475
1783197557396220200,3.02022021484375,-0.035152050467208,-0.0570829829746857,-0.0471101262211799,-0.0022285375744104,0.0011791950091719,-0.0013237034436315
1783197557406157300,3.0301572265625,-0.0125859983939677,-0.0251504608095623,-0.0552197829186916,-0.0004796618595719,0.0045214900746941,0.0010029431432485
1783197557416095200,3.04009521484375,0.0098125150926411,-0.0026434454471804,-0.0543266334712505,0.0002223467454314,-0.0024541276507079,-0.0006660600192844
1783197557426032000,3.0500322265625,0.0061956032371148,-0.0209505249016918,-0.0604343026965856,-0.0051034390926361,-0.0067064831964671,-0.0007143493276089
1783197557435970000,3.059969970703125,-0.0516098122606053,0.0773350955497473,-0.0574918195039033,0.0061377645470201,0.0082623455673456,-0.0013079678174108
1783197557445907200,3.0699072265625,0.0400121673168614,-0.0527687365047633,-0.0835205792516469,-0.0066939303651452,-0.0049605192616581,-0.001129409763962
1783197557455845000,3.07984521484375,0.031756014820747,0.0262681397278793,-0.0166191263675689,-0.0016147503629326,-0.0115012433379888,-0.0023304955102503
1783197557465782300,3.0897822265625,-0.00617313567698,0.0738350150069221,-0.099828155452013,0.0051305973902344,0.0216731876134872,0.001978448126465
1783197557475720200,3.09972021484375,0.018976868474856,-0.0608932619778439,-0.0193202020198106,-0.0052629215642809,-0.0136962532997131,-0.0024051149375736
1783197557485656800,3.10965673828125,-0.0068372256089001,0.066642582752183,-0.0850011731982231,0.0067826863378286,0.0136498128995299,0.0025766182225197
1783197557495594800,3.1195947265625,0.0207828949835151,-0.1109247372721321,-0.040882630008459,0.0002337070181965,-0.0107894828543066,-0.0027915157843381
1783197557505532000,3.129531982421875,-0.0545858323967084,-0.0116678423694334,-0.0733347008019685,-0.0064571248367428,0.0031494675204157,-2.05473043024e-05
1783197557515469800,3.1394697265625,-0.0484790399542078,-0.0367751946896314,-0.0594493833124637,0.0059289699420332,0.0014639529399573,0.0010590979363769
1783197557525406700,3.14940673828125,-0.0242228793695569,-0.044603057037387,-0.0595142652422189,-0.0031373994424939,0.0058130025863647,0.0005418134387582
1783197557535345000,3.159344970703125,0.1048595372153446,-0.0814087747294455,-0.0442179119110107,-0.006362753920257,-0.0051632160320878,-0.002178605645895
1783197557545281500,3.169281494140625,0.0681294603090733,0.0384158928350545,-0.0554699582874774,0.0031973384320735,0.0081211356446146,0.0021075748372823
1783197557555219700,3.1792197265625,0.0814182001449167,-0.0202739042817614,-0.0566582912892103,-0.0063173379749059,-0.0169581174850463,0.0029784284997731
1783197557565156600,3.189156494140625,0.0129931909553706,0.0780648893953301,-0.0454009842157363,0.0002492219209671,-0.0004208306781947,-0.0020359887275844
1783197557575094800,3.1990947265625,-0.0992688410688191,0.0183143859781324,-0.1136965218067169,-0.0001111030578613,0.0085377767682075,-0.0005273080896586
1783197557585031700,3.20903173828125,-0.0259902909008786,0.072626461201068,-0.007905658558011,-0.0008698562160134,-0.0083570722490549,-0.0009099002927541
1783197557594969900,3.218969970703125,0.0889967091077938,0.0441544730196706,-0.0629828181356191,0.0003637205809354,0.0047166524454951,0.0008893313352018
1783197557604906800,3.22890673828125,0.0993822748480364,0.0372671429250389,-0.0680704966634511,-0.0033178329467773,0.003504381282255,0.001212639035657
1783197557614844700,3.2388447265625,0.1039424589030444,0.0702303598447702,-0.0408446360856294,0.0028423238545656,-0.0049032182432711,0.0034630100708454
1783197557624781800,3.24878173828125,0.0799906515598297,0.0272344092104583,-0.0359001654207706,-0.0009550768882036,-0.0049194633029401,2.4987384676e-06
1783197557634719700,3.2587197265625,0.0081155384490266,0.0659601169133558,-0.0756985073238611,0.0022031655535101,0.0047014723531901,0.0015143754426389
1783197557644656600,3.26865673828125,-0.0014095014717429,0.0331681101083755,-0.054165305429697,0.0001968489959836,-0.0019698818214237,-4.6289060264e-06
1783197557654594600,3.278594482421875,0.0176445238925516,0.0222067172415554,-0.0466565372347831,-0.0006737383082509,-0.0040996116586029,-0.0012957293074578
1783197557664531700,3.28853173828125,-0.0085228406082838,-0.0063799102954566,-0.0545896683216095,0.0024815443903207,0.0045263040810823,0.0024700190406292
1783197557674469600,3.2984697265625,-0.0134445149194449,-0.0185181283893063,-0.0568558596879243,0.0025318777188658,0.0003683110699057,0.0012369754258543
1783197557684406800,3.30840673828125,0.0148912796616554,-0.0267643988122232,-0.0541682280391454,-0.0016293264925479,0.0003705439157783,-0.0011384114623069
1783197557694344700,3.3183447265625,-0.0026401392452418,-0.0132638428566046,-0.0640688598066568,-0.0030937977135181,0.0057290904223918,-0.0006033824756741
1783197557704281900,3.32828173828125,-0.0067758142778649,-0.016810100628715,-0.0679927552521228,0.0019382396712899,0.0019705262966454,-0.0014271638356149
1783197557714219800,3.3382197265625,0.0156226992087438,-0.0255397523880936,-0.0513736288845539,-0.0028056493028998,-0.0070517309941351,-0.0013214363716542
1783197557724157000,3.348156982421875,0.0114949517542496,-0.0253676837568171,-0.0628869565457105,-0.0033192792907357,0.0003739278763532,-0.0015481216832995
1783197557734094800,3.3580947265625,-0.0274990514960139,-0.0192577677754685,-0.0592927314460277,-0.0006244266405701,0.0007840543985366,0.0020423519890755
1783197557744031700,3.36803173828125,-0.0445626336954534,-0.0112478999243117,-0.058684244158864,0.0004127938300371,-0.0026839817874133,-0.0009783068671822
1783197557753969700,3.3779697265625,-0.0371142904508858,0.0050757140954025,-0.0585410362958908,-0.002008818089962,0.0038828407414257,-0.0010278418194502
1783197557763906800,3.38790673828125,0.0024278847340494,0.0303783149930648,-0.0584054272174835,0.0027605649083852,0.0011176564730703,-0.0008718171156942
1783197557773844700,3.3978447265625,0.0469498941581696,0.0441999013302847,-0.0545054971694946,0.0005932850763201,0.0005112546496093,-0.0013248207978904
1783197557783782000,3.407781982421875,0.0560520690243691,0.0548934005085378,-0.0549544099807739,0.0006829183548688,0.000629857648164,0.000763768563047
1783197557793719800,3.4177197265625,0.0382974723534658,0.0480632622275501,-0.0515045617878437,0.0010016988962888,0.0018144315108656,-0.0005361204966902
1783197557803656700,3.42765673828125,0.0311568798838183,0.0282160406589508,-0.0509025042414665,-0.0002837432548403,-0.0010341829620301,-0.0018746373243629
1783197557813595000,3.437594970703125,0.0194013044320046,0.0174695691844448,-0.0643652124047279,-0.0008786935359239,0.0008686454966664,0.0012559085153043
1783197557823531500,3.447531494140625,0.0144571260280907,0.0029970629241317,-0.0562795211046934,-0.0002264445647597,-0.0025234604254364,-0.0006580303888767
1783197557833469700,3.4574697265625,0.0118888829752802,-0.022582601349242,-0.0611930121093988,0.0012087328359484,-0.0026283897459506,-0.0026918863877654
1783197557843406600,3.467406494140625,-0.0165587379498407,-0.0324161774962209,-0.0586368978857994,0.0018274085596203,0.0013127643615007,3.48365865647e-05
1783197557853344800,3.4773447265625,-0.0217782626964151,-0.0215003590704873,-0.0597007277250289,0.0013831928372383,0.0006107548251748,-0.0008751654531806
1783197557863281700,3.48728173828125,0.0092480496102944,-0.0139468749510124,-0.055817748811841,-0.0005217222496867,-0.0008921055123209,0.0002277246676385
1783197557873219800,3.4972197265625,0.0294297272976487,0.0044933841628022,-0.0526706829577684,-0.0005651311948895,-0.0025973278097808,-0.0040916563011705
1783197557883156700,3.50715673828125,0.0115435036037117,0.0001526698110625,-0.0605973843038082,-0.0010870052501559,-1.39302574098e-05,-0.0021823733113706
1783197557893094000,3.517093994140625,-0.0267561607068404,0.0027121998344548,-0.0547691165417432,0.0004501715302467,-0.0002142000012099,0.001282665412873
1783197557903031800,3.52703173828125,-0.0413468134541064,-0.0089196031072176,-0.0459440050512552,-2.62297689914e-05,0.0042528258636593,-0.000983924139291
1783197557912969700,3.5369697265625,-0.0267514845317229,-0.0119311694807372,-0.0461029950052499,0.0021586278453469,0.0012083002366125,0.0001963889226317
1783197557922906600,3.54690673828125,0.0026444500941783,-0.0141846292296424,-0.0452063384264707,-0.0022721532732248,0.0022024370264261,0.0030477992258965
1783197557932844500,3.556844482421875,0.0236974307233467,-0.0163274864772334,-0.0534399137645959,0.0005076546221971,-0.0020287930965423,-0.0011237764265388
1783197557942781700,3.56678173828125,0.0231068809516727,0.0063559631642885,-0.0550748214900493,0.0020393319427967,-0.0012743999250233,-0.0009151003323495
1783197557952718800,3.57671875,0.0210515923896804,0.0053281727528199,-0.0553717586100101,0.0015607615932822,-0.0011175395920872,-0.0020312312990427
1783197557962656800,3.58665673828125,0.0396887805813923,0.0027380283954553,-0.0614993015795946,0.0004551904276013,-0.0014399685896933,0.0042121331207454
1783197557972594700,3.5965947265625,0.0394334906460717,0.0099651666373945,-0.0495113421440124,-0.0010660076513886,-0.0050078053027391,-0.0006779632531106
1783197557982531800,3.60653173828125,0.0131716893274337,0.0048128253755159,-0.0554775570720434,-0.000890864059329,-0.0013632820919156,-0.0013413710985332
1783197557992468700,3.61646875,-0.0179842041756957,0.0042831024129875,-0.0433487278610467,0.0028199842199683,-0.0028439997695386,-0.0017925105057656
1783197558002407000,3.626406982421875,-0.0381003788787871,0.0198248088073916,-0.060993105623126,0.0001339744776487,-0.0019868677482008,0.0004748273640871
1783197558012343600,3.636343505859375,-0.0390019673610106,0.0233370181794278,-0.0553173980742692,-0.000742738135159,0.0033394547645002,-0.0002500850241631
1783197558022281700,3.64628173828125,-0.0170261727984994,0.0318824542120099,-0.0572802225798368,0.0001457314938306,0.0005757315084338,-0.0005635125562548
1783197558032218600,3.656218505859375,0.0331724940225481,0.0185418380584567,-0.0559434210181236,0.0012046042829751,-0.0003427928313612,-0.0031643556430935
1783197558042156800,3.66615673828125,0.062035235087201,0.0235122834147885,-0.0595265402019023,0.0023218486458063,-0.0026919618248939,0.0032558673992753
1783197558052093700,3.67609375,0.0493109242010861,0.0118955684443935,-0.0583200870215892,0.0010741576552391,-1.20224431157e-05,0.0001386371441185
1783197558062032000,3.686031982421875,0.0252157628644257,-0.002290175030101,-0.0521843607455492,-0.000752598978579,7.08359293639e-05,0.0003112603444606
1783197558071968800,3.69596875,-0.001944631261751,-0.0200767377418465,-0.0527782349854707,-0.0011118594557046,-0.001450628042221,0.0002342949155718
1783197558081906700,3.70590673828125,-0.0388126553339883,-0.0398108908574096,-0.0512760137289762,0.0005839141085743,-0.0004046116955578,-0.0017894161865115
1783197558091843800,3.71584375,-0.0429559291511774,-0.0444207227404229,-0.0639835196107626,-0.0015556691214442,0.0008904836140573,-0.0004873967263847
1783197558101781800,3.72578173828125,-0.0355229296062141,-0.0374996365066617,-0.0560579873085021,0.0016793059185147,0.0011180248111486,-0.0004343735054135
1783197558111718700,3.73571875,-0.0210619676532223,-0.0298710413243621,-0.0569593200623989,-0.001682935282588,0.0007920539937913,0.0005635127890855
1783197558121656600,3.745656494140625,0.0005988426759839,0.0073563175795599,-0.055623687544465,-0.0003463430330157,-0.0003898162394762,-0.0002413694746792
1783197558131593700,3.75559375,0.0248471487477421,0.0233517225582152,-0.0625070173174142,-0.0020933765918016,-0.0011155274696648,0.0008369444403797
1783197558141531600,3.76553173828125,0.0255935101356357,0.0465975005239248,-0.0542757800668478,0.0029427884146571,-0.0010390672832727,-0.0025975573807954
1783197558151468800,3.77546875,0.0342058556582778,0.0237239168714731,-0.059055415558815,0.0004367539659142,-0.0015711667947471,0.001405173446983
1783197558161406700,3.78540673828125,0.028553675115481,-0.0161144830473698,-0.0553097992897033,0.0014997599646449,-0.0017525553703308,-0.0001771873794496
1783197558171344000,3.79534375,0.0060194064199924,-0.0445363302104175,-0.0624766221791505,0.0029075071215629,0.0015130126848816,-0.002100255805999
1783197558181281800,3.80528173828125,-0.0227103559147566,-0.0889448327900841,-0.0506540824383497,-0.0006673922762274,-0.0005221478641033,0.0008847918361425
1783197558191219000,3.815218994140625,-0.0423438982000574,-0.0967019314565695,-0.0588771363824605,-0.0008527487516403,0.0002504354342818,0.0012515089474618
1783197558201156900,3.825156982421875,-0.0435882357053458,-0.0806303925017826,-0.0561883356899023,0.0005695829167962,-0.0005473517812788,-0.0005724777001887
1783197558211093800,3.83509375,-0.0284827287711203,-0.045742582461331,-0.0609802461415529,-0.0001550633460283,-0.0018048961646854,0.0006595004815608
1783197558221031700,3.84503173828125,-0.0017676307270303,0.0099874332681298,-0.0603875409454107,-8.93315300345e-05,0.0010460577905178,0.0014541295822709
1783197558230968800,3.85496875,0.0270945623483508,0.0498782757602632,-0.0473684848964214,0.0014305347576737,-0.0001640822738409,0.0013529297430068
1783197558240906800,3.86490673828125,0.0445081270292401,0.0522566770630888,-0.0558913985699415,-0.0004776995629072,-0.0025288164615631,-0.0007014870643615
1783197558250844700,3.8748447265625,0.0320111586255952,0.0336529162169434,-0.0465980850458145,0.0022062342613935,-0.0004712585359811,-0.0007246565073728
1783197558260781800,3.88478173828125,0.0215125609649345,0.0083686546935699,-0.0634966128766536,0.0015939231961965,-0.0004005981609225,0.0008913977071642
1783197558270718700,3.89471875,-0.0017100187882781,-0.0209046581996604,-0.0592898088365793,-0.0014916146174073,-0.0005433433689177,0.0001545010600239
1783197558280657000,3.904656982421875,-0.041063539533317,-0.0461699410279281,-0.0534533577680587,-0.0007808618247509,0.0013178871013224,-0.0001065463293343
1783197558290594800,3.9145947265625,-0.0384244962666183,-0.026961875879392,-0.0585515576899051,-0.000499365851283,0.0039043489377945,0.0007930693682283
1783197558300532000,3.924531982421875,-0.0039167715849354,-0.011406360155344,-0.0660451283156871,-0.0013742605224251,-0.0006162957288324,0.0005070006009191
1783197558310468600,3.934468505859375,0.0328670813351869,0.0241333196562714,-0.0656032297670841,-0.001737249083817,0.0009499094448983,-0.0008791747968643
1783197558320406800,3.94440673828125,0.0458564363656565,0.0479668161157518,-0.0575233836859464,-0.0001121219247579,-0.0017461152747273,0.000160651281476
1783197558330344700,3.9543447265625,0.0526138016713783,0.0432505647161975,-0.0618552754104137,-0.0005653919652104,-0.0040095360018312,0.0044323620386421
1783197558340281600,3.964281494140625,0.0217075355477631,0.0193607349595986,-0.05361877746284,-0.0032000001519918,-0.0026759472675621,-0.0002074113581329
1783197558350219800,3.9742197265625,-0.0110944081293419,0.0140119760764762,-0.0492798714756965,0.0020163329318165,-0.0010668649338185,-0.0003677336499094
1783197558360156700,3.98415673828125,-0.0167450177695602,-0.0083016356056556,-0.055858665344119,-0.0014853626489639,0.0001033768057823,6.34999014437e-05
1783197558370094800,3.9940947265625,-0.0331769144693389,-0.0343787645397707,-0.0512228222370147,-0.0009284960106015,0.0010706367902457,0.0015982794575393
1783197558380031700,4.00403173828125,-0.0201763439251109,-0.0256204164088703,-0.0566173747569322,0.0003513675183057,0.0027185813523828,0.0007767849601805
1783197558389970000,4.013969970703125,0.0098180680505931,0.0021378157462924,-0.0593225420624017,-0.0010473243892192,0.0007307976484298,0.000610337127
1783197558399906600,4.023906494140625,0.0292392827594652,-0.0180209011905826,-0.0657604661554098,-0.0049972496926784,-0.0007134671323001,0.0008765929378569
1783197558409844700,4.0338447265625,0.0221948806732892,0.0385054342820309,-0.054243631362915,0.0015621157363057,0.0022074878215789,0.0020377309992909
1783197558419781600,4.04378173828125,0.0225816880337893,0.0118266861929558,-0.061726096072793,0.0007592616602778,0.0003792271018028,2.93783377856e-05
1783197558429719800,4.0537197265625,0.010710450313054,0.0103398269023746,-0.0548281532526016,-0.0004042731598019,-0.004668528214097,-0.000453719170764
1783197558439656700,4.06365673828125,-0.0038796179123222,-0.0408692773365415,-0.0516705660045146,-0.0003842189908027,-0.0020952890627086,0.0035020839422941
1783197558449594600,4.0735947265625,-0.0257392752818763,-0.0081721274744719,-0.0558592498660087,0.0010749269276857,0.0006365813314914,0.0016322787851095
1783197558459531800,4.08353173828125,-0.0083224226653575,-0.0552293361983262,-0.0567553219228982,-0.0016993321478366,-0.0019330843351781,-0.0002198321744799
1783197558469469700,4.0934697265625,-0.0131106067899614,-0.0312308401691727,-0.0492757798224687,0.0014163004234433,0.0008528484031558,0.0003623347729444
1783197558479406800,4.10340673828125,0.0056006695512682,-0.0142794131073169,-0.065140872952342,0.0006057079881429,-0.0004686922766268,0.0017577111721038
1783197558489345000,4.113344970703125,0.0138283631378784,-0.0013581731433048,-0.0430003528147935,-0.0005788654088973,-0.002402679529041,-5.72332646697e-05
1783197558499282000,4.123281982421875,0.0249127978624776,0.0036035957162268,-0.0569072976142168,0.0015744380652904,-9.91481356322e-05,0.0002936194650828
1783197558509219800,4.1332197265625,0.0310907923776656,0.0054803676398471,-0.0613952566832304,-9.34991985559e-05,0.0001509226858615,-0.0009295702911913
1783197558519157000,4.143156982421875,0.0136104460708796,0.0041411549253389,-0.0613935031175613,-0.0026530995965003,-0.0005487389862537,0.0015777447260916
1783197558529095000,4.153094970703125,-0.0038188641684129,0.0042875776587054,-0.0702262133926153,0.0005661295726895,0.0016963058151304,0.0015638964250683
1783197558539032000,4.163031982421875,-0.0010633914478123,0.0018197993056848,-0.0458300232827663,-0.0018635531887412,-0.0001199026592075,0.0011058244854211
1783197558548970000,4.172969970703125,0.0052666883565485,-0.0145093311393633,-0.0498684850186109,-0.0012334492057561,0.0013413741253316,-0.0001756886485964
1783197558558907100,4.1829072265625,-0.0052962432445958,-0.012145944742579,-0.0542220040529966,-0.0006309654563665,0.0020100018009543,0.0013466163072735
1783197558568845000,4.192844970703125,0.010745119767636,-0.0051352439966052,-0.057969958409667,-0.0008336324244737,-1.58650800585e-05,0.0006419441197067
1783197558578782200,4.2027822265625,0.0115050712894648,0.0061335160526447,-0.0522860675543546,-0.0011470364406704,1.65654346346e-05,0.0005149636417627
1783197558588720000,4.21272021484375,0.0138351947374641,0.0075240388292819,-0.0685907211452722,0.0002388721331954,-0.0028926716186106,0.0013906108215451
1783197558598656800,4.22265673828125,0.0019131766775622,0.0078320453325286,-0.0552694672793149,0.0009826580062508,-0.004019231069833,-0.0015506576746702
1783197558608595000,4.232594970703125,-0.0091599329354241,0.0181477059080265,-0.0622995120465755,-0.0003052465617656,0.001492447219789,0.0014579154085367
1783197558618531800,4.24253173828125,0.0038313217911869,0.0010776757014915,-0.0585603255182504,-0.0003706337884068,0.0008547813631594,-0.00028309202753
1783197558628470000,4.252469970703125,0.0305756093971431,-0.0161583404554054,-0.0537578936725854,-0.0006625158712267,-0.0039892424829304,0.0010737886186689
1783197558638407000,4.262406982421875,0.0277397649167105,-0.0032758798655122,-0.052102527680993,0.0007993783801794,-0.0002326755784451,0.0001676438841968
1783197558648345000,4.272344970703125,0.0238275233764201,-0.0064593870061449,-0.0524041409760713,0.0004688799381256,-0.0026343143545091,0.0025445150677114
1783197558658282000,4.282281982421875,0.0263353049462661,0.0054193033686839,-0.0507452678531408,-0.0015958407893776,-0.0048343115486204,0.0012052380479872
1783197558668220200,4.29222021484375,-0.002796864176914,0.0134663614250719,-0.0537245759248733,0.0033887978643178,0.003867567051202,0.0007817954756319
1783197558678157000,4.302156982421875,-0.0248470391498878,0.0231465736412443,-0.0429506684541702,0.0012796269729733,-0.0007715667597949,0.0013631032779812
1783197558688095000,4.312094970703125,-0.016736980593577,0.0058680152505636,-0.0577566079199314,-0.0028868885710835,-0.0028640129603445,0.0018949364311993
1783197558698031900,4.322031982421875,-0.011693323870562,0.0221071658572182,-0.0637462037235498,0.0015445249155163,0.0030681372154504,-0.0003558339085429
1783197558707969800,4.3319697265625,0.0154819755638018,-0.017435319854971,-0.0621007746040821,0.0005953749641776,-0.0048092273063957,0.0015619082842022
1783197558717907000,4.341906982421875,0.0209165678331628,-0.0272040871374309,-0.0444371076196432,-0.0032750563696026,-0.0025166100822389,0.0024976895656436
1783197558727844900,4.351844970703125,0.0100340854214504,0.0047540991919115,-0.051017070531845,0.0029530124738812,-0.0003181709907948,0.0012486667837947
1783197558737782000,4.361781982421875,8.1833064556e-06,-0.0094976039245724,-0.0541600447326898,-0.0016969358548521,-0.001584961079061,-0.0001355111598968
1783197558747720000,4.371719970703125,0.0034221199357882,0.0223527929150499,-0.0508615877091884,0.0022197747603058,-0.0009053223766386,0.0013819579035043
1783197558757657000,4.381656982421875,0.0109995329201221,0.0050132798510603,-0.0619376929968595,-0.0035736402496695,-0.0002453830093145,0.0029827973339706
1783197558767595000,4.391594970703125,0.0125214087251573,-0.0056346266197972,-0.0424789592891931,-0.0024204906076192,-0.0033959024585783,0.0008219087030738
1783197558777532200,4.4015322265625,0.0082701810214668,0.0239710052340291,-0.061179568105936,0.0029805358499288,0.0015846816822886,0.0033174327109009
1783197558787470000,4.411469970703125,-0.0038267917465418,-0.0114613417455926,-0.0635726007223129,0.0003722356632351,0.0010107709094882,0.0005802356172353
1783197558797407000,4.421406982421875,-0.0100081837952136,0.0010162278378382,-0.0514531238615512,-0.0002492936328053,-0.0030370457097887,0.0007691527716815
1783197558807345000,4.431344970703125,-0.0007756240149959,-0.003134754361771,-0.0595265402019023,0.00222984328866,0.0054629654623568,0.0003092247061431
1783197558817282000,4.441281982421875,-0.0009668357381597,0.001820219430793,-0.0578910479545593,0.001839336939156,-0.0010252939537167,-0.0001596533693373
1783197558827220000,4.451219970703125,0.0053115138789638,-0.0105860202157869,-0.0574286911398172,-0.002806014381349,-0.0026506213471293,0.002220413647592
1783197558837157000,4.4611572265625,0.0046307285405695,0.0216789305077865,-0.0587783521831035,0.0026511820033192,0.0031973798759281,0.0010816168505698
1783197558847095000,4.471094970703125,-0.0001528890067711,-0.0177366043564863,-0.0692500618368387,-0.0006106570363044,0.0014724503271281,-0.000583924120292
1783197558857032000,4.481031982421875,-0.0068885174047201,-0.0127085653277114,-0.0349766208350658,0.0007102070376276,-0.0005390769802033,0.0013557041529566
1783197558866970000,4.49097021484375,-0.0133903005141764,0.0032866387215442,-0.0617705197364091,-0.0012160567566752,0.0008657407015562,0.0014811393339186
1783197558876907000,4.500906982421875,-0.0187057599158957,0.0003464022848755,-0.059241878041625,0.0003917217254638,0.0089185116812586,0.0019129181746393
1783197558886845200,4.51084521484375,0.0470434176605194,-0.0853112072617746,-0.056063832527399,-0.0028631929308176,-0.0074631245806813,-0.0011284116189926
1783197558896781800,4.52078173828125,-0.0413103539012372,0.0379531889604404,-0.0595101735889911,0.0020716087892651,0.008905136026442,0.0010412919800728
1783197558906720000,4.530719970703125,-0.0267575124137103,0.0096043522346764,-0.0780880328088998,0.0007072715088725,0.0069855293259024,-0.0006476850248873
1783197558916657000,4.540656982421875,0.0411492815880104,-0.0276432822722941,-0.0304863236784934,-0.0062105813995003,-0.0085272286087274,0.0001078208442777
1783197558926595000,4.550594970703125,0.0204528593115508,0.0157037650883197,-0.0746124656528234,0.0021778438240289,0.007301801815629,3.93774826079e-05
1783197558936532000,4.560531982421875,0.0008054711639881,-0.027425602667313,-0.0553261659026145,-0.0009461138397455,-0.0036721411161124,0.0002915910445153
1783197558946470100,4.57047021484375,0.0023558424111455,-0.0019888357296586,-0.0445277085125446,-0.0031285751610994,-0.0036276667378842,0.0006902660243213
1783197558956407000,4.580406982421875,-0.0171937113851308,-0.0040651305470615,-0.0701326898902654,0.0010672351345419,0.0083464384078979,0.0014481516554951
1783197558966345000,4.590344970703125,-0.030136122001335,-0.0285451812817715,-0.0551847116053104,-0.0003812573850154,-0.0037978426553308,-0.001165741123259
1783197558976281900,4.60028173828125,-0.0037936201293021,-0.0210452722467482,-0.0508230092644691,-0.0016940059140324,-0.0016122544184327,0.0002629139926284
1783197558986219800,4.6102197265625,-0.0132438047155737,-0.0331952538436278,-0.068182724866271,-0.0005725491791963,0.0027910161297768,-0.0005482849664986
1783197558996158000,4.620157958984375,-0.0131624100424349,0.0057695963773876,-0.0524818823873996,0.0022087804973125,0.0017354856245219,0.0040323426946997
1783197559006094800,4.6300947265625,0.0186768626149743,-0.0506650970227085,-0.0479781412273645,-0.0034546973183751,-0.0069437562488019,-0.0019389969529584
1783197559016033000,4.640032958984375,-0.0114329559013247,0.0282718259667977,-0.058900517258048,0.0035882415249943,0.0048173898831009,-0.0015159621834754
1783197559025970000,4.649969970703125,0.00392111896649,0.001388385618478,-0.0668465078264474,0.0004529021680355,0.0013203928247094,0.0002931230701506
1783197559035908000,4.659908203125,0.0308455123797059,-0.0161038885881192,-0.0358586643666028,-0.0010560154914855,-0.0047046300023794,0.0028480815235525
1783197559045845000,4.669844970703125,0.0085890742449089,0.0014297770747914,-0.0662234074920415,0.0006539998576045,0.0016025346703827,-0.0015807554591447
1783197559055783000,4.679782958984375,-0.0114600631039589,-0.0172802388911135,-0.0559153639674186,-0.0019831489771604,-0.0009855940006673,-0.0011409455910325
1783197559065720000,4.689719970703125,-0.0025568448759615,-0.0207135743406601,-0.0458767850339412,-0.0024454742670059,-0.0001400401815772,-0.0011047264561057
1783197559075658000,4.699657958984375,-0.0261947639644145,-0.0070175506118685,-0.0651899727910757,-0.0001768786460161,0.002253204351291,-0.0025547998957335
1783197559085595000,4.709594970703125,-0.0074300769355148,0.0054063708218745,-0.063840896269679,0.0006103515625,-0.0026054666377604,-0.003212867071852
1783197559095532800,4.71953271484375,0.0213153213597834,0.0216777431976981,-0.0493178653985261,-0.0039336476475,0.0007412494160234,0.0033095804974436
1783197559105470000,4.729469970703125,0.0163932451898232,0.0283167245544493,-0.053812838730216,0.0011753598228096,0.0016227555461227,0.000859738793224
1783197559115408000,4.739407958984375,0.0125773401634767,0.033504447656963,-0.0632417613327503,-0.0009630443528294,-0.0009846668690443,-0.0004548272117972
1783197559125345000,4.749344970703125,0.0243792024424299,0.0158044307175092,-0.0503670821905136,0.0011605601757764,0.0002110921777784,-0.0008146204054355
1783197559135283000,4.759282958984375,0.0198602271806448,0.0013372582194395,-0.0612993950933217,-0.0010561440140008,0.0037955213338136,-4.18389681726e-05
1783197559145220000,4.76922021484375,0.0171621472030878,-0.0088961126337759,-0.0611526800990104,0.002188385464251,-0.0016152230091392,-0.0002309235278517
1783197559155158000,4.779157958984375,0.0117467710908502,-0.0121430221331305,-0.0434872595489025,0.0002920469269156,0.0020871171727776,0.0007494215387851
1783197559165095200,4.78909521484375,0.0062980041656643,-0.0219672824624925,-0.0612929653525352,0.0038231322541832,0.0004753717221319,-0.0003938737791031
1783197559175033000,4.799033203125,0.0024982100239023,-0.0215361427699215,-0.0650257221400737,0.0001580901443958,-0.0031214938499033,0.0036843398120254
1783197559184970000,4.808969970703125,-0.0063104983210563,-0.0055001500525511,-0.0523129555612802,-0.0009428607299923,0.004009386524558,-0.0006614064332097
1783197559194908000,4.818907958984375,-0.0007618146853521,0.0053525400090962,-0.0580085368543863,0.001072715036571,-0.0012314822524785,-0.0015359476674348
1783197559204845000,4.828844970703125,0.0125404787518084,0.0124018191997893,-0.0449824665427207,-0.0022389255464076,-0.0023532058112323,1.82730145752e-05
1783197559214783000,4.838782958984375,0.0126318833623081,0.0239252846624702,-0.0436339745432138,0.0004386873915791,0.0009974376298487,-0.0011314623989164
1783197559224720100,4.84872021484375,-0.0012163900524377,0.0215207625376991,-0.0554518381088972,-0.0022907862439751,-0.0024255234748125,0.0012786984443664
1783197559234658000,4.858657958984375,0.0015388269398361,-0.0001940430010668,-0.0551496402919292,0.0028785159811377,0.0016229962930083,0.0005571416113525
1783197559244595000,4.868594970703125,0.0008876695547252,-7.32113666832e-05,-0.0594891308009624,-0.0006051650270819,0.0006046034395694,-0.0009651212021708
1783197559254533000,4.878533203125,0.011098280586861,-0.018164529178664,-0.0570960981845855,0.0003264565020799,-0.0016637225635349,-9.82184428721e-05
1783197559264470000,4.888469970703125,0.021651713707298,-0.032309136925172,-0.0534983659535646,0.0021848110482096,-0.0002927272580564,-0.0004982252139598
1783197559274408200,4.898408203125,0.0158200849443674,-0.0158498772944323,-0.0497574258595705,0.0015725512057542,0.0007634321227669,6.98971562087e-05
1783197559284344800,4.9083447265625,0.0092472093600779,-0.0046119690411724,-0.0496031120806932,0.0017967894673347,-0.0018909410573542,0.0030529035720974
1783197559294283000,4.918282958984375,0.0042112610194832,-0.0047408926504664,-0.0521434442132711,-0.0011803247034549,-0.000512643251568,0.0006905330810695
1783197559304220000,4.928219970703125,0.0083841262573376,0.016732140021678,-0.0609784925758838,-0.0003827083855867,0.0007227971218526,0.0008852102328091
1783197559314158000,4.938157958984375,0.0049616409953683,0.0298737264717929,-0.0461637852817773,0.0013844370841979,-0.0026187482289969,-0.0033328307326883
1783197559324095000,4.948094970703125,0.0244319920755922,0.0314233488002792,-0.0516898552268743,0.0008808337152004,-0.0024530994705855,-0.0006630118004977
1783197559334033000,4.958032958984375,0.0278313521903008,0.022176778761018,-0.0605067834109067,-0.0034918300807476,-0.0026369704864919,-0.0042984439060091
1783197559343970000,4.967969970703125,-0.0121877563240006,0.035625458398927,-0.0606511603176593,-0.0018971292302012,-0.0007202932611107,-0.0022054656874388
1783197559353908000,4.977907958984375,-0.0370687342761084,0.0810317763769067,-0.0551321046352386,0.0028194645419716,0.0047681909054517,-0.0002713915891945
1783197559363846100,4.98784619140625,-0.0020822861667722,0.0544444694309495,-0.07221300329566,-0.0016423957422375,-0.0009767804294824,0.0017121308483183
1783197559373783000,4.997782958984375,0.0269924171481281,0.0140774973270483,-0.0546878679990768,-0.0026232786476612,-0.0048333634622395,-0.0004825165960937
1783197559383721200,5.00772119140625,0.0028404841229319,0.0516926865047775,-0.0533563271343708,0.0063126925379037,0.0055484375916421,0.0011595883406698
1783197559393657900,5.017657958984375,0.0089548388173803,-0.0272194491033442,-0.0719265875697135,-0.0026614731177687,-0.0019926480017602,0.0018256204202771
1783197559403596000,5.027595947265625,0.0279301729222759,-0.0335407976119779,-0.0374947411358356,-0.0005850074812769,-0.0022938516922295,-0.0015659150667488
1783197559413533000,5.037532958984375,0.0333735330199822,-0.0225281677482649,-0.0647621027678251,0.0013652062043547,0.0020709061063826,0.0017633223906159
1783197559423470800,5.047470947265625,0.0459531016731634,-0.0756551979050971,-0.0475350736349821,-0.0056660715490579,-0.0053230938501656,0.0035116877406835
1783197559433408000,5.057407958984375,0.0246694906258955,-0.0671951020684093,-0.0455634813010692,-0.0007863659411668,-0.0056480476632714,0.0015502325259149
1783197559443346000,5.067345947265625,-0.0433023314360529,-0.0127631450591608,-0.0719195733070373,-0.001110472716391,0.001304134260863,0.0006018807180225
1783197559453283000,5.077282958984375,-0.0045788522228598,-0.0131894624461419,-0.0339092838644981,0.0020221890881657,0.0024244110099971,0.0003284886479377
1783197559463221000,5.087220947265625,0.0394354999400675,-0.1114306044350378,-0.05423427901268,-0.004053546115756,-0.0044532022438943,0.0001551168970763
1783197559473158000,5.097157958984375,-0.0326981545090675,-0.0093690821740776,-0.0575303979486227,0.0027321120724081,0.0012048813514411,0.002359811682254
1783197559483096300,5.107096435546875,-0.0544223489306867,0.0296716280284337,-0.0698287385076284,0.0014125164598226,0.0046560717746615,0.0008018626831471
1783197559493033500,5.117033447265625,0.0055939110169187,-0.0537812197492457,-0.0424134928375482,-0.0038932058960199,-0.0076280604116618,0.0008023828268051
1783197559502971400,5.126971435546875,-0.0308023673577234,0.0079492967703379,-0.0624637626975774,-0.0007195165380835,0.0056728315539658,-0.0013507828116416
1783197559512908500,5.136908447265625,-0.0508997642951086,-0.0107181404291652,-0.0650356590121984,0.0015531666576862,0.0029095804784446,0.0004090250004082
1783197559522846500,5.146846435546875,-0.0223068896804004,-0.0174645276831462,-0.0481043979555368,-0.0043960688635706,-0.0047800312750041,0.0030396955553442
1783197559532783400,5.156783447265625,-0.0339334684576839,-0.0079937204339541,-0.0760913060337305,0.001912523061037,0.0060422713868319,0.0008018631488084
1783197559542721300,5.16672119140625,-0.0337548239551484,-0.0067117360657081,-0.0644546442538499,-0.0009117592126131,0.0042680734768509,0.0001160991378128
1783197559552658400,5.176658447265625,0.0141654496051371,0.0079173855284228,-0.0454448233574628,-0.0029285373166203,-0.0015387213788926,0.0011337453033775
1783197559562596400,5.186596435546875,0.0131242699891328,0.0116535763820633,-0.0643026685625314,0.0017836596816778,0.0034728152677416,0.0021995424758642
1783197559572533200,5.196533203125,0.0047278687721118,0.0284156183516606,-0.053393152013421,-0.0007458645850419,-0.0012621926143765,0.0014203137252479
1783197559582471400,5.206471435546875,0.0190859548725187,0.0354819582750089,-0.0421650710344314,-0.0023512179031968,-0.0019202600233256,0.0008501310367137
1783197559592408300,5.216408203125,0.0126188777502626,0.0367800352615304,-0.0475672223389148,-0.0002304138615727,0.0014342353679239,0.0029506555292755
1783197559602346500,5.226346435546875,0.0202864532360807,0.0257044779631309,-0.0471247392684221,0.0007549552246928,-0.0021604998037219,-6.24449457973e-05
1783197559612283400,5.236283447265625,0.0306077581010758,0.0147459894394502,-0.0563946719169616,0.0006928294897079,-0.0028567193076014,-0.0019395423587411
1783197559622221600,5.2462216796875,0.0296465483861044,0.0109252803738228,-0.0644721799105405,-0.0005695093423128,0.0015167235396802,0.001278355019167
1783197559632158200,5.256158203125,0.0188726409154012,0.0099731490144506,-0.0568505989909172,-0.0016542291268706,0.0008955593220889,-0.0001075803302228
1783197559642096400,5.266096435546875,0.0169531806275248,-0.0085322842900641,-0.0399509021162986,-0.0002134591341018,0.0006963545456528,-7.2160270065e-05
1783197559652034300,5.276034423828125,0.0138920760238543,0.0020760025564581,-0.0474368739575147,0.0011844532564282,-0.0007048374973237,0.0008263785857707
1783197559661971500,5.285971435546875,0.0286601676972582,0.0060965267768129,-0.0535749383211135,0.0004243878647685,-0.0006675533950328,-0.0007177223451435
1783197559671909400,5.295909423828125,0.0314940394163131,0.0135888004946522,-0.043092707273364,0.00124794524163,-0.0017725848592817,0.0002166784834116
1783197559681846300,5.30584619140625,0.0168307963568717,-0.0030673151487484,-0.0556511600732803,0.0015366319566965,-0.0018234509043395,-0.0031639384105801
1783197559691784400,5.315784423828125,-0.0082642992699518,-0.0022327457544393,-0.0553472086906433,0.0005159955471754,0.0002828808501362,-0.0002128453925251
1783197559701721300,5.325721435546875,-0.015444968021661,-0.0297197780190967,-0.0420318000435829,-0.0019061500206589,0.0013031377457082,-0.0018134051933884
1783197559711659500,5.335659423828125,0.0031709216536954,-0.0383165058474987,-0.0607382540792226,-0.001913490705192,-0.0010935789905488,-0.0016932338476181
1783197559721596400,5.345596435546875,0.0104756551764905,-0.0376078826541081,-0.0578939705640077,0.0015803100541234,-0.0002054148353636,0.0007350363302975
1783197559731534600,5.35553466796875,0.021141901021637,-0.0355759384350851,-0.0451700980693101,0.0013585230335593,0.0011769388802349,-0.0002924234140664
1783197559741471200,5.36547119140625,0.0052494814934208,-0.0190626470621675,-0.0524994180440902,0.002249083481729,0.000794508960098,-0.000856481026858
1783197559751409400,5.375409423828125,-0.0036920594509691,-0.0149690941382199,-0.0548901125729084,0.0023581087589263,0.0017980011180043,0.0019617134239524
1783197559761346300,5.38534619140625,-0.0033238471930846,-0.0256928788568824,-0.0510030420064926,0.000567665323615,0.0026520767714828,-0.000537130748853
1783197559771284200,5.3952841796875,0.0014845394693315,-0.0238159242701716,-0.042770051190257,0.0009022690355777,-0.0010999706573784,-0.001022383570671
1783197559781221400,5.405221435546875,0.0013880568249151,-0.0270490792388096,-0.0524795442998409,0.0016724551096558,-0.0014600302092731,0.0002063990104943
1783197559791159300,5.4151591796875,-0.00735496587269,-0.0212321000557392,-0.0587561403512954,0.0001685796305537,-0.0005653584375977,-0.0004463156219571
1783197559801096400,5.425096435546875,-0.0120303738052025,-0.0050666357398033,-0.0674286916285753,-0.001322790980339,-0.0011589769273996,0.0015427996404469
1783197559811034400,5.435034423828125,0.0073166066236793,0.0103725783945061,-0.0638344665288925,-0.000928621739149,-0.002215823624283,-0.000109578249976
1783197559820971500,5.444971435546875,0.0246447580434381,0.0339868060801178,-0.0605401011586189,-0.0029584821313619,0.0015176613815128,0.0032507982105016
1783197559830909200,5.4549091796875,0.0304835471995174,0.0465941943219862,-0.0515559997141361,-0.0005675498396158,-0.0018703192472457,-0.0017564648296684
1783197559840846300,5.464846435546875,0.0185993403993546,0.0536484419487416,-0.0666723203033208,-0.000743318349123,0.0011582276783883,-0.0003748168237507
1783197559850784300,5.4747841796875,0.0150927935831248,0.052718010964524,-0.0567974074989557,-0.0001663286238908,0.0013413256965577,0.0013263470027595
1783197559860721400,5.484721435546875,0.0263078689500689,0.0410745175850577,-0.057100774359703,0.0002949303016066,0.0003482331521809,3.8442434743e-05
1783197559870659300,5.494659423828125,0.0538673819290474,0.027614476302918,-0.0542354480564594,5.77066093683e-05,-0.0033876956440508,0.0008467875886708
1783197559880596500,5.504596435546875,0.0377710007939487,0.0143322392730973,-0.0494376923859119,0.0008300235494971,-0.0039126048795878,0.0012734259944409
1783197559890534400,5.514534423828125,-0.0087795918483287,0.0088638360656797,-0.0625999562978744,-8.4581784904e-05,0.0006027650088071,0.0010928499978035
1783197559900472300,5.524472412109375,-0.026534919171594,0.002886971879471,-0.0669447075039148,0.0017830934375524,-0.0014300257898867,-0.0001721517182886
1783197559910409500,5.534409423828125,-0.0261351792642846,-0.0134596028907224,-0.0606552519708871,0.001265357248485,0.0003895494155585,0.0014967375900596
1783197559920347400,5.544347412109375,0.0044900414282456,-0.0004673617834225,-0.0459942739337682,0.0024248976260423,-0.0009199269115924,-0.0021392761263996
1783197559930284300,5.5542841796875,0.0031831966133788,0.0048513855539262,-0.062304188221693,-6.47455453872e-05,-0.0016759084537625,0.0026870192959904
1783197559940222200,5.56422216796875,-0.0143659406132996,-0.0044706791406497,-0.0600596241652965,0.0048626353964209,0.0053058345802128,0.0015557087026536
1783197559950159400,5.574159423828125,-0.0141224141810089,-0.0523295596362091,-0.0590063157200813,-0.0017968798056244,-0.0088899936527013,-0.0016534263268113
1783197559960097300,5.58409716796875,-0.0602805369069799,0.0501667373128235,-0.0570651185244321,0.0030719116330146,0.0020617228001356,-5.84593508392e-05
1783197559970034400,5.594034423828125,-0.0061645505117252,-0.05485151586188,-0.0669540598541498,0.0006406726315617,-0.0082951020449399,-0.0007628269959241
1783197559979972400,5.603972412109375,0.0197970988165587,-0.1102276766523718,-0.0498386744022369,-0.0116695230826735,-0.0116128697991371,0.0011101744603365
1783197559989909500,5.613909423828125,-0.0548540548788383,0.0268971218138001,-0.0634486820816993,0.0050415284931659,0.009927462786436,0.0002555397804826
1783197559999847400,5.623847412109375,-0.0404824151771143,-0.036307887705136,-0.067371408483386,-0.0029676612466573,-0.0037289601750671,0.0017487739678472
1783197560009784600,5.63378466796875,0.0277185394655913,-0.0234610281515866,-0.0284118554919958,-0.0050182184204459,-0.0126464860513806,-0.0010090938303619
1783197560019722500,5.643722412109375,-0.0173659626794978,0.0372421728805638,-0.0896048676013946,0.0071233985945582,0.012278838083148,0.0011387458071112
1783197560029659400,5.653659423828125,-0.0336194340724498,0.0277071960876695,-0.058050037908554,0.0012982068583369,-0.0059706955216825,-0.001020528608933
1783197560039597300,5.663597412109375,0.0142898797024041,0.0349932797089219,-0.0527858337700366,-0.004211607389152,-0.0016760821454226,0.0015446280594915
1783197560049534200,5.6735341796875,0.0169117161059752,0.0394636848549358,-0.064475102519989,0.0031302357092499,0.0069548194296658,0.0017978551331907
1783197560059472400,5.683472412109375,0.0277381209488958,0.0428456554434262,-0.0640308658838272,-0.0004882011562585,-0.005287998355925,0.0028998714406043
1783197560069409300,5.6934091796875,0.0328598844094201,0.020214136918541,-0.0348240606218576,-0.0017098970711231,-0.0026118704117834,0.0006806841120123
1783197560079347500,5.703347412109375,-0.0049441784039139,0.0190809133712202,-0.0581798017680645,0.0030054962262511,0.0056758867576718,-5.22180926054e-05
1783197560089284400,5.713284423828125,0.0045690980138257,-0.0044866073621436,-0.0611912585437297,-0.0021561384201049,-0.0018083117902278,-0.0011534600052982
1783197560099222500,5.723222412109375,0.023274711799249,-0.0160083009928464,-0.0483043044418096,-0.0021912921220064,-0.00327864382416,-0.0014828930143266
1783197560109159400,5.733159423828125,0.0115086514860391,-0.0166489369839429,-0.0556429767668247,-0.0009253295138478,0.0059967976994812,0.0028887107037007
1783197560119097300,5.743097412109375,0.0104679102614521,-0.0242122118450701,-0.0567003768652677,-0.0012635514140129,-0.0029556849040091,-0.0032552019692957
1783197560129034200,5.7530341796875,0.0041237653991207,-0.0386527155319228,-0.0554997689038515,-0.0009082024917006,0.0004271790385246,0.0012497245334088
1783197560138972200,5.76297216796875,-0.0160044285353273,-0.0275637690289877,-0.0668967767089605,-0.0008733151480555,0.0038858263287693,0.0001727421768009
1783197560148910300,5.772910400390625,0.0034460853332653,-0.0156024784046225,-0.056289457976818,0.0007749600335955,0.0038870191201567,-0.0026095625944435
1783197560158847200,5.78284716796875,0.022395444746688,-0.0068690272529609,-0.050899581632018,0.0005856091156601,-0.0017098798416554,0.0009311102330684
1783197560168785400,5.792785400390625,0.0067146952077746,0.0001308050391264,-0.06781155346632,-0.00089608784765,0.0018114666454494,-0.0002609973307698
1783197560178722300,5.802722412109375,-0.0036011662971228,-0.0246284827620722,-0.0523965421915054,-0.0019602868705987,-0.0009377147071063,-0.0006559442263096
1783197560188660500,5.812660400390625,-0.0300493570333346,-0.0561708913647569,-0.0461041640490293,-9.78978350758e-05,-0.0013040583580732,0.0014994014054536
1783197560198597400,5.822597412109375,-0.036806247415021,-0.042337157932017,-0.0440168363809585,-0.0004419777542352,0.0021330174058675,0.0006607719697058
1783197560208535600,5.83253564453125,-0.0038586847221478,-0.0445047660283744,-0.0389379256814718,-0.0023714266717433,-0.0038835299201309,-0.0015694207977503
1783197560218472400,5.842472412109375,0.0410089232692494,-0.0253838311740197,-0.0640659371972084,-0.0033506704494357,-0.0014984025619924,-0.0004405069630593
1783197560228410400,5.852410400390625,0.0185549898009747,0.0074666278199292,-0.0588262829780578,-0.0015485538169741,-0.000763427466154,0.002238139277324
1783197560238347300,5.86234716796875,-0.0261237810874357,0.0257067795180715,-0.0423714072614908,0.0004855692386627,-9.2205591499e-06,-0.0011880176607519
1783197560248285200,5.87228515625,-0.0391970150090754,0.0296252498697489,-0.0423778370022773,-0.0017442731186747,0.0025598264764994,-0.0020883183460682
1783197560258222300,5.882222412109375,-0.015677863462083,0.0320243651670403,-0.0552449173599481,-0.0006281426176428,-0.0018133507110178,0.0034332135692238
1783197560268160300,5.89216015625,0.0045129473797976,0.0318441314956173,-0.0482131190270185,-0.0002835821360349,0.0011652209796011,0.0018968479707837
1783197560278097400,5.902097412109375,0.0179600561151281,0.041132147790119,-0.0410316830903291,0.0008863443508744,0.0048070941120386,-0.0006411443464457
1783197560288035300,5.912035400390625,0.0360455652408301,0.0450330276861786,-0.042533319824934,-6.97849318385e-05,-0.0016294070519506,-0.0002001125831156
1783197560297972500,5.921972412109375,0.0499118857689201,0.0421408316423185,-0.0465741196483373,0.0008000042289495,-0.0027495329268276,0.0029147206805646
1783197560307910400,5.931910400390625,0.031545988799259,0.0190467188406735,-0.0377443319827318,-9.08030197024e-05,6.69220462441e-05,0.0032408058177679
1783197560317847600,5.94184765625,0.0052917131999507,0.0085840692762285,-0.0362432797700166,0.0013028290122747,-0.0003943373449146,-0.0014556786045432
1783197560327785200,5.95178515625,0.000223543090187,-0.0095710892858915,-0.036979192829132,0.0006615733727812,-0.002639636863023,0.000360204372555
1783197560337722400,5.961722412109375,-0.0144193513009697,-0.0132434759220108,-0.0360702612906694,-0.0021113101392984,0.0005353833548724,0.0027751587331295
1783197560347660300,5.971660400390625,-0.0182833332527428,-0.0094561942019499,-0.0498380898803472,0.0007724035531282,0.0016550342552363,0.0028576783370226
1783197560357598200,5.98159814453125,-0.0211895030230283,-0.0146698554633185,-0.0384767379105091,-0.0012326901778578,0.0022435926366597,-0.0021738316863775
1783197560367535400,5.991535400390625,0.0022097119387239,-0.0239700371196493,-0.0330874460875987,-0.0012617949396371,-0.0019299159757792,-0.0008585979230701
1783197560377473300,6.001473388671875,0.0237783870050683,-0.014470423901081,-0.0432464365303516,0.0002056071534752,-0.0050942837260663,0.0006777795497328
1783197560387410400,6.011410400390625,0.0208439775209873,-0.0015536591827869,-0.0306593421578407,-0.0002427343279123,-0.0032580099068582,0.0003368058241903
1783197560397348400,6.021348388671875,-0.0022490575684234,0.0059545975554734,-0.025552374407649,-0.0024113468825817,-0.0035877092741429,0.0026721316389739
1783197560407285500,6.031285400390625,-0.0372914736486971,0.0137963057654909,-0.0355734176844358,-0.0010959925130009,0.000232758000493,0.0010823379270732
1783197560417223400,6.041223388671875,-0.0421813645821064,0.0030823483210988,-0.0454372245728969,-5.65610826015e-05,9.3188136816e-06,0.0041817249730229
1783197560427160300,6.051160400390625,-0.0286470890199765,-0.0190440154269337,-0.0304980141162872,-0.0018422128632664,0.0033584616612643,0.003532092552632
1783197560437098200,6.06109814453125,0.0334567177914083,-0.0410640327236615,-0.0343885918140411,-0.00116150919348,0.0025469965767115,0.0023443228565156
1783197560447035400,6.071035400390625,0.0462896766837686,-0.0748002798425033,-0.0005827683240175,-0.0042334655299782,0.0008742650970816,0.003834094852209
1783197560456973300,6.080973388671875,0.0396633173465728,-0.0511147404863499,-0.0354570978283882,-0.0031839134171605,0.0031318268738687,0.0011629443615674
1783197560466910500,6.090910400390625,0.0542041030701249,-0.0422911268332041,-0.0282768309354782,-0.0031782621517777,-0.0088353995233774,0.0030083241872489
1783197560476848400,6.100848388671875,-0.0012619096945971,0.0235489986959844,-0.0332277313411235,-0.0017603943124413,0.0107287149876356,-0.0011731053236871
1783197560486785500,6.11078564453125,0.0090896076455712,0.0010451068724505,-0.015720131701231,0.0002601658925414,-0.002880142070353,2.88933515548e-05
1783197560496723700,6.1207236328125,-0.011174158834666,0.0053031296431086,-0.0399666842073202,-0.0028504049405455,0.0003052651882171,0.0035647724289447
1783197560506660600,6.13066064453125,-0.0140844567907974,-0.0163052015801891,-0.0241103589057922,0.0013060793280601,0.0029324903152883,-0.0011468555312603
1783197560516598800,6.140598876953125,-0.0001877776570618,-0.053324543756619,-0.0182820911437273,-6.35841861367e-05,0.0011742715723812,-0.0015862770378589
1783197560526535700,6.15053564453125,-0.0173108349587768,-0.0249811503909528,-0.010361819538474,-0.0032863821834325,0.0002845982089638,-0.0003520301543176
1783197560536473900,6.160473876953125,-0.0121155678706243,-0.009496763674356,-0.0232382522463798,-0.0023537436500191,-0.0008938503451645,0.000422949437052
1783197560546410500,6.170410400390625,-0.0212128108333796,0.050043549324572,-0.0060457099050283,0.0011456096544861,0.0040710689499974,0.0002888299059122
1783197560556348700,6.1803486328125,0.0069722501654177,0.067667395755276,-0.0198234753668308,-0.0003452282398939,0.0012427917681634,0.001108551165089
1783197560566285600,6.19028564453125,0.0233052896006032,0.0742705568799749,-0.0105564653277397,-0.0018644910305738,0.0023593096993863,5.11987600475e-05
1783197560576223500,6.200223388671875,0.0266630755959078,0.0691784031064249,-0.0077262103378772,0.0014538075774908,0.0026029888540506,0.0013859749305993
1783197560586160600,6.21016064453125,0.0370258449824526,0.0507107993279583,-0.0138654437452554,0.0009119911119341,-0.0021872650831937,-0.0021463520824909
1783197560596098600,6.2200986328125,0.009436448321864,0.0416973439248278,-0.0077227032065391,0.0020651398226618,0.000725966412574,-0.0015234388411045
1783197560606035700,6.23003564453125,-0.0120757107842713,-0.0004398709882982,-0.0045814825713634,0.0017711473628878,0.0003404566086828,-0.0016488248948007
1783197560615973600,6.2399736328125,-0.028488866250962,-0.0012177965582348,-0.0072778820484876,0.000117590650916,0.0002198154106736,-0.0030712191946804
1783197560625910800,6.249910888671875,-0.0168090229164808,-0.0065711037523113,-0.0219447053045034,0.0005040606483817,-0.0003789025358855,-0.0016985510010272
1783197560635848700,6.2598486328125,0.0036089477447792,0.01817039266387,-0.0129693716883659,0.0023581534624099,-0.0012449622154235,0.0005251886323094
1783197560645785600,6.26978564453125,0.0228811093717813,0.0085169223241508,-0.0170049108147621,-0.0009384155273437,-0.0024786693975329,-0.0013353589456528
1783197560655723500,6.2797236328125,0.0226669551644474,0.0096455792942084,-0.0132610481113195,0.0004400359466671,0.0030718909110873,0.0009501660242676
1783197560665660700,6.28966064453125,0.0045133127059787,0.0008336926114745,-0.013716975185275,0.0017949920147657,-0.0003597163595259,-0.000309964409098
1783197560675598600,6.2995986328125,-0.0024955796753987,-0.0097505740386433,-0.0093798227638006,0.002783291041851,0.0015923809260129,-0.0021904222667217
1783197560685535700,6.30953564453125,-0.0040884018247947,-0.0228877035093493,-0.0128261638253927,0.0013549113646149,0.0017869835719466,-0.0001834400463849
1783197560695473700,6.3194736328125,0.0035580578077584,-0.0228885072269476,-0.0072848963111639,0.0026670508086681,-0.0006087957881391,0.0006376125384122
1783197560705410800,6.329410888671875,0.0032210809383541,-0.0190017106551677,0.0005061959564685,0.0024297060444951,-0.0004898970946669,0.0008002396207302
1783197560715348700,6.3393486328125,-0.0008761983126401,-0.0234855232720263,-0.0068377370655536,-0.0014728903770446,0.0041653085500001,-0.0017918152734637
1783197560725286000,6.349285888671875,0.011144713544473,-0.0168192155169323,0.0037754268854856,-0.0039563225582242,-0.0002312692813575,-0.0004408683162182
1783197560735223800,6.359223876953125,0.0091189433379098,-0.0306012004961259,0.0049520694494247,-0.0006313659250736,0.0044079571962356,-0.0024757897481322
1783197560745160700,6.36916064453125,0.0402068496387451,-0.030536756957788,0.0009112696260213,-0.0007935399189591,-0.0010243169963359,-0.0040107704699039
1783197560755098600,6.3790986328125,0.0341875162839889,0.0147892805919051,0.0112432785481214,-0.0030636182054877,-0.003446196205914,-0.0033758729696273
1783197560765035500,6.389035400390625,0.0159291713420301,0.041625666928105,0.0317787015765905,0.0055490448139607,-0.0053474260494112,-0.0077469190582633
1783197560774973700,6.3989736328125,0.0173010442171245,0.0548405378101393,0.0611252075701952,0.0098117003217339,0.0003623906522989,-0.0130002703517675
1783197560784910600,6.40891064453125,0.1178130172148346,0.0603929477728903,0.0508826304972171,0.0098011391237378,-0.0167035870254039,-0.0114556401968002
1783197560794848800,6.418848876953125,0.122191707223095,-0.0491125520847737,0.0071416884481906,-0.0007391199469566,-0.0190740674734115,-0.0088968742638826
1783197560804785700,6.42878564453125,0.0257831509562209,-0.0899570055073127,-0.1134060144275426,-0.0013540210202336,-0.0020161890424788,-0.0017457935027778
1783197560814723800,6.438723876953125,-0.0391741090575233,-0.1184010645021684,-0.1828501375317573,-0.0096039613708853,-0.0015599890612065,0.0036705434322357
1783197560824660700,6.44866064453125,-0.1293329938124865,0.0041789296524599,-0.0432271473079919,-0.0034836484119296,-0.0034946422092616,0.001740081468597
1783197560834598700,6.4585986328125,-0.1589460052551701,0.0731821953876875,0.0140261872649192,0.0067977509461343,0.017547259107232,0.0026748508680611
1783197560844535600,6.46853564453125,-0.0555320637382566,-0.0178119894139468,0.0223509480178356,-0.0048112962394952,0.0017810789868235,0.0002669459208846
1783197560854473500,6.478473388671875,0.0955859147723764,0.007107840977516,-0.0012888707667589,-0.0032605379819869,-0.0036610905081033,0.0040734019130468
1783197560864410600,6.48841064453125,0.1274871467500925,-0.0600212831825949,0.0138239426910877,0.0006825467571616,-0.0013146796263754,0.0034857559949159
1783197560874348500,6.4983486328125,0.0694757603514939,-0.040998730668798,0.0243067582607269,-0.0038168644532561,-0.0054670800454914,-0.0002956662792712
1783197560884285700,6.50828564453125,0.0147942124953493,-0.0298133745866827,-0.0084469258278608,-0.0032956833019852,9.65292565524e-05,0.0017424509860575
1783197560894223600,6.5182236328125,-0.0080608491197228,-0.0058182395583949,-0.0087380177289247,-0.0018671639263629,-0.0013554259203374,-9.43313352763e-05
1783197560904160800,6.528160888671875,0.0007324789930135,0.0162447766298428,0.0069832830160856,0.0012323688715696,-0.000162795651704,0.002605557674542
1783197560914098700,6.5380986328125,0.0058679787179455,0.0166312003978528,-0.0042255087405443,-0.0034721046686172,-0.0048321159556508,0.0011908861342817
1783197560924035600,6.54803564453125,-0.0214401167832314,0.0278380376594141,-0.0260597394078969,-0.0032238373532891,-0.0013113147579133,0.003643387928605
1783197560933972500,6.557972412109375,-0.0594418941257521,0.0273123332848772,-0.0043587797313928,-0.000873863697052,-0.0015387488529086,0.0005661053583025
1783197560943910700,6.56791064453125,-0.0712517935806885,0.0426696960883215,0.0152215345293283,0.0011938214302062,0.0049049365334212,-0.001879361923784
1783197560953847600,6.57784765625,0.0005223799062892,0.0313738836353644,0.0015951602369546,-0.0015670778229832,0.0014209891669452,-0.0008343374356627
1783197560963785700,6.58778564453125,0.0559308172648772,0.015787022924982,0.0039992987692356,1.23949721455e-05,-0.0061508463695645,-7.41539988666e-05
1783197560973722600,6.59772265625,0.0590433963274583,0.0266130076427944,0.0008779518783092,0.0007365085184574,-0.0003353017382323,-0.0021298478823155
1783197560983660800,6.607660888671875,0.0427676400374621,0.0216990417140536,0.0038730420410633,0.0028565246611833,0.0001546232961118,-0.0005755289457738
1783197560993597700,6.61759765625,0.0272310116769745,0.0272353042596019,-0.0109141927242279,-0.00085751991719,-0.0080495104193687,-0.0025981997605413
1783197561003536000,6.627535888671875,-0.0270864521071314,0.0576487636312842,-0.0182493579179048,0.0006661834195256,0.008077997714281,-0.0016546181868761
1783197561013472500,6.637472412109375,0.0330938392957672,0.0289249561132863,-0.0155634798347949,0.0049283066764473,-0.0008372003212571,-0.0026921858079731
1783197561023410400,6.647410400390625,0.103898656293936,0.0150460866308771,-0.0173567929923534,-0.0042198095470666,-0.005329561419785,-0.0016832870896905
1783197561033347600,6.65734765625,0.0748209207717329,-0.018458050498832,-0.0104331312090158,-0.0006013717502355,-0.0086627732962369,-0.0001804651692509
1783197561043285500,6.667285400390625,-0.1070836795382201,-0.0436001270725391,-0.0068260466277599,-0.002571728080511,-0.0038867257535457,4.61933668702e-05
1783197561053222700,6.67722265625,-0.272654655891098,-0.031533494643867,-0.0054845688909292,0.0016813399270176,0.0082080205902457,-0.0030199037864804
1783197561063160600,6.68716064453125,-0.2409199395867064,-0.0335490174510516,-0.0033089784175157,0.0026705441996455,0.0150393303483724,-0.0040543656796216
1783197561073097700,6.69709765625,-0.0005232201565057,0.0274155744636431,0.0010363573104143,-0.0041977474465966,-0.0229192376136779,-0.0069846417754888
1783197561083035000,6.707034912109375,-0.0354375163450837,0.2182974446184933,-0.0195785606950521,0.002697667106986,0.027155764400959,-0.0045716958120465
1783197561092972800,6.716972900390625,0.0519559953497722,0.2499637170628644,0.0542377861440181,0.0336494594812393,0.0397815406322479,-0.0001010471023619
1783197561102909400,6.726909423828125,0.7123899985782801,-0.1724893957055173,-0.0894914703547954,-0.0217679403722286,-0.0550560653209686,0.0036016509402543
1783197561112847600,6.73684765625,0.4998509713560342,-0.3732308166988193,0.1604927597731351,-0.0049862964078783,-0.0319771133363246,0.0162221062928438
1783197561122784500,6.746784423828125,0.1887728055790066,-0.6062468878258019,-0.1066121165037155,-0.0185824073851108,-0.056213591247797,0.0134832169860601
1783197561132722700,6.75672265625,-0.8638335557814687,-0.1564129431135952,0.0549421350210905,-0.0152321485802531,0.003790091490373,-0.0001284661702811
1783197561142659600,6.76665966796875,-1.153191253463924,0.0668740168878808,-0.0109767365664243,0.0302603188902139,0.0742295309901237,-0.0036326651461422
1783197561152597800,6.77659765625,-0.1930859560703858,0.2222037496083416,-0.0214145439505577,0.0016180220991373,0.0361386053264141,-0.0050864848308265
1783197561162534700,6.78653466796875,0.834462426803261,0.3715008511010557,0.0712660778343677,-0.0102541660889983,-0.049659114331007,-0.0046418779529631
1783197561172472800,6.796472900390625,0.968028966532275,0.4746781708505004,-0.1030558853268623,-0.0028548398986458,-0.0107639143243432,0.003701273119077
1783197561182409700,6.80640966796875,0.3206157729184254,0.2910160045498051,0.09052724314332,0.0022592209279537,-0.0299524962902069,-0.0010243142023682
1783197561192346600,6.8163466796875,-0.33986937597543,0.2114547391168773,0.0003887070566415,0.0004836907610297,0.0115102576091885,-0.0023164800368249
1783197561202284500,6.826284423828125,-0.6013824601272121,-0.129440965965297,-0.0118599491417407,0.0120870014652609,0.030289277434349,-0.0016279274132102
1783197561212221700,6.8362216796875,-0.2882202911503613,-0.3027880014134571,-0.0280856922775506,0.0038290712982416,0.0035202484577894,-0.0049531506374478
1783197561222159600,6.84615966796875,0.0941408305305987,-0.3496913164835423,0.0412263288795948,-0.0037565007805824,-0.0079682329669594,-0.0016703344881534
1783197561232096800,6.8560966796875,0.1279207523943856,-0.2554649082950316,-0.0189051914781332,-0.0030534267425537,-0.004016101360321,-0.0053010219708085
1783197561242034700,6.86603466796875,-0.0072540627814829,-0.0068444773335941,0.0047205987811088,-0.002011957578361,0.0031239632517099,-0.0051876339130103
1783197561251971800,6.875971923828125,-0.0617492577526718,0.0667357226620428,0.0214870246648788,-0.0026513813063502,0.0029007904231548,-0.0061631500720977
1783197561261909800,6.88590966796875,-0.053278074266389,0.296405862628296,0.0048474400311708,0.00767503073439,0.0058971843682229,-0.0037413104437291
1783197561271846700,6.8958466796875,0.0353304027087986,0.316105346289277,-0.0357522813826799,0.0069708907976746,0.0152494069188833,-0.0024438183754682
1783197561281783600,6.905783447265625,0.2726384354086593,0.1996727505821734,0.0164513685852289,0.0041938396170735,-0.0137473419308662,-0.0032433148007839
1783197561291721500,6.915721435546875,0.3063525985598564,-0.0183330176133662,-0.0250444248855113,-0.00833420176059,-0.0233240686357021,-0.0027471678331494
1783197561301658600,6.92565869140625,-0.0581835646277293,-0.1132973664212971,0.0043564416438341,0.005062292329967,-0.0042475266382098,-0.0026477968785911
1783197561311596500,6.935596435546875,-0.3618694647289812,-0.4070762415468693,-0.0049397944897413,0.0005458369851112,0.0084419026970863,-0.0026400736533105
1783197561321533700,6.94553369140625,-0.3581932604342699,-0.4194798691112548,0.0258621710091829,-0.0028661135584115,0.004081136547029,-0.0019676373340189
1783197561331471600,6.9554716796875,-0.1780424449890852,-0.3194624016322195,-0.0163806414365768,-0.0019502528011798,0.009002124890685,-0.0003010311629623
1783197561341408800,6.96540869140625,0.0144733830431476,-0.1392022257947363,0.0205436063349246,-0.0062177050858736,-0.0028725690208375,-0.0013631391339004
1783197561351345700,6.975345703125,0.158085077576898,0.1477464745172299,0.000785012897849,-0.0007555615156888,0.0012739729136228,-0.0029482524842023
1783197561361283800,6.985283935546875,0.2250540062066167,0.2985724112787283,-0.003287935629487,-0.000823475420475,0.0010256706736981,-0.0021776864305138
1783197561371220500,6.995220458984375,0.248880214408785,0.3443319814074784,-0.0062713353544473,-0.0001968331634998,-0.0073696780018508,-0.0008466385770589
1783197561381158700,7.00515869140625,0.1768002994408831,0.2281224721328355,-0.0027969372421503,0.0017736265435814,-0.0030557387508451,-0.0004309974610805
1783197561391095600,7.015095458984375,0.0521056694861501,0.0537045377838425,0.0140139123052358,0.0024782987311482,-0.0038504260592162,-0.002872583689168
1783197561401033700,7.02503369140625,-0.0831360003808513,-0.1194303344846703,-0.0143786539644002,-0.0035498356446623,-0.0027413177303969,0.0009158181492239
1783197561410970600,7.034970703125,-0.195089879771322,-0.2256539813937619,0.0074795421004295,0.0031908918172121,0.0035349540412425,0.0006180766504257
1783197561420907800,7.04490771484375,-0.140238053382188,-0.2208789124790579,0.0047685295760631,-0.0012725852429866,0.0033169714733958,-0.0015521375462412
1783197561430845700,7.054845703125,-0.034012525043264,-0.1647420877806842,0.0007166238367557,-0.0028667543083429,-0.0047476128675043,-0.0041324743069708
1783197561440782600,7.064782470703125,-0.016620185813494,-0.007448891233839,0.006232756909728,0.0004719793796539,0.0049862172454595,-0.0030248498078435
1783197561450720500,7.074720458984375,0.0222974277323111,0.1123039532034657,0.014272855502367,0.0020083570852875,0.0025744584854692,0.0020183785818517
1783197561460657700,7.08465771484375,0.0861066136894747,0.173088494109828,0.0133802905768156,-0.0008328836411237,-0.0044625401496887,-0.004960638936609
1783197561470595600,7.094595703125,0.1082461474463343,0.2129383835370652,-0.0053197337180376,0.0056551089510321,0.0027546267956495,0.000526005635038
1783197561480532700,7.10453271484375,0.0966796282932162,0.1700319378171116,-0.0096498718768358,0.0028096996247768,0.0006166733801364,0.0004155354108661
1783197561490469000,7.11446923828125,0.0699926603650674,0.086565591237042,0.0120785603284835,0.0001774309203028,-0.001988164614886,-0.0003482594620436
1783197561500407300,7.1244072265625,0.0355128100709989,0.0009027940586209,-0.0034732290685176,0.001135085709393,0.003536619246006,-0.001729339826852
1783197561510344200,7.13434423828125,0.0190329825762659,-0.0590278151658363,0.0050683893054723,-0.0022593792527914,-0.0065985731780529,0.0016107966657727
1783197561520282400,7.144282470703125,-0.0059142290124669,-0.0633372210638597,0.0061322191447019,0.0008365409448742,0.0022235859651118,-0.0001622224226593
1783197561530219300,7.15421923828125,-0.0344608898652717,-0.0597684591989964,-0.0063075757116079,0.0015590563416481,0.0024907009210437,4.87000215798e-05
1783197561540157400,7.164157470703125,0.011042824072577,-0.0625014278268441,0.0004220248043537,-0.0025290921330451,-0.0045997477136552,-0.0005960275884717
1783197561550094000,7.174093994140625,0.0188220432393252,-0.049944071005471,0.006400514692068,-0.0022827489301562,-0.0003882250748574,0.0024562212638556
1783197561560031200,7.18403125,0.0063279243798926,-0.0343502142987214,-0.0097796357363462,-0.0014520045369863,0.0007281578145921,0.0026281361933797
1783197561569969200,7.19396923828125,0.0284538314701989,-0.0437939326115883,0.004884264910221,-0.0016826344653964,-0.0058344034478068,0.0005146514158695
1783197561579906300,7.20390625,0.000760389913246,-0.0373651234067976,0.0039987142473459,0.0017658611759543,-0.0016835397109389,0.0018380114343017
1783197561589844200,7.21384423828125,-0.0286173514688387,-0.0257446821093559,-0.0003407762616872,-0.0001308424398303,0.0003545773215591,0.0026081975083798
1783197561599781400,7.223781494140625,-0.0150393098302185,-0.0055332303382456,0.0143178636878728,-0.0021906411275267,-0.0010201297700405,0.0020357428584247
1783197561609718300,7.23371826171875,0.0295317994326353,0.0157453574740327,0.0144715929448604,-0.0008212439715862,0.0003543272614479,0.0017337405588477
1783197561619656400,7.243656494140625,0.0545246402613818,0.032231139785517,0.0044470425367355,-0.0022545335814356,-0.0001860130578279,0.003203997388482
1783197561629593000,7.253593017578125,0.050432037185505,0.0293439852429553,0.0092523969918489,-0.004151502624154,-0.0081949364393949,0.0020915949717164
1783197561639531000,7.263531005859375,-0.014209434877336,0.018357914592605,0.0067284314721822,-0.0021734731271862,-0.0033395709469914,0.00278373924084
1783197561649468200,7.27346826171875,-0.0728900623070076,-0.0020688604296185,0.0128641577482223,0.0010422933846712,0.003006475046277,-0.0030049078632146
1783197561659405300,7.2834052734375,-0.0745463050814345,-0.0169180362489074,0.0044704234123229,-0.0011344011873006,0.0008724215440452,0.000549777643755
1783197561669343200,7.29334326171875,-0.0220562759201973,-0.0174896255917847,-0.0019610709398984,-0.0008949823677539,-0.0010282765142619,-0.0006899237632751
1783197561679280400,7.3032802734375,0.0152547792118042,-0.0049496765629388,0.0213800571590662,0.0041159624233841,-0.0003357110545039,-0.0001106907147914
1783197561689218300,7.31321826171875,0.0281404912047088,0.0054473056204617,-0.0004641103804111,-0.0023254249244928,-0.0033440180122852,-0.0005037731025367
1783197561699155500,7.323155517578125,0.010216931175068,0.0312977679255418,0.0034364041894674,-0.0015063537284731,-0.002075535710901,-0.0034962422214448
1783197561709092000,7.333092041015625,-0.0306450944367796,0.0541266173871234,0.0058235915869474,0.0045022703707218,0.0025666200090199,-0.0019311024807393
1783197561719030000,7.343030029296875,-0.0256806404298171,0.0507495604357682,0.0103033673495054,-0.000829366967082,0.0007624211721122,-0.0019429341191425
1783197561728967200,7.35296728515625,0.0102600761970505,0.0273300150720402,0.0085194065421819,0.0015959739685058,0.0007264683954417,0.0002001116517931
1783197561738905000,7.362905029296875,0.0034847733758389,0.0293821070299483,-0.0082481883853673,0.0003039324656128,0.0034956985618919,0.001934656407684
1783197561748842200,7.37284228515625,-0.0045373877013102,0.0226304956115782,0.0083598320662975,0.0026291385293006,0.0011686286889016,0.0013836482539772
1783197561758779400,7.382779296875,-0.0108545349588617,0.0214263257198967,0.0110468791931867,-0.000236946158111,0.0016241227276623,0.000398431206122
1783197561768717300,7.39271728515625,0.0090168712029233,0.0079041424543596,-0.0015302783071994,0.0026826774701476,0.0030534411780536,0.0028578608762472
1783197561778654500,7.402654541015625,0.0268302853889763,0.0030527021015062,0.011036942321062,7.71516934037e-05,-0.0002790610305964,-0.001026313053444
1783197561788592400,7.41259228515625,0.0209909847762435,0.0044315892392769,0.0080447747677564,0.0015855664387345,0.0012189671397209,0.0004607962910085
1783197561798529000,7.422529052734375,-0.0048082405319437,-0.0123683918542228,-0.0034779052436351,0.0010221134871244,0.0012169801630079,-0.0025708840694278
1783197561808466200,7.432466064453125,-0.021649631348066,-0.0246486305009573,0.0135761054098606,0.0013760477304458,0.0012129852548241,-0.0003873582463711
1783197561818404000,7.442404052734375,-0.0089697075929492,-0.054962410624139,0.010283493605256,0.0015128450468182,0.0015765144489705,-0.0016984397079795
1783197561828341200,7.45234130859375,0.007278722298704,-0.0657525203109718,-0.0060310968577861,-0.0008326014503836,-0.000375316478312,0.0001761594321578
1783197561838278400,7.4622783203125,0.0057818348044529,-0.060179706881009,0.0096826051026582,-0.0028825253248214,-0.001137601211667,-8.18471889942e-05
1783197561848216300,7.47221630859375,-0.011666289733164,-0.0458624094487167,0.0119376905530691,0.0004682643339037,-0.0004387879744172,-0.0005279267206788
1783197561858153200,7.4821533203125,-0.0231528755178675,-0.032807149575185,0.01312953068614,0.0005350951105356,0.0011683385819196,0.0028868915978819
1783197561868091400,7.49209130859375,-0.0018794205384328,-0.0061718022364191,0.0134264678061008,-0.0017475010827183,-0.002797108143568,0.0019449314568191
1783197561878028000,7.502028076171875,0.0303302928665652,0.0174425715796649,0.0116284784734249,-0.0044646942988038,-0.0003521437756717,-0.0038157121744006
1783197561887965200,7.511965087890625,0.055782750563696,0.0507302346807904,0.0004039046257734,-0.0009527849033474,0.000868116505444,0.0009263122919946
1783197561897903000,7.521903076171875,0.0469066395383328,0.0732277150298468,0.0013087445110082,0.0016039349138736,-0.0016619167290627,-0.0001272854860872
1783197561907840300,7.53184033203125,0.0325718612482771,0.0626517412840388,0.013735679885745,0.0016542682424187,-0.0004911911673843,0.0002010825555771
1783197561917778200,7.541778076171875,0.0226784994717687,0.0371639748115092,0.0099959088355302,-9.8990276455e-06,0.0017426772974431,-0.0029116943478584
1783197561927715300,7.55171533203125,0.0264088451065123,0.0180211203862912,0.008640402573347,0.0004851827397942,-0.0023857550695538,-9.75320581346e-05
1783197561937652200,7.56165234375,0.0101624610414728,-0.0075443509649485,0.0040180034697055,-0.0022463425993919,-0.0002619614824652,8.78702849149e-05
1783197561947590400,7.57159033203125,-0.0336972120163962,-0.0048247898079454,0.009862053322792,0.0015763593837618,-0.000378874130547,0.0004045199602842
1783197561957527000,7.581527099609375,-0.0642102045061066,-0.0102856672960333,0.0079027359485626,0.0010010786354541,0.0035927358549088,-0.0025281757116317
1783197561967464200,7.591464111328125,-0.0184560960037633,-0.0010474449600093,0.0037017771273851,-0.0011171996593475,-0.0005077333189547,0.0004678803961724
1783197561977402000,7.601402099609375,0.0142174720533192,0.0234038180716335,0.0060796121746301,-0.0002394523471593,0.0023560475092381,-6.77211210131e-05
1783197561987339300,7.61133935546875,0.0346869902387261,0.0369496744737029,0.0048708209067583,1.22161582112e-05,0.0007208664901554,-0.0023167605977505
1783197561997277200,7.621277099609375,0.036522388972342,0.0419248508040793,0.0133949036240577,-0.0027519986033439,0.0007457975298166,0.0009370853658765
1783197562007214300,7.63121435546875,0.0487121545903384,0.0598829706904478,0.0039595512807369,-0.0001812484115362,0.0009181038476526,0.0019064757507294
1783197562017151200,7.641151123046875,0.0517829403378069,0.0565874728090129,0.0044078795701265,-0.0007910588756203,0.0013380888849496,0.000540732871741
1783197562027089400,7.65108935546875,0.0337774741783738,0.0516484637705609,-0.003808160111308,-0.0001487042754888,-0.0035456158220767,-0.0021892737131565
1783197562037026000,7.661026123046875,-9.2792849987e-06,0.0377895410976372,0.01894844609797,0.0012310892343521,0.0002431385219097,-0.0013292608782649
1783197562046963200,7.670963134765625,-0.0071980217453092,0.0080839194680564,0.0171457805901765,0.001802603714168,0.0021092155948281,0.0009232407901436
1783197562056901000,7.680901123046875,0.0006209814425557,-0.0227537201324477,0.0050268882513046,-0.0011536804959177,-0.0010962453670799,-0.0016084644012153
1783197562066838300,7.69083837890625,-0.0142027128756046,-0.0329847163654863,-0.0041027591437101,0.0021619545295834,0.0003434591926634,-0.0036905237939208
1783197562076775400,7.700775390625,-0.0377929934300482,-0.0276300026656128,-0.0011211129844188,-0.0003281915560364,0.0032530433963984,0.0019285145681351
1783197562086713300,7.71071337890625,-0.0463745419556275,-0.0178161723987199,0.004099252012372,0.0027794511988759,0.0032085685525089,-0.0001982857938855
1783197562096650200,7.720650146484375,-0.0158568367581814,-0.0004394143305718,0.0099263507306575,0.002527286298573,0.0004260116256773,0.0014939261600375
1783197562106588400,7.73058837890625,0.0146687960173934,-0.0111049112570472,0.0024351181924343,0.0010652113705873,0.0013218992389738,-0.000105301849544
1783197562116525000,7.740525146484375,0.0216831317588686,-0.0133702989057637,0.0027291327029466,0.0004289876669645,0.0011262991465628,0.0005925830919295
1783197562126462200,7.750462158203125,-0.0008856237281113,-0.0286069396726787,0.0055745852619409,-0.0001278789713978,-0.0020295470021665,-0.0006955880671739
1783197562136400100,7.760400146484375,-0.0204769708395004,-0.0343035438790917,0.008875380373001,-0.0012838803231716,0.0003450429067015,-0.0017562392167747
1783197562146337300,7.770337158203125,-0.0388052392125129,-0.0540992727224715,0.0102203652411699,0.0002780640497803,0.001647328492254,0.0005655046552419
1783197562156274400,7.7802744140625,-0.0103938951771706,-0.0467030432576313,0.0034872575938701,-0.0002694372087717,-0.0010248525068163,-0.0002463243436068
1783197562166212400,7.79021240234375,-0.0015561434008181,-0.0311060447457246,0.0064858548879623,-0.0015323087573051,0.0010460219345986,0.0003675343468785
1783197562176149200,7.800149169921875,-0.0079941405590623,-0.012543127366621,0.0013899930536746,0.0001615649089217,0.0031075112055987,-0.0011496965307742
1783197562186086100,7.810086181640625,0.0031212007604539,0.0041901086336001,0.002730301746726,-0.0019471263512969,-0.0001591220498085,-0.0007150685414671
1783197562196024000,7.820024169921875,0.0006298588687554,0.0029386655340902,0.0042284313499927,7.64848664402e-05,0.0029688784852623,0.0001832342240959
1783197562205961200,7.829961181640625,-0.0065620984619483,-0.0077944898011162,-0.0020563480079174,0.0017779786139726,-0.0008476977236568,-0.0007965425029397
1783197562215899100,7.839899169921875,-0.017922244855389,-0.0179574440329335,-0.0027951836764812,0.0015301834791898,0.0002811881713569,0.0012865669559687
