time,seconds_elapsed,ax,ay,az,gx,gy,gz
1783206770448529000,0.08552880859375,-0.0481096951851621,-0.0144905899062752,-0.1090069026857614,0.0068931761197745,-0.0006088442169129,-0.0017231978708878
1783206770458465000,0.095465087890625,-0.0403354809870943,-0.0016915332835167,-0.0256827227890491,-0.0014518164098262,0.0052240351215004,0.002597568789497
1783206770468402200,0.105402099609375,-0.0229783592011779,-0.0006724924340844,0.0139870242983102,-0.0046220440417528,0.0023313094861805,-0.0025460603646934
1783206770478338000,0.115338134765625,-0.0205197505353018,-0.0168448979474604,-0.0400239673525094,0.0013546105474233,-0.0025712642818689,0.0006389948539435
1783206770488274200,0.125274169921875,-0.0206867776652798,-0.0275966666515916,-0.0580097058981656,0.0053328401409089,-0.0009539262391626,-0.0023187117185443
1783206770498211000,0.135211181640625,-0.0284284413006156,-0.020765870783478,-0.0153746792644262,-0.0006363373249769,0.0029769635293632,0.0024077973794192
1783206770508147000,0.14514697265625,-0.0479855208162218,-0.0244511351674795,-0.011477087303996,-0.0037466427311301,0.0019601685926318,-0.001425556722097
1783206770518084000,0.155083984375,-0.0444865362519398,-0.0060699675634503,-0.0408083957284688,0.0028651813045144,0.0019784825854003,-0.0038181087002158
1783206770528020200,0.165020263671875,-0.0480980047473683,-0.0301611103121191,-0.0451660064160823,0.0016585029661655,0.0020575784146785,-0.0027634969446808
1783206770537956900,0.174956787109375,-0.0340812794305384,-0.0496480472009629,-0.0218400758862495,0.0022231098264455,0.0043449662625789,-0.0010937334736809
1783206770547893000,0.18489306640625,-0.0111042354036122,-0.0568605358630418,-0.0176636669844388,0.0008015148341655,0.0035987487062811,-0.0018644522642716
1783206770557829000,0.1948291015625,-0.0201837600465863,-0.0363552157118916,-0.0369826999604702,0.0013306867331266,-0.0024380232207477,-0.0035704150795936
1783206770567766000,0.20476611328125,-0.0384701985718682,-0.0001456920810043,-0.0393891765803098,0.0013599814847111,0.0017370143905282,-0.0034785359166562
1783206770577702100,0.2147021484375,-0.036825646235235,0.0084196724947541,-0.0374643459975719,0.0013184240087866,-0.0005894601345062,-0.0051874797791242
1783206770587638800,0.224638671875,-0.0254846064010635,-0.0071429305572062,-0.036429157730937,0.0007530348375439,0.0016670366749167,-0.0010183011181652
1783206770597575000,0.234574951171875,-0.0082768664905801,-0.0120534989524632,-0.0398901118397712,0.0033291289582848,0.0017838212661445,-0.0031017065048217
1783206770607512000,0.244511962890625,-0.0082503803424537,-0.0178310594405978,-0.045586277654767,-0.0004451032727956,0.0012455964460968,-0.0042729647830128
1783206770617448000,0.254447998046875,-0.0352672743447124,-0.018735680130124,-0.0421475353777408,-0.0008443128317594,0.0026645511388778,-0.0013223572168499
1783206770627384800,0.264384765625,-0.0524263893404975,-0.024606252663955,-0.0301847103834152,-0.0003585517406463,0.0027934480458498,-0.0014190300134941
1783206770637321000,0.274321044921875,-0.0546081172937527,-0.044273806816712,-0.0412567240178585,0.0006734225898981,0.0032049880828708,-0.0008911329787224
1783206770647256800,0.2842568359375,-0.0534923746041953,-0.039023265877366,-0.0278010301172733,-0.0006206072866916,0.0036808948498219,0.0008633574470877
1783206770657194000,0.294194091796875,-0.0335829745195806,-0.0351974970441311,-0.0388689520984888,-0.001809986308217,-0.0011474136263132,0.001377920852974
1783206770667130000,0.304130126953125,-0.0372358344713225,0.0037720658846199,-0.044109190839529,0.0020063240081071,0.0030896756798028,-0.0007992135360836
1783206770677067000,0.31406689453125,-0.0377592738235369,-0.0058091977354139,-0.0481634346663951,0.000315498560667,-0.002880320418626,-0.0005549928173422
1783206770687003000,0.3240029296875,-0.035374205317907,0.0052406771324574,-0.029153613770008,-0.0026821559295058,0.0069768382236361,-0.0007789647206664
1783206770696940000,0.33393994140625,-0.0221866973668336,-0.0200863640867173,-0.0326063845723867,-0.0012357961386442,0.0014567035250365,0.0009052271489053
1783206770706876200,0.343876220703125,-0.0058687459029257,-0.0307560805305838,-0.0647860681653022,0.0028284536674618,0.000373063609004,-0.0003035815898329
1783206770716812800,0.353812744140625,-0.0282330283263698,-0.0481632885359227,-0.0462280826896429,-0.0017292816191911,-0.0020874910987913,0.0018384319264441
1783206770726749000,0.3637490234375,-0.0774793263260275,-0.0464015395604074,-0.0120978495508432,-0.0004139468073844,0.0040023596957325,0.0018613354768604
1783206770736686000,0.37368603515625,-0.0741814903570339,-0.0288125452473759,-0.0450257211625576,0.0012952592223882,0.0010206303559243,-7.18138180673e-05
1783206770746622000,0.3836220703125,-0.0371789166523143,-0.0357652869947254,-0.0604424860030412,0.0014747558161616,-0.0004507661797106,-0.000498185865581
1783206770756557800,0.393557861328125,-0.0278236072752624,-0.034666166646406,-0.0308276844620704,0.0014606574550271,0.0022084615193307,-0.0023738837335258
1783206770766495000,0.403494873046875,-0.0390680913997814,-0.0195174050923436,-0.0380208108365535,0.0007964642718434,0.0011756876483559,0.0001337486319243
1783206770776430800,0.413430908203125,-0.0548144169881939,0.0058602703355252,-0.0422071566104888,0.0010012416169047,0.0023026512935757,-0.0028884662315249
1783206770786368000,0.423367919921875,-0.0909339242480695,0.0236445680249482,-0.0513648610562086,0.003076110035181,0.0022376701235771,-0.0012775199720636
1783206770796304000,0.433303955078125,-0.0970734499163925,-0.0110080084875226,-0.062315294137597,0.0021642623469233,-3.97213734686e-05,-0.0018657874315977
1783206770806241000,0.443240966796875,-0.0862871578881517,-0.0747192870281636,-0.0431768784254789,-0.0013543060049414,0.0043638153001666,-0.0003493835683912
1783206770816177000,0.453177001953125,-0.0450442066673189,-0.1016082438018173,-0.028663199904561,-0.0003138249740004,0.002262276597321,-0.0001577760558575
1783206770826114000,0.463114013671875,-0.0016475480113178,-0.1064141827788204,-0.0276145676344633,-0.0007532462477684,-0.0011676084250211,-0.0009727033320814
1783206770836050000,0.4730498046875,-0.0007701806548982,-0.0510105677258223,-0.0274748669028282,0.001495786011219,0.0031609639991074,0.0018366873264312
1783206770845986800,0.48298681640625,0.0189717539083212,-0.0309510185807943,-0.0427279656141996,-0.0019008098170161,-0.0004865014925599,0.0037214062176644
1783206770855923000,0.4929228515625,0.0101842344818636,0.0164596249569207,-0.0546907906085252,0.0017429469153285,0.0043794005177915,0.0004120373632758
1783206770865860000,0.502860107421875,-0.0160378924135118,0.0290779912505298,-0.0548392591685056,0.0011240281164646,-0.0017024609260261,0.0002783467061817
1783206770875796000,0.5127958984375,-0.0392078651966527,0.0123693599686026,-0.0421294151991605,0.0003420831635594,0.0022182902321219,0.0027252181898802
1783206770885731800,0.52273193359375,-0.0389760657347738,-0.0251906284231692,-0.0434901821583509,0.0003753723576664,0.0021434556692838,0.0012466309126466
1783206770895669000,0.5326689453125,-0.0378263842429965,-0.0397623938068747,-0.0315279416859149,0.0019066659733653,-0.0010145190171897,0.0006615757010877
1783206770905604900,0.54260498046875,-0.0426883642561733,-0.041107890131697,-0.0400607922315597,-0.0014776792377233,0.0015570293180644,0.0026943667326122
1783206770915541800,0.552541748046875,-0.0580986993558704,-0.0031589024223387,-0.0541220508098602,-0.0016954848542809,0.0011182944290339,0.0001390946563333
1783206770925478000,0.562477783203125,-0.0358217664223164,0.0259739608205854,-0.0424544093698263,-0.0004858775064349,0.0033473600633442,0.001194239128381
1783206770935415000,0.5724150390625,0.0090141677891835,0.0762535108581185,-0.0527998622953891,-0.0008885972201824,0.0017868340946733,0.0026932070031762
1783206770945351000,0.582350830078125,0.0355427668178454,0.0929964097358286,-0.0813771374821662,-0.0003953799605369,-0.0018206839449703,9.02332831174e-05
1783206770955287800,0.592287841796875,0.0196129744213074,0.0692002313457429,-0.0610229162395,0.0004864037036895,0.0016874447464942,0.0014767118263989
1783206770965224000,0.602223876953125,-0.0042107495628297,0.0148472213242202,-0.0493494295805692,-0.000101089477539,0.0002123196609318,2.3860484361e-06
1783206770975160800,0.612160888671875,-0.0333673955401405,-0.0092215634621679,-0.0580178892046213,0.0004613464698195,0.0007583750411868,0.0012960750609636
1783206770985097000,0.622096923828125,-0.0428332526195794,-0.0292779708020389,-0.040655250993371,-0.0022388324141502,-0.0016957279294729,0.0001929937861859
1783206770995033900,0.632033935546875,-0.0482249190626665,-0.0589879763457924,-0.0238964238941669,0.0004589529708027,0.0045106885954737,0.000300528248772
1783206771004969700,0.6419697265625,-0.059264053340815,-0.0406692064534872,-0.0494938064873218,-1.9883736968e-05,-0.0030636079609394,0.0009293006733059
1783206771014907000,0.651906982421875,-0.0372802216023206,-0.0318552008789032,-0.0672936670720577,-0.000766908749938,7.59665854275e-05,0.0010788750369101
1783206771024843000,0.661843017578125,-0.0391055373333394,-0.0096587127704173,-0.030776246535778,0.0003766529262065,0.0001606550067663,0.000847712624818
1783206771034780000,0.67177978515625,-0.0278643046118319,-0.0069303107198327,-0.0499140777260065,-0.001095880754292,-0.000129715539515,0.004110902082175
1783206771044715800,0.6817158203125,-0.0385765815557911,-0.0040695875264704,-0.070256608530879,0.0023933928459882,-0.0027907462790608,0.0022040787152945
1783206771054653000,0.69165283203125,-0.0686123484551906,-0.0413529509339481,-0.0576706832021474,-0.0036866581067442,-0.0040769013576209,0.0006894213147461
1783206771064589000,0.701589111328125,-0.0955302755950018,-0.0659269818287342,-0.0340068990200757,-0.0015662498772144,0.0016566179692745,0.0013834410347044
1783206771074526000,0.71152587890625,-0.0903505348695442,-0.0902317673280835,-0.0501636685729026,0.0002364581450819,-0.0048228232190012,0.0049183508381247
1783206771084461800,0.7214619140625,-0.0900710968736559,-0.0812224583771079,-0.0432592960119247,-0.0038570873439311,-0.0005806740373373,0.0028349601197987
1783206771094399000,0.73139892578125,-0.1035474682360887,-0.0571723052259534,-0.0408405444324016,-0.0008923476561903,-0.0011743083596229,0.0012778704985976
1783206771104334800,0.7413349609375,-0.1052762282574549,-0.0139314216535538,-0.0471066190898418,-0.0040023876354098,-0.0003138408064842,-0.0011922112898901
1783206771114272000,0.75127197265625,-0.0531256601836532,-0.000638736294955,-0.0485930582553148,-0.0015420150011777,-0.0013921684585511,-0.0007236518431454
1783206771124207900,0.761207763671875,0.0159910575971007,-0.0020320903494954,-0.0437841966688632,-0.0025428319349884,-0.0029810103587806,-0.0003888926003128
1783206771134145000,0.77114501953125,0.0404237803250551,-0.0237687058612704,-0.0497410592466592,-0.0032833404839038,-0.003305209800601,1.27169769257e-05
1783206771144081000,0.781080810546875,-0.0164927965741604,-0.016266002080962,-0.0531733717828989,0.0005044741556048,9.35159623622e-05,0.0013594774063676
1783206771154018000,0.79101806640625,-0.0632414690718054,-0.0179351774021983,-0.0438952558279037,0.0017433110624551,-0.0012068850919604,-0.000330660957843
1783206771163954000,0.800953857421875,-0.07970796216093,-0.0220220083244144,-0.0365530763715505,-0.0005129193887114,0.0022871824912726,0.0015322200488299
1783206771173890800,0.810890869140625,-0.0555550792876631,-0.0344354266304522,-0.0495581038951873,-0.0027577793225646,0.0004642619751393,-0.0005193138495087
1783206771183827000,0.820826904296875,-0.0333327626181766,-0.0390691508457064,-0.0490951625585556,-0.003144203685224,0.0005526789464056,-7.80280679464e-05
1783206771193764000,0.83076416015625,-0.011625409733504,-0.0208210350368171,-0.0514776737809181,-0.0013766242191195,0.0008436627686023,0.0040155965834856
1783206771203699700,0.84069970703125,0.0040126697074621,0.0085778587311506,-0.0555213962137699,0.0003262003883719,0.0016263658180832,0.0022959930356591
1783206771213636900,0.850636962890625,0.0165477781644091,0.0079478171993046,-0.0555383473485708,0.000552219338715,0.0008558449335396,-0.0025074377190321
1783206771223573000,0.860572998046875,-0.0196526488445699,-0.0096011373642832,-0.0515010546565055,-0.0011455463245511,0.0019200439564883,0.0018300525844097
1783206771233510100,0.87051025390625,-0.0444901164485141,-0.0275154911741614,-0.0486561866194009,-0.0030246023088693,0.0022308742627501,0.0037321159616112
1783206771243445800,0.88044580078125,-0.0555588056147098,-0.0566086799938231,-0.0431102429300546,-0.0021787816658616,0.001011146698147,0.0023408806882798
1783206771253383000,0.8903828125,-0.06174100138098,-0.0435239382974803,-0.046847091370821,-0.0011314852163195,-0.001094480510801,0.0019622941035777
1783206771263319000,0.900319091796875,-0.0461990027256309,-0.0274147342134267,-0.0534282233268022,-0.0008987244218587,0.0029657748527824,-0.0003392100334167
1783206771273256000,0.910255859375,-0.0460325601175427,-0.0016182488515973,-0.0491126982152462,0.0005609896034002,0.0060633588582277,0.0001260282006114
1783206771283191800,0.92019189453125,-0.0166509828105568,0.0050584524333477,-0.0597433978229761,0.0005516689270734,0.0034582547377794,0.0017548175528645
1783206771293129000,0.93012890625,-0.0079560370383784,-0.0023774697210639,-0.056160863161087,0.0030864886939525,-0.0001365281641483,0.0015428911428898
1783206771303065000,0.940065185546875,-0.011937325226888,-0.0128011755146086,-0.0513742134064435,0.0001383693888783,0.0010925205424427,0.0020049496088176
1783206771313002000,0.950001953125,-0.0372294412631541,-0.0287831730224192,-0.0500292285382747,-0.0033261477947235,0.0011019990779459,0.0017072830814868
1783206771322937900,0.959937744140625,-0.0460674122352153,-0.0466552951257675,-0.0489776736587286,-0.0004651136696338,0.0014665857888758,0.0015213943552225
1783206771332875000,0.969875,-0.0542114461263641,-0.0392431191731244,-0.0461322210997343,-0.002747718244791,-0.0003127381205558,-0.0005166979972273
1783206771342812200,0.979812255859375,-0.0530661120161414,-0.0299703369803726,-0.0497141712397336,-0.0016427729278802,8.35401006042e-05,0.0010276690591126
1783206771352748000,0.989748046875,-0.0498534335799515,-0.0239590408015996,-0.0479126747757196,-0.0021107122302055,0.003061935538426,0.0006532424595206
1783206771362685000,0.999684814453125,-0.0268071967743337,-0.0154568776551634,-0.0494072972476482,-0.0018151011317968,-0.0016276249662041,0.0014399401843547
1783206771372621000,1.00962109375,-0.0148066701181232,-0.0161938866928219,-0.0464209749132394,0.0028511025011539,0.0012697558850049,0.0023269774392247
1783206771382558000,1.019557861328125,-0.0281745761374011,-0.0233756148904561,-0.0446095415771007,0.001004465855658,-0.0016370844095945,0.000380472978577
1783206771392494000,1.029494140625,-0.0337722134813666,-0.023035934607312,-0.0396598102152347,-0.0001661265268921,0.0011766627430915,0.0019515848252922
1783206771402431000,1.039430908203125,-0.0545591635854914,-0.0224531662832945,-0.0544832853376865,0.0010546669363975,0.0011332528665661,0.0029148499015718
1783206771412366800,1.049366943359375,-0.0546686518419533,-0.0151163205891847,-0.0513502480089664,-0.0010972870513796,0.0002147266641259,0.000126106198877
1783206771422304000,1.059303955078125,-0.0410914139209315,-0.0201220929872244,-0.0381786317467689,-0.0009098006412386,0.001559889409691,-0.0003825575113296
1783206771432240000,1.069240234375,-0.0339907881354913,-0.0142785545907914,-0.0438584309488534,-0.0014645531773567,0.0012831222265958,-0.000714786350727
1783206771442177000,1.079177001953125,-0.0232830047035589,-0.0131656979780644,-0.052982817646861,-0.0025924015790224,0.0014282641932368,0.0013166728895157
1783206771452113000,1.08911279296875,-0.0223077299306169,-0.0178483028363436,-0.0502829110383987,0.0011421684175729,0.0010270122438669,-0.0011572842486202
1783206771462050000,1.099050048828125,-0.020165968661569,-0.0169382753193378,-0.0603027852714061,0.0010665338486433,0.0025934833101928,-0.0008765871170908
1783206771471986200,1.108986083984375,-0.0274386630782857,-0.0292526171650737,-0.0475841734737157,-0.0011320607736706,-0.0037875808775424,0.0014382312074303
1783206771481922800,1.1189228515625,-0.045800797188282,-0.0378235346987843,-0.0571387682825326,-0.004223458468914,-0.0013182973489165,-0.0013519624480977
1783206771491860000,1.12885986328125,-0.0677014441553503,-0.0133504799604415,-0.0581727875053882,-0.0004502842202782,-0.0005959463305771,0.0002488656900823
1783206771501796000,1.138796142578125,-0.0619005027916282,-0.0086428867913782,-0.0484352373450994,-0.0009504258632659,-0.0003554625436663,0.000154057284817
1783206771511733000,1.14873291015625,-0.0437755749709904,-0.0228930920705199,-0.0449900653272867,-9.04388725757e-05,0.002432974986732,0.001381539972499
1783206771521668900,1.1586689453125,-0.0103527594491839,-0.0298719181071966,-0.0621843612343072,-0.001455308869481,0.000576751306653,0.0011730145197361
1783206771531606000,1.16860595703125,-0.0133511010149493,-0.0257690128330141,-0.053061143580079,0.0015272526070475,0.0014868332073092,-0.0008283043280243
1783206771541542100,1.178542236328125,-0.0313689882645383,-0.0137512427810579,-0.0509615409523248,-0.0031180987134575,6.41727820038e-05,0.0020375230815261
1783206771551478800,1.188478759765625,-0.055084758362174,-0.0120920043319463,-0.0419809466391801,0.0002260664477944,-0.0025503928773105,-0.0002211956307291
1783206771561414400,1.198414306640625,-0.0510688007190823,-0.0186659028295427,-0.0484106874257326,0.0002244692295789,-0.0006592823192477,0.0022515493910759
1783206771571351600,1.2083515625,-0.0499400524174794,-0.0204066090170294,-0.0512479566782712,0.0034396490082144,-0.0066945650614798,-0.0010685417801141
1783206771581287700,1.21828759765625,-0.0449321976602077,-0.0226993230640888,0.0121229839920997,0.0373531430959701,-0.0042154281400144,-0.0009966362267732
1783206771591224600,1.228224609375,-0.0446677015051245,-0.0085492171585559,0.0602075082033872,0.0163387339562177,-0.006023000460118,0.0003812515642493
1783206771601161500,1.238161376953125,-0.0258057646468281,-0.0346846521511673,-0.2569552381843328,0.0021267747506499,-0.0308790802955627,-0.0017253087135031
1783206771611097600,1.24809765625,-0.0034937238672748,-0.0477888292003422,0.0712742611408233,0.0207016691565513,0.0170861426740884,0.0001655730884522
1783206771621034500,1.258034423828125,-0.0310302578294649,-0.0234900350503623,0.0684317311912775,0.0165069233626127,-0.0202780086547136,0.0006539968308061
1783206771630970400,1.267970458984375,-0.0055978565396741,-0.0268985283195972,-0.234149532136321,0.0086467359215021,-0.0041343634948134,-0.0005656981375068
1783206771640907500,1.277907470703125,-0.0511025568582117,-0.013294146663323,-0.0486497568786144,0.0052663860842585,0.0003818245604634,-0.0003936579450964
1783206771650843600,1.28784375,-0.0472362002862617,-0.0102583591639995,0.0263116683423519,0.0049591483548283,-0.0022964896634221,-8.8364817202e-05
1783206771660780500,1.297780517578125,-0.0535442143892869,-0.0034459026701748,-0.0913461583107709,0.0022019781172275,0.0038812451530247,-0.001206892542541
1783206771670716400,1.30771630859375,-0.0596531622562557,-0.0163329298373311,-0.1133399634540081,-0.0025784792378544,-0.00038977060467,-0.0005996627733111
1783206771680653600,1.317653564453125,-0.0408876715097576,-0.0118759504284709,-0.0290945770591497,-0.0078211789950728,0.011563828215003,-0.0014180522412061
1783206771690590700,1.3275908203125,-0.033255971054919,-0.0140320324838161,-0.0661830754816532,-0.0115601476281881,0.0065559186041355,0.0010212301276624
1783206771700526600,1.337526611328125,-0.0367139660216867,-0.0046516251981258,-0.1277963588297367,-0.0109353698790073,0.0131158176809549,0.0023914268240332
1783206771710463500,1.34746337890625,-0.0479473076976835,-0.0161664872292429,-0.0556365470260381,-0.0159942898899316,0.0177378468215465,-4.79496084153e-05
1783206771720399600,1.357399658203125,-0.0392038831412792,-0.0238383370313793,-0.0397013112694025,-0.0213270038366317,0.0141106201335787,-0.0028565193060785
1783206771730336800,1.367336669921875,-0.0319757950512692,-0.031296105691418,-0.0947685339748859,-0.0292084235697984,0.0035926590207964,-0.0017385692335665
1783206771740272600,1.377272705078125,-0.0281209097214043,-0.0364071650948375,-0.0820242032140493,-0.0237848963588476,0.0030994415283203,0.001275063958019
1783206771750209500,1.38720947265625,-0.0403804526399821,-0.0204541014205664,0.1016255602627992,0.0058255107142031,0.0086624026298522,-0.0010440989863127
1783206771760145700,1.397145751953125,-0.05785246950984,-0.0108150431986898,0.0739858581870794,0.012667704373598,0.001960024703294,-0.0021940520964562
1783206771770082600,1.40708251953125,-0.0659170814892277,-0.0237632259685546,-0.2089636529535055,-0.0068557318300008,-0.0096866190433502,-0.0019519807538017
1783206771780019500,1.41701953125,-0.0476322503991425,-0.0391031992457807,-0.0655599751472473,-0.0039680656045675,0.0091914646327495,-0.0005423696711659
1783206771789955600,1.42695556640625,-0.0234387432545423,-0.0402649365015327,0.1018406643182039,0.0050750588998198,0.003787302179262,-0.0024769541341811
1783206771799892700,1.436892822265625,-0.003674377663806,-0.0231108264744281,-0.1221644904226064,-0.0008408864960074,-0.0072906492277979,-0.0026122427079826
1783206771809828600,1.44682861328125,-0.0118809188645333,0.013497925607115,-0.1223030221104621,-0.0003525577485561,0.0025002718903124,-0.0021990162786096
1783206771819765500,1.456765625,-0.0331137130400165,0.0229800397016108,0.0445201097279787,0.0020746467635035,0.0042683444917202,-0.0023268479853868
1783206771829701600,1.46670166015625,-0.0448088270088657,0.0024720892019569,-0.051554246148467,-3.79206612706e-05,-0.0016265236772596,-0.0047367555089294
1783206771839638500,1.476638427734375,-0.0500874249989166,-0.0248253753073513,-0.1260690966457128,0.0009519765153527,-0.0009508798830211,-0.0001132418401539
1783206771849575400,1.486575439453125,-0.0417218207789584,-0.0751039754968136,-0.0133989952772855,-0.0038094436749815,0.002997750416398,-0.0012431738432496
1783206771859511600,1.496511474609375,-0.0624370573537424,-0.0474337321523576,0.0033785365223884,-0.00451544765383,0.0050675589591264,-0.0020884610712528
1783206771869448700,1.50644873046875,-0.0448047353556379,-0.0276220202885568,-0.0910462985813617,-0.0001091584563255,0.0036026297602802,-0.0052621294744312
1783206771879384600,1.516384521484375,-0.0497306109178811,0.0012988076388835,-0.0707400081336498,0.0036187348887324,0.0058585936203598,-0.0044056568294763
1783206771889321500,1.526321533203125,-0.0329522023353725,-0.0247891349501907,-0.0375993705540895,0.0059879319742321,0.0089198602363467,-0.0054951077327132
1783206771899258600,1.536258544921875,-0.0185819143405184,-0.0404793099045753,-0.0463525858521461,0.0023367386311292,0.0084090661257505,-0.0038412846624851
1783206771909194500,1.546194580078125,-0.0307338686987757,-0.0515147909209132,-0.0465682744294405,0.0047702621668577,0.0081842178478837,0.0001308806240558
1783206771919131400,1.55613134765625,-0.0620282938897609,-0.0451727284178137,-0.0502174445867538,0.0035864869132637,0.0023324540816247,0.0018131996039301
1783206771929067500,1.566067626953125,-0.087729027259536,-0.0394346962224692,-0.0412549704521894,-0.002122713252902,0.0053865681402385,0.0009715252090245
1783206771939004700,1.576004638671875,-0.1040831825479865,-0.0165436499785631,-0.0248228910893201,-5.79636543989e-05,0.0057162675075232,0.001744640758261
1783206771948940500,1.5859404296875,-0.0657738005610182,-0.0206065885685384,-0.0553542229533195,-0.0010790443047881,8.54316167533e-05,0.0004368717782199
1783206771958877400,1.59587744140625,-0.0241267255187034,-0.0084486793935298,-0.0519260020703077,0.0014051524922251,0.0033549945801496,0.0024081438314169
1783206771968814600,1.605814697265625,0.0013860840635374,0.0009312895007431,-0.0438590154707431,-0.0029303282499313,0.0049836519174277,0.0039895591326057
1783206771978750500,1.61575048828125,-0.0094417820841073,0.0180365188848227,-0.0574795445442199,-0.00174708571285,0.0022800108417868,-5.7150609791e-06
1783206771988687600,1.6256875,-0.0120298988811671,0.021605609543249,-0.0523988802790641,-0.0019055306911468,0.0026692899409681,0.0022850818932056
1783206771998623500,1.63562353515625,-0.0304209302920848,0.004003609618172,-0.057197804993391,-0.0021073976531624,0.0018479712307453,0.0004304568283259
1783206772008560600,1.645560546875,-0.0672945803875103,-0.0320720584999769,-0.0506108278185129,-0.0038799718022346,0.0044241631403565,0.0017842997331172
1783206772018496500,1.65549658203125,-0.0868103049794211,-0.0442936074957251,-0.0486456652253866,-0.0060421917587518,0.0037216213531792,0.0008228986989706
1783206772028433700,1.66543359375,-0.0882423105439171,-0.0537373623412102,-0.0402490082800388,-0.0057849436998367,0.0055579454638063,0.0032552175689488
1783206772038370600,1.67537060546875,-0.0574385184140875,-0.0533995086889714,-0.0465133293718099,-0.0069466140121221,0.0053353048861026,0.0037319234106689
1783206772048306400,1.685306396484375,-0.0371480465900152,-0.0248097393468022,-0.0484276385605335,-0.0087355570867657,0.0054197204299271,0.0040300423279404
1783206772058243600,1.69524365234375,-0.0283601983699947,0.0108562519919127,-0.0424129083156585,-0.0071147577837109,0.0029722754843533,0.0044905031099915
1783206772068179700,1.7051796875,-0.0003444660561159,0.006577259498462,-0.0536146858096122,-0.0030627157539129,0.0045931166969239,0.0044466652907431
1783206772078116600,1.71511669921875,0.0276158828087151,0.001538461613655,-0.0549397969335317,-0.008583715185523,0.0014926646836102,0.0029462408274412
1783206772088053500,1.725053466796875,0.0306627762239426,-0.0396110026374459,-0.0406803854346275,-0.0128557039424777,0.0044220425188541,0.0054051736369729
1783206772097989600,1.73498974609375,0.0123591673681512,0.0219828453578054,-0.0485503881573677,-0.006517113186419,0.0001300922594964,0.0029910183511674
1783206772107926500,1.744926513671875,-0.0418952045844867,-0.0353187122710049,-0.0213122526198625,-0.0001052198931574,0.0118717681616544,-0.0004833280108869
1783206772117862400,1.7548623046875,-0.0810490015063434,0.0140747025817632,-0.0283598330438137,-0.0010096291080117,-0.0019803987815976,0.0005819362122565
1783206772127799600,1.764799560546875,-0.0327334450181573,-0.0386665613941848,-0.0506412229567766,-0.002405353821814,0.006575939245522,-0.0019647818990051
1783206772137736400,1.774736328125,-0.0305376154743134,0.0136246207267045,-0.0231307002186775,0.0008775247260928,0.0023526987060904,-0.0005184190813452
1783206772147672600,1.784672607421875,-0.0156886771170422,0.0086556732077151,-0.0657914458155632,0.0005297465249896,-0.0009377864189445,-0.0033377488143742
1783206772157609500,1.794609375,-0.0174426446449011,-0.003228314396739,-0.0776169081658124,-0.0006745355203747,0.0009503946639597,-0.000104671344161
1783206772167545600,1.804545654296875,-0.0516005329756066,-0.0208782451167702,-0.0378156436532735,-8.45724716782e-05,-0.0008886256255209,-0.0005648678634315
1783206772177482500,1.814482421875,-0.095727551732771,-0.0741390759874135,-0.0418517673015594,-0.0035000769421458,0.0022504422813653,0.0005107829347252
1783206772187419600,1.824419677734375,-0.1337057655366137,-0.0775948424644768,-0.0469330160886049,0.0004630330950021,-0.000382911413908,-9.96605958789e-05
1783206772197355500,1.83435546875,-0.1078035182453691,-0.0942908334605395,-0.0318307240247726,0.0001647593453526,0.0052632559090852,0.0018918509595096
1783206772207292700,1.844292724609375,-0.0396457451572641,-0.0508144606318324,-0.0285439574390649,-0.001227430999279,0.0014841756783425,0.002078807214275
1783206772217228500,1.854228515625,0.0095727515200152,0.0084586162656545,-0.0530816018462181,-4.97810542583e-05,0.0039246967062354,-0.0001593132037669
1783206772227165400,1.86416552734375,0.0297626125138252,0.0603623334389179,-0.0578869563013315,-0.001116001047194,0.0015326575376093,0.0002373899333178
1783206772237102600,1.8741025390625,0.0445113053670153,0.060893663836643,-0.0587871200114488,0.0002382164821028,0.0002490137703716,-0.0017304196953773
1783206772247038700,1.884038818359375,0.0076375091411173,0.0484816337700933,-0.0591010082662105,0.0025545870885252,0.0009320713579654,-0.0029313447885215
1783206772256975600,1.8939755859375,-0.022650552018918,0.0004582651615142,-0.0450385806441307,0.0004509566351771,0.0033156003337353,-0.0016626148717477
1783206772266912500,1.90391259765625,-0.0419591731987893,-0.0640215865988284,-0.0369593190848827,-0.0017173429951071,-0.0002346164546906,-0.0019069872796535
1783206772276848600,1.9138486328125,-0.0666168637890368,-0.0906372793890535,-0.0489192214697599,-0.0016209362074732,0.0034032617695629,-0.00084944604896
1783206772286785500,1.92378564453125,-0.0591261061748489,-0.1004234179314225,-0.0507172108024358,-0.0006424309685826,0.0020084637217223,0.0002029302995651
1783206772296721400,1.933721435546875,-0.0616243892639875,-0.0568020836740732,-0.0375415028870105,-0.0008344454690814,0.000381538644433,0.0007688519544899
1783206772306658600,1.943658447265625,-0.0554649898514151,-0.0060194794852286,-0.0450292282938957,0.0003458680585026,0.0037578942719846,-0.000783504685387
1783206772316595500,1.953595458984375,-0.0376396660318598,0.0221024531494826,-0.0552092615246772,-1.28597021102e-05,0.0006798128597438,0.0004881545901298
1783206772326531600,1.963531494140625,0.0084294632364064,0.0103458913169801,-0.052660161563754,-0.0005746269598603,0.0002803956158459,0.001258339965716
1783206772336468500,1.973468505859375,0.0078001888895407,-0.002610036367923,-0.0424801283329725,0.0011063609272241,-0.0002618236467242,-0.0009755194187164
1783206772346404600,1.983404541015625,-0.0219878137938678,-0.0205316967014223,-0.0469651647925376,0.0010450603440403,2.94828787446e-05,0.0007362545002251
1783206772356341500,1.993341552734375,-0.0688562036810442,-0.0265774066064506,-0.0502829110383987,0.0008932603523135,0.0014340337365865,0.0006118847522884
1783206772366278700,2.003278564453125,-0.0927908772263675,-0.0148655606985092,-0.0392231723636388,0.0025033960118889,-0.0002877740189433,0.0008423540275543
1783206772376214500,2.013214599609375,-0.065461117882654,-0.0397483652815222,-0.0485112251907587,0.0009257392957806,0.0028449022211134,-0.0012969630770385
1783206772386151700,2.023151611328125,-0.0476482151532545,-0.0298603007346391,-0.0479237806916236,0.0030213864520192,-0.0004914687015116,0.0009536684956401
1783206772396088600,2.033088623046875,-0.0411485509356483,-0.0227094791319221,-0.0420966819733381,-0.0027829734608531,0.0012289336882531,0.0006095881108194
1783206772406024400,2.0430244140625,-0.0553569628996774,-0.0154055127941071,-0.0497211855024099,-8.41608271002e-05,0.0024432153441011,-0.0015863489825278
1783206772415961600,2.052961669921875,-0.0328026743294671,-0.0152506875585764,-0.0530155508726835,0.0021664761006832,0.0016953996382653,-0.0006081699393689
1783206772425897500,2.0628974609375,-0.0530766334101557,-0.0241802823368459,-0.0443617042958736,0.0007788818329572,0.0007826844230294,-0.0003291161265224
1783206772435834600,2.072834716796875,-0.0681346479408443,-0.033638942490518,-0.0394184026747942,-0.0015018489211797,0.0008268929086625,-5.98705373704e-05
1783206772445771500,2.082771484375,-0.0932557547917589,-0.053778205808252,-0.0561778142958879,-0.0012827264145016,0.0021244538947939,0.0002604504115879
1783206772455707600,2.092707763671875,-0.1028726377144455,-0.0609130991894751,-0.0433101494163274,-0.0041807778179645,0.0023103426210582,0.0012948221992701
1783206772465644500,2.10264453125,-0.0948963981382548,-0.0552446981642395,-0.0298415960341691,-0.0004290957003831,0.0053777056746184,0.000412511639297
1783206772475580400,2.112580322265625,-0.0704206765187904,-0.0422358712483197,-0.0466103600054979,-3.84096056222e-05,8.04117880761e-05,-9.34889540076e-05
1783206772485517600,2.122517578125,-0.0420455363079905,-0.0201152248550206,-0.0434685548484325,-0.0027560032904148,0.00212506018579,-0.0007536283228546
1783206772495454500,2.132454345703125,-0.031009507302381,-0.0051768911812454,-0.043767830055952,-0.0006113601848483,0.0003351494669914,-0.0036847034934908
1783206772505390600,2.142390625,-0.0193371896872296,-0.0018214432734996,-0.0461690459787845,4.31733205914e-05,0.0019336058758199,0.0016005507204681
1783206772515327500,2.152327392578125,0.0149811499021947,-0.0181311383657157,-0.0527402410626411,-0.0024708500131964,0.0014108275063335,0.0007906833197921
1783206772525264400,2.162264404296875,0.0171239706171676,-0.0204043439947068,-0.0428664973020553,-0.0011103320866823,0.002455685287714,0.001336894929409
1783206772535200500,2.172200439453125,-0.0030045886434614,-0.0144051035799086,-0.0506453146100044,-0.0004445416852831,-0.0044485596008598,0.0006556580774486
1783206772545137700,2.1821376953125,-0.0375977265862748,-0.0120368400786072,-0.0465975005239248,7.12433829903e-05,0.0001126285642385,0.0025488522369414
1783206772555073500,2.192073486328125,-0.0497885516501963,-0.0151581139042973,-0.0507815082103014,-0.0019109472632408,0.0009139738976955,-0.0002525269519537
1783206772565010700,2.2020107421875,-0.0453812200693413,-0.0263992735605686,-0.0500356582790613,0.000300939194858,0.0024445042945444,0.0007624961435794
1783206772574947600,2.211947509765625,-0.0284052065555006,-0.0274865573406219,-0.0519815316498279,-0.0011582067236304,0.0002031880430877,0.0010439925827085
1783206772584883700,2.2218837890625,-0.0232176478497684,-0.0272108822043985,-0.0480915384739637,0.0010448927059769,0.0012061102315783,0.0038534610066562
1783206772594820900,2.23182080078125,-0.0070260261792689,-0.0127338093668222,-0.0516857635736465,-0.000991360284388,0.0001632166095077,0.0006174540612846
1783206772604757800,2.2417578125,-0.0006510843198746,-0.0064545829668641,-0.0572135870844125,-0.0027073100209236,0.0022911531850695,0.0002193204127252
1783206772614693600,2.251693603515625,0.0008822992598637,-0.0062041153371334,-0.0569160654425621,-0.000969598069787,-0.0017472640611231,-0.0037053800188004
1783206772624630800,2.261630859375,-5.1876317709e-06,0.0137920862480998,-0.0537689995884895,0.000460579060018,-0.0012742723338305,0.0018429008778184
1783206772634567700,2.271567626953125,-0.0045727878082543,0.0324853885412216,-0.0554150132298469,0.0007319552823901,-0.0017035738565027,0.0020415724720805
1783206772644503600,2.281503662109375,-0.0312638108570128,0.0304377352964133,-0.0572094954311847,0.0018107052892446,-0.0006440365687012,-0.0011286670342087
1783206772654440700,2.291440673828125,-0.0663829454353079,0.0008646540053188,-0.0446533807188272,0.000993913039565,0.0008390778675675,-0.0050554978661239
1783206772664376800,2.301376953125,-0.0807893641894683,-0.0223265442289412,-0.0468996983408927,-0.000533009879291,0.0018835458904504,0.0012530982494354
1783206772674313700,2.311313720703125,-0.0778144765645265,-0.0483957821175456,-0.0503361025303602,-0.0002587046474218,0.0017836773768067,0.0007074163295328
1783206772684250600,2.321250732421875,-0.0624124709017574,-0.0697640757735818,-0.0539367573708295,-0.0016091372817754,0.0032812620047479,0.0005950171034783
1783206772694186800,2.331186767578125,-0.0552465247951447,-0.0531714720867574,-0.0410632472723722,-0.0040163686498999,0.0004351418465375,-0.0003975429572165
1783206772704123600,2.34112353515625,-0.0598856193052604,-0.0379438731428235,-0.0476402875751256,0.0006200158968567,0.001538114156574,0.0008732108399271
1783206772714060800,2.351060791015625,-0.0535799067571759,-0.000785012897849,-0.0536316369444131,-0.0013810833916068,0.0031320163980126,0.0013227523304522
1783206772723996700,2.36099658203125,-0.0255913181785494,0.0167713212545961,-0.0477946013540029,-7.63982534408e-05,0.0009796451777219,-8.6661893874e-06
1783206772733933600,2.37093359375,-0.0009087488753721,0.0203071672305464,-0.0467541523903608,-0.000114481896162,0.000948485918343,0.00083635491319
1783206772743870700,2.38087060546875,-0.0053342006348073,0.0023570114549249,-0.0533358688682317,-0.0001627579331398,0.0015545478090643,0.0008555606473237
1783206772753806600,2.390806640625,-0.0228959416147321,-0.0269043004732578,-0.0458545732021331,0.0021757632493972,-0.0008966256864368,0.0011572970543056
1783206772763743700,2.40074365234375,-0.0486693018293008,-0.0320535729952156,-0.0400157840460538,-0.0021994980052113,0.0022893836721777,-0.0013243407011032
1783206772773680600,2.4106806640625,-0.0753650375857949,-0.0405875195194035,-0.0386719682216644,-0.0002567218616604,0.0010046744719147,-0.0007352496031671
1783206772783616800,2.42061669921875,-0.0955924175783991,-0.0145342098522931,-0.05125029476583,-7.39721581339e-05,0.000922193750739,-0.0009289407171308
1783206772793553700,2.4305537109375,-0.0799985791379585,-0.0320500658638775,-0.0515367104917764,-0.0023744106292724,0.000741631258279,-0.0010807407088577
1783206772803489800,2.44048974609375,-0.0439452324494719,-0.024452011950314,-0.0457055201202631,-0.0003851363435387,0.0041615096852183,-0.0033617662265896
1783206772813426700,2.4504267578125,0.0083160659898072,-0.0323745485778898,-0.0494523054331541,-0.001626968383789,0.0007561258971691,-0.0006227050907909
1783206772823363800,2.46036376953125,0.025090748245269,0.0011409867286682,-0.0675508567035198,-5.90281561017e-05,-0.0024529490619897,0.0013654064387083
1783206772833299700,2.4702998046875,0.0064990066304802,0.0185976598989218,-0.0458551577240228,-0.0005711540579795,-0.0036963792517781,-0.000114778522402
1783206772843236600,2.480236572265625,-0.0449505735671147,0.0508425907477736,-0.0558849688291549,0.0020174402743577,0.0033438159152865,-0.0001997728832066
1783206772853173800,2.490173828125,-0.0901215118866413,0.0074179481063038,-0.0569470451027154,-0.000317352823913,-0.0007153740152716,-0.0029361709021031
1783206772863109600,2.500109619140625,-0.0757160795131698,-0.0319159911554306,-0.0473772527247667,-0.0024942029267549,0.0038623381406068,-0.0004546982236206
1783206772873046500,2.510046630859375,-0.0181034101085737,-0.095414576793462,-0.0405009372144937,-0.0021477248519659,0.0008303294889628,0.0001256046816706
1783206772882983700,2.519983642578125,-0.0105893446840345,-0.079702774529159,-0.0312216522157192,-0.0005106283351778,-0.0011463081464171,-0.000411978457123
1783206772892919800,2.529919921875,-0.0671027110772207,-0.0486632739473134,-0.0448410122454166,0.0045134248211979,-0.0026778923347592,0.0016487757675349
1783206772902856700,2.539856689453125,-0.0941585853829979,-0.0001902618750929,-0.0416927773475646,-0.0016867890954017,0.0022128727287054,0.0006720619276165
1783206772912793600,2.549793701171875,-0.0653153892690315,0.015395064465329,-0.0430319169968366,-0.0015501687303185,0.0003241589292883,-0.0005407417193055
1783206772922729700,2.559729736328125,-0.0309083850154653,0.0024735505066812,-0.0517144051462411,-0.0002758065238595,0.0009192912839353,0.0008767466060817
1783206772932667000,2.5696669921875,-0.0358387906223535,-0.0303328866824507,-0.0427221203953027,-0.0026390952989459,-0.0040805269964039,0.0022131209261715
1783206772942603500,2.579603515625,-0.0341439694032073,-0.0546820958454161,-0.0341828401088714,-0.0026615867391228,0.0027421268168836,0.0014031776227056
1783206772952539600,2.58953955078125,-0.0472359810905531,-0.0491107985191047,-0.0341775794118642,-0.0023878132924437,0.0014161388389766,-0.0018919516587629
1783206772962476800,2.599476806640625,-0.0568852319128811,0.0016158376988023,-0.0510790298521518,-0.0009995037689805,-0.001568482723087,-0.000874753575772
1783206772972413700,2.60941357421875,-0.0545114885188639,0.0111672907024621,-0.0518307250022888,0.0017006751149892,0.0003130403347313,1.20790209621e-05
1783206772982349600,2.619349609375,-0.0610857888752594,0.03421352750808,-0.0506400539129972,-0.002785556949675,0.0027826225850731,-0.0008717945311218
1783206772992286700,2.62928662109375,-0.0354007279986515,0.0045983606409281,-0.0488368038833141,0.0001215497031807,0.0018870015628635,-0.0024601037148386
1783206773002223600,2.6392236328125,-0.0262909908805042,-0.0206658444751054,-0.03808335467875,0.0018968926742672,0.001777006778866,0.0009024813771247
1783206773012159500,2.649159423828125,-0.0247353589363396,-0.0095029376868158,-0.0442290178269147,-0.0012704050168395,0.0008555529639124,0.0016308557242155
1783206773022096600,2.6590966796875,-0.0423507297996431,0.0042553193569183,-0.0403466234356164,0.001751072704792,-0.0020726500079035,-0.0010542047675698
1783206773032033800,2.66903369140625,-0.0439262720206752,-0.0072554510209709,-0.0517278491497039,-0.0001189988106489,0.0005985000170767,-0.002324798842892
1783206773041969700,2.6789697265625,-0.0355543111251667,0.0015199030436575,-0.0517348634123802,0.0016273874789476,0.0002307337708771,0.0013699850533157
1783206773051906600,2.688906494140625,-0.021495061840862,-0.0273671687446534,-0.0312456176131963,0.0020881136879324,-0.0016952641308307,-0.0004561443347483
1783206773061842700,2.6988427734375,-0.0308681260703131,-0.0104146457042545,-0.0496516273975372,-0.0019233040511608,0.0004573413170874,-0.0012633614242076
1783206773071779800,2.70877978515625,-0.0311558935031294,-0.0254934838272631,-0.0628144758313894,0.0003518350422382,0.0015484383329749,-0.0003709362354129
1783206773081716700,2.718716796875,-0.0774819932071492,-0.0497886977806687,-0.0432341615706682,0.0031890533864498,-0.0014554788358509,-0.0027004757430404
1783206773091652600,2.728652587890625,-0.0839021989803761,-0.0698550419926643,-0.031871056035161,0.0017402935773134,0.0050223944708704,-0.000670614419505
1783206773101589800,2.73858984375,-0.079713515118882,-0.0467865202900022,-0.0356277782201766,-0.0011905469000339,0.0011664726771414,9.93954017758e-05
1783206773111526700,2.748526611328125,-0.0477010778516531,-0.0328755569025874,-0.0474491489171981,-0.0002475213259458,0.0027489226777106,0.0020229967776685
1783206773121462500,2.758462646484375,-0.038803522179462,-0.007396905318275,-0.0265133283942937,0.0022279694676399,0.0005322424694895,0.0032105885911732
1783206773131399700,2.768399658203125,-0.0249603267986327,0.0047732057511806,-0.0595762245625257,0.0004252754151821,-0.0007564611732959,0.0012627525720745
1783206773141336600,2.778336669921875,-0.0157940737202763,0.0025409166544675,-0.0477542693436145,0.0008925721049308,0.0008853650651872,-0.0002779331989586
1783206773151272700,2.788272705078125,-0.0163228833673521,-0.0061626142829656,-0.0366869318842887,0.0012667467817664,-0.0019514337182044,-0.0019663772545754
1783206773161209600,2.798209716796875,-0.0397456984004005,-0.0188536804866045,-0.0516600446105003,0.001386672258377,-0.0004180083051323,-0.0005527439061552
1783206773171146800,2.808146728515625,-0.0749719100823625,-0.0341929961767047,-0.0371533803522586,-0.000889797694981,0.0042691556736826,-0.0008432948961853
1783206773181082600,2.81808251953125,-0.0703048315867781,-0.0417115551132708,-0.0407411757111549,0.000783048570156,-0.001383607275784,-0.0021170615218579
1783206773191019800,2.828019775390625,-0.0808434324642643,-0.0416499611191451,-0.0358241775751113,8.29035416245e-05,0.0043182205408811,0.0028417441062629
1783206773200956700,2.837956787109375,-0.051385100126639,-0.0113390670727938,-0.0376443787395954,0.0022352691739797,-0.0003278166987001,0.0004096466582268
1783206773210892800,2.847892822265625,-0.0219855487715452,-0.0237421101152896,-0.0731108289182186,0.0032494002953171,0.0001235892996191,-0.0012020983267575
1783206773220829700,2.85782958984375,-0.0202425775617361,-0.0141568279072642,-0.0470879143893718,0.0019417945295572,0.0002204738557338,-0.0009457182604819
1783206773230766800,2.867766845703125,-0.0050645533805713,-0.0388984704539179,-0.0307744929701089,-0.0002798149362206,-0.0010477234609425,0.0002588294446468
1783206773240702700,2.87770263671875,-0.0263862679485231,-0.035808468549326,-0.0448334134608507,-0.000637280754745,-0.0019478923641145,-0.0003289335872977
1783206773250639600,2.8876396484375,-0.0392913422290235,-0.0491029074735939,-0.0476730208009481,-0.0004468653351068,-0.0021276562474668,0.0008356666658073
1783206773260576800,2.89757666015625,-0.0439388757739216,-0.0465594335358589,-0.0319657485812902,0.0008854065090417,0.0030351495370268,0.0008474942296743
1783206773270512600,2.9075126953125,-0.0564493977788835,-0.0131491852346807,-0.0337613998264074,0.0010217605158686,-0.0001390720717608,0.0007199286483228
1783206773280449500,2.917449462890625,-0.0516436049323529,-0.0009528437454253,-0.0500765748113393,0.0018709944561123,0.0018100272864103,0.0016017877496778
1783206773290386700,2.92738671875,-0.0398481358615681,-0.0026060908451676,-0.0418511827796697,-0.000478446483612,0.0005897665396332,-0.0013668378815054
1783206773300322800,2.93732275390625,-0.0248825123220682,-0.0124622989490628,-0.0355640653342008,-0.0034845191985368,-0.0003642137162387,-0.0017087226733565
1783206773310259500,2.947259521484375,-0.0458576784746721,-0.0189949886534363,-0.0328682503789663,0.0012085037305951,-0.000723207835108,0.0009610964916646
1783206773320196600,2.957196533203125,-0.0577898526024073,-0.0084587623961269,-0.0429009840935468,-0.0007150452584028,-0.0004486232064664,0.0001259413547813
1783206773330133800,2.9671337890625,-0.0624562004456296,0.0119573451016098,-0.0432061045199632,0.002175816334784,0.0013234443031251,0.001350729027763
1783206773340070000,2.97706982421875,-0.043289216226153,-0.018501725243777,-0.0533861377507448,0.0007556853815913,0.0004940880462527,0.0028070751577615
1783206773350006500,2.987006591796875,-0.0458325805660337,-0.0141115274608135,-0.0291553673356771,-0.0001657679677009,0.0022784057073295,-0.0003453085664659
1783206773359943700,2.996943603515625,-0.0677448083730414,-0.0273453222390264,-0.0320072496354579,0.001176418736577,-0.0015004780143499,5.20362518727e-05
1783206773369879800,3.0068798828125,-0.0655299088025465,-0.017933716097474,-0.0409971962988376,0.0022584609687328,0.000125914812088,-0.0001306566409766
1783206773379816700,3.016816650390625,-0.0548502189539372,-0.0094914664447307,-0.0468348164111375,-0.000789375975728,0.0010988563299179,-0.0010676758829504
1783206773389753600,3.026753662109375,-0.0422792354660108,-0.0012841215264052,-0.0399567473351955,0.0011190446093678,0.0010224231518805,0.00173263810575
1783206773399689700,3.036689697265625,-0.0355875923402607,-0.0184285138770937,-0.0457990436226129,-0.000106357038021,0.0003177160397171,-0.0001012370921671
1783206773409626600,3.046626708984375,-0.0298942030042409,-0.0317975524075329,-0.0407072734415531,-0.0005937162786722,0.0008261133916676,4.86988574266e-05
1783206773419563800,3.056563720703125,-0.0387558105802163,-0.0188072840616106,-0.0404074137121438,-0.0001083360984921,0.0033532753586769,0.0004768995568156
1783206773429499600,3.066499755859375,-0.0597275061341002,-0.0163903591129928,-0.0475999555647373,-0.0006183311343193,-0.0006366726011037,0.0008824989199638
1783206773439436800,3.076436767578125,-0.0636847558598965,-0.0102482030961662,-0.0459504347920417,-0.0016068890690803,-0.0003884765319526,-0.0006326409056782
1783206773449373700,3.086373779296875,-0.0488342466000467,-0.0013303718209266,-0.0404325481534004,0.0029830690473318,0.0045319800265133,0.0011815042234957
1783206773459309600,3.0963095703125,-0.0228042082106694,-0.0016211714610457,-0.0269727625995874,0.0003388645127415,0.000519520137459,-0.0015319159720093
1783206773469246700,3.106246826171875,-0.0119107294809073,-0.0123893067780882,-0.0435772759199142,0.0011806897819042,-0.0013806452043354,-0.0011713239364326
1783206773479183600,3.11618359375,-0.0288001241572201,-0.0173918643057346,-0.034903555598855,0.000320010818541,-0.0003654807806015,0.001080680405721
1783206773489119700,3.12611962890625,-0.0391640260549262,-0.0223876998316496,-0.0319125570893287,0.001153047196567,-0.0007417853921651,0.0008993193041533
1783206773499056600,3.136056640625,-0.0548311123946681,-0.0288945244424045,-0.0417991603314876,0.0017555383965373,0.00130100781098,0.0017657643184065
1783206773508993500,3.14599365234375,-0.0649177317209541,-0.0520618303444236,-0.0365595061123371,0.0008034585043787,-0.0011416436173021,0.0014539081603288
1783206773518929700,3.1559296875,-0.0577615032907575,-0.0532166264027357,-0.0268266321271657,-0.0023624459281563,0.0035016904585063,0.0019511911086738
1783206773528866800,3.16586669921875,-0.0608048165094107,-0.0358681628473103,-0.040733576926589,-0.0016503166407346,0.0001114862971007,-0.0002509767655283
1783206773538803500,3.175803466796875,-0.0777678244112059,-0.0145966806292533,-0.049099838733673,-0.0025215931236743,7.45272263884e-05,0.0040490739047527
1783206773548739600,3.185739501953125,-0.0719339306259527,-0.0011602759510278,-0.0416091907173395,-0.0009673722088336,-0.0038056978955864,0.002161158947274
1783206773558676700,3.1956767578125,-0.0357352206500247,-0.0156669402092695,-0.0417418771862983,-0.000699508935213,-6.6342763602e-06,0.0006621691863983
1783206773568614000,3.20561376953125,-0.0250029603639617,-0.0227401665311306,-0.0445768083512783,0.0001891879364848,-0.0007632379420101,0.0014179742429405
1783206773578550000,3.215550048828125,-0.0380165365202352,-0.0136986358109861,-0.0442640891402959,0.0007747048512101,-0.0015702871605753,-0.0014661386376246
1783206773588487200,3.225487060546875,-0.0433842740984633,-0.0086533351201564,-0.0429243649691343,0.0004013301804661,0.0013165799900889,0.0027722823433578
1783206773598424000,3.235424072265625,-0.0587401390645652,-0.0093432901456952,-0.0454769720613956,-0.0008646920323371,-0.001479472965002,-0.0006525483913719
1783206773608361000,3.24536083984375,-0.0494968752272427,-0.0179467217095196,-0.0417255105733871,7.46054574847e-05,-0.001054698601365,-0.0020179511047899
1783206773618297000,3.255297119140625,-0.058655127662234,-0.0111964437317103,-0.0370820686817169,0.0006617633625864,-0.000496304128319,0.0014344484079629
1783206773628234200,3.265234130859375,-0.059763125436753,-0.0196279527947306,-0.0290074832975864,-0.0018069874495267,0.0017687142826616,0.0015423062723129
1783206773638171000,3.2751708984375,-0.0573309298537671,-0.0342254371415823,-0.0317003756433725,0.0008279541507363,-0.0001930957660079,-0.0004697476979345
1783206773648107000,3.28510693359375,-0.0547784323593601,-0.0321225465781986,-0.0426309349805116,-0.0003539565950632,0.0003315471112728,0.0003347932361066
1783206773658044200,3.295044189453125,-0.0380562474761158,-0.0262546774581074,-0.043521746340394,-0.0028521679341793,0.000200807582587,0.000918207457289
1783206773667981000,3.30498095703125,-0.0328558658214286,-0.0110601770661771,-0.0312479557007551,-0.0003293547779321,0.0001283697783946,-0.0004964636173099
1783206773677917000,3.3149169921875,-0.0307456687344238,0.0066419952977448,-0.0460609094291925,0.0002143457531929,0.0022630435414612,0.0005537597462534
1783206773687854000,3.32485400390625,-0.0306937924167141,0.0221789524517953,-0.0457709865719079,-0.0010895375162363,0.0045464378781616,-0.0023573418147861
1783206773697791000,3.334791015625,-0.0256701190358027,0.0064499067917466,-0.0454804791927337,-0.0007816990837454,0.000546202994883,-0.0005751503631472
1783206773707726800,3.344726806640625,-0.033745325474441,-0.0169042269192636,-0.0409831677734851,0.0009022178128361,-0.002400851342827,0.0011601655278354
1783206773717664000,3.3546640625,-0.0492655141567811,-0.0260137813743203,-0.0285556478768587,-0.0015361662954092,-0.0009250449948012,-0.0005717079620808
1783206773727601200,3.36460107421875,-0.070134626119025,-0.0311780322697013,-0.0439589687138795,-0.0009808968752622,0.0006837705150246,0.0023662913590669
1783206773737537000,3.374537109375,-0.0684006419332697,-0.0255553700823336,-0.0479869090557098,-0.0027774535119533,0.000248048454523,0.0023210595827549
1783206773747474000,3.384473876953125,-0.0619603066874668,0.0025245500415563,-0.0376642524838447,0.0010156873613595,-0.0025144484825432,0.0013122542295604
1783206773757411000,3.3944111328125,-0.0509807571094483,-0.0211965903509408,-0.0517331098467111,-0.0020840661600232,0.0010706186294555,-0.0017200439469888
1783206773767347200,3.40434716796875,0.0008145312532782,0.0036901597548276,-0.0382528660267591,-0.0006867051124572,0.0015459926798939,-0.0010212305933237
1783206773777284000,3.4142841796875,0.0159786365069448,0.0055815995246171,-0.0333224238872528,0.0001293122768402,-0.0016931826248764,0.0006954057607799
1783206773787221000,3.424220947265625,0.011450381960161,-0.0165529292635619,-0.067136430683732,-0.0005615120753645,0.0006959387101233,0.0008211068343371
1783206773797158000,3.434157958984375,-0.0171877565683797,-0.0165979374490678,-0.0440986694455146,-0.0011447183787822,0.0014595533721148,-0.0025958172045648
1783206773807094000,3.444093994140625,-0.0233619516912847,-0.0198531398527324,-0.0339098683863878,-0.0018270201981067,0.0002209171652793,0.0013672327622771
1783206773817031200,3.45403125,-0.0388643489886075,0.0098435678180307,-0.0515758734583854,-0.0003515407443046,-0.0002365759573876,0.0020172244403511
1783206773826968000,3.463968017578125,-0.0506915649045258,-0.0177532449640333,-0.0511158547312021,-0.00054089166224,-0.0002408372238278,-0.0012123908381909
1783206773836904000,3.473904052734375,-0.0466406455459073,-0.0056301879066973,-0.0349684375286102,-0.0017163464799523,0.0034636359196156,0.0009692606981843
1783206773846841000,3.483841064453125,-0.0269011952007189,-0.0428583870608359,-0.0431903224289417,0.0001175068318843,0.0001767626963555,-0.0017729963874444
1783206773856778200,3.4937783203125,-0.0135440663037821,-0.0345665787294507,-0.0539671525090932,-0.0005008103325963,0.0002355268225073,0.0023010945878922
1783206773866714000,3.503714111328125,-0.016111761367321,-0.0237874836269766,-0.0364613064348697,-0.0019058948382735,0.0012182332575321,0.0021650069393217
1783206773876651000,3.513651123046875,-0.0323755349585786,-0.0044110213752835,-0.0436357281088829,-0.0014256741851568,0.0009089154191315,0.0004866567905992
1783206773886588200,3.523588134765625,-0.0414336149547249,0.0188681474033743,-0.0545557660520076,0.0016084648668766,-0.0046712053008377,0.0017170368228107
1783206773896525000,3.533525146484375,-0.0551080296399071,0.0057133361455053,-0.0550011717319488,-0.0007355930283665,-0.0048849442973732,0.001667718635872
1783206773906461000,3.5434609375,-0.0158230075538158,0.0136461019061505,-0.0319470438808202,0.0018852241337299,0.0031609984580427,0.0014152510557323
1783206773916398000,3.553398193359375,-0.0183044856386259,-0.0389656904712319,-0.0443792399525642,0.0037868712097406,-0.0027463072910904,-0.0012961823958903
1783206773926335000,3.5633349609375,-0.0199689117195084,-0.0147269559454172,-0.0452928476661443,0.003394853323698,0.0001789089292287,0.0005991894286125
1783206773936270800,3.573270751953125,-0.0315260785223916,-0.0261876766365021,-0.0429044912248849,-0.0007998859509825,0.001343669835478,0.0021673268638551
1783206773946208000,3.5832080078125,-0.0478071685746312,0.0008855506628751,-0.0298906958729028,0.0025003030896186,0.0033231975976377,0.0003830089699476
1783206773956145200,3.593145263671875,-0.0404494992882013,-0.0012090104635804,-0.0352946007430553,0.0017337426543235,-0.0004919366911053,-0.000690113287419
1783206773966081000,3.6030810546875,-0.0291651215447112,0.0043608986232429,-0.0400824195414781,0.001180337741971,0.0017315363511443,0.0004334743134677
1783206773976018000,3.613017822265625,-0.0242659513263031,0.0039646658472716,-0.0355985521256923,0.0004703551530838,9.66750085353e-05,0.0009046986233443
1783206773985955000,3.622955078125,-0.0330863501090556,0.0071676996722817,-0.0528115527331829,0.0023279106244444,-0.0015294509939849,-0.001751005416736
1783206773995891200,3.63289111328125,-0.04992847157754,0.0014569208100438,-0.0419119730561971,0.0017415238544344,0.0003985171206295,-0.0021599722094833
1783206774005828000,3.642828125,-0.0600745660061016,-0.0011283464428037,-0.0458265161514282,0.0021138340234756,0.0019868267700076,-1.55949965119e-05
1783206774015765000,3.652764892578125,-0.0370441478241235,-0.0257912977300584,-0.0506283634752035,0.0001758709549903,0.0005401708185672,-4.41404990851e-05
1783206774025702000,3.662701904296875,-0.0241675689857453,-0.0368109235901385,-0.0401467169493436,-0.001632947474718,0.0012842579744756,-0.0011509500909596
1783206774035638000,3.672637939453125,-0.0223676068916916,-0.031044834344089,-0.0354915846198797,-0.000915003940463,0.0022460026666522,-0.0003592057619243
1783206774045575200,3.6825751953125,-0.0372957479650154,0.0004022241253405,-0.0378928005427122,0.0002043228596448,0.0006161481142044,0.0006748996675014
1783206774055512000,3.692511962890625,-0.0517234287029132,0.0136471248194575,-0.0560071339040994,0.0010898718610405,0.0017006401903927,-0.000142061850056
1783206774065448000,3.702447998046875,-0.0513940140854567,0.0135698948647826,-0.0395469974905252,-0.0018899384886026,0.0024484556633979,-0.0011886842548847
1783206774075385000,3.712385009765625,-0.0532650686543434,-0.0077107205078005,-0.038650340911746,0.0008978927507996,0.0004965863190591,0.0006500331219285
1783206774085322200,3.722322265625,-0.0360678866704925,-0.0216032714556902,-0.0326776962429285,-0.0005138488486409,0.002259864937514,0.0008766681421548
1783206774095258000,3.732258056640625,-0.0345645694354549,-0.0154174224276095,-0.0401741894781589,0.0025261491537094,-0.0005922727286815,-0.0002413722686469
1783206774105195000,3.742195068359375,-0.0513921143893152,0.0007022299852222,-0.0475175379782915,-0.0004307590425014,0.0003715250641107,-0.00253302231431
1783206774115132200,3.752132080078125,-0.0620134981794282,-0.004240998570621,-0.0361626157492399,0.0042875688523054,0.000643088016659,0.0001443631481379
1783206774125069000,3.762069091796875,-0.0515970989095047,-0.0071478989932686,-0.0448679002523422,-0.000171361491084,0.0012668003328144,-0.0015289010480046
1783206774135005000,3.7720048828125,-0.0451585172293707,-0.0198749863583594,-0.0439694901078939,-0.0005182391032576,-0.0023799231275916,-0.0011346009559929
1783206774144942000,3.781942138671875,-0.0322535890793427,-0.0296016497984528,-0.0442605820089578,7.13849440217e-05,-0.002374330535531,-0.0012411272618919
1783206774154879000,3.79187890625,-0.0372375880369916,-0.0220106832128018,-0.042456747457385,0.0008441684767603,-7.88588076829e-05,-0.001200592610985
1783206774164815000,3.801815185546875,-0.0454505224458873,-0.0214404821094125,-0.0454512530982494,-0.0006503975018858,0.0008476548828184,-0.0011912717018276
1783206774174752000,3.811751953125,-0.0578284675797447,-0.006884644947201,-0.0436743065536022,0.0009041037410497,0.0006229900754988,-4.75698616355e-05
1783206774184689200,3.821689208984375,-0.0578112972492352,-0.0091754592981189,-0.0385825363725423,-0.000155035406351,0.0006746551953256,-0.0035221963189542
1783206774194626000,3.8316259765625,-0.0486940344117581,-0.0119343295522034,-0.0314063611328601,-2.13431194424e-05,-0.001267566345632,-0.001070681028068
1783206774204562200,3.841562255859375,-0.0294291793083772,-0.029366379737854,-0.0408411289542913,0.0024556629359722,0.0020475364290177,-0.0007772005628794
1783206774214499000,3.8514990234375,-0.0245370233526453,-0.0205379072465002,-0.0420399833500385,-3.04738059639e-05,0.0010646451264619,-0.0027182903140783
1783206774224436000,3.86143603515625,-0.0412106929190456,-0.0044333793375641,-0.0406920758724212,-0.0012512672692537,0.0006318814121186,-0.001460745697841
1783206774234372000,3.8713720703125,-0.0569547534851357,0.0136658295199275,-0.0444341850101947,-0.0003621689975261,-0.0024703084491193,0.0008309669792652
1783206774244309200,3.881309326171875,-0.0560725638231262,0.0170084179461002,-0.0507166262805461,0.0004066852852702,0.0001662215217947,-0.0006129990797489
1783206774254246000,3.891245849609375,-0.034290136408247,-0.0089206808194518,-0.0445849916577339,0.0029491819441318,-0.0004335027188062,-7.7432487159e-06
1783206774264182000,3.90118212890625,-0.024500527267158,-0.0241122586019337,-0.0317260946065187,0.000517182983458,0.0019276556558907,0.001041276147589
1783206774274119200,3.911119140625,-0.0204161440303549,-0.0219354260195046,-0.0333715237259864,-0.0001426981762051,0.0020234687253832,-0.0006410109344869
1783206774284056000,3.92105615234375,-0.0309366612618789,0.0009844809927046,-0.0371054495573043,-0.0003006234765052,-0.0010269158519804,-0.0023475645575672
1783206774293993000,3.930992919921875,-0.0446328128548339,0.0008230798859149,-0.0408534039139747,0.0017260909080505,0.0002376590855419,-0.0022017955780029
1783206774303929000,3.94092919921875,-0.0481446203680709,0.0068555649831891,-0.0471446130126714,0.0006698807701468,-0.0005357228219509,0.001411847770214
1783206774313866200,3.9508662109375,-0.0401048505689948,-0.0032191812422126,-0.0323334128499031,0.0018597245216369,-0.0011149519123136,-0.0002817006316035
1783206774323803100,3.96080322265625,-0.0303805252164602,0.0028969635505229,-0.0436976874291896,-0.0007507065311074,-0.0017479853704571,-0.0017605540342628
1783206774333739000,3.970739013671875,-0.0190672501720488,-0.006449030008912,-0.0366729033589363,0.0038598291575908,0.0006339969113469,0.0001246994361281
1783206774343676200,3.98067626953125,-0.0132843193890526,-0.0157555683407932,-0.0389221435904502,0.0004405966028571,-0.0006392602808773,0.0011777132749557
1783206774353613000,3.990613037109375,-0.0185456374507397,0.0031052725389599,-0.0407195484012365,-0.0009706122800707,0.0018011182546615,0.0003697492647916
1783206774363550200,4.00055029296875,-0.0215611858796328,0.0015017828650772,-0.0425192912995815,0.0019588647410273,-0.0021613994613289,-0.0016808847431093
1783206774373486000,4.010486083984375,-0.0123007882444188,-0.0026054332580417,-0.0311532631546258,0.0003103073686361,0.0042322231456637,0.0032011445146054
1783206774383423000,4.020423095703125,-0.0179019327197223,-0.0091075086284428,-0.0417687651932239,0.0020653307437896,-0.0019702785648405,0.0031127275433391
1783206774393360100,4.030360107421875,-0.0471147293310612,-0.0010702595800161,-0.038767829811573,0.0009787362068891,-0.0006434037350118,-0.0009749855380505
1783206774403296000,4.0402958984375,-0.077393913064897,0.0111961514707654,-0.0422223541796207,0.000926804728806,0.0014687492512166,-0.0014426365960389
1783206774413233200,4.050233154296875,-0.065582406174764,-0.0111467593710869,-0.0411830742597579,0.0022181132808327,-0.0011642728932201,-0.001368434401229
1783206774423170000,4.060170166015625,-0.0428000810023397,-0.0314185630273073,-0.030423779836297,0.0009163599461317,0.0023154134396463,-0.0003798690158873
1783206774433107200,4.070107177734375,-0.0032788755401968,-0.0349060398168861,-0.0444926371991634,-0.0020185001194477,-0.0008275625295937,0.00041304086335
1783206774443043000,4.08004296875,0.0037197877081111,-0.0182850137531757,-0.040597383326292,0.0015362873673439,-0.001359396148473,-0.000486841192469
1783206774452980000,4.08997998046875,-0.0340424817901104,-0.0011434709466993,-0.045526656422019,-0.0018441677093505,-0.0020200670696794,-0.0016193268820643
1783206774462917000,4.099917236328125,-0.0566158038543537,0.005945099074766,-0.0461281294465064,0.000705542974174,-0.0004924777895212,4.86108474433e-05
1783206774472853200,4.109853271484375,-0.0569779882302507,0.0104147918347269,-0.037604046729207,0.0001351991668343,0.0005317055620253,-0.0011165682226419
1783206774482790000,4.119789794921875,-0.0349147345799952,-0.0091136461082845,-0.0430003528147935,0.0005575763061642,0.0010121394880115,-0.0005304065998643
1783206774492727000,4.12972705078125,-0.0114407738815993,-0.0372477075722068,-0.045694414204359,0.0002548107877373,0.000712844543159,-2.15431209653e-05
1783206774502664200,4.139664306640625,-0.0017915961245074,-0.0272489491924643,-0.0338677828103303,-0.0015662582591176,0.000672098249197,0.0010003116913139
1783206774512600000,4.14960009765625,0.0007760624064132,-0.0132828946169465,-0.0365600906342268,-0.0002106893807649,-0.0016883248463273,-7.20720272511e-05
1783206774522537000,4.159536865234375,-0.0293988207027316,0.0234330441661179,-0.057941901358962,0.0015025222674012,0.0005524586886167,-0.003633517306298
1783206774532474000,4.16947412109375,-0.0711384328667074,0.0581147737078368,-0.0398509488731622,0.0007983641698956,0.0012767612934112,-0.0007804622873663
1783206774542410200,4.17941015625,-0.0760288717893883,0.0292914878707379,-0.0552829112827777,0.0004417663440108,0.0029348456300795,-0.0012901914305984
1783206774552347100,4.18934716796875,-0.0751195018595084,-0.0049567456245422,-0.0419844537705183,0.0021706214174628,0.0004181507974863,-0.0023783417418599
1783206774562284000,4.199283935546875,-0.0716833533983677,-0.0839120627872645,-0.0348170463591814,-6.2463805079e-06,-0.000718486495316,-0.0028896685689687
1783206774572220200,4.20922021484375,-0.074223137541674,-0.0868152368828654,-0.0240384627133607,-0.0025397930294275,0.0023199792485684,0.0013162221293896
1783206774582157000,4.219156982421875,-0.0788510896032676,-0.0619937340330332,-0.0333031346648931,0.0001665111631155,-0.0007056379690766,-4.65174671262e-05
1783206774592094200,4.22909423828125,-0.0899347206102684,-0.0037198242407292,-0.0557499442726373,-0.0026219971477985,0.0030355956405401,-0.001358947250992
1783206774602031000,4.239031005859375,-0.0771357370527461,0.0366183236274868,-0.0410948114544153,0.0042476262897253,-0.0014403788372874,0.0012379011604934
1783206774611967000,4.248967041015625,-0.0244235165081918,0.0375230904474854,-0.0427571917086839,0.0011244118213653,0.0032098640222102,-0.0021852480713278
1783206774621904100,4.258904052734375,0.0225995524840429,0.0224806388121098,-0.0411105935454368,0.0004716711118817,0.0002646744251251,-0.0037663667462766
1783206774631841300,4.26884130859375,0.0209118916580453,0.014991671296209,-0.0427799880623817,0.0026546940207481,0.0028000161983072,-0.0020731836557388
1783206774641778200,4.278778076171875,-0.0199860089847818,0.0060709904767572,-0.040235564276576,-0.0005983579903841,0.0035310538951307,-0.0018731800373643
1783206774651714000,4.288714111328125,-0.0739664593668654,-0.008518383628875,-0.0466805026322603,-0.0001146653667092,0.000468204729259,-0.0039138440042734
1783206774661651200,4.298651123046875,-0.1001039767187088,-0.0055596068885177,-0.0356137496948242,0.0025178687646985,0.007391357794404,-0.0029332684352993
1783206774671588000,4.308588134765625,-0.0800845403883606,-0.0208992879047989,-0.0368289707034826,0.0012864666059613,-0.0063145593740046,-0.0044570020399987
1783206774681524200,4.318524169921875,-0.0567650030666962,-0.0366704191409051,-0.0459644633173942,0.0001234635710716,0.0057192002423107,-0.0015392429195344
1783206774691461000,4.328461181640625,-0.022342070591636,0.0014678805954754,-0.039980128210783,-0.0004916796460747,8.06706957519e-05,-0.0003665653057396
1783206774701398000,4.33839794921875,0.0099963837595656,-0.0526887300711125,-0.0531412230789661,0.0008084755390882,0.001760059967637,-0.0035951153840869
1783206774711335200,4.348335205078125,-0.002409728022851,-0.0492290180712938,-0.01635609151721,-0.0017939219251275,0.0051730615086853,-0.0033938880078494
1783206774721271300,4.358271240234375,-0.0187615817563608,-0.0117542968101799,-0.0390899013727903,0.003230663947761,0.0009367712773382,-0.0003975655417889
1783206774731208200,4.368208251953125,-0.0676330916268751,-0.0409288803029805,-0.0597661941766738,0.0032752929255366,0.0003244425170123,0.0012519471347332
1783206774741145000,4.37814501953125,-0.0804837688390165,-0.0485483423307538,-0.0247732067286968,0.0022004414349794,-0.0011141970753669,-0.0013243949506431
1783206774751081200,4.388081298828125,-0.1095703817874193,-0.0735382605500519,-0.0445206942498683,-0.0015018880367279,0.0035643684677779,0.000977661460638
1783206774761018400,4.398018310546875,-0.1189735854268074,-0.0462911379884928,-0.0277712195008993,-0.0053432313725352,0.0007480755448341,0.0023513198830187
1783206774770955000,4.407955078125,-0.0642703371955081,-7.83989984542e-05,-0.0297059869557619,-0.0007533589377999,0.0011171288788318,-0.001902665826492
1783206774780892200,4.41789208984375,0.0099264968611299,-0.0146842127822339,-0.0473620551556348,-0.0020324746146798,-0.001675461884588,0.0016981945373117
1783206774790828300,4.427828369140625,0.0208836519442498,-0.0132001117043197,-0.0352390711635351,0.0018359934911131,-0.0013873241841793,0.0031734572257846
1783206774800765200,4.43776513671875,0.0067515566194429,-0.0307023775819689,-0.0210264214158058,-0.0001709647476673,0.000778891146183,0.0037763968575745
1783206774810702000,4.4477021484375,-0.0078698565922677,-0.0383713047746568,-0.0487163923740386,6.51823356747e-05,-0.0025362963788211,0.0008635737467557
1783206774820638200,4.45763818359375,-0.0510854961255565,-0.0446198437754064,-0.0500642998516559,-6.69108703732e-05,0.0003851912915706,0.000259302323684
1783206774830575000,4.4675751953125,-0.0846964911632239,-0.0012785685684531,-0.0296890358209609,-0.0012523401528596,-0.0007077120244503,-0.0024265714455395
1783206774840512300,4.47751220703125,-0.0949332230173051,-0.0356331850476562,-0.0494236638605594,-0.0017287796363234,-0.0061184559017419,0.0007889289408922
1783206774850449200,4.48744921875,-0.0854575021309778,-0.0101454003088176,-0.0461222842276096,-0.0002233898267149,0.0037832192610949,0.0031930264085531
1783206774860385300,4.49738525390625,-0.048498183046095,-0.0070969725236296,-0.0354869084447622,-0.0040090726688504,-0.0006994134746491,-0.0005228819791227
1783206774870322200,4.507322265625,-0.0147960025936365,-0.0228742412395775,-0.0384621248632669,-0.0020883670076727,-0.0003238935023546,0.0021388083696365
1783206774880259300,4.51725927734375,0.0208129247955977,-0.0202949653360992,-0.0436842434257268,-0.0030550938099622,-0.0018344381824135,0.0033239149488508
1783206774890196000,4.527196044921875,0.004322466308996,0.0358892787005752,-0.0387421108484268,-0.0008322205394506,-0.002562787849456,0.0020550973713397
1783206774900132000,4.537132080078125,-0.0250999909976497,-0.0130644295606762,-0.0525040942192077,-0.0017174547538161,-0.0002085538581013,0.0007962211966514
1783206774910069200,4.5470693359375,-0.0718106695724651,0.0136859955251216,-0.0447147555172443,-0.0009544296190142,-0.0033037466928362,0.0012710145674645
1783206774920006400,4.55700634765625,-0.0966084992857649,0.0009424684818834,-0.0456090740084648,-8.67713242769e-05,0.0065936245955526,0.0018108370713889
1783206774929942000,4.56694189453125,-0.037099092881754,-0.0316436770200729,-0.0221136321306228,-0.0030342750251293,-0.0043891393579542,0.0003010751679539
1783206774939879200,4.576879150390625,-0.0180679734690114,-0.0179399997077882,-0.0518786557972431,-0.0017415769398212,0.0024653049185872,0.0007695253007113
1783206774949816300,4.58681640625,-0.0195523302752524,-0.0286862154539674,-0.0403407782167196,-0.0046449154615402,-0.0050909989513456,0.0004843880888074
1783206774959753200,4.596753173828125,-0.0417598877670243,0.0296815831668674,-0.0274526550710201,-0.0020520621910691,0.005022088997066,0.002500400878489
1783206774969689000,4.606689208984375,-0.0642239042378962,0.0185294169683009,-0.0452548537433147,-0.0004449365660548,-0.0043978141620755,0.0025942986831068
1783206774979626200,4.616626220703125,-0.0714087011754512,0.0378209043502807,-0.0488385574489831,0.0002240492030978,0.0026102943811565,-0.0009357212111353
1783206774989563100,4.626563232421875,-0.0288591974006965,0.0458331650879234,-0.0246007727712392,0.0018200585618615,-0.0018350901082158,0.0031526314560323
1783206774999500300,4.636500244140625,-0.0133399585664272,-0.0349214565817266,-0.0615466478526592,-0.0011664107441902,-0.0020635891705751,-0.0014575667446479
1783206775009436200,4.646436279296875,-0.0366967591585591,-0.0126386784292757,-0.0274216754108667,-0.000356713309884,0.0027855054941028,-0.0006811837665736
1783206775019373000,4.656373046875,-0.0516853251822292,0.0222437613163143,-0.0323515330284833,-0.0004629734903573,-0.002450801897794,-0.0039944224990904
1783206775029310200,4.666310302734375,-0.0384690660607069,0.0009084931470453,-0.0576426261514425,0.0026663234457373,-0.0007547875866293,0.0013565681874752
1783206775039246000,4.67624609375,-0.0243914043368771,-0.0164070179868489,-0.0419219099283218,-0.0003995075821876,-0.0009902110323309,0.0032378248870372
1783206775049183200,4.686183349609375,-0.0213738100813701,0.0085610537268221,-0.0313157602399587,7.09071755409e-05,0.0039832005277276,0.0019957828335464
1783206775059120000,4.6961201171875,0.0515604201609268,-0.0663023179471492,-0.0515109915286302,0.000873583368957,-0.0012472476810216,0.001775805838406
1783206775069057300,4.706057373046875,0.0913579948790371,-0.0875084798440337,-0.0278536370873451,-0.0010150372982025,-0.0015105698257684,0.0057118125259876
1783206775078993200,4.7159931640625,-0.0208576772527769,-0.1004586353752762,-0.0288695361316204,-0.0037863217294216,-0.0020258920267224,0.0028126949910074
1783206775088930000,4.725929931640625,-0.1981044783521443,-0.0038562370367348,-0.0450116926372051,-0.00179258082062,0.0110636390745639,0.0006849602796137
1783206775098867200,4.7358671875,-0.2011598473347723,0.1261846858493983,-0.0329039062142372,0.0001006601378321,0.0037399467546492,-8.41608271002e-05
1783206775108804400,4.745804443359375,-0.0556681477406993,0.1230996523808687,-0.0920195275276899,0.0026462012901902,-0.0006591067649424,0.0011887673754245
1783206775118740000,4.755739990234375,0.0905928557254373,0.0219352798890322,-0.0573293224185705,0.0004586810246109,-0.002504410687834,0.0014897047076374
1783206775128677000,4.765677001953125,0.1487703559385612,-0.0532683565899729,-0.0071954644620418,-0.0015835808590054,0.0044736759737133,0.0044963918626308
1783206775138614300,4.7756142578125,0.1214123203484341,-0.0709001671314239,-0.0382920289933681,-0.0013737240806221,-0.0061672502197325,0.0019243105780333
1783206775148550100,4.785550048828125,-0.0072797086793929,0.0188263540882617,-0.0486351438313722,0.0055693471804261,0.0022394999396055,0.0021087250206619
1783206775158487000,4.795487060546875,-0.1052246807333081,0.0160068396881222,-0.039228433060646,0.0008470304310321,-0.0041563473641872,0.0028682586271315
1783206775168424200,4.805424072265625,-0.1482805996602401,0.0143370067797601,-0.0462508790433406,-0.0011561531573534,-9.56994481384e-05,0.0019449885003268
1783206775178361000,4.815361083984375,-0.1663967961851507,-0.0002429419104009,-0.0425058472961187,0.0003842199221253,0.0023376308381557,-0.0010814275592565
1783206775188297200,4.825297119140625,-0.108124055436626,0.022526816041395,-0.032635610666871,0.0027907006442546,0.0020041409879922,-0.0026747237425297
1783206775198234000,4.835234130859375,-0.0593415024911984,0.007670680758357,-0.0482236404210329,0.0012106467038393,-0.0027663796208798,-0.0001234153751283
1783206775208171000,4.8451708984375,-0.0524482723787426,0.0079466481555253,-0.0578197362840175,0.002363609150052,0.001389998011291,-0.0009758009109646
1783206775218108200,4.855108154296875,-0.0608094926845282,-0.0624878011602908,-0.0334498496592044,0.0026232674717903,-0.0065291775390505,-0.0018112345132976
1783206775228044300,4.865044189453125,-0.0936354017591103,-0.0726030255265533,-0.0352455009043216,0.001326872035861,0.0037798502016812,0.001341899158433
1783206775237981200,4.874981201171875,-0.1070734138725325,-0.1195155833490192,-0.0418254638165235,-0.0046990634873509,-9.37175936996e-05,0.0014718614984303
1783206775247918000,4.88491796875,-0.0931324937382712,-0.064318815979734,-0.0219166482537984,-0.0013531344011425,0.0052360128611326,0.0018670782446861
1783206775257855200,4.894855224609375,-0.044141412608698,-0.051768765681982,-0.0485369441539049,-0.003799513913691,-0.0029825023375451,-0.0001569241285324
1783206775267791400,4.904791259765625,-0.0337656010774895,0.0118204939141869,-0.0648269846975803,-0.0010826084762811,1.83284282684e-05,0.0041206628084182
1783206775277728000,4.91472802734375,-0.041509200941585,-0.006581424216926,-0.0267997441202402,-0.0010684933513402,-0.0012666471302509,-0.0004450604319572
1783206775287665200,4.9246650390625,-0.0945551104199141,0.0397710155047476,-0.0275485166609287,-0.0008832616731524,0.0032560161780565,-0.0021581691689789
1783206775297601300,4.934601318359375,-0.1080243213891982,0.0213184631649404,-0.0449029715657234,0.000961510464549,-0.0029435567557811,-0.0034253012854605
1783206775307538200,4.9445380859375,-0.1067638729993253,0.0635414749316871,-0.0509054268509149,0.0017462586984038,0.0010595670901238,-0.0032628746703267
1783206775317475000,4.95447509765625,-0.0745535020072013,0.0586811023537069,-0.0458393756330013,-0.0001528412103652,0.0051640309393405,-0.0024990802630782
1783206775327412200,4.964412109375,-0.0376204864073544,0.0354579015459865,-0.0419727633327245,0.0020676730200648,-0.0028799795545637,-0.0046908129006624
1783206775337348000,4.97434814453125,-0.0285187864651903,0.0054896834574639,-0.0569429534494876,0.0027403868734836,0.0001608179882168,-0.0035081030800938
1783206775347285200,4.98428515625,-0.0544551552217453,-0.0271256150737404,-0.0365992536008357,-0.0011746706441044,-0.0009041605517268,-0.0029324945062398
1783206775357222100,4.99422216796875,-0.0676029522169381,-0.0423577440623193,-0.030914193701744,0.0010120505467057,-0.0019987197592854,-0.0048635527491569
1783206775367159000,5.004158935546875,-0.0527057177385315,-0.0483773696780204,-0.0321118790537118,0.0002400949597358,0.0004419749602675,-0.0033805158454924
1783206775377095200,5.01409521484375,-0.0206915634382516,-0.0413742129176855,-0.0385556483656168,0.0025197612121701,0.0023783592041581,0.0006730817258358
1783206775387032300,5.0240322265625,0.0194389330286532,-0.0605691811226308,-0.0279448225021362,7.26915895938e-05,0.0005577821284532,0.0002130616921931
1783206775396969000,5.033968994140625,0.0449439611632376,-0.0593263414546847,-0.0482850152194499,-0.0023569110780954,0.0013897535391151,-0.0011936200316995
1783206775406906000,5.043906005859375,0.0030243893224745,-0.0353569984547793,-0.0457259783864021,-0.0008091749623417,-0.0012594340369105,0.001150882570073
1783206775416842200,5.05384228515625,-0.0700130090333521,0.0049340954013168,-0.0501940637111663,-0.0019865576177835,-0.0010354621335864,-8.88188369572e-05
1783206775426779400,5.063779296875,-0.128215826350823,0.0156722739715129,-0.05304068531394,-0.0008772714063525,0.0002381987869739,-0.0017937500961124
1783206775436716000,5.073716064453125,-0.1141949728481471,-0.0007666735235601,-0.0533434676527976,0.0002380600199103,0.0012086550705134,-0.0036305321846157
1783206775446652200,5.083652099609375,-0.0723997580394148,-0.0229481832586228,-0.0376268430829048,-0.0014288295060396,0.0014962707646191,-0.0007704189047217
1783206775456589300,5.09358935546875,-0.028482290379703,-0.0502249703060835,-0.0382084423631429,-0.0019209822639822,-0.0009210808202624,0.0013601097743958
1783206775466526200,5.103526123046875,-0.014870017677918,-0.0250181214004755,-0.0386515099555253,0.0005937786772847,-0.0006567602977156,0.001544497674331
1783206775476463000,5.113463134765625,-0.0361280558925122,-0.0040953795548528,-0.0410398663967847,-0.0039799343794584,0.0013046576641499,6.5378146246e-05
1783206775486399200,5.123399169921875,-0.0568873508047312,0.0184141930907964,-0.0501665911823511,-0.0039207190275192,0.0005236938595771,-0.0017294480931013
1783206775496336100,5.133336181640625,-0.0725567021667957,0.0334021380599588,-0.0419254170596599,0.0007179751992225,-0.0014888569712638,-0.0007794986013323
1783206775506273300,5.143273193359375,-0.0572779210248962,-0.0095372052825987,-0.0399836353421211,0.0021910676732659,-0.0012513939291238,-0.0026608319021761
1783206775516210200,5.153210205078125,-0.010177768208459,-0.0485877975583076,-0.0295113411664962,-0.0037112971767783,-7.18799419701e-05,-0.0009873013477772
1783206775526146000,5.16314599609375,0.066319232549332,-0.0380669880658388,-0.0321779300272464,-0.0024291761219501,-0.0017981911078095,-0.0002683158963918
1783206775536083200,5.173083251953125,0.0810970418991521,0.0103082627203315,-0.0525152001351118,0.0002022944390773,-0.0002096155658364,0.0008792399894446
1783206775546020400,5.183020263671875,0.0389885598901659,0.0357302156813442,-0.0523603018343448,0.000971102155745,-0.0013301339931786,-0.0006001940928399
1783206775555957000,5.19295703125,-0.0228691632056608,0.0319758315838873,-0.0414314960628747,-0.0016134958714246,0.0007559200748801,-0.000945872394368
1783206775565892900,5.202892822265625,-0.0453967464320361,0.0035437370214611,-0.0361982715845108,-0.000698166899383,-0.0015676883049309,0.0032075934577733
1783206775575830000,5.212830078125,-0.0362608884919434,-0.0231843301020562,-0.0496580571383237,0.0009189043194055,0.002060336060822,-0.000569301424548
1783206775585767000,5.222766845703125,-0.0355552609732374,-0.0250314192734658,-0.0325976167440414,0.0010101236402988,-3.56477685272e-05,-0.0012865881435573
1783206775595704000,5.2327041015625,-0.0432244804268702,-0.0058284869577735,-0.0462023637264966,0.00165540818125,-0.0004588239826261,0.0012087938375771
1783206775605640000,5.242639892578125,-0.0442668290866538,0.0144577836152166,-0.0405289942651987,0.0005703279748558,-0.0017592366784811,0.0012328114826232
1783206775615577000,5.2525771484375,-0.0127469611093401,0.0438878762390464,-0.0489186369478702,0.0014579594135284,0.0003393343649804,-8.11922363936e-05
1783206775625514000,5.262513916015625,0.0282026697207242,0.0396514807783067,-0.0371183090388774,0.002860764041543,-0.0034124571830034,-0.0011518390383571
1783206775635451100,5.272451171875,0.0380209569670259,0.0243857417810708,-0.0495446598917245,2.18339264392e-05,0.0011918824166059,0.0010010604746639
1783206775645387000,5.282386962890625,0.0074808207420632,0.0024969313822686,-0.0348889425516128,0.0039548855274915,0.0001913993619382,0.0014684502966701
1783206775655324000,5.292323974609375,-0.0402280385572463,-0.0530598284058272,-0.0375929408133029,-0.0002313377335667,-0.0018621641211211,-0.0004399709869176
1783206775665261000,5.302260986328125,-0.1001233755389228,-0.0488667606301605,-0.0371352601736783,-0.0007362505421042,-3.18433158099e-05,-0.0015618614852428
1783206775675198000,5.312197998046875,-0.0919865751061588,-0.05321326540187,-0.0330921222627162,0.0006563160568475,3.12738120555e-05,-0.0018942239694297
1783206775685133800,5.3221337890625,-0.0563601851254701,-0.0696072047114372,-0.0414829339891672,-0.0013843830674886,0.0004191664047539,-0.001201394945383
1783206775695071000,5.332071044921875,-0.0513316894389688,-0.0263914555802941,-0.0368266326159238,-0.0016304589807987,-0.0004325122572481,0.0006886501796543
1783206775705008000,5.342008056640625,-0.0492707748537883,0.0111496819805353,-0.0404249493688344,0.0002753883600234,0.0013952790759503,-4.47807833552e-05
1783206775714945000,5.351945068359375,-0.0390666666276752,0.0187926710143685,-0.0559913518130779,0.00064876396209,-0.002442602533847,0.0023933432530611
1783206775724881000,5.361880859375,-0.0779447153480723,0.0277972307249903,-0.0503168133080005,0.0027069505304098,0.0016680527478456,0.0007210003677755
1783206775734818000,5.371818115234375,-0.0557496520116925,0.0047430298086255,-0.0355102893203496,-0.0011106906458735,0.0005066478624939,-0.0022529517300426
1783206775744755000,5.3817548828125,-0.0058055444736033,-0.0219377641070634,-0.041654783424735,0.0001986660063266,0.0003585796803236,-0.0009487571660429
1783206775754692000,5.391692138671875,0.0065512848069891,-0.0273253023643046,-0.0485340215444564,0.0022706054151058,0.0002581784501671,-0.001704562222585
1783206775764628000,5.4016279296875,-0.0229796743754297,0.0138161247108131,-0.0385322674900293,0.0021514082327485,0.000881899613887,0.0005551455542445
1783206775774564900,5.41156494140625,-0.0416638069814071,0.034980858618766,-0.0544090510576963,0.0020675184205174,-0.0009261206723749,-0.0027620878536254
1783206775784502000,5.421501953125,-0.0299945215735584,0.0301068959068506,-0.0509720623463392,-0.0004014559090137,-0.0006790440529584,-0.0008903474081307
1783206775794439200,5.431439208984375,-0.0235022734774276,0.0043980888284742,-0.0407891065061092,0.0031027309596538,-8.40937718749e-05,-0.002582520013675
1783206775804375000,5.441375,-0.0198464909162372,-0.0348570130433887,-0.0381003058135509,0.0003819176927208,-0.0016239318065345,-0.0006214422173798
1783206775814312000,5.45131201171875,-0.0635120296414941,-0.0209353090662509,-0.0432049354761838,0.0012282701209187,0.0010107331909239,-0.0026417160406708
1783206775824249000,5.4612490234375,-0.0666712608573958,-0.0531278521407395,-0.0424666843295097,-0.0012811906635761,-0.0010072109289467,0.0014092873316258
1783206775834186000,5.47118603515625,-0.0622097148712724,-0.0423512412562966,-0.037818566262722,-0.0003333715721964,0.0013592741452157,-0.0006927454378455
1783206775844121900,5.481121826171875,-0.0589488499118015,-0.0395161639608442,-0.0285310979574918,-0.0001128567382693,-0.0019606929272413,0.0016083274967968
1783206775854059000,5.49105908203125,-0.0657247372549027,-0.0179353965979069,-0.0497661936879158,-0.0008636014536023,-0.0023567052558064,-0.0018167637754231
1783206775863996000,5.500995849609375,-0.0673699106460437,0.0034792204178869,-0.0454167663067579,-0.0015938011929392,-0.0002332837320864,0.0010688703041523
1783206775873933000,5.51093310546875,-0.0534346165349707,0.0153265292737632,-0.0475011713653802,-0.000982872210443,0.0014197402633726,-0.0006406130269169
1783206775883869000,5.520868896484375,-0.0256722013950347,0.0279918765142559,-0.0380804320693016,-0.0002993093803524,0.002171785570681,0.0011682785116136
1783206775893806000,5.53080615234375,-0.0134354548301547,0.0293814311765134,-0.0487093781113624,-0.0007752170786261,-0.000604027416557,-0.0024935682304203
1783206775903743000,5.540742919921875,-0.0116809393130242,0.0216689571030437,-0.0437783514499664,0.0012441612780094,0.0034183459356427,-0.0006342181004583
1783206775913680100,5.55068017578125,-0.0079715268684551,0.0089343440186232,-0.0380991367697715,-0.0002128537744283,0.000818567816168,-0.0013559346552938
1783206775923616000,5.560615966796875,-0.0246821674443781,-0.0153917034644633,-0.0481271943092346,0.0003088284283876,4.13749366998e-05,7.77132809162e-05
1783206775933553000,5.570552978515625,-0.0478849099859595,-0.0373539444256573,-0.0352478389918804,2.44034454226e-05,-0.0023062019608914,0.0023070455063134
1783206775943490000,5.580489990234375,-0.0631559462128207,-0.0284640971358865,-0.0217810391753911,-0.002743674442172,0.0014595258980989,-0.0015242808731272
1783206775953427200,5.59042724609375,-0.0701886213285848,0.0059326779846102,-0.0469189875632524,0.0027956999838352,-0.0025091166608035,0.0016757734119892
1783206775963362800,5.60036279296875,-0.0642136020395904,0.0115169809229671,-0.0515659365862607,0.00081785954535,0.0005488833412528,-0.0007329110521823
1783206775973300000,5.610300048828125,-0.0488731903709471,0.0263811533819884,-0.0361602776616811,0.0001747058704495,0.0018762028776109,-0.0009994935244321
1783206775983237000,5.620237060546875,-0.0169717026649042,0.0296059606473892,-0.0390144980490207,0.0008888188749551,0.0008510872721672,0.0009085028432309
1783206775993174000,5.630174072265625,0.0197009449657052,0.0242384422648698,-0.0578811110824346,0.0024595512077212,0.0002958183176815,-0.0004076312761753
1783206776003110000,5.64010986328125,0.0214033649694174,0.0161871646910905,-0.0513140076518058,0.0009483825415372,0.0007788906805217,-0.0047257603146135
1783206776013047000,5.650047119140625,-0.0007041296813637,0.0055173021167516,-0.0290355403482913,0.0053990576416254,0.0052644531242549,2.15906184166e-05
1783206776022984000,5.65998388671875,-0.0340232291003689,-0.0316934344459325,-0.0426648372501134,-0.0012673735618591,0.0005909260362386,-0.0033245149534195
1783206776032921000,5.669921142578125,-0.0811679517108946,0.0158938808329403,-0.0320411519050598,-0.0003347340971231,-0.0005260035395622,-0.00079424562864
1783206776042857000,5.67985693359375,-0.1287167616102844,0.0291420694626867,-0.0534545268118381,0.0035855649039149,0.000942550599575,-0.0020131242927163
1783206776052793900,5.6897939453125,-0.0877245337475091,0.0117874684274196,-0.0331400530576705,0.0028665112331509,0.0040717646479606,-0.0024347025901079
1783206776062731000,5.69973095703125,-0.0177130590841174,0.0124030430424958,-0.0367582435548305,0.0047560669481754,0.0017664758488535,-0.0013814942212775
1783206776072668200,5.709668212890625,0.0403801969116553,-0.0336233795952051,-0.0577396567851304,0.0050450200214982,0.0012759217061102,-0.0007535207550972
1783206776082604000,5.71960400390625,0.0587794116290286,-0.1342808985434472,-0.0363490782320499,-1.19833275675e-05,0.0015869680792093,0.000126055907458
1783206776092541000,5.729541015625,-0.0070170026225969,-0.0596123187892138,-0.0179378077507019,-0.0018130792304873,-0.0035761017352342,0.0016222198028117
1783206776102478000,5.73947802734375,-0.0632726679276674,-0.0562143469139933,-0.0497930816948413,0.0008444124832749,-0.001326244790107,0.0005855502095073
1783206776112415000,5.7494150390625,-0.085914013726823,-0.041624972808361,-0.0394581501632928,-0.002663504332304,-0.0024698060005903,-0.0005058133974671
1783206776122350800,5.759350830078125,-0.1096492557099089,0.0115795978303998,-0.0351040466070175,0.0007468564435839,-0.0014283014461398,-0.000423043500632
1783206776132288000,5.7692880859375,-0.0953375295018777,-0.0116420686073601,-0.0455681574761867,-0.0005767345428466,0.0020441943779587,-0.0018401115667074
1783206776142225200,5.77922509765625,-0.0699585388997569,0.0092514471437782,-0.0487198995053768,0.0022045755758881,0.0008638156577944,-0.0004035020247101
1783206776152162000,5.789162109375,-0.0395094054264947,0.0293261207927018,-0.0406558355152606,0.0007206620648503,0.0007208036258816,-0.0025886255316436
1783206776162098000,5.799097900390625,-0.0031651495000347,0.0212487589295953,-0.0420218631714582,0.0013406323269009,0.0014191921800374,0.0002712230198085
1783206776172035000,5.80903515625,0.020024916223064,0.0358605640627443,-0.0381453139990568,0.0010633971542119,0.0044538639485836,-0.0003285207785665
1783206776181972000,5.818971923828125,0.0172664843603968,0.0775358788188546,-0.0429781409829855,0.0073420833796262,0.0050558154471218,-0.0008643947076052
1783206776191909000,5.8289091796875,0.0498828788701444,-0.0278415082581341,-0.0530073675662279,0.0012285308912396,-0.0011165929026901,-0.002338188001886
1783206776201845000,5.838844970703125,-0.0322429580874741,0.0484003852274268,-0.0355178881049156,0.0010019661858677,-0.0044903219677507,-0.0024464377202093
1783206776211782000,5.848781982421875,-0.1090189219171181,0.0533489475455135,-0.0495931752085685,0.0057511813938617,0.0051319450139999,0.002516096457839
1783206776221719000,5.858718994140625,-0.0700736897120252,-0.1458933026649057,-0.0388385569602251,0.0005907099694013,-0.0003287312574684,-0.0042835054919123
1783206776231656200,5.86865625,-0.0804111785268411,-0.0094639939159154,0.0026040450185537,1.9728206098e-05,0.0055259624496102,-0.0012666768161579
1783206776241591800,5.878591796875,-0.0349247445173561,-0.020883359683305,-0.0319768544971942,0.0047387490049004,0.0001995721831917,0.0012421638239175
1783206776251529000,5.888529052734375,0.0355252676937729,-0.1157585689030587,-0.0369353536874055,-9.30242240428e-05,0.0040443777106702,-0.002090515801683
1783206776261466000,5.898466064453125,0.0316142317298799,0.0592778261378407,0.0021299977660179,-0.0041459929198026,-0.0091291451826691,-0.003069071797654
1783206776271403000,5.908403076171875,-0.0379044909805059,0.1309258890271186,-0.0667091451823711,0.005795853678137,0.0004760776646435,0.0020194302778691
1783206776281340000,5.91833984375,-0.0327202567430213,-0.0800641551874578,-0.02812427072227,0.0023609083145856,0.0016643800772726,-0.0014072592603042
1783206776291276000,5.928276123046875,-0.0874841856529936,0.0120692810434848,-0.018088614398241,-0.0040652994066476,9.41799953579e-05,-0.0027566829230636
1783206776301213000,5.938212890625,-0.1037416756339371,-0.1355181121882051,-0.0096989717155694,5.91427087783e-05,-0.000784664414823,-0.003613987006247
1783206776311150000,5.948150146484375,-0.0580861686678603,-0.0898836845427751,-0.0122457335889339,9.85581427812e-05,-0.0124916546046733,0.0016817087307572
1783206776321087000,5.9580869140625,-0.0785930231889709,-0.1361557525046169,-0.0327373174756765,-0.0015569636598229,0.0084769427776336,0.0027505785692483
1783206776331023000,5.968023193359375,-0.069850767676346,0.0158019647657871,0.0072083239436149,-0.002776158042252,-0.0037336503155529,0.0023742739576846
1783206776340960000,5.9779599609375,-0.0219076246971264,0.0368602426245808,-0.0288420636028051,0.0026665423065423,0.0020904196426272,-0.000856639817357
1783206776350897200,5.987897216796875,0.0018691914053633,0.0429652084361761,-0.0292827931076288,-0.001227531582117,-0.005133937112987,0.0024286354891955
1783206776360833800,5.997833740234375,-0.0171629874533042,-0.0257933435566723,-0.0249292740732431,0.0010421331971883,0.0022800331935286,0.0010085934773087
1783206776370770000,6.00777001953125,-0.0550672957707196,-0.0723268389336764,0.017277298015356,-0.0022114505991339,-0.0023325621150434,0.0012197820469737
1783206776380707000,6.01770703125,-0.0901273936381563,-0.0448509491175413,-0.0147293670982122,-2.78763473033e-05,-0.0013661636039614,0.0025797809939831
1783206776390644000,6.02764404296875,-0.0911085501626133,-0.0242022749729454,-0.0217588273435831,-0.001433758996427,0.0050491252914071,0.0018881580326706
1783206776400580900,6.037580810546875,-0.0611014248358085,0.0055325727511197,-0.0094844521820545,-0.0026381434872746,-0.0005640867166221,0.0020309297833591
1783206776410517000,6.04751708984375,0.0278363571589812,-0.0167728556245565,-0.021747721427679,-0.0022213589400053,0.0031219946686178,0.0012434327509254
1783206776420454100,6.0574541015625,0.0501229712363332,-0.0227719499088823,-0.023674305576086,-0.0018706209957599,-0.0034685297869145,0.0005965509917587
1783206776430391000,6.06739111328125,-0.0546068021195009,-0.0285702609241008,-0.0181149178832769,-0.0008615488186478,-0.0032128668390214,0.0025776766706258
1783206776440328000,6.077327880859375,-0.1540008404705673,-0.0245423205822706,-0.0046370121508836,-0.002888586372137,0.0012957975268363,0.0032389650586992
1783206776450264000,6.08726416015625,-0.1358709442138671,-0.0351984468922019,-0.0005757540613412,-0.0011820327490568,-0.0004461761564016,0.0043220724910497
1783206776460201000,6.097200927734375,-0.0619121932294219,-0.0463987630814313,-0.0129956751734018,-0.0006590783596038,0.0010639615356922,0.0012654189486056
1783206776470138000,6.10713818359375,-0.0074802727527916,-0.0302849558874964,-0.011329787787795,-0.0030066547915339,0.0009017749689519,0.0021442619618028
1783206776480075000,6.117074951171875,-0.0104774452747777,-0.0108609281670302,-0.0057552025258541,-0.0032176757231354,-0.0028735129162669,0.0037078214809298
1783206776490011000,6.127010986328125,-0.0470388510832563,0.0142174720533192,-0.0218897602468729,-0.0010501286014914,-0.0019081169739365,0.0023333639837801
1783206776499948000,6.136947998046875,-0.0920197832560166,0.0486439116597175,-0.0205476979881525,-0.0004280917346477,-0.0018952023237943,0.0011371986474841
1783206776509885200,6.14688525390625,-0.086614453613758,0.0474808592297136,-0.0063227732807397,-0.001482437364757,-0.0005095596425235,-0.0007967890705913
1783206776519821800,6.15682177734375,-0.0554117252942174,0.0051382396712899,-0.0162064539134502,0.0010235970839858,-0.0008310028351843,0.00226158532314
1783206776529758000,6.166758056640625,-0.0267511192055419,-0.0236522398747503,-0.0075192895889282,-0.0021921694278717,-0.0003614877350628,0.0012506491038948
1783206776539695000,6.176695068359375,0.0032529008487239,-0.0207473852787166,0.007016016241908,-0.0014643250033259,0.000913024879992,0.0011741928756237
1783206776549632000,6.186632080078125,-0.0174149529203772,0.0199351190477609,0.0003010287731885,-0.0040475903078913,-0.0002792724408209,-0.0010559379588812
1783206776559569000,6.19656884765625,-0.0362522302614524,0.0388725322950631,-0.0079161799520254,0.0009375773370265,-0.000881602987647,0.0025667834561318
1783206776569505000,6.206505126953125,-0.0545970479104667,0.0504370056215673,-0.0112047001034021,-0.0020590117201209,0.0021128552034497,-0.0001160851679742
1783206776579442000,6.21644189453125,-0.0291160947712138,0.0301664440743625,-0.0091091891288757,-0.0003679618239402,0.0008514504879713,0.0001099652145057
1783206776589378800,6.22637890625,0.0104995840413495,0.0309241305738687,-0.0091296473950147,0.0023596473038196,0.0030983595643192,0.0022769796196371
1783206776599316000,6.23631591796875,0.0424476873680949,0.0218243668604642,-0.0152747260212898,0.0040527107194066,-0.0011933376081287,-0.000156370922923
1783206776609252000,6.246252197265625,0.0207822373963892,0.008765855583921,-0.0100549455463886,0.0026138043031096,-0.0018058642745018,0.0001754590775817
1783206776619189000,6.25618896484375,-0.0191445531919598,-0.0070807520411908,0.0052151042997837,0.0006610909476876,-2.11526639759e-05,-0.0012480263831093
1783206776629126000,6.2661259765625,-0.0551293281562626,-0.0135691642124205,0.004032031995058,0.0015676310285925,-0.0029937727376818,0.0002406805288046
1783206776639062000,6.27606201171875,-0.0811973604684695,-0.0165012721415609,-0.0061421560168266,0.0014376593753695,0.0027235762681812,0.0020025335252285
1783206776648999000,6.2859990234375,-0.0410713575135916,-0.0164223616864532,0.0103103816121816,0.0004083476960659,0.002671378199011,0.0016507296822965
1783206776658936000,6.29593603515625,0.0105049908688291,-0.0004796002104878,0.0010357727885246,-0.0029002912342548,0.0007131332531571,-0.0024411277845501
1783206776668873000,6.305873046875,0.0401083942329511,0.0050303223174065,-0.0092769469112157,-0.0003609666600823,-0.0007982105016708,-0.0009188649710267
1783206776678808800,6.315808837890625,0.0149120667213574,0.0350563350077718,-0.0050748190462589,-0.0011978559195995,0.0013092318549752,0.0011577042751014
1783206776688746000,6.32574609375,-0.0313636179696768,0.0235133428607136,-0.0046375966727733,0.0002237390726804,-0.0027965637855231,-0.0010668339673429
1783206776698683100,6.33568310546875,-0.0667768766563385,-0.002022957194969,0.0020949264526367,0.0006886720657348,-0.0007802257314324,-0.0017103288555517
1783206776708619800,6.345619873046875,-0.0713962070200592,-0.0658624652251601,0.0106277769982814,0.00093874335289,-0.0006276266649365,0.0018668291158974
1783206776718556000,6.355555908203125,-0.0677031977210193,-0.073994041493535,0.0066004211783409,-0.0020728791132569,-0.0002690530382096,0.0004807659424841
1783206776728493000,6.3654931640625,-0.0660882002724334,-0.0314815452609211,-0.0046072015345096,-0.0004353011026978,-0.0013710693456232,-0.0017176734982058
1783206776738430000,6.375429931640625,-0.0593651025624945,0.0245950736828148,0.002428103929758,0.001117798499763,0.0015461076982319,0.0001518728677183
1783206776748366800,6.385366943359375,-0.0370095149021595,0.0548489768449217,-0.0062643210917711,-7.02384859323e-05,0.0010350472293794,0.0004618647508323
1783206776758303000,6.395302978515625,0.0007740531124174,0.0329902693234384,-0.0079126728206872,0.0004763603210449,-0.0001633814536035,-0.0010254404041916
1783206776768239900,6.405239990234375,-0.0063581003224477,0.0128822779268026,-0.0043260465055704,0.0029709432274103,-0.0006147874519228,-0.0009689815342426
1783206776778177000,6.415177001953125,-0.0451102576408535,-0.0057270724099129,0.0145101713895797,0.0010631131008267,0.0007271231152117,-0.002175050554797
1783206776788114000,6.425114013671875,-0.0712099637329578,-0.0189546566430479,-0.0024012159228324,0.000204243697226,-0.0005487971939146,0.0004002263303846
1783206776798050000,6.435050048828125,-0.0641495603600516,-0.0283252731870859,0.0143371529102325,0.0012543881312012,0.0025230227038264,0.0012459484860301
1783206776807987000,6.444987060546875,-0.0441241692129522,-0.0258284879352897,0.0061094227910041,-0.0013677598908543,0.0032063899561762,-0.0003879007417708
1783206776817924000,6.454924072265625,0.0142779700689017,0.0103911186981946,0.011790391036868,0.0012822300195693,-0.0028588478453457,0.0013176992069929
1783206776827860000,6.46485986328125,0.040868747613579,0.0585123216580599,0.0049053076982498,0.0017946222797036,-0.0002457536756992,0.0005863949190825
1783206776837796900,6.474796875,0.0466313297282904,0.0496441016782075,-0.0075192895889282,0.0009056590497493,-0.0018329978920519,-0.0020698418375104
1783206776847734000,6.484734130859375,0.0379566960917785,0.0522435435868799,-0.0072235215127468,0.0013775704428553,0.00020139105618,0.0012098408769816
1783206776857671000,6.4946708984375,0.0070134954912588,0.0178067287169396,0.0080313307642936,0.0010654386132955,0.0006995839066803,0.0010946146212518
1783206776867606800,6.504606689453125,-0.0511713477781042,-0.023022417538613,-0.0025976152777671,0.0014870166778564,-0.0029649259522557,0.0018293806351721
1783206776877544000,6.5145439453125,-0.1055613653417676,-0.0483743740033358,0.018480244064331,0.0027548056095838,0.0033596258144825,-0.0017933367053046
1783206776887481000,6.524481201171875,-0.1010252562820911,-0.0560828294888138,0.0316343246698379,0.0020112516358494,-0.0016375295817852,-0.0009336683433502
1783206776897416700,6.534416748046875,-0.0842294581733644,-0.0089174659490585,0.0055897828310728,0.0004884991794824,0.0003063553012907,4.68962825834e-05
1783206776907353900,6.544353759765625,-0.0719049967924132,-0.0186281281024217,-0.0155190561711788,0.0029993271455168,0.0049708820879459,-0.0001618955284357
1783206776917291000,6.554291015625,-0.0303160451455041,-0.0553369064923375,0.0235153156220912,-0.0009910268709063,0.0014105793088674,-0.0041625145822763
1783206776927228000,6.564227783203125,0.0073824384015053,-0.0036407676551491,0.0087064535468816,0.001078781671822,0.0014902078546583,4.0486222133e-05
1783206776937163800,6.574163818359375,-0.037845965726301,-0.024385814846307,-0.0224240132540464,0.0020842924714088,-0.0008487268351018,0.0021028069313615
1783206776947101000,6.584100830078125,-0.0955917965238913,-0.002386164484173,0.0089712419629096,0.0021953471004962,0.003358801594004,-0.0039801192469894
1783206776957037800,6.594037841796875,-0.1027273840248584,0.0029620646759867,0.0170388130843639,-0.0018869806081056,0.002513819374144,0.0002652110997587
1783206776966974000,6.603973876953125,-0.0764487777018919,-0.0781315796896815,-0.0169230777502059,0.0004147896543145,-0.0020135547965765,0.0036468929611146
1783206776976910800,6.613910888671875,-0.0740257152734324,-0.0532682104595005,0.0182347448706626,0.0005461610853672,0.0012444532476365,0.0002784091047942
1783206776986848000,6.623847900390625,-0.0557833350855857,-0.052677843350917,0.0258662626624107,-0.0008296277374029,-0.0012120464816689,-0.0022372128441929
1783206776996785000,6.633784912109375,-0.0419693292666226,0.0078510788265615,-0.0046633156359195,-0.0014200210571289,0.003019543364644,-0.0005935917142778
1783206777006721000,6.643720947265625,-0.0416299047118052,-0.0011092033509165,-0.0006406359910964,0.0019952170550823,0.0002898033708333,-0.0003360640257596
1783206777016658000,6.653657958984375,-0.0369784621767699,-0.0171120244510471,0.0014431845456361,-0.0007465463131666,0.0021126572974026,0.0010451534762978
1783206777026594800,6.6635947265625,-0.0651641807626932,-0.0518428538314998,0.0007072714865207,-0.0030840020626783,-0.0039753289893269,-0.0003799039404839
1783206777036531000,6.673531005859375,-0.1131560217218473,-0.0994815339714288,0.0049275195300579,0.0005886564031243,-0.0006780577823519,0.0006157853640615
1783206777046468000,6.683468017578125,-0.1428016933251172,-0.1089606523912399,0.0282744928479194,0.0008091665804386,0.0042732916772365,0.0033676296006888
1783206777056404700,6.69340478515625,-0.1305327615236863,-0.0804281661942601,0.0167599961429834,-0.003409975208342,0.0022820746526122,0.0005664753261953
1783206777066342000,6.703341796875,-0.0452898154588416,-0.0454893200863152,0.0097346275508403,-0.0016440330073237,0.001020002644509,-0.0002689582761377
1783206777076278000,6.713278076171875,0.0304756561540067,0.0031532033339142,0.0051017070531845,-0.001079361885786,0.0026817682664841,0.0006310401950031
1783206777086215000,6.72321484375,0.0581711800701916,0.0656394701242446,0.0051069677501916,-0.0012279665097594,-0.0019390825182199,0.0023298708256334
1783206777096151800,6.73315185546875,0.0039627661511301,0.1369299517475068,0.0024245967984199,-0.0016428362578153,0.0021733911707997,-9.94259025901e-05
1783206777106088000,6.743087890625,-0.0522184822108596,0.1368432963773608,0.0009095160603523,0.0022760052233934,-0.0012631518766283,-0.0016690930351614
1783206777116025000,6.753025146484375,-0.0679454455116763,0.092909900496155,-0.0148299048632383,0.004000099375844,0.0041668824851512,-0.0040122279897332
1783206777125962000,6.7629619140625,-0.0225731028685346,0.0234472188219428,0.0066863458961248,0.0044778706505894,0.0022848267108201,0.0005734690930694
1783206777135897900,6.77289794921875,0.0209054984498769,-0.0157397131845355,0.0147404730141162,0.0011007664725184,0.0029113288037478,-0.0018150437390431
1783206777145835000,6.7828349609375,0.0211205294400453,0.0167707367327064,-0.005186462727189,0.0033956123515963,0.0008953157812356,-0.0036811206955462
1783206777155772000,6.79277197265625,-0.0103553897976875,0.0446982427738606,-0.0258569103121757,0.0033338125795125,-0.0010831775143742,-0.0024280829820781
1783206777165709000,6.802708984375,-0.0436806997617706,0.0175131525978446,-0.0103138887435197,0.0029998524114489,-0.0004498776979744,-0.0020805404055863
1783206777175645000,6.81264501953125,-0.0526260766310617,-0.0545301932193338,0.0092658409953117,0.0021061608567833,0.0025769618805497,-0.0015850479248911
1783206777185581800,6.822581787109375,0.0056926586836576,-0.1491765621192753,0.012269698986411,-0.004102200269699,-0.0039605661295354,0.0008834360633045
1783206777195519000,6.83251904296875,0.0416536143809556,-0.2443080841876566,0.0286328047662973,-0.0060510914772748,-0.0017710151150822,0.0035196703393012
1783206777205454800,6.842454833984375,0.0039875717988237,-0.1836809623327106,0.0600946954786777,-0.0093677919358015,0.0026287934742867,0.0060312980785965
1783206777215392000,6.85239208984375,-0.0011882964691147,-0.0299580620206892,0.0115127431392669,-0.005214337259531,-0.0011277613230049,0.000560661079362
1783206777225329000,6.862328857421875,0.0309982552560046,0.0838691004283726,-0.0031254385441541,-0.0003439476713538,-0.0020683896727859,0.0008693214040249
1783206777235265000,6.87226513671875,0.0752041479356586,0.1589282138701528,-0.0099877255290746,-0.0012308815494179,-0.0024081952869892,0.0012791173066943
1783206777245202000,6.882201904296875,0.0446141081543639,0.1542722047578543,-0.0011474164694547,0.002775577828288,-0.0025783721357584,0.0016327851917594
1783206777255138800,6.892138916015625,-0.0293564428657293,0.1150013207949697,-0.0032546178817749,0.0045642582699656,0.0006259302608668,-0.000365053769201
1783206777265076000,6.902075927734375,-0.0639325200758874,-0.0210439570724964,0.0040454759985208,0.0019687414169311,-0.0034010359086096,-0.0018340534297749
1783206777275012000,6.91201220703125,-0.0932058147028088,-0.0430135776225477,0.01689677426517,-0.0009304406121373,0.0016526877880096,0.0008872863836586
1783206777284948700,6.92194873046875,-0.1139010679354891,-0.0756629245538264,0.0167366152673959,0.000654405914247,-0.0006661266088485,0.0003461320884525
1783206777294886000,6.931885986328125,-0.0910649302165955,0.028564781031385,0.0120820674598217,0.0007699355483055,-0.0031537828035652,-0.0005632296670228
1783206777304822000,6.941822021484375,-0.0529603500867262,-0.010104995233193,-0.0108078097403049,0.0018522441387176,0.0037661751266568,0.0032448242418468
1783206777314759000,6.951759033203125,-0.0229709796123206,0.0067681789606809,0.0140308634400367,-0.0003925105556845,-0.0032736957073211,-0.0008176118135452
1783206777324695800,6.96169580078125,-0.0565992545783519,0.0413690983511507,0.0128261638253927,0.0030142050236463,-0.0003668549470603,-0.0001422343775629
1783206777334632000,6.9716318359375,-0.1027259227201342,0.0029175679471343,-0.0023111995518207,-0.0002391617745161,0.0017406451515853,-0.0010244387667626
1783206777344569000,6.981569091796875,-0.1316772919163107,0.0030964316453784,0.0187643217027187,0.0032628951594233,0.0056522958911955,-0.0033411225304007
1783206777354506000,6.991506103515625,-0.1143910068769007,-0.0223939834419637,0.0173825119554996,0.0045923460274934,0.0018911380320787,-0.0022324731107801
1783206777364441900,7.00144189453125,-0.0267618232626467,-0.0174313195332884,0.0004395604610443,0.0033691562712192,0.0020213667303323,-0.0010508287232369
1783206777374379000,7.01137890625,0.0264490675190463,-0.0157542531665414,0.0088099139213562,0.0004766741767525,-0.0002574296668171,-0.0001692716032266
1783206777384316000,7.02131591796875,0.0227930657621473,-0.0275813229519873,0.0086468323141336,-0.0019683744758367,0.0019127801060676,-0.0016310807550325
1783206777394252000,7.031251953125,0.0120112672459334,-0.0153914842687547,0.0153857851803302,3.24333086609e-05,6.16875477135e-05,0.0013389270752668
1783206777404189000,7.04118896484375,-0.0118555652275681,-0.0401060196127742,0.0165840550541877,0.001936593092978,-0.0017362125217914,-0.0008965302258729
1783206777414125800,7.051125732421875,-0.0365814622158184,-0.055303442614153,0.0140337860494852,-0.0009141294285655,0.0018566255457699,0.0001736534759402
1783206777424062000,7.06106201171875,-0.0255181068118661,-0.0543706918086856,0.0140419693559408,-0.000607599504292,0.0025019093882292,0.0032751709222793
1783206777433999000,7.0709990234375,-0.0230017766093835,-0.011935571661219,0.0128594815731048,0.001161172054708,0.0058263149112463,-0.0019506573444232
1783206777443935700,7.080935791015625,0.0072090911285951,-0.0009209142372012,0.0026835399955511,-0.0009677587077021,-0.0038859671913087,0.0011098473332822
1783206777453873000,7.090872802734375,0.0009768091429024,-0.0215039757996797,0.0130237322241067,-2.14921310544e-05,0.0013435399159789,-0.0011803074739873
1783206777463809000,7.10080908203125,-0.0484679705709218,0.0311257175605744,0.0170820677042007,-0.0040053138509392,-0.0034882337786257,0.0055058244615793
1783206777473746200,7.11074609375,-0.0695204397434368,0.0067358110610395,0.0063280339777469,0.0028760703280568,0.0028795080725103,0.0020769019611179
1783206777483682800,7.120682861328125,-0.0667388096682727,-0.0252053876008838,0.0162017777383327,-0.0020473152399063,-0.005083343014121,0.0013522556982934
1783206777493619000,7.130618896484375,-0.0682578724617138,0.0323580358345061,0.0114092827647924,-0.0002835504710674,0.0029971520416438,0.0027801624964922
1783206777503556000,7.14055615234375,-0.0203257623331621,-0.0155294314347207,0.0094599022626876,-0.0001815520226955,-0.0007256809622049,0.0025002642069011
1783206777513493000,7.150492919921875,-0.0035218539832159,0.0090999829091131,0.0093055884838104,-0.0008311197161674,0.0002126218751072,0.0009170661214739
1783206777523428900,7.160428955078125,-0.0423219786291942,0.0092416564021259,0.0010807809740304,0.0008314913138747,-0.0029099346138536,-0.0017463612603023
1783206777533366000,7.170365966796875,-0.0711107411421835,0.0679493545018136,0.0136509242117404,0.0004519512876868,-0.002100511919707,-0.0028520859777927
1783206777543303000,7.180302978515625,-0.1433621767520904,0.2021698280949145,0.0057037645995616,0.0038413563743233,0.006124394480139,-0.0089736282825469
1783206777553238800,7.19023876953125,-0.2025142576184123,0.3935156259670853,-0.0220639477699995,0.0103662330657243,0.0125405862927436,-0.0103992605581879
1783206777563176000,7.200176025390625,0.0572373698187991,0.2251685724969953,-0.0391010072886943,0.0128592178225517,-0.0144252497702836,-0.0065105129033327
1783206777573113600,7.210113525390625,0.2984845685984939,-0.3324641412202269,-0.0250642986297607,0.0074129430577158,0.0029170778580009,0.0032369140535593
1783206777583049700,7.2200498046875,0.3155064305480569,-0.7613646034970879,0.1467412977963686,-0.0123948492109775,-0.0122871752828359,0.0108652729541063
1783206777592987000,7.22998681640625,0.0632411402782425,-0.7556795435979962,0.1425619662851095,-0.0214057248085737,-0.004349467344582,0.0119561720639467
1783206777602923500,7.239923583984375,-0.3584708352666348,-0.0912693667475134,0.0232657247751951,-0.0136250331997871,0.0093202721327543,0.0041432571597397
1783206777612859600,7.249859619140625,-0.4080847244696691,0.5167408044237644,-0.0693400782078504,0.0059449891559779,0.0043686437420547,-0.0011894335038959
1783206777622796800,7.259796875,-0.137190283184126,0.4871110245093702,-0.0804933403849601,0.0054200803861021,0.0054102060385048,-0.0007553382311016
1783206777632733700,7.269733642578125,0.1994546508520841,0.2724091201648116,-0.0224240132540464,-0.0023748176172375,-0.0033862683922052,-0.0009477206040173
1783206777642669600,7.279669677734375,0.3157112324051558,-0.0581637274160981,0.0402998616844415,-0.0037772385403513,-0.0085109891369938,0.0034816490951925
1783206777652606700,7.289606689453125,0.1487121960105374,-0.2637142109252512,0.0578442862033843,-0.0007296074181795,-0.0092294914647936,0.0034640105441212
1783206777662544000,7.2995439453125,-0.1810840411746874,-0.1215758038144558,0.0288408945590257,-0.0066961543634533,-0.0014091185294091,0.0024333675391972
1783206777672479700,7.309479736328125,-0.3731977912120521,0.0335767639745026,0.0173252288103103,-0.0016982834786176,0.0108326682820916,0.0003501398023217
1783206777682416600,7.319416748046875,-0.2985415229501202,0.1448622060514986,0.0169698395013809,0.0030511980876326,0.0082589890807867,-0.0029540441464632
1783206777692353800,7.329353759765625,0.0078202452968806,0.1397040926359593,-0.0387163918852806,0.0024613281711935,0.0022228627931326,-0.0018012134823948
1783206777702290000,7.3392900390625,0.2461794675501063,-0.0057676966812461,-0.0029629414588212,0.0004205480217933,-0.0020640278235077,-0.0003170338459312
1783206777712226600,7.3492265625,0.2113573066243901,-0.1059985877152532,0.0465986695677042,-0.0009246598929166,-0.0055876518599689,0.001285350183025
1783206777722163700,7.359163818359375,-0.0593756970217451,-0.0955976782754063,0.0147299516201019,-0.0008972296491265,0.0067526372149586,-0.0042950375936925
1783206777732099800,7.369099853515625,-0.2189123981790617,0.0270517461199313,-0.0018675474375486,0.0013126023113727,-0.0071866628713905,0.0010916285682469
1783206777742036700,7.37903662109375,-0.2672724148634821,-0.0352339565970003,0.00676993252635,0.0011786445975303,0.0095944469794631,-0.0007542085368186
1783206777751972600,7.38897265625,-0.1294757267514243,0.0057246612571179,0.0374345353811979,-0.000954994931817,-0.0015044254250824,-0.0003241724334657
1783206777761909800,7.39890966796875,0.0584837531507015,-0.0221720112543553,-0.0162689977556467,0.0011595552787184,0.0024437110405415,-7.7888835221e-06
1783206777771846700,7.4088466796875,0.1306839334974065,-0.0411533367086201,0.014254150801897,0.0012427242472767,-0.0059539205394685,-0.0011910980101674
1783206777781782500,7.418782470703125,0.0483208537178114,-0.042779038214311,0.0188958391278982,-0.0014473348855972,0.002153274603188,0.0018925759941339
1783206777791719700,7.4287197265625,-0.1038464511826634,0.0053938949327915,-0.001898527097702,-0.0025137085467576,-0.0001113452017307,-0.0018149921670556
1783206777801656800,7.43865673828125,-0.1624220108026638,0.0086628336008638,-0.0025093524724245,0.0032778680324554,0.003324399003759,0.000219662906602
1783206777811592700,7.4485927734375,-0.0921361031120643,-0.0331309929683804,0.0130430214464664,-0.0005214121192693,0.0019411002285778,-0.0004030540585517
1783206777821529600,7.458529541015625,0.0387708254862576,-0.0293969940718263,0.0115641810655593,-0.0024383543059229,-0.0040227826684713,0.0004129386506974
1783206777831466800,7.468466796875,0.1026702470101416,-0.0051733109846711,0.0005173018723726,0.0002553518861532,0.0009711091406643,-0.0021893708035349
1783206777841403000,7.47840283203125,0.0279078514926135,0.0546369415294379,0.0124649292975664,0.0021784212440252,-0.0015551652759313,-0.0009065261110663
1783206777851339800,7.48833984375,-0.0731255880959332,0.0537735296331346,0.0057166240811347,0.0020766630768775,0.001976741477847,-0.0007882970385253
1783206777861276700,7.498276611328125,-0.1068839191824197,0.0066394380144774,0.0182569567024707,-0.0013452330604195,0.0023628997150808,0.0024250734131783
1783206777871212800,7.508212890625,-0.0894170899443328,-0.0274292741954326,0.0191606275439262,0.0001149587333202,0.002323823980987,-0.0007277911063283
1783206777881149700,7.518149658203125,-0.0444627169849351,-0.0408944665767252,0.0115250180989503,-0.0007188767194747,-0.0011643846519291,-0.0007243289146572
1783206777891086800,7.5280869140625,-0.002103000161238,-0.013032134726271,0.0121399351269006,-0.000944041647017,-0.000396522693336,-0.0003722920082509
1783206777901022700,7.538022705078125,0.0127313982140272,0.0397509956300258,0.0187163909077644,0.0019255150109529,-0.0016679158434271,-0.0035582317505031
1783206777910959600,7.547959716796875,-0.0115325803508982,0.0363736281514167,0.001947042414546,0.0031065521761775,-0.001038318965584,0.0006519032176584
1783206777920895700,7.557895751953125,-0.0637913945721462,0.006928337958455,0.005234978044033,0.0011193016543984,0.0030094196554273,0.0004321923479437
1783206777930832600,7.56783251953125,-0.0726089803433045,-0.008920753884688,0.0243815770626068,-0.0004687616601586,0.0019639357924461,-0.0006969352252781
1783206777940769800,7.577769775390625,-0.0403966731224209,-0.0647981969945132,0.0219756849646568,0.0023504607379436,-0.0011575552634894,-0.0025792575906962
1783206777950705700,7.58770556640625,-0.000914630626887,-0.0601850041106343,0.027352117305994,-0.0007691271603107,0.002228507772088,0.0001746122725307
1783206777960642800,7.597642822265625,0.0097288553971797,-0.0458545001368969,0.015994272467494,-0.0018157502636313,-0.0012027090415358,0.0016731729265302
1783206777970579700,7.607579833984375,-0.0192723808227106,0.0268438755229115,0.0161474172025918,0.0002281628549098,0.0016705710440874,-0.0004182532429695
1783206777980515800,7.617515869140625,-0.0537589896511286,0.0349555049818009,0.0023749124377965,0.0009967507794499,-0.001496726181358,-0.0014502281555905
1783206777990452700,7.62745263671875,-0.0445601129448041,0.0011195786144584,0.004324877461791,0.0005216058343648,0.0002525839954614,0.0014857463538646
1783206778000390000,7.637389892578125,-0.0226824449945241,-0.0419599769163876,0.0149491473287343,0.0013642301782965,0.0014297012239694,0.0015350147150456
1783206778010325800,7.64732568359375,-0.0395915307519957,-0.0216512022506445,0.0182376674801111,0.0008162520825862,0.002513465937227,0.0012433386873453
1783206778020262700,7.6572626953125,-0.0384586542645469,-0.0142220020979642,0.0026543139010667,0.0012929579243063,-0.0009188158437609,0.0003495819400995
1783206778030199800,7.66719970703125,-0.0289490311086177,0.0065797437164932,0.0059387423992156,8.74204561114e-05,0.0008223336189985,0.0009238156490027
1783206778040135700,7.6771357421875,-0.038546369080618,0.0089529756538569,0.0032458500534296,-0.0018486976623535,0.0009357840754091,0.0022245035506784
1783206778050072600,7.687072509765625,-0.0446164462419226,-0.0211297356598079,0.0065413844674825,-0.0014608511701226,-0.0012532020919024,0.0011107800528407
1783206778060008700,7.6970087890625,-0.0434731579583138,-0.0299316124051809,0.0165916538387537,-0.0005822740495204,-0.0022620079107582,-0.0014125650050118
1783206778069945900,7.70694580078125,-0.0503727082137018,-0.0128087742991745,0.0062859484016895,-0.000782897695899,0.0012968755327165,-9.3472190201e-06
1783206778079882500,7.716882568359375,-0.0770953685097396,-0.011676701529324,0.0089694883972406,-0.000279027968645,0.0011852891184389,0.002545689465478
1783206778089818600,7.726818603515625,-0.0205508032606914,-0.0179166918974369,0.0073193831026554,0.0001679379492998,0.0018078703433275,0.0006303389091044
1783206778099755800,7.736755859375,0.0262699846250936,-0.0088628131523728,0.0240717804610729,0.0004688752815127,-0.0016345316544175,0.0011089090257883
1783206778109693000,7.74669287109375,0.016943901342526,0.0047075931690633,0.0266126971155405,0.000489879399538,-0.0010112402960658,0.0008200691081583
1783206778119628500,7.756628662109375,-0.0419610728949308,0.0040054362490773,0.0132937813371419,0.0004022615030407,0.0007890569977462,0.0006680025253444
1783206778129565700,7.766565673828125,-0.0659890872795134,-0.0028236060533672,0.012698738053441,-0.0013921419158577,6.9891102612e-05,-0.0003821949940174
1783206778139502800,7.7765029296875,-0.0627499226951971,-0.015596432256326,0.0236304664343595,-0.0008366061374545,-0.0002512861974537,0.0007091683801263
1783206778149438700,7.786438720703125,-0.0493745274892076,-0.0470331154622137,0.0053787704288959,-0.001483024097979,0.0013561905361711,0.0007035285234451
1783206778159375600,7.796375732421875,-0.0391853611038997,-0.0312975669961422,0.0143669635266065,-0.0012388126924633,0.0009561837650835,0.0005818218924105
1783206778169311700,7.806311767578125,-0.0331006708953529,-0.0151171973720192,0.0146732529968023,-0.0038527175784111,0.0028429934754967,0.0015291119925677
1783206778179249000,7.816248779296875,-0.0456466660724952,0.0144465315688401,0.0103396077066659,-7.31600448489e-05,-0.0014987578615546,0.0011248439550399
