time,seconds_elapsed,ax,ay,az,gx,gy,gz
1783205675055090400,0.10609033203125,-0.3190546245489269,-0.3788576801372691,-0.1000005894094705,0.000268462114036,-0.0091796666383743,0.0031594280153512
1783205675065027600,0.116027587890625,-0.3030736134218051,-0.3833389537371695,-0.0573982960015535,-0.0071331076323986,-0.004451185464859,0.0023429030552506
1783205675074964200,0.125964111328125,-0.3134491692246869,-0.3873526463579386,0.0205576348602771,-0.0122892539948225,0.0069788354448974,-2.94400379061e-05
1783205675084900400,0.135900390625,-0.3090986458649858,-0.3789208085013553,0.0139724112510681,-0.0063371928408741,0.0006735734641551,0.0019601508975028
1783205675094837500,0.14583740234375,-0.3093716175874695,-0.3780677718685939,-0.0550374120891094,-0.0043352944776415,-0.0059070973657071,-0.0010287147015333
1783205675104774400,0.1557744140625,-0.3056895680738613,-0.3711113403268158,-0.063283262386918,0.0032567521557211,-0.0001193382777273,-0.0022465903311967
1783205675114711300,0.165711181640625,-0.31163075815849,-0.3718651543688029,-0.0315559987366199,0.0120670218020677,0.0014055878855288,-0.0091566937044262
1783205675124648400,0.1756484375,-0.3190658035300672,-0.351142319009453,-0.0258732769250869,0.008153130300343,-0.004704198334366,-0.0126617085188627
1783205675134585300,0.18558544921875,-0.3099656014252454,-0.3655366819996387,-0.0555284104764461,0.001081105787307,-0.004359318409115,-0.0083021139726042
1783205675144522500,0.1955224609375,-0.2885580352047458,-0.3708290893193334,-0.0233726922810077,-0.0070333313196897,0.0004260377027094,-0.0010742396116256
1783205675154459400,0.20545947265625,-0.2849740027055144,-0.3758979900814592,0.0143295541256666,-0.0106986407190561,-0.0002474756911396,-0.0011530686169862
1783205675164396300,0.215396240234375,-0.2951297052126377,-0.3905879019521177,-0.0250467629730701,-0.004588121548295,-0.0040674745105206,-0.0002556107938289
1783205675174333400,0.22533349609375,-0.3007939780520275,-0.3834602054966613,-0.063234747070074,0.0004015769809484,-0.0034416313283145,-0.0005951635539531
1783205675184270300,0.235270263671875,-0.2955379937525838,-0.3707095180602744,-0.0409516035914421,0.001460887491703,-0.0013058017939329,-0.0021937293931841
1783205675194207500,0.24520751953125,-0.2972672286979854,-0.3585813099037855,-0.0216699800163507,-0.0019871070981025,-0.0043468652293086,-0.0046925735659897
1783205675204144400,0.255144287109375,-0.3049033861322328,-0.3573653947753831,-0.0302197816967964,-0.0013177655637264,-0.0034671365283429,-0.0060646231286227
1783205675214081300,0.265081298828125,-0.2950855007447302,-0.3575950022801756,-0.0341284795731306,-0.0033385725691914,-0.0023254393599927,-0.0091120786964893
1783205675224017400,0.275017333984375,-0.2782138609208166,-0.3626647067598998,-0.0308574950784444,-0.0014400305226445,-0.0034363814629614,-0.0066297957673668
1783205675233954300,0.284954345703125,-0.2767361895836889,-0.3643395811695605,-0.0416600441217422,-0.003179607912898,-0.0036009647883474,-0.0019242567941546
1783205675243891500,0.294891357421875,-0.2865343108247965,-0.3643238721437752,-0.0294224938392639,-0.0018316162750124,-0.0067278104834258,-0.000180821865797
1783205675253828400,0.304828369140625,-0.2874359358396381,-0.36893078141734,-0.0349959100574255,-0.000135182403028,-0.0057650771923363,-0.0005794977769255
1783205675263765200,0.31476513671875,-0.2991178250007331,-0.3595927885012701,-0.0419213254064321,-0.0006297575309872,-0.0060459119267761,-0.0026634708046913
1783205675273702400,0.324702392578125,-0.3004341682963073,-0.3628725042916834,-0.028790041154623,-0.0003197658807039,-0.0062869279645383,-0.0006346749141812
1783205675283639600,0.3346396484375,-0.3019176848523318,-0.3611461188904941,-0.0312198986500501,0.0006807837635278,-0.0034080506302416,-0.0010908739641308
1783205675293576400,0.344576416015625,-0.3051177960678934,-0.3603603022750467,-0.0195738845199346,-0.0017059408128261,-0.0013443673960864,-0.0027947649359703
1783205675303513300,0.354513427734375,-0.3076481913283467,-0.3628708237912506,-0.0252823252946138,-0.0021833041682839,-0.004383732099086,-0.0023760367184877
1783205675313450200,0.3644501953125,-0.309702091650851,-0.372290101782605,-0.021413959428668,-8.12709331512e-05,-0.0018627843819558,-0.0010186238214373
1783205675323387400,0.374387451171875,-0.3291030672892928,-0.3990636885482818,-0.0214367557823658,-0.0010290024802088,-0.0030488688498735,-0.0002217954024672
1783205675333324500,0.384324462890625,-0.3273916602615266,-0.4009865098370239,-0.0323836817324161,0.0001875292509794,-0.0042661996558308,-0.0023248940706253
1783205675343261400,0.394261474609375,-0.3340959071405232,-0.3894957228012383,-0.0355558820277452,0.0002559730783104,-0.0041673965752124,-0.0026918780058622
1783205675353198300,0.4041982421875,-0.3229769856244325,-0.3754040690846741,-0.0210714296013116,-0.00102474167943,-0.0055722137913107,-0.006536949891597
1783205675363135200,0.41413525390625,-0.3149371792927384,-0.3703694359183311,-0.0266360779911279,-0.0024515045806765,-0.0031801941804587,-0.0056172320619225
1783205675373072400,0.424072265625,-0.2980102290850132,-0.3831054372422396,-0.0233674315840005,-0.002169475890696,-0.0023362380452454,-0.0031042732298374
1783205675383009500,0.434009521484375,-0.3012698154028504,-0.3700962450001389,-0.0227922620445489,-0.001005289144814,-0.0019759465940296,-0.0034965267404913
1783205675392945400,0.4439453125,-0.2927715247139335,-0.3685104371134191,-0.0240168354034423,-0.0016151536256074,-0.0044391048140823,-0.006121871061623
1783205675402882300,0.45388232421875,-0.301146956208162,-0.3649123760888352,-0.0360176543205976,-9.86596569418e-05,-0.0040723700076341,-0.0052702911198139
1783205675412819500,0.4638193359375,-0.3032521483264863,-0.3710340007742866,-0.0279635272026062,0.0018180171027779,-0.0019820546731352,-0.0029930220916867
1783205675422756400,0.47375634765625,-0.2955996608119458,-0.373905135763809,-0.0300789119213819,-0.0012001693248748,-0.0016044853255152,-0.0029008165001869
1783205675432693500,0.483693603515625,-0.3007556553356349,-0.3751815854404121,-0.027253333106637,-0.0012550307437777,-0.0003876872360706,-0.0033820504322648
1783205675442630400,0.49363037109375,-0.3096282957622781,-0.3739275667913257,-0.024720599758625,-0.0021938858553767,-0.0007826699875295,-0.0060279443860054
1783205675452567300,0.5035673828125,-0.2995304974548518,-0.3723192548118531,-0.0167991591095924,-0.0016852226108312,-0.0004135556519031,-0.004621529020369
1783205675462505200,0.513505126953125,-0.2850546667262911,-0.3637401174390688,-0.0248930337160825,-0.0021155448630452,0.0007589873857796,-0.005135653540492
1783205675472442400,0.5234423828125,-0.2713208134714513,-0.3493563489081338,-0.042113633108139,-0.0020705368369817,-0.0002572746016085,-0.0032200412824749
1783205675482379300,0.533379150390625,-0.265950226349011,-0.3540237927298992,-0.0326987390309572,-0.0003674253821372,-0.0019041765481233,-0.0060141356661915
1783205675492316200,0.543316162109375,-0.2603126953860745,-0.3673158205013722,-0.027478958556056,0.0001356462016701,-0.0001446260139346,-0.0038593718782067
1783205675502253300,0.55325341796875,-0.2887982371687889,-0.3857202228505164,-0.0306388838917016,0.0008269948884844,-0.0001841713674366,-0.0042703449726104
1783205675512190500,0.5631904296875,-0.2991643675561994,-0.3827347407663241,-0.0279559284180402,-0.002619401551783,-0.0005112076178193,-0.0014926679432392
1783205675522127400,0.57312744140625,-0.3078555139360949,-0.3808852039095014,-0.0275204596102237,-0.001822774298489,-0.0006766454316675,-0.0030649444088339
1783205675532064300,0.583064208984375,-0.305278429989703,-0.3835150409564375,-0.0228968914628028,-0.0013183709233999,-0.0036308905109763,-0.0052615194581449
1783205675542001200,0.593001220703125,-0.3038272448007017,-0.375959584075585,-0.0220119253218173,-0.0039229448884725,-0.0002456088550388,-0.0052394615486264
1783205675551938300,0.602938232421875,-0.2980083293888718,-0.3722195207644254,-0.0191840084195137,-0.001351929269731,-0.0005963472649455,-0.0047358577139675
1783205675561875500,0.61287548828125,-0.2905619954383001,-0.356578957105428,-0.0275754046678543,-0.0004350086674094,-0.0002747885882854,-0.0053130937740206
1783205675571812400,0.622812255859375,-0.289667823077552,-0.3608372356044128,-0.0349222602993249,-0.0008161067962646,0.0005241599865257,-0.0049295988865196
1783205675581749200,0.632749267578125,-0.2854863726744428,-0.3707216834221035,-0.0338970089048147,-0.0012077903375029,0.0003432338126003,-0.0063169063068926
1783205675591686100,0.64268603515625,-0.2998891016341746,-0.3816428173437714,-0.0277805718511343,-0.0012077903375029,-0.0018983487971127,-0.0059320796281099
1783205675601622300,0.652622314453125,-0.3076329937592149,-0.3855915549695491,-0.0237561386406421,-0.0011327657848596,0.001117066014558,-0.005190662574023
1783205675611559400,0.662559326171875,-0.308700842186436,-0.390523202685453,-0.0308007964551448,-0.0013966849073767,-0.0013306457549333,-0.0069930902682244
1783205675621496300,0.672496337890625,-0.2987855243064463,-0.3860755390942096,-0.0231862297981977,-0.0024538123980164,-0.0009517916478216,-0.0062249274924397
1783205675631433200,0.68243310546875,-0.2875825777687132,-0.3905105258669704,-0.0240969149023294,-0.0006676306948065,0.0020370739512145,-0.0020011542364954
1783205675641370400,0.692370361328125,-0.2801338691979646,-0.3752852650105953,-0.0221568867504596,-0.0028799204155802,0.0007728012278676,-0.0019509308040142
1783205675651307300,0.702307373046875,-0.2756331967778503,-0.3788786133274436,-0.0378770184516906,-0.0032037608325481,0.0002292501740157,-0.003919007256627
1783205675661244400,0.712244384765625,-0.2866036862665787,-0.3774538777539506,-0.0214215582132339,-0.0016288477927446,-0.0006856396794319,-0.0062859421595931
1783205675671181300,0.722181396484375,-0.2949079522207379,-0.3697878001054748,-0.0245820680707693,-0.0008035339415073,0.0001995950005948,-0.0050688777118921
1783205675681118200,0.7321181640625,-0.2957904341436922,-0.3683561233345419,-0.0252034148395061,-0.0014916146174073,-0.000878891441971,-0.006280964706093
1783205675691055400,0.742055419921875,-0.3049400648808106,-0.3779439262932166,-0.0226712660133838,0.000480456277728,-0.0018163239583373,-0.0070932288654148
1783205675700992300,0.7519921875,-0.3033249943669885,-0.3876086304130032,-0.0226917242795228,-0.0007023820653557,-0.0021780678071081,-0.0083613283932209
1783205675710929400,0.761929443359375,-0.302485072944127,-0.3700753848752006,-0.0303501300781965,-0.0007955925539135,-0.0025037718005478,-0.0047886981628835
1783205675720866300,0.7718662109375,-0.2955894316788762,-0.3711298623641952,-0.0291688113391399,-0.0042790183797478,-0.0012705246917903,-0.0055188741534948
1783205675730803200,0.78180322265625,-0.2964863439859822,-0.3711153223821893,-0.0309802446752786,-0.0005175694823265,-0.000226299278438,-0.0044176569208502
1783205675740740400,0.791740234375,-0.2999049567904323,-0.3758726364444941,-0.0265051450878381,-7.59586691856e-05,-3.66275198757e-05,-0.0075437533669173
1783205675750677200,0.80167724609375,-0.296520575049147,-0.3798364985741674,-0.0244195709854364,0.0007839761674404,0.0006893505342304,-0.007060922216624
1783205675760614100,0.8116142578125,-0.3008493249684572,-0.3764546010509133,-0.023243512943387,-0.0005116369575262,-0.004699342418462,-0.0063921348191797
1783205675770551300,0.82155126953125,-0.3033378538485616,-0.3834511088747531,-0.0349310281276702,0.0001791873946785,-0.0014662644825875,-0.0048198048025369
1783205675780488200,0.83148828125,-0.2986201776769012,-0.377629051657766,-0.0211819042384624,-0.001019044779241,-0.0029119220562279,-0.0075614457018673
1783205675790425300,0.84142529296875,-0.2963883269716054,-0.3856986686058342,-0.0267389538437128,-0.003650514408946,-0.0016828733496367,-0.0091217914596199
1783205675800362200,0.8513623046875,-0.291620747243613,-0.3752679485496133,-0.0257137024492025,-0.000702784396708,-0.0013190410099923,-0.0044392780400812
1783205675810299100,0.861299072265625,-0.2934751429386437,-0.3668699764300137,-0.0383025503873825,-0.0046900687739253,-0.0015898845158517,-0.0040395371615886
1783205675820236300,0.871236328125,-0.2939277090117335,-0.3728307845305651,-0.0288911634415388,-0.0032397005707025,-0.0011742319911718,-0.0070340544916689
1783205675830173200,0.881173095703125,-0.2929715773306787,-0.383235164569132,-0.0199316119164228,-0.0016822833567857,-0.0037862602621316,-0.0060761156491935
1783205675840110300,0.8911103515625,-0.2941520192869007,-0.3766463972959667,-0.0283335295587778,5.74076548218e-05,-0.0015129284001886,-0.0030649835243821
1783205675850047200,0.901047119140625,-0.3000027911417186,-0.3731930419716984,-0.0304506678432226,-0.0013351589441299,-0.0027041598223149,-0.0070285657420754
1783205675859984100,0.910984130859375,-0.2995209624415263,-0.3750736680865287,-0.0259855051279068,-0.0008675903081893,-0.0018511968664824,-0.0041229799389839
1783205675869921300,0.92092138671875,-0.2981261105496436,-0.3693150680271908,-0.0198667299866676,-0.0008276421576738,0.00055763265118,-0.0052263275720179
1783205675879858200,0.930858154296875,-0.3024182182529941,-0.3845331684904173,-0.0315489844739437,-0.0017562378197908,0.0015911781229078,-0.0050032613798975
1783205675889795300,0.94079541015625,-0.2981872661523521,-0.3754760383423418,-0.0311164382755756,-0.0011493032798171,-0.0021146102808415,-0.0053116553463041
1783205675899732200,0.950732177734375,-0.2998083280155435,-0.3830839560627937,-0.0402583606302738,-0.0019660238176584,-0.0002994574606418,-0.0070900600403547
1783205675909669000,0.960669189453125,-0.2917349116751924,-0.3737615260420366,-0.0251589911758899,-0.0016230084002017,-0.0014597964473068,-0.0069214818067848
1783205675919606300,0.970606201171875,-0.2940133414685726,-0.3729567489977926,-0.0304173500955104,0.0007700258865952,-0.0032100896351039,-0.0051583196036517
1783205675929542400,0.98054248046875,-0.2876503457752987,-0.369336622271873,-0.0322381357818841,0.0015926761552691,-0.0013474752195179,-0.0047039845958352
1783205675939479300,0.990479248046875,-0.2921164218060672,-0.3738378061486408,-0.0240302794069051,0.0007677050307393,-0.0029131975024938,-0.0052370908670127
1783205675949416200,1.000416259765625,-0.2876952078303322,-0.3714051721742376,-0.0409568642884492,-0.0003966288641095,-0.0006385911256074,-0.0061529516242444
1783205675959353000,1.01035302734375,-0.2761303326450288,-0.3745009096998721,-0.0388771354049444,0.0015330202877521,-0.0011547384783625,-0.0049879397265613
1783205675969290200,1.020290283203125,-0.2851384725522249,-0.35982495328933,-0.0230354231506586,-0.0032590711489319,9.80123877525e-05,-0.0052654412575066
1783205675979227400,1.030227294921875,-0.2942149649878963,-0.3613122327050194,-0.0306844765990972,-0.0006725182756781,-0.002220035996288,-0.0056414003483951
1783205675989164300,1.040164306640625,-0.290877016204223,-0.379502590444684,-0.0414823494672775,0.0024684141390025,-0.0020802202634513,-0.0038858442567288
1783205675999101200,1.05010107421875,-0.2824580012965947,-0.3751410342343151,-0.0211468329250812,3.59583646059e-05,-0.0012852614745497,-0.0042852372862398
1783205676009038300,1.060038330078125,-0.2943030451301485,-0.3864538708873093,-0.034933366215229,0.0016940422356128,-0.0020961938425898,-0.0054229400120675
1783205676018975200,1.069975341796875,-0.2908115497525781,-0.3770600926633924,-0.0361462491363287,0.0013146670535206,-0.002174153458327,-0.0052103535272181
1783205676028912400,1.079912353515625,-0.2952199407793581,-0.3782599699724465,-0.028085107755661,-0.0018507661297917,-0.0011499016545712,-0.0071762991137802
1783205676038849300,1.089849365234375,-0.2954585353082046,-0.3622472850654274,-0.0194242469161748,-0.0014429083094,-0.000729207880795,-0.0067967637442052
1783205676048786200,1.0997861328125,-0.2890842510359361,-0.376059391188249,-0.0306663564205169,-0.0001134583726525,-0.0021547982469201,-0.0051586534827947
1783205676058723300,1.109723388671875,-0.2857991284180432,-0.3739022131543606,-0.0218523508459329,-0.001828390173614,-0.00296126678586,-0.0053347684442996
1783205676068660200,1.11966015625,-0.2863374000132084,-0.3692789007352665,-0.0260673381924629,0.0009040124714374,-0.0036515584215521,-0.0041960012167692
1783205676078597400,1.129597412109375,-0.2841912182973697,-0.3692850747477263,-0.0280278246104717,0.0016540866345167,-0.001930289901793,-0.0042932084761559
1783205676088534300,1.1395341796875,-0.2866665954349562,-0.3784286045376211,-0.034776714348793,0.0036338805221021,-0.0002176114358007,-0.0039089145138859
1783205676098471200,1.14947119140625,-0.2968278874326497,-0.3801595565160736,-0.0328437004595994,-0.0007630176842212,-0.004477780777961,-0.0059056626632809
1783205676108408300,1.159408203125,-0.2957060803284868,-0.3836269768983125,-0.0270329683542251,0.0023323744535446,-0.0027219583280384,-0.0063195177353918
1783205676118345200,1.16934521484375,-0.2968094384605065,-0.3884234173946082,-0.0397697003304958,-0.0008754301816225,0.0012176320888102,-0.0051081096753478
1783205676128282400,1.179282470703125,-0.2981746258664876,-0.3826938972992822,-0.0273638077437877,-0.0001316089183092,-0.0016215643845498,-0.0048567075282335
1783205676138219300,1.18921923828125,-0.300403919288516,-0.3738689684718847,-0.0254413152486085,-0.001208359375596,-0.0017388146370649,-0.0053395088762044
1783205676148156200,1.19915625,-0.2869904570944607,-0.3790755241390317,-0.0206722011506557,-0.0007697371765971,-0.0016061896458268,-0.0069938646629452
1783205676158093300,1.20909326171875,-0.2900222990710288,-0.379039210716635,-0.0387982249498367,-0.000454687513411,-0.0048281252384185,-0.0063754329457879
1783205676168030200,1.2190302734375,-0.2926845770828425,-0.3860877409886568,-0.0262526316314935,0.0019043399952352,-0.002141261473298,-0.0040299869142472
1783205676177967400,1.22896728515625,-0.2983382189303636,-0.3842733850430697,-0.0262754279851913,0.0016585034318268,-0.0015902346931397,-0.0068955132737755
1783205676187904300,1.238904296875,-0.2941301362486556,-0.3749724362017587,-0.0165635967880487,0.0009801965206861,-0.0010512112639844,-0.0053495480678975
1783205676197841200,1.248841064453125,-0.3048657210029661,-0.378620583445765,-0.0161316351115703,-0.0030542388558387,-0.001946426462382,-0.0083133354783058
1783205676207778300,1.2587783203125,-0.3117685591939836,-0.3901329977914691,-0.0332031814217567,0.0012281248345971,0.0016413838602602,-0.0059865317307412
1783205676217715200,1.268715087890625,-0.3066243281733244,-0.3900674582745879,-0.0264765035152435,-0.0009827762842178,-0.0004305834881961,-0.006282630842179
1783205676227652400,1.27865234375,-0.297684358131513,-0.3802607884008437,-0.023644494959712,0.0003717076033353,-0.0007496303878724,-0.006756673566997
1783205676237589200,1.28858935546875,-0.2960109815591946,-0.3821444101903587,-0.0278659120470285,-0.0004526628181338,-0.0062025412917137,-0.0049795722588896
1783205676247526100,1.298526123046875,-0.2946260665394365,-0.3801211972670629,-0.0263940859287977,0.0017545651644468,-0.0030229929834604,-0.0086110588163137
1783205676257463300,1.30846337890625,-0.2867314042994752,-0.3765850955627858,-0.0232715699940919,0.0002030590549111,-0.0018418622203171,-0.0069159166887402
1783205676267400200,1.318400146484375,-0.2823494994208216,-0.3824874149417504,-0.0256815537452697,0.0009277053177356,-0.0016272109933197,-0.0096368677914142
1783205676277337300,1.32833740234375,-0.2890073498748243,-0.3833513017620891,-0.0264560452491045,-0.0014014551416039,-0.0014574769884347,-0.0064645144157111
1783205676287274200,1.338274169921875,-0.2812543245952576,-0.3875736686974763,-0.0237754278630018,0.0007458515465259,0.0003018071874976,-0.0060469307936728
1783205676297211100,1.348211181640625,-0.2848601305348798,-0.3874159939177334,-0.0190004685461521,-0.0007098680362105,0.0006066411733627,-0.0059195207431912
1783205676307148300,1.358148193359375,-0.2864428331490606,-0.3863332401823252,-0.0242471370279788,0.0001087877899408,-0.0013824743218719,-0.0052966075018048
1783205676317085200,1.368085205078125,-0.2850705949477851,-0.3799104405932128,-0.0315951617032289,-0.0012758402153849,-0.0037712813355028,-0.0063021257519721
1783205676327022300,1.378022216796875,-0.286308173918724,-0.3808097275204956,-0.0250315654039382,-0.0015906263142824,0.0004130769520998,-0.005767629481852
1783205676336959500,1.38795947265625,-0.2918627027733251,-0.3703744408870115,-0.0260837048053741,0.0005497932434082,0.0002311170101165,-0.0065212207846343
1783205676346896100,1.397896240234375,-0.2918566018261015,-0.3753923786468803,-0.0365729501157999,-0.0006542215123772,-0.0012733023613691,-0.0066322744823992
1783205676356833300,1.407833251953125,-0.3022100919276476,-0.3690475031321868,-0.0268587808310985,0.0016176654025912,-0.0016347365453839,-0.0060512642376124
1783205676366770200,1.417770263671875,-0.2953153274452313,-0.3761705599451437,-0.0237391875058412,-0.0005741165950894,-0.0029783016070723,-0.0060605853796005
1783205676376707300,1.427707275390625,-0.2869385442441329,-0.3737325556758791,-0.0327396555632352,-0.0004198057577013,-0.0008976166136562,-0.0082672331482172
1783205676386644500,1.43764453125,-0.2756644686989486,-0.3837001517323777,-0.0204874922335147,-0.0008608251810073,-0.0016246591694653,-0.0087359491735696
1783205676396581000,1.4475810546875,-0.2720778058512136,-0.3863947611112147,-0.0266372470349073,-0.0008164988830685,-0.0012629078701138,-0.0081974109634757
1783205676406518300,1.457518310546875,-0.2788371804509312,-0.3869223651818931,-0.0305400996923446,0.0003883149474859,-0.0010381368920207,-0.0056370478123426
1783205676416455200,1.467455078125,-0.2782665774887427,-0.3795606407748535,-0.0313005626708269,0.0003364160656929,-0.0014129010960459,-0.0036571468226611
1783205676426392300,1.477392333984375,-0.2857968268631026,-0.3796177777895703,-0.0259247148513793,0.0009827660396695,0.0014449376612901,-0.0030462178401649
1783205676436329500,1.48732958984375,-0.2850902494963258,-0.3905773805581033,-0.0316150354474782,-0.0003130277618765,-0.0006111008115112,-0.0036258962936699
1783205676446266000,1.49726611328125,-0.2798087654294446,-0.3819872833998873,-0.0290793794900178,0.000267275609076,-0.0005037761293351,-0.0044360300526022
1783205676456203300,1.507203369140625,-0.2866451142555102,-0.3780925775162875,-0.0231096574306488,0.0029862248338758,-0.000723224133253,-0.0035988702438771
1783205676466140000,1.517139892578125,-0.2910013732362538,-0.3707657782921567,-0.0201379481434822,0.0002311849966645,-0.0020984802395105,-0.0061275418847799
1783205676476076800,1.527076904296875,-0.2916617003085091,-0.3742579677894711,-0.0188099144101142,0.0007349587976932,-0.0024843979626893,-0.0041577229276299
1783205676486014000,1.537013916015625,-0.2996980360414832,-0.3731440882634371,-0.0279559284180402,-0.0017902506515383,-0.0011283168569207,-0.004364650696516
1783205676495950600,1.54695068359375,-0.2936295297827571,-0.385013791614212,-0.0282750773698091,-5.44339418411e-05,-0.0034026494249701,-0.0048982473090291
1783205676505887700,1.5568876953125,-0.2924814191935583,-0.3795507404353469,-0.0239566296488046,-0.0003100978210568,0.0003212485462427,-0.0034518847241997
1783205676515825000,1.566824951171875,-0.2866074491262436,-0.379952453104034,-0.0299585004121065,0.002923784777522,-0.0024543581530451,-0.0030089090578258
1783205676525761800,1.57676171875,-0.2933256514653563,-0.3860519390229135,-0.0266816706985235,0.0012547820806503,-0.001321448944509,-0.0048241196200251
1783205676535699000,1.586698974609375,-0.295411225567758,-0.3703162078937515,-0.0319411986619234,0.0001449408009648,-0.0001834635622799,-0.004184631165117
1783205676545635600,1.596635498046875,-0.3019184155046939,-0.3772678171299398,-0.0307628025323152,0.0004562642425298,-0.0026290440000593,-0.0065742856822907
1783205676555572700,1.60657275390625,-0.3060445920566096,-0.3863923134258016,-0.0273386733025312,-0.0020232629030942,0.0024586250074207,-0.0002541234716773
1783205676565510000,1.616510009765625,-0.3040815118227153,-0.3838184808824211,-0.0158235920757055,0.0016242028214037,-0.0017475713975727,-0.0032405918464064
1783205676575446800,1.62644677734375,-0.2996354191340505,-0.3857295752007514,-0.0192845461845397,7.07590952515e-05,-0.0042033256031572,-0.0075560929253697
1783205676585384000,1.636384033203125,-0.2897203204497695,-0.3901087401330471,-0.0224520703047513,-0.000793170183897,-0.0045511345379054,-0.0057233055122196
1783205676595320600,1.646320556640625,-0.2862099011760204,-0.3875979994211345,-0.0326548998892307,0.0010433997958898,-0.0030250241979956,-0.0024376953952014
1783205676605257700,1.6562578125,-0.2862133352421224,-0.3820643306914716,-0.0308814604759216,0.0012553874403238,-0.0015794606879353,-0.0046760821714997
1783205676615195600,1.666195556640625,-0.2751432943690568,-0.385908621562086,-0.0252086755365133,0.0017387839034199,-0.0022459686733782,-0.0047380207106471
1783205676625131800,1.6761318359375,-0.2806599023660645,-0.3777990744624286,-0.0214917008399963,-0.0014415625482797,-0.0031570359133183,-0.0005997344851493
1783205676635069000,1.68606884765625,-0.2856869367478415,-0.3941314197778701,-0.0264484464645385,0.0017907186411321,-0.0013660280965268,-0.00240168441087
1783205676645006800,1.6960068359375,-0.2931112780623138,-0.3860640313195064,-0.026608020940423,-0.003616563975811,-0.0004541617818176,-0.0042890668846666
1783205676654943700,1.70594384765625,-0.2872732560912147,-0.3816191807398572,-0.0314127908736467,0.0006318325176835,-0.0009725042618811,-0.0030517331324517
1783205676664880600,1.715880615234375,-0.2878679340487345,-0.3953965078102424,-0.0333732772916555,-0.001236374489963,-0.003299840260297,-0.0028940741904079
1783205676674817800,1.72581787109375,-0.2834069725845008,-0.390787662307918,-0.020526070678234,0.0020775953307747,-0.0029848609119653,-0.0069681671448051
1783205676684755000,1.7357548828125,-0.286498435793817,-0.3833190799929201,-0.021600421911478,-0.0001264363527297,-0.0019643381237983,-0.0057590920478105
1783205676694691800,1.74569189453125,-0.2790938220931216,-0.3759044198222458,-0.0084504329591989,0.0008613718673586,-0.0043587307445704,-0.0070797465741634
1783205676704628700,1.755628662109375,-0.2831902245612815,-0.3727492802595719,-0.0261281284689903,-0.0008872598409652,-0.0035480647347867,-0.0061095571145415
1783205676714565600,1.765565673828125,-0.2894579066539183,-0.371650671367906,-0.0322878201425075,-0.0005455706268548,-0.0014935052022337,-0.0022961110807955
1783205676724502800,1.775502685546875,-0.2906036060903221,-0.384869962696731,-0.0191296478837728,-0.000271531753242,0.0004109214060008,-0.0025270073674619
1783205676734440000,1.78543994140625,-0.2858947708122432,-0.3884714212547987,-0.0194406135290861,-0.0011336831375956,-0.000342191196978,-0.0031693582423031
1783205676744376800,1.795376953125,-0.2872147308370098,-0.3812591883210465,-0.0112181441068649,0.0007134852930903,0.0014165602624416,-0.0054705953225493
1783205676754313700,1.805313720703125,-0.2903651576919481,-0.3740315020898356,-0.0240928232491016,-0.0006987266242504,0.0002041761763393,-0.0044781975448131
1783205676764251000,1.8152509765625,-0.2928218301290646,-0.3807798803715035,-0.0200555305570363,0.0007481686770915,0.0021259132772684,-0.0038707302883267
1783205676774187800,1.825187744140625,-0.2845430274097248,-0.3790881278922781,-0.0265086522191762,-0.001243894919753,-6.53620809316e-05,-0.0033675697632133
1783205676784125000,1.835125,-0.295950812337175,-0.3900602248162031,-0.03205927208364,0.000116447918117,-0.0010163765400648,-0.0059047630056738
1783205676794061800,1.845061767578125,-0.2975951089454814,-0.3966129709279164,-0.0232470200747251,-0.000661008991301,0.0002897437661886,-0.0048680948093533
1783205676803998700,1.854998779296875,-0.2882183183889836,-0.3891265241626649,-0.0228103822231292,0.0009589912369847,-0.0022730156779289,-0.0033247931860387
1783205676813935900,1.864935791015625,-0.2826257956115529,-0.3826872848954051,-0.03271218303442,0.0020626741461455,-0.0021966658532619,-0.0064837993122637
1783205676823872800,1.874872802734375,-0.2834821567125618,-0.3873506005313247,-0.0225549461573362,5.49172982573e-05,-0.0017801476642489,-0.0046914918348193
1783205676833810000,1.884809814453125,-0.288063895012252,-0.3946926703898236,-0.0219838682711124,-0.000733470544219,-0.0026519261300563,-0.0048838416114449
1783205676843746800,1.894746826171875,-0.2981766351604834,-0.3969048300139606,-0.0173725750833749,0.0008596330881118,-0.0026961350813508,-0.0067206239327788
1783205676853683700,1.90468359375,-0.303066270365566,-0.3816265968613326,-0.018586627048254,0.0014436645433306,-0.0007043434306979,-0.0051841000095009
1783205676863620900,1.914620849609375,-0.2964892300628125,-0.3917015257498249,-0.023987609308958,-0.0010434612631797,0.0004501370713114,-0.0012849657796323
1783205676873557800,1.924557861328125,-0.2970446719884872,-0.378111464879848,-0.0201157363116741,-0.0019012540578842,-0.0030091628432273,-0.0015487582422792
1783205676883495000,1.934494873046875,-0.3000407485319301,-0.3702330961875617,-0.0177367322206497,-0.0043441718444228,0.0004846383817493,-0.003185536712408
1783205676893431800,1.944431884765625,-0.2951952447295188,-0.3776620771445333,-0.0232931973040103,-0.0015041939914226,-0.002372995018959,-0.0031839222647249
1783205676903368700,1.95436865234375,-0.2950731161871925,-0.3808042476277798,-0.0300315656483173,-0.0002860641106963,0.0008835182525217,-0.0037272069603204
1783205676913305900,1.964305908203125,-0.2911240497678518,-0.3803148566756397,-0.0318383228093385,-0.0008468935266137,-0.0001410879194736,-0.0030571282841265
1783205676923242800,1.97424267578125,-0.2836971511701122,-0.3730826403997838,-0.0243780699312686,-0.0020296033471822,-0.0033299569040536,-0.0025228979066014
1783205676933180000,1.984179931640625,-0.2752274289885535,-0.3786076874315738,-0.0284475113272666,0.0041519403457641,-0.0023300852626562,-0.0042569362558424
1783205676943116800,1.99411669921875,-0.291039549822174,-0.3818354903716593,-0.0367032984972,0.0009351084008812,-0.00466248113662,-0.0030662366189062
1783205676953053700,2.0040537109375,-0.2839345401225611,-0.3804960584614426,-0.0232557879030704,-3.93493101e-05,-0.0013617584481835,-0.0052896244451403
1783205676962990800,2.013990966796875,-0.2831896765720099,-0.3712194403437897,-0.0201204124867916,0.0001513333991169,0.0008920752443373,-0.0042818845249712
1783205676972927700,2.023927734375,-0.2816496440557763,-0.3757137926209717,-0.0189332485288381,-0.0023168809711933,-0.0001239916309714,-0.0027336236089468
1783205676982865000,2.033864990234375,-0.2822902435142547,-0.3840597057597711,-0.0265793793678283,-0.0009235152974724,-0.0002624755725264,-0.00287796696648
1783205676992801800,2.0438017578125,-0.2760850687311962,-0.3743471073776483,-0.0222509947746992,0.0009489879012107,-0.0015081213787198,-0.0017733802087605
1783205677002740000,2.053739990234375,-0.2942363000368699,-0.3808111522926017,-0.0179331315755844,-0.0008808700367808,-0.0028021512553095,-0.0013227732852101
1783205677012676600,2.063676513671875,-0.2976408843159675,-0.3893260653227567,-0.0266290637284517,0.0040938421152532,-0.0019858879968523,-0.0042708502151072
1783205677022613800,2.07361376953125,-0.2925791439469903,-0.3833603618513792,-0.0205073659777641,0.0011457232758402,0.0016290871426463,-0.0031081140041351
1783205677032551000,2.083551025390625,-0.2882224100422114,-0.3806092365123331,-0.0148275667756795,0.0020474381744861,-0.002766559831798,-0.0018615573644638
1783205677042487800,2.09348779296875,-0.2924936576206237,-0.3795898668693378,-0.0229272866010665,-0.0015954999253153,-0.0013697315007448,-0.004785175435245
1783205677052425000,2.103425048828125,-0.2860195662356913,-0.3796290663685649,-0.0248994634568691,0.0001624785363674,-0.0022710328921675,-0.0047744275070726
1783205677062361600,2.113361572265625,-0.2894153461538255,-0.3865898087592795,-0.0220750536859035,-0.0017981408163905,-0.0005500977858901,-0.0055123893544077
1783205677072298800,2.123298828125,-0.2953788211354985,-0.3903460560202598,-0.0237391875058412,-0.0014806129038333,-0.0015895999968051,-0.0034028626978397
1783205677082236000,2.13323583984375,-0.2949821134354919,-0.3940888958103954,-0.0291489375948905,-0.0010353326797485,-0.0003957049921154,-0.0059491107240319
1783205677092172800,2.1431728515625,-0.289846650243178,-0.3892312997113913,-0.0353021995276212,0.0015795356594026,-0.0028742356225848,-0.0038876142352819
1783205677102110000,2.15310986328125,-0.2929072068575769,-0.3937284650001674,-0.0230430219352245,0.0006913719698786,0.0009849509224295,-0.0004390873946249
1783205677112046600,2.163046630859375,-0.2896746912097558,-0.3919207214584574,-0.01872457421422,0.0005704164505004,-0.0016875667497515,-0.0041588176973164
1783205677121983700,2.172983642578125,-0.2950371680909767,-0.3868745805174112,-0.0308709390819072,0.001875898335129,-0.0051765739917755,-0.0037777191027998
1783205677131921000,2.1829208984375,-0.2888308242641389,-0.3929867067221552,-0.0349397959560155,0.0004745973274111,-0.0023084878921508,-0.0047472766600549
1783205677141857800,2.19285791015625,-0.2882213505962863,-0.3853816385459154,-0.0265770412802696,0.0005481010302901,0.0008433633483946,-0.0020116777159273
1783205677151795000,2.202794921875,-0.2826150184892118,-0.3879431595969945,-0.0238940858066082,0.0033168941736221,-0.0013450309634208,-0.0039279530756175
1783205677161731800,2.21273193359375,-0.2867559542188421,-0.3887418722266331,-0.0257072727084159,0.0061371820047497,-0.0034369444474577,-0.0053484831005334
1783205677171668700,2.222668701171875,-0.289907988508977,-0.3861002351440489,-0.0176496384590864,0.0012956894934177,-0.0005679130554199,-0.0081941243261098
1783205677181606000,2.23260595703125,-0.296272080180794,-0.3833059282504022,-0.032184359768033,0.0005840929225087,-0.0027069645002484,-0.0050875470042228
1783205677191542800,2.242542724609375,-0.2858100882034748,-0.3901399389889091,-0.0114086982429027,0.0003985278308391,-0.0012279916554689,-0.0062511614523828
1783205677201480000,2.25247998046875,-0.282584258024767,-0.3853997221918776,-0.0130669868439435,0.0007165092974901,-0.0011411719024181,-0.0063686068169772
1783205677211416800,2.262416748046875,-0.2758296326654031,-0.3826542594086378,-0.0186117614895105,-0.0010887989774346,-0.0014342758804559,-0.0035051121376454
1783205677221353700,2.272353759765625,-0.2784617712672799,-0.3840124690845608,-0.0283493116497993,-0.0031721899285912,-0.002842023037374,-0.0043703732080757
1783205677231291000,2.282290771484375,-0.2776977280922234,-0.3900830211699008,-0.0223901109844446,0.0003570728003978,-0.0032999673858284,-0.0055023529566824
1783205677241227800,2.292227783203125,-0.2855731376424432,-0.3870834009625017,-0.0289928702503442,0.0028130398131906,-0.0017928844317793,-0.0055702636018395
1783205677251166000,2.302166015625,-0.2896431270277127,-0.3871553702201694,-0.0288560921281576,0.0037868721410632,-0.0007415637373924,-0.0048448462039232
1783205677261102800,2.312102783203125,-0.3010273484164849,-0.3904005626864731,-0.020192308679223,-0.0003735180944204,-0.0007924297824501,-0.0045601543970406
1783205677271039700,2.322039794921875,-0.2984671790722757,-0.3881196121424436,-0.0152712188899517,-3.7326477468e-05,-0.0013710856437683,-0.006029300391674
1783205677280977000,2.331976806640625,-0.294731609273143,-0.3838086901407688,-0.0214215582132339,0.0006031636148691,-0.0002408409491181,-0.0047342050820589
1783205677290913800,2.341913818359375,-0.2961606191629544,-0.3747487469810992,-0.0196282450556755,-0.0014354605227708,-0.0006544133648276,-0.0057098437100648
1783205677300851000,2.351850830078125,-0.2900021330658346,-0.3711607324264943,-0.026080197674036,0.001973652280867,-0.0025380672886967,-0.0094438614323735
1783205677310787800,2.361787841796875,-0.2933499821890145,-0.3805902395509183,-0.0316465996295213,-0.0007631555199623,-0.0042359996587038,-0.0059836832806468
1783205677320724700,2.371724853515625,-0.2987321501513943,-0.3757390366600826,-0.0294271700143814,-0.0002102833241224,1.94646418094e-05,-0.0086668180301785
1783205677330662000,2.381661865234375,-0.2969220319895073,-0.3825533197848126,-0.0191278943181037,6.66202977299e-05,-0.0027111293748021,-0.0030523580498993
1783205677340598800,2.391598876953125,-0.3046813408793881,-0.3845818299377337,-0.0124205056339502,0.0036270003765821,-0.0018735649064183,-0.0063512157648801
1783205677350536000,2.401535888671875,-0.3058816200472414,-0.3947943041333928,-0.017823825982213,-0.0030196690931916,0.0001683328300714,-0.0075733265839517
1783205677360472800,2.411472900390625,-0.3016434710208326,-0.3892433920079842,-0.0224812963992357,0.0011777388863265,-0.0006372733041644,-0.0074723926372826
1783205677370409700,2.42140966796875,-0.2943706304736435,-0.3830659454820677,-0.0346142172634601,0.0012379116378724,-0.000712820328772,-0.0051507973112165
1783205677380347000,2.431346923828125,-0.2902283795697614,-0.3863913635777309,-0.0208604171991348,0.0007731895893812,-0.0009916527196764,-0.008285604417324
1783205677390283800,2.44128369140625,-0.2977166529659181,-0.3750158369520679,-0.0277682968914508,0.0013058870099484,-0.0028586136177182,-0.0056891846470534
1783205677400221000,2.451220947265625,-0.2951267095379531,-0.3875733399039134,-0.025093524724245,0.0040438827127218,6.04772940278e-05,-0.0067712268792092
1783205677410157800,2.46115771484375,-0.301349383445084,-0.3930789515828713,-0.0269078806698322,0.0003737732768058,-0.0028880899772047,-0.0074770683422684
1783205677420094700,2.4710947265625,-0.3006203019855544,-0.3859049683002755,-0.0336649537146091,0.0009607337415218,-0.0022824872285127,-0.0091466046869754
1783205677430032000,2.481031982421875,-0.2906813109690323,-0.391272523215413,-0.0227606978625059,0.0028232689946889,-0.0016432832926511,-0.0071976659819483
1783205677439968800,2.49096875,-0.2912758062634616,-0.3774873416321352,-0.0325116920262575,0.0020195269025862,-0.0014869552105665,-0.008136429823935
1783205677449907000,2.500906982421875,-0.2848938501413911,-0.3836848810980096,-0.0237047007143497,0.0008331220597028,-0.0018909974023699,-0.0135521851480007
1783205677459844600,2.5108447265625,-0.2797758860731497,-0.3906039032388478,-0.0086094229131937,0.0021910676732659,-0.0001919008791446,-0.0092812739312648
1783205677469781800,2.52078173828125,-0.2831285209693014,-0.3909255364086478,-0.0203027833163738,-0.0007165567949414,-0.0012599686160683,-0.009762704372406
1783205677479718700,2.53071875,-0.287611621200107,-0.3875796600468456,-0.0289981309473514,0.000579603947699,6.41550868749e-05,-0.0098742907866835
1783205677489655800,2.54065576171875,-0.2954825372382998,-0.3866587823422625,-0.0231733703166246,0.0017863437533378,-0.0009619574993848,-0.0079110525548458
1783205677499592700,2.5505927734375,-0.2974640299117192,-0.3834321484459564,-0.0249830500870943,-0.0003684200346469,-0.0010983105748891,-0.0098128151148557
1783205677509529600,2.560529541015625,-0.2879880167644471,-0.3904927710145712,-0.0218599496304988,0.0006866725161671,-0.0001928340643644,-0.0089253652840852
1783205677519466800,2.570466796875,-0.2921965378375724,-0.3948145066712051,-0.0136456635147333,0.0017681815661489,-0.0003997618332505,-0.009304067119956
1783205677529403600,2.580403564453125,-0.2836109707240015,-0.3869655467364937,-0.0268330618679523,-0.0001222360879182,-0.0022267783060669,-0.0090759079903364
1783205677539340800,2.5903408203125,-0.2848553812945261,-0.3786585408359765,-0.0379202730715274,0.000186956487596,0.0001064166426658,-0.0080814827233552
1783205677549277700,2.600277587890625,-0.2880328057542443,-0.3890470291856676,-0.0220820679485797,0.0003199847415089,-0.0034298617392778,-0.0084274467080831
1783205677559214600,2.610214599609375,-0.2903613948322832,-0.3968205127313733,-0.0180710787415504,-0.0010392926633358,-0.0025265179574489,-0.0089749926701188
1783205677569151700,2.62015185546875,-0.2957196339298039,-0.3900687734488398,-0.0177905082345008,-0.0010093310847878,-0.0017896648496389,-0.0098648369312286
1783205677579088600,2.630088623046875,-0.2876449754804372,-0.390008567694202,-0.0067336921691894,0.0002050707116723,0.000605315901339,-0.0095207560807466
1783205677589025800,2.64002587890625,-0.2819497229808941,-0.3901614567009732,-0.0267933143794536,0.0011408794671297,-0.0023195007815957,-0.0114604476839303
1783205677598962700,2.649962646484375,-0.2841316701298579,-0.3877120542548596,-0.0265232652664184,0.0017107953317463,-0.0012345286086201,-0.0112649714574217
1783205677608899600,2.659899658203125,-0.2935138309812173,-0.3933985023934394,-0.0350724824249744,-0.0001921691000461,-0.0010565863922238,-0.0101218605414032
1783205677618836700,2.669836669921875,-0.2875147732295096,-0.3895041618360206,-0.0264110370635986,0.0013527306728065,-0.0018251752480864,-0.0085103819146752
1783205677628774700,2.679774658203125,-0.2930583788312971,-0.3836147750038653,-0.0182066878199577,0.0012084953486919,-0.0035729184746742,-0.0088179036974906
1783205677638711800,2.6897119140625,-0.3024782413445413,-0.3921719562731683,-0.0230120422750711,0.0024426043964922,-0.0015369318425655,-0.008204311132431
1783205677648648700,2.699648681640625,-0.3076591511137783,-0.3914231837324798,-0.0219938051432371,0.0006923209875822,-0.0056120110675692,-0.0083081917837262
1783205677658585900,2.7095859375,-0.2998498656023293,-0.3942926747541874,-0.0218798233747482,0.0024840952828526,-0.0018534921109676,-0.0094078108668327
1783205677668522500,2.7195224609375,-0.2906076977435499,-0.3958679612468928,-0.014272855502367,-0.0018012225627899,-0.0036533009260892,-0.0113587882369756
1783205677678459600,2.729459716796875,-0.2900404192496091,-0.3944447965759783,-0.0154939217299222,0.0008347742259502,-0.0014290288090705,-0.0121097993105649
1783205677688396800,2.739396728515625,-0.2838476290240884,-0.3874138750258833,-0.0179085816562175,0.0026752320118248,-0.0019476339221,-0.0138138085603713
1783205677698333700,2.749333740234375,-0.2823857763106003,-0.3920201632449403,-0.0269108032792806,0.0002072807401418,-0.0016648061573505,-0.0123136509209871
1783205677708270800,2.759270751953125,-0.2983473886175081,-0.3893405322395264,-0.02049626006186,0.0003247950226068,-0.0015188241377472,-0.0129651613533496
1783205677718207500,2.76920751953125,-0.2980783989503979,-0.3912545491673052,-0.0169289229691028,-0.0012869499623775,-0.0016631670296192,-0.0129577042534947
1783205677728144600,2.77914453125,-0.3021988398812711,-0.3912346754230558,-0.0109650461286306,-0.0008591534569859,-0.0024664206430315,-0.012276504188776
1783205677738081800,2.789081787109375,-0.3037474575627595,-0.3918321298595517,-0.0056108256191015,-0.000429319217801,-0.0040107872337102,-0.0143894562497735
1783205677748018700,2.799018798828125,-0.3002242518726736,-0.3912629516694694,-0.0188005620598793,0.0021038670092821,-0.0022657504305243,-0.0167525894939899
1783205677757955800,2.808955810546875,-0.293039966391772,-0.3882257028654217,-0.0215203424125909,-0.0004309294745326,-0.0020923782140016,-0.0140649266541004
1783205677767892500,2.818892578125,-0.2875208741767331,-0.3889841200172901,-0.0146621470808982,-0.0003156866878271,-0.0005194256082177,-0.0163148660212755
1783205677777829600,2.82882958984375,-0.2886927309677005,-0.3959416110049933,-0.0188712892085313,-0.0013559181243181,-0.0002445867285132,-0.0130498306825757
1783205677787767600,2.838767578125,-0.2962135549265891,-0.3782152540478855,-0.0241325707376003,0.0025394889526069,-0.0053335335105657,-0.0137615744024515
1783205677797704700,2.84870458984375,-0.2938669552678242,-0.3921811624929309,-0.0106891517966985,0.0014041834510862,-0.0017526466399431,-0.0150020746514201
1783205677807641900,2.858641845703125,-0.2946197829291224,-0.3930279885806143,-0.0282224703997373,-4.3942593038e-05,-0.0029960190877318,-0.0139774549752473
1783205677817578800,2.868578857421875,-0.2839825805153697,-0.3893254077356308,-0.0272018951803445,0.0018751309253275,-0.0014015845954418,-0.0169095955789089
1783205677827515600,2.878515625,-0.2928976353116333,-0.3890821370316669,-0.0139051912337541,0.0010001892223954,-0.0016801357269287,-0.0151374544948339
1783205677837452500,2.88845263671875,-0.291726107314229,-0.3838501546623185,-0.0118260468721389,0.001400729175657,-0.0001264475286006,-0.0152354594320058
1783205677847389700,2.8983896484375,-0.2850894457787275,-0.3906844211291521,-0.0191787477225065,0.0014243810437619,-0.00121452473104,-0.0154092172160744
1783205677857326800,2.908326904296875,-0.2819565180478617,-0.3840725287087261,-0.0307265621751546,-4.4051557779e-06,-0.0034973863512277,-0.0192127432674169
1783205677867263700,2.918263671875,-0.2867522644244134,-0.3830525380112231,-0.0222235222458839,0.0012461165897548,0.0010405480861663,-0.0150727238506078
1783205677877200600,2.92820068359375,-0.2842179236412048,-0.3893029036428779,-0.0204442376136779,0.0037774513475596,-0.0011139493435621,-0.0179875530302524
1783205677887137500,2.938137451171875,-0.3016265198860317,-0.3933773865401744,-0.0308019654989242,0.0028823912143707,-0.0072252377867698,-0.0188669636845588
1783205677897074700,2.94807470703125,-0.2887895058730617,-0.397694117228128,-0.027243980756402,0.0019889008253812,-0.0050505008548498,-0.0159420147538185
1783205677907011800,2.95801171875,-0.2900204359075054,-0.3976277374610305,-0.0126040455073118,0.0020136567763984,-0.0035833362489938,-0.01918501034379
1783205677916948700,2.96794873046875,-0.300268054481782,-0.387644615041837,-0.0287970554172992,0.0013097831979393,-0.0026901122182607,-0.0219464413821697
1783205677926885600,2.9778857421875,-0.3012768661981448,-0.3894721227299422,-0.0207364985585212,0.0029102163389325,-0.0034765023738145,-0.0199865382164716
1783205677936823600,2.987823486328125,-0.2953943840308115,-0.3970762775907293,-0.0200175366342067,-0.0006371140480041,-0.0023803450167179,-0.0222353115677833
1783205677946760700,2.9977607421875,-0.2895183316042646,-0.3927097164116799,-0.0273790053129196,0.0013951663859188,-0.0015512676909565,-0.0203052088618278
1783205677956697600,3.007697509765625,-0.3002516148036345,-0.3990561993615701,-0.0332347456037998,0.0014492287300527,-0.0031201355159282,-0.0210831183940172
1783205677966634800,3.017634765625,-0.2927407642494887,-0.3901004837613552,-0.0197960028380155,0.0031959735788404,-0.0008442746475338,-0.0198741536587476
1783205677976572000,3.027572021484375,-0.2855042736573144,-0.4061473266663029,-0.0211631995379924,0.0016199150122702,-0.0026632137596607,-0.0206398107111454
1783205677986508500,3.037508544921875,-0.2872952852599322,-0.401099870551005,-0.0270271231353282,-0.0004987362772226,-0.002152350731194,-0.0223978385329246
1783205677996445700,3.04744580078125,-0.2874312961971387,-0.3945828168071806,-0.0108937344580888,0.0022552390582859,-0.0013161180540919,-0.0221610832959413
1783205678006382600,3.057382568359375,-0.2881704606592655,-0.3973822747999802,-0.0269330151110887,0.0027777752839028,-0.0023878309875726,-0.0203825142234563
1783205678016319700,3.06731982421875,-0.2846895597409457,-0.3952698857558891,-0.0224637607425451,0.0011527142487466,-0.0017417483031749,-0.0236725825816392
1783205678026257000,3.0772568359375,-0.2778184683950618,-0.3896643573664128,-0.0145686235785484,0.0029026246629655,-0.0049618305638432,-0.0217497050762176
1783205678036193500,3.087193603515625,-0.2830098630256951,-0.3958460416760295,-0.0175917707920074,-0.0001861099153757,-0.0031122649088501,-0.0231883432716131
1783205678046130700,3.097130615234375,-0.2845486899655312,-0.3909625074181705,-0.0200198747217655,-0.0007559629157185,-0.0014549940824508,-0.0246688909828662
1783205678056067600,3.107067626953125,-0.2806723599888384,-0.3918791838716715,-0.0258633400529623,9.81129705905e-05,0.0008124215528368,-0.0247623696923255
1783205678066004700,3.117004638671875,-0.2916192494062706,-0.3978195702387019,-0.0128705874890089,0.001769165508449,-0.0027962243184447,-0.0241118595004081
1783205678075942700,3.126942626953125,-0.2899602666854858,-0.3990355218997224,-0.0178366854637861,-0.0006561754271388,-0.0023679882287979,-0.0226716212928295
1783205678085879800,3.1368798828125,-0.2886159394044429,-0.399651571438834,-0.0192108964264392,0.0016031586565077,-0.0022663539275527,-0.0241118073463439
1783205678095816700,3.146816650390625,-0.2859926782287657,-0.3967741893716156,-0.0150444243967533,-0.00106399692595,-0.0003249095752835,-0.0214523747563362
1783205678105753600,3.156753662109375,-0.2827248355392366,-0.3914170827852561,-0.0131155021607875,0.0022743428125977,-0.0029061427339911,-0.0244653783738613
1783205678115690800,3.166690673828125,-0.2822567796360701,-0.3895127835338935,-0.0195785606950521,-0.0001688413321971,-0.0015535233542323,-0.023327674716711
1783205678125627600,3.176627685546875,-0.2860925584066659,-0.3955248468976468,-0.0207972888350486,-0.0007843719795346,0.0005469704046845,-0.0261595007032156
1783205678135564800,3.186564697265625,-0.2881170499715954,-0.3958231722570955,-0.0194733467549085,0.0011568060144782,-0.0036570960655808,-0.0240047369152307
1783205678145501700,3.196501708984375,-0.2849329400427639,-0.3884660144273191,-0.0188958391278982,-0.0004175519570708,0.0014713928103446,-0.0213471800088882
1783205678155438600,3.2064384765625,-0.2911361785970628,-0.4007166799196973,-0.0156271927207708,-0.0013288855552673,-0.0034756949171423,-0.0237189903855323
1783205678165375700,3.216375732421875,-0.2997523965772241,-0.4010427700689062,-0.0219441207826137,-7.8035518527e-06,-0.0012086881324648,-0.0232017431408166
1783205678175312600,3.226312744140625,-0.299173939102143,-0.3966002210441977,-0.0186877493351697,0.0032021044753491,-0.0049429722130298,-0.0233878996223211
1783205678185249800,3.236249755859375,-0.2998836948066949,-0.4050453933063894,-0.0202238728612661,0.0004236614331603,-0.005787999369204,-0.0230420045554637
1783205678195186700,3.246186767578125,-0.2919703643988818,-0.3992491281177848,-0.0241600432664155,0.0032964134588837,-0.0060037160292267,-0.0228603743016719
1783205678205124600,3.25612451171875,-0.2903185786038637,-0.3992671752311289,-0.0276397020757198,0.00050098169595,-0.0032392460852861,-0.020502146333456
1783205678215061800,3.266061767578125,-0.2940268585372716,-0.4057987689569592,-0.0103121351778507,-0.0001192688941955,-0.0019798371940851,-0.0229024551808834
1783205678224998700,3.27599853515625,-0.2903699434649199,-0.3914215032320469,-0.0116816699653863,0.0038394955918192,-0.0033919848501682,-0.0222214236855506
1783205678234935800,3.285935791015625,-0.2894510019890964,-0.4026725266952067,-0.0215869779080152,-0.0001254184171557,-0.0023493571206927,-0.0191808901727199
1783205678244872700,3.295872802734375,-0.2819485174044966,-0.3896829159364104,-0.0165291099965572,-0.0017544701695442,-0.0034398334100842,-0.019916383549571
1783205678254809600,3.3058095703125,-0.2857121077217161,-0.3892734583526849,-0.0276291806817054,-0.0019816374406218,-0.0005175471305847,-0.0201464816927909
1783205678264746800,3.315746826171875,-0.2826644105888903,-0.4025954428710043,-0.0207680627405643,0.0012066261842846,-0.0003903051838278,-0.0184834711253643
1783205678274683600,3.32568359375,-0.2904846558857709,-0.4022857193347066,-0.0131529115617275,0.0001605367287993,-0.0013849958777427,-0.0168173965066671
1783205678284620800,3.335620849609375,-0.2818826125614345,-0.4088959312546998,-0.0267839620292186,0.0009640082716941,-0.0012402487918734,-0.0194577649235725
1783205678294557700,3.3455576171875,-0.2823578288577497,-0.3986159813133999,-0.0292138195246458,-0.0007851561531424,-0.0026903403922915,-0.01310745626688
1783205678304494600,3.35549462890625,-0.2861547369226813,-0.3971493428269401,-0.0223556241929531,0.0014961855486035,-0.0027586473152041,-0.0161909721791744
1783205678314431700,3.365431640625,-0.2873994762867689,-0.4058041392518207,-0.0170037417709827,-0.000381875783205,-0.0041125984862446,-0.0169214773923158
1783205678324369700,3.37536962890625,-0.2874899310491979,-0.3946520826511084,-0.0146516256868839,-0.0008009513840079,-0.0033683748915791,-0.0138019053265452
1783205678334306800,3.385306884765625,-0.2854284684747457,-0.3931529666671529,-0.0238151753515005,-0.0020821988582611,-0.0042711868882179,-0.0165103394538164
1783205678344243700,3.39524365234375,-0.2959876372162252,-0.4007068891780451,-0.0253442846149206,0.0012333402410149,-0.0030519543215632,-0.0134475054219365
1783205678354180600,3.4051806640625,-0.2872655477087945,-0.3887483750326558,-0.0157990421563386,0.0012772823683917,-0.0032378435134887,-0.014390530064702
1783205678364117500,3.415117431640625,-0.2868223339859396,-0.3980090649288147,-0.0243570271432399,0.0038767987862229,-0.0020956210792064,-0.0178715959191322
1783205678374054700,3.4250546875,-0.2913918338585645,-0.4031092741446569,-0.0218365687549114,0.0025566699914634,-0.0006505893543362,-0.0154704917222261
1783205678383991800,3.43499169921875,-0.2888531822264194,-0.4010379842959344,-0.0205091195434331,0.0040198075585067,-0.0004381639882922,-0.0123126367107033
1783205678393928700,3.4449287109375,-0.2870525625452399,-0.4057531762495637,-0.0139443542003631,0.0010802103206515,-0.0025535132735967,-0.0142439613118767
1783205678403865600,3.454865478515625,-0.2873241460282355,-0.4022416609972715,-0.0172574242711067,-0.0003037266433238,-0.0004267897456884,-0.0116575229912996
1783205678413802500,3.464802490234375,-0.2946684443764388,-0.404408958566375,-0.0219148946881294,0.0005157273262739,-0.0019567757844924,-0.0118508674204349
1783205678423739600,3.47473974609375,-0.287075139703229,-0.398410156542994,-0.0104191026836633,-0.0002370169386267,-0.0028902227059006,-0.0140597429126501
1783205678433676800,3.4846767578125,-0.2888612194024026,-0.4059441687770188,-0.0122445645451545,-0.0017883079126477,-0.002630298025906,-0.0144224651157855
1783205678443614700,3.49461474609375,-0.289065144476667,-0.3959381404062733,-0.0175070151180028,-0.0018285848200321,-0.0021684905514121,-0.008530655875802
1783205678453551900,3.5045517578125,-0.2822841060344129,-0.3998087712945416,-0.0208212542325258,0.0029379404149949,-0.002347189001739,-0.0154402274638414
1783205678463489000,3.514489013671875,-0.2821837874650955,-0.4005508583661168,-0.026384149056673,0.0012848954647779,-0.0041735563427209,-0.0187660455703735
1783205678473426200,3.52442626953125,-0.2948670356884598,-0.399991909309104,-0.0262660756349563,0.0024590832181274,-0.0050273649394512,-0.0156096667051315
1783205678483363000,3.534363037109375,-0.2944601353880018,-0.392679942327924,-0.0209153622567653,0.0005731470882892,-0.0035076048225164,-0.0205809026956558
1783205678493300200,3.54430029296875,-0.2966235970322042,-0.3995422658454626,-0.0272340438842773,-0.0001448411494493,-0.0037427619099617,-0.0192591771483421
1783205678503237000,3.554237060546875,-0.2944952797666192,-0.3883895151250064,-0.0158931501805782,-0.0015061097219586,-0.0016105519607663,-0.0188253223896026
1783205678513174000,3.564174072265625,-0.2877102958016097,-0.4016957175523042,-0.0097907416522502,0.0011613122187554,-0.0015341192483901,-0.020643463358283
1783205678523111200,3.574111083984375,-0.3009380261652171,-0.3991223599329591,-0.0113128366529941,0.0025271316990256,-0.0021020844578742,-0.0186627376824617
1783205678533048000,3.584048095703125,-0.2911673774529248,-0.3983490740055218,-0.0102975221306085,0.0016703931614756,-0.0049644503742456,-0.021328829228878
1783205678542985200,3.593985107421875,-0.2919728486169129,-0.4000212084688246,-0.0142237556636333,0.0017348565161228,-0.0020858412608504,-0.0213841125369071
1783205678552922400,3.60392236328125,-0.2863411994054913,-0.4001993780473247,-0.0182902744501829,0.0012221978977322,-0.00322194583714,-0.0215686708688735
1783205678562860300,3.6138603515625,-0.2825928797226399,-0.4050487908398732,-0.0229588507831096,0.0021293396130204,-0.0012399218976497,-0.0207906402647495
1783205678572797200,3.623797119140625,-0.2857205102238804,-0.398708189641498,-0.0286754748642444,0.0034502674825489,-0.0007882490754127,-0.0193924792110919
1783205678582734000,3.633734130859375,-0.2852652407370507,-0.4092336022438481,-0.0255535434514284,0.0017552790232002,-0.0008156280964612,-0.0212576240301132
1783205678592671200,3.643671142578125,-0.2934322536449879,-0.4042556677008047,-0.0118108493030071,-0.0016165487468242,-0.003190635703504,-0.0208048857748508
1783205678602608000,3.653608154296875,-0.2937184501752257,-0.4094423496237024,-0.0203606509834527,0.0015670624561607,-0.0023248549550771,-0.0167777519673109
1783205678612545300,3.663545166015625,-0.2906723604775965,-0.4179725332882255,-0.019037877947092,0.0014829062856733,-0.0009551914408802,-0.0209328159689903
1783205678622482200,3.673482177734375,-0.2830937419168651,-0.3971089377513155,-0.0207101950734853,0.0026244898326694,-0.003953575156629,-0.0194414723664522
1783205678632419000,3.683419189453125,-0.2826678446549922,-0.4011887909434735,-0.0186433256715536,-0.0002149725332856,-0.0009335502982139,-0.0181029662489891
1783205678642356200,3.693356201171875,-0.2817639546178281,-0.4102707267392426,-0.0240606745451688,0.0028965682722628,-0.0031727673485875,-0.0204247832298278
1783205678652293000,3.703293212890625,-0.286903947854787,-0.4074129992205649,-0.0223012636572122,0.0006336802616715,-0.0050202021375298,-0.0169352442026138
1783205678662230300,3.713230224609375,-0.2938030597187578,-0.4046901866605505,-0.0120054950922727,0.0012717191129922,-0.0012165401130914,-0.0194089915603399
1783205678672168200,3.723168212890625,-0.2876706213783472,-0.4007319870866835,-0.0261012404620647,0.0005412138998508,-0.0018652863800525,-0.0201674588024616
1783205678682105000,3.73310498046875,-0.2874135778773576,-0.4027323305910453,-0.0107253921538591,-0.0003839386627078,-0.0033756829798221,-0.019792390987277
1783205678692042200,3.743042236328125,-0.283774052331224,-0.4090156121116131,-0.0038747956067323,-0.0006465269252657,-0.0021676728501915,-0.0195947848260402
1783205678701979100,3.752979248046875,-0.2886648200474679,-0.4026346423702314,-0.015720131701231,0.0003902567550539,-0.0010430812835693,-0.0197454839944839
1783205678711916300,3.762916259765625,-0.2885690315227955,-0.3988687504980713,-0.0221808521479368,0.0033452999778091,-0.0032079648226499,-0.0188384111970663
1783205678721853200,3.772853271484375,-0.2824066364355385,-0.3972444372318685,-0.0184819976300001,0.0014301147311925,-0.0060173776000738,-0.0190566182136535
1783205678731790000,3.7827900390625,-0.2797722693439572,-0.4020798945643007,-0.0134305594593286,-0.0016796588897705,-0.0018412750214338,-0.0214747693389654
1783205678741727200,3.792727294921875,-0.2839769544921815,-0.4114091561846434,-0.0179489136666059,-0.0002976255491375,-0.0038526775315403,-0.0206872429698705
1783205678751664000,3.8026640625,-0.2935802107483148,-0.4048853439064696,-0.0158925656586885,0.0023655351251363,-0.0029282942414283,-0.0214041657745838
1783205678761601300,3.812601318359375,-0.2877973164979368,-0.4117147880677133,-0.020867431461811,0.0028295288793742,-0.0047547500580549,-0.0226894132792949
1783205678771538200,3.8225380859375,-0.2937673308182507,-0.4076175818819552,-0.0200116914153099,0.0027118171565234,-0.0030013248324394,-0.0246825236827135
1783205678781476400,3.832476318359375,-0.2994340513430535,-0.4027002914849668,-0.0227373169869184,-0.0005027391016483,-0.0035080695524811,-0.0223176851868629
1783205678791413000,3.8424130859375,-0.2942727961223572,-0.4086726804254576,-0.0013642740905284,0.0005867602303624,-0.0017216214910149,-0.0245480835437774
1783205678801350100,3.85235009765625,-0.2954750115189701,-0.4063394151723012,-0.0166577048122882,0.0024938709102571,-0.0045869657769799,-0.0238016862422227
1783205678811287000,3.862287109375,-0.2880814672015607,-0.4032578523024916,-0.0108569095790386,0.0001923674717545,-0.0028556445613503,-0.0252579022198915
1783205678821224200,3.87222412109375,-0.283329377303645,-0.4026854227093979,-0.0107259766757488,0.0020819837227463,-0.0027737831696867,-0.0226810127496719
1783205678831161300,3.882161376953125,-0.2827062769692391,-0.403633992138505,-0.0279670343339443,0.0007109884172677,-0.0032424991950392,-0.0239643901586532
1783205678841098000,3.892097900390625,-0.284935058934614,-0.4083676330642774,-0.029494974553585,-0.0011516520753502,-0.002316272817552,-0.0224668346345424
1783205678851035100,3.90203515625,-0.2918563826303929,-0.4156420810466632,-0.0250344880133867,0.0018393439240753,-0.0023972326889634,-0.0224109068512916
1783205678860972300,3.91197216796875,-0.2986920008040964,-0.4139536895683035,-0.0123392570912837,0.0005676224827766,-0.0008218437433242,-0.0254791975021362
1783205678870909200,3.9219091796875,-0.299720832395181,-0.417868744120188,-0.0090893153846263,-0.0011397302150726,-0.0055465577170252,-0.0248778574168682
1783205678880847000,3.93184716796875,-0.2944756982833147,-0.4192718523837626,-0.0194458742260932,-0.0002961512655019,-0.003792836330831,-0.0229438617825508
1783205678890784300,3.9417841796875,-0.3000182809717953,-0.4104797663800418,-0.0229179342508316,-0.0019896551966667,-0.0033379690721631,-0.0231404025107622
1783205678900721200,3.95172119140625,-0.2881313707578927,-0.4025598601009696,-0.0088870708107948,0.0014406661503016,-0.0021264879032969,-0.0255339369177818
1783205678910658000,3.961657958984375,-0.2874891273315996,-0.4125058653801679,-0.0232867675632238,0.0001548919826745,-0.0037624668329954,-0.0213051028549671
1783205678920595200,3.97159521484375,-0.2867513876415788,-0.3984590737186372,-0.014039631268382,0.0007901070639491,-0.0032228715717792,-0.0197198092937469
1783205678930532000,3.981531982421875,-0.2875553975008428,-0.3999425902746618,-0.0227466693371534,0.0014894530177116,-0.0038596335798501,-0.0203073024749755
1783205678940469200,3.99146923828125,-0.2806014136444777,-0.4062688706867396,-0.0229325472980737,0.0015397276729345,-0.0021102521568536,-0.0185174141079187
1783205678950406100,4.00140625,-0.2796104298457503,-0.4065824301479384,-0.0066495210170745,2.99820676445e-05,-0.003265531733632,-0.0180199351161718
1783205678960343000,4.011343017578125,-0.2776443174045532,-0.3959744903612882,-0.0131166712045669,-0.0005361856892704,-0.0035842666402459,-0.0195869840681552
1783205678970280200,4.0212802734375,-0.2795185137785971,-0.395007508492656,-0.0141997902661561,-0.0019649714231491,-0.0053696492686867,-0.0201627574861049
1783205678980218000,4.031218017578125,-0.2825491867113858,-0.4031325454223901,-0.0127320558011531,0.000636463984847,-0.0027671987190842,-0.016444556415081
1783205678990155300,4.0411552734375,-0.2866715273384004,-0.4024141314873471,-0.0199403797447681,0.0001576282083988,-0.0016124527901411,-0.019396137446165
1783205679000092200,4.051092041015625,-0.2827231550388038,-0.4060190241115167,-0.0076958151996135,-0.0006290040910243,-0.0024008192121982,-0.0167321972548961
1783205679010029000,4.061029052734375,-0.2836268258802593,-0.4081040502246469,-0.010869184538722,0.0028099357150495,-0.0025709951296448,-0.0173385981470346
1783205679019966200,4.07096630859375,-0.2878290268104523,-0.4113760576326399,-0.0270510885328054,0.0015510618686676,-0.0005453089252114,-0.0204134322702884
1783205679029903000,4.080903076171875,-0.2910463083565235,-0.4085535475578158,-0.0212415254712104,-0.002552337013185,-0.0033008819445967,-0.0217889547348022
1783205679039840300,4.09084033203125,-0.2997488163806497,-0.4093834225106984,-0.0120043260484933,0.0020677247084677,-0.0051618553698062,-0.0192648284137249
1783205679049777200,4.100777099609375,-0.2955246958795934,-0.4115977375593036,-0.0115992523789405,0.0005324119701981,-0.0042268196120858,-0.0214920286089181
1783205679059714000,4.110714111328125,-0.3013769290391355,-0.4109829666618257,-0.0303448693811893,-5.17293810844e-05,-3.93493101e-05,-0.0205781031399965
1783205679069651200,4.120651123046875,-0.2964122923690825,-0.4121505856690928,-0.0157142864823341,0.0002342937514185,-0.0030769510194659,-0.0229059718549251
1783205679079589000,4.130589111328125,-0.2913841620087623,-0.4108932425517588,-0.0135077163487672,0.0014639804139733,-0.0030892314389348,-0.0232724081724882
1783205679089526300,4.1405263671875,-0.2879685083463787,-0.4033503163589164,-0.0132382517576217,-0.0010857302695512,-0.0017472645267844,-0.0229893140494823
1783205679099463200,4.150463134765625,-0.291786751460284,-0.407581122329086,-0.01176817920506,0.0013136197812855,-0.0027653742581605,-0.0204918682575225
1783205679109400000,4.160400146484375,-0.2849845240995288,-0.4035239558927714,-0.0074555767029523,-0.0012142527848482,-0.0012228712439537,-0.0234852619469165
1783205679119337000,4.1703369140625,-0.2914785622939467,-0.4003851829430088,-0.0133189157783985,0.0001752693206071,-0.0023101419210433,-0.025651354342699
1783205679129274000,4.180274169921875,-0.2937987488698214,-0.4121373608613387,-0.0185831199169158,9.27112996578e-05,0.000372726470232,-0.0213657952845096
1783205679139211300,4.190211181640625,-0.2940778580721467,-0.4081382447551935,-0.0147165076166391,1.07707455754e-05,-0.0043015973642468,-0.0239062178879976
1783205679149148200,4.200148193359375,-0.2956445959322154,-0.4081704665243625,-0.0090682725965976,0.0021780505776405,-0.0009715808555483,-0.0244409795850515
1783205679159085000,4.2100849609375,-0.2857104272212833,-0.4107225621599704,-0.0090945760816335,0.0001573199406266,-0.0029741311445832,-0.0246720798313617
1783205679169022200,4.220022216796875,-0.2841901588514447,-0.4082709312241524,-0.012120645904541,0.0008928850293159,-0.0039435215294361,-0.0249098986387252
1783205679178960100,4.229960205078125,-0.2833043159276247,-0.4053239179868251,-0.0117138186693191,0.0018776003271341,-0.0039256354793906,-0.0228917207568883
1783205679188897000,4.23989697265625,-0.290070887453109,-0.4097418074943125,-0.0193961898654699,0.0028139678761363,-0.004687831737101,-0.0222184732556343
1783205679198834200,4.249834228515625,-0.2891165824029594,-0.4129202913999557,-0.0123994628459215,0.0019991309382021,-0.0047055836766958,-0.0220651216804981
1783205679208771300,4.259771240234375,-0.2855431808955967,-0.4129445490583777,-0.0112339261978864,0.0007170848548412,-0.0030123461037874,-0.0218504704535007
1783205679218708000,4.2697080078125,-0.2933974745925515,-0.4140850608630105,-0.01516249781847,0.0004886137321591,-0.0036326954141259,-0.022149933502078
1783205679228645000,4.27964501953125,-0.2980306142859161,-0.4255059244677424,-0.0132499421954154,0.0002973992377519,-0.0027336115017533,-0.0200649444013834
1783205679238582000,4.28958203125,-0.2910941660862416,-0.4092308622974902,-0.0195703773885965,-0.0010396037250757,-0.0030604135245084,-0.0201422814279794
1783205679248519200,4.299519287109375,-0.285440012782067,-0.4162997047051787,-0.0148223060786724,0.0002251313999295,-0.0019951490685343,-0.0219641514122486
1783205679258456300,4.309456298828125,-0.2853104681182652,-0.4153269141502678,-0.0170990188390016,0.0005288701504468,-0.0017935736104846,-0.0196973960846662
1783205679268393000,4.31939306640625,-0.2848399279970675,-0.4173619271092116,-0.0171329211086034,0.0012180963531136,-0.0009024804458022,-0.0218526925891637
1783205679278331100,4.3293310546875,-0.2836220035746693,-0.404084220124036,-0.012219430103898,0.0003518313169479,-0.0021608918905258,-0.0194655749946832
1783205679288268000,4.33926806640625,-0.2884257505945861,-0.4149674697207287,-0.0138975924491882,0.0024730390869081,-0.0039457418024539,-0.0210746563971042
1783205679298205200,4.349205078125,-0.2899848166048526,-0.4239114948831498,-0.0157329911828041,0.0021772691980004,-0.0036104079335927,-0.0240672156214714
1783205679308142000,4.35914208984375,-0.284105037851259,-0.4111405683763325,-0.0118792383641004,0.0011964268051087,-0.0026652524247765,-0.0211694277822971
1783205679318079200,4.369079345703125,-0.2875291670810431,-0.4132877364728599,-0.0203027833163738,-0.0007918337360024,-0.0077215041965246,-0.0226431190967559
1783205679328016100,4.37901611328125,-0.2838021824471652,-0.4128501853058114,-0.0210936414331197,0.0015786457806825,-0.0056737996637821,-0.0237299539148807
1783205679337953000,4.388953125,-0.2817047717764973,-0.410392161161825,-0.0105126261860132,-0.0010091923177242,-0.0054766135290265,-0.0205678734928369
1783205679347890200,4.39889013671875,-0.2910077299118042,-0.410693336065486,-0.0078606503725051,0.0034998059272766,-0.0032299701124429,-0.0205620154738426
1783205679357827000,4.4088271484375,-0.2951239330589771,-0.4152710923098027,-0.0034212066203355,0.0023036650381982,-0.0050089145079255,-0.0185657013207674
1783205679367765200,4.41876513671875,-0.3054116644479334,-0.4263422291614115,-0.015887889483571,0.0001193406060338,-0.0068022878840565,-0.0218935869634151
1783205679377702100,4.4287021484375,-0.3019848318044096,-0.4188056596441194,-0.0159293905377388,-0.0008608996868133,-0.0007426710799336,-0.0202399119734764
1783205679387639000,4.43863916015625,-0.2913096354678273,-0.4316596247918903,-0.0081844754993915,-0.001221758313477,-0.0058279773220419,-0.0197637397795915
1783205679397576200,4.448576171875,-0.2937092439554631,-0.4120863247938454,-0.0062824412703514,0.0010082889348268,-0.0033504972234368,-0.0212566498667001
1783205679407513000,4.45851318359375,-0.2882528782457113,-0.4103761233424767,-0.0061707975894212,0.0006229290738701,-0.0039369249716401,-0.0195447690784931
1783205679417450200,4.4684501953125,-0.2847419475153088,-0.42105997790955,-0.0183306064605712,0.0009852573275566,-0.0040818192064762,-0.0200720354914665
1783205679427387100,4.47838720703125,-0.279613790846616,-0.4087664596561342,-0.0108849666297435,0.0007852539420127,-0.0034133652225136,-0.0179686695337295
1783205679437324000,4.488323974609375,-0.2832205831669271,-0.3967964377360418,-0.017501169899106,-0.0004147002473473,-0.0005244892090559,-0.0209840666502714
1783205679447261200,4.49826123046875,-0.2889482400987297,-0.4181128185417503,-0.0084042557299137,0.0013512414880096,-0.0008171703666448,-0.0202056244015693
1783205679457199000,4.50819921875,-0.2896972318351268,-0.4153899694491177,-0.0082891049176454,0.0001433873549103,-0.0048001194372773,-0.0165793225169181
1783205679467135200,4.51813525390625,-0.2779895506456494,-0.4279140085227787,-0.0105693248093128,-0.0019053826108574,-0.0043702851980924,-0.0180770847946405
1783205679477072100,4.528072021484375,-0.2894215566989034,-0.4211697218943387,-0.0156955817818641,0.0013697450049221,-0.0032549398019909,-0.0171975214034318
1783205679487009300,4.53800927734375,-0.2788539123900234,-0.410173476909846,-0.010488660788536,0.0020733522251248,-0.0010703485459089,-0.017873965203762
1783205679496946400,4.547946533203125,-0.2749765595000237,-0.4205922873325645,-0.0238292038768529,-6.45741820335e-05,-0.001179652288556,-0.0198473054915666
1783205679506883300,4.55788330078125,-0.2828489733755588,-0.4179355622787028,-0.0268593653529882,-0.0003447383642196,-0.006369087845087,-0.0184187851846218
1783205679516820200,4.5678203125,-0.2871653752699494,-0.4158194469075649,-0.008051204508543,0.0002495879307389,-0.0043847048655152,-0.0167998149991035
1783205679526757000,4.577757080078125,-0.2915739124272019,-0.4183614960731938,0.0008878887504339,-0.0001986222341656,-0.0028776219114661,-0.0167449545115232
1783205679536694300,4.5876943359375,-0.288592777724564,-0.4135245409034192,-0.0034954409003257,0.0018583969213068,-0.0030713248997926,-0.0194453988224267
1783205679546632200,4.597632080078125,-0.2894308359839022,-0.408255879785493,-0.0164127901405096,0.0003744838759303,-0.0062479432672262,-0.0194845478981733
1783205679556569300,4.6075693359375,-0.281636382715404,-0.4040922573000192,-0.0194505504012107,0.00164216151461,-0.0046190554276108,-0.0180017631500959
1783205679566506500,4.617506591796875,-0.2777356489498168,-0.4197298983495682,-0.0127519295454025,0.0006575910374522,-0.001891179010272,-0.0183612890541553
1783205679576443100,4.627443115234375,-0.2906991023540496,-0.4212587884172797,-0.0144371061533689,0.0027512977831065,-0.0034069195389747,-0.0157915074378252
1783205679586380300,4.63738037109375,-0.2882395803727209,-0.4161469983614981,-0.0143166946440935,0.0015661912038922,-0.0022191498428583,-0.0165949817746877
1783205679596317200,4.647317138671875,-0.2988639233049005,-0.4245059901775792,-0.0146498721212148,0.0015123495832085,-0.0022278744727373,-0.015242576599121
1783205679606254300,4.65725439453125,-0.2981095978062599,-0.4165930981611833,-0.0163198511600494,-0.0013351021334528,-0.0009985594078898,-0.0160625632852315
1783205679616191500,4.66719140625,-0.3030566257543862,-0.4173506385302171,-0.013959551769495,0.0032371100969612,-0.0020320415496826,-0.0159736480563879
1783205679626128100,4.677128173828125,-0.2927759086281061,-0.4257598992288112,-0.0123445177882909,0.0015345513820648,-0.0033151526004076,-0.014285204000771
1783205679636066300,4.68706640625,-0.2943495876856148,-0.4224747400783002,-0.0141793320000171,0.0015832292847335,-0.0032901465892791,-0.0117947105318307
1783205679646003200,4.697003173828125,-0.3007693916000425,-0.4169618218757212,-0.0088280340999364,-0.0015630293637514,-0.0006440300494432,-0.0127446595579385
1783205679655940400,4.7069404296875,-0.2968517797648906,-0.4170302109368145,-0.0045125089883804,-0.0008953651413321,0.0007029296830296,-0.0117382537573575
1783205679665877200,4.716877197265625,-0.2907479099318385,-0.4201028233151883,-0.0067781158328056,0.0026274644769728,-0.0028848806396126,-0.0146064786240458
1783205679675814400,4.726814453125,-0.2834560724232345,-0.4186427606999874,-0.0166968677788972,0.0015941308811306,-0.0055143414065241,-0.017236266285181
1783205679685751300,4.736751220703125,-0.2789586148735136,-0.4105067274522036,-0.016592822882533,-0.0023058019578456,-0.003281014971435,-0.0133475195616483
1783205679695688200,4.746688232421875,-0.2804068409204482,-0.4209709844518453,-0.0042097266495227,0.0012107007205486,-0.0019303187727928,-0.0128113124519586
1783205679705625300,4.756625244140625,-0.2809635980203747,-0.4168216462200507,-0.0073795888572931,0.0008309343829751,-0.0026144850999116,-0.0126616433262825
1783205679715562200,4.766562255859375,-0.2790872096892446,-0.4153489067863672,-0.0115992523789405,0.0002566715702414,-0.0009240694344043,-0.0125157292932271
1783205679725500400,4.77650048828125,-0.2830596204515546,-0.4187295987332239,-0.0102805709958076,-0.0013779764994978,-0.0029118526726961,-0.0146819446235895
1783205679735437300,4.786437255859375,-0.2837416844315826,-0.4194781155455857,-0.0167442140519618,0.0013738386332988,-0.000139663927257,-0.0106680784374475
1783205679745374200,4.796374267578125,-0.2789815573576837,-0.4313382838830351,-0.0136222826391458,-0.0012669516727328,-0.00386010017246,-0.0123394774273037
1783205679755311400,4.806311279296875,-0.278104116936028,-0.4250430196637287,-0.0025812486648559,0.0002736058086156,-0.0023833028972148,-0.0157383978366851
1783205679765248300,4.816248291015625,-0.2799449224971234,-0.4206461364116519,-0.016678747600317,0.0011322093196213,-0.0029124729335308,-0.016016699373722
1783205679775185400,4.826185302734375,-0.2947647443577647,-0.4268076547160744,-0.0138800567924976,0.0015763863921165,-0.0023377398028969,-0.0141037199646234
1783205679785122300,4.836122314453125,-0.3005546528708189,-0.4229471068304032,-0.0178086284130811,-7.31758773326e-05,-0.0039838394150137,-0.0122094135731458
1783205679795059200,4.84605908203125,-0.294213101824373,-0.4281467213001102,0.0001087210714817,0.0002684714272618,-0.0027302457019686,-0.0123181408271193
1783205679804997000,4.8559970703125,-0.2901395687751472,-0.4208469196807592,-0.0110007019639015,-0.0021795062348246,-0.001817581243813,-0.0119964312762022
1783205679814934300,4.865934326171875,-0.2835663278646766,-0.4183776069577783,-0.0141752403467893,0.0004222029820084,-0.0029337182641029,-0.0136015210300683
1783205679824871400,4.875871337890625,-0.2836010338518768,-0.4096350591842085,-0.0164531221508979,0.0020541879348456,-0.0048509277403354,-0.0171147640794515
1783205679834808300,4.885808349609375,-0.2746452817190438,-0.4210070056132972,-0.016348492732644,0.0012478898279368,-0.0045395130291581,-0.012587646022439
1783205679844745200,4.8957451171875,-0.284722950553894,-0.4163934108706191,-0.0101163203448057,0.0006654560565948,-0.0056617697700858,-0.010537545196712
1783205679854682000,4.90568212890625,-0.3050117053449154,-0.4302330991201102,-0.0179471601009368,4.00096178054e-05,-0.0032653324306011,-0.013552775606513
1783205679864619300,4.915619384765625,-0.3050670157287269,-0.4262197718255222,-0.0066068509191274,0.0015132701955735,-0.0016892738640308,-0.0116952210664749
1783205679874556400,4.925556396484375,-0.3051561553169041,-0.4221507322883233,-0.0094897128790616,0.0014784196391701,-0.0056928433477878,-0.0111447488889098
1783205679884493300,4.935493408203125,-0.310429200349003,-0.4317696245050058,-0.0216430920094251,-0.0006574355065822,2.33659520745e-05,-0.0109519362449646
1783205679894431200,4.94543115234375,-0.3063887658517807,-0.4281365652322769,-0.0101338560014963,-0.0003333035856485,0.0001988131552934,-0.0150703899562358
1783205679904368000,4.9553681640625,-0.2990976589955389,-0.4243617959339171,-0.0052168578654527,-0.0022060377523303,-0.0025634178891777,-0.0126911215484142
1783205679914305300,4.96530517578125,-0.2888058359533548,-0.4171441561726853,-0.0199029703438282,0.0021769129671156,-0.0004426389932632,-0.0098693305626511
1783205679924242200,4.9752421875,-0.2952384993493557,-0.4140672329453751,-0.0121568862617015,0.001696478575468,-0.0038640014827251,-0.0118539184331893
1783205679934179300,4.985179443359375,-0.2927304620511829,-0.4165418428979814,-0.0106926589280366,-0.0002066828310489,-0.0013211863115429,-0.0115853305906057
1783205679944116500,4.995116455078125,-0.2865215974736959,-0.423671731310524,-0.0150613755315542,-0.0002114763483405,-0.0035438612103462,-0.0100686606019735
1783205679954053000,5.00505322265625,-0.2936630667261779,-0.4221672084990888,-0.0112093762785196,0.0027308333665132,-0.0039706258103251,-0.0122472131624817
1783205679963990300,5.014990234375,-0.2995625000283122,-0.4258403805864975,-0.0076484689265489,0.002006453461945,-0.0022302502766251,-0.0077209053561091
1783205679973928200,5.02492822265625,-0.2955409894272685,-0.4349876001708209,-0.0159130239248275,0.0016170805320143,-0.0011664489284157,-0.0105071989819407
1783205679983865300,5.034865234375,-0.2915492894425988,-0.4288336806509643,-0.0094984807074069,-0.0020114760845899,-0.0012460770085453,-0.0097173051908612
1783205679993802200,5.04480224609375,-0.2854718692250549,-0.4300595691841095,-0.0102770638644695,0.0005194591358304,0.0015501333400607,-0.0058412039652466
1783205680003739400,5.054739501953125,-0.281756648094207,-0.4266195117328316,-0.0136018243730068,0.0002781767398118,-0.0061197709292173,-0.0079775918275117
1783205680013676300,5.06467626953125,-0.278586566690728,-0.424643498952128,-0.0202343942552804,0.0031712134368717,-0.0019823433831334,-0.0097237909212708
1783205680023613200,5.07461328125,-0.2869253559689969,-0.4334639342674985,-0.0195154323309659,0.0012809014879167,-0.0039504198357462,-0.0095389680936932
1783205680033550300,5.08455029296875,-0.2922281385522335,-0.430674193951115,-0.0087841949582099,0.0009682239033281,-0.0033762641251087,-0.0100521706044673
1783205680043487200,5.0944873046875,-0.2968869972087443,-0.4331667048865929,-0.0056768765926361,0.0007048370316624,-0.0017235064879059,-0.0103248786181211
1783205680053425400,5.10442529296875,-0.2932412611175328,-0.4294974417893216,-0.0113923316299915,0.002834097482264,-5.5524520576e-05,-0.0121863568201661
1783205680063362300,5.1143623046875,-0.2887749293584376,-0.4319643798921257,-0.0144084645807743,-0.0005739498883485,-0.0029317382723093,-0.0142995752394199
1783205680073299200,5.12429931640625,-0.2853358217552304,-0.4278921620171517,-0.018784195446968,-0.0011349562555551,-0.002109907567501,-0.0145739167928695
1783205680083236000,5.134236083984375,-0.2803264691606164,-0.421647751202248,-0.0122404728919267,0.0014150207862257,-0.0038372334092855,-0.0152130741626024
1783205680093173200,5.14417333984375,-0.2969827126681804,-0.4191886676123365,-0.0070370590299367,0.000505968928337,-0.0054125292226672,-0.0172579567879438
1783205680103110400,5.1541103515625,-0.2983526858471333,-0.4272962419506162,-0.007681786674261,0.0025576683692634,-0.0034633614122867,-0.0218327343463897
1783205680113047300,5.16404736328125,-0.2976785859778523,-0.4262329235680401,-0.0134106857150793,0.0001210011541843,-0.0012902114540338,-0.0209927558898925
1783205680122984200,5.173984130859375,-0.3049536915473639,-0.4311049135185777,-0.0097106621533632,0.0011215503327548,-0.0040913242846727,-0.0200614482164382
1783205680132922000,5.183922119140625,-0.3023986002370715,-0.4228387510851025,-0.013051204752922,-0.0002737222239375,-0.0050862040370702,-0.0187974255532026
1783205680142859300,5.193859375,-0.2982691722821444,-0.42838717899248,-0.0126572369992733,0.0013247071765363,-0.0054774219170212,-0.021769780665636
1783205680152796200,5.203796142578125,-0.2967238425362855,-0.4298798287030309,-0.0025321488261222,0.001770940143615,-0.0047270897775888,-0.0219941046088933
1783205680162733300,5.2137333984375,-0.2972347877331078,-0.4295822339959442,-0.013051204752922,1.69826671481e-05,-0.0058650579303503,-0.0196566488593816
1783205680172670500,5.22367041015625,-0.3005499036304652,-0.4323370125968009,-0.0105535427182912,0.0032656346447765,-0.001389225013554,-0.0201082155108451
1783205680182607000,5.233607177734375,-0.3081680504839867,-0.437285063458234,-0.0058025487989187,0.0010333727113902,-0.0051591955125331,-0.0207657497376203
1783205680192544300,5.243544189453125,-0.3127094202406704,-0.4430463669313118,-0.0122813894242048,0.0003359112888574,-0.0043913880363106,-0.0188013464212417
1783205680202481200,5.253481201171875,-0.3122202484842389,-0.4438895032245665,-0.0073942019045352,0.0008935770019888,-0.0041301315650343,-0.017802394926548
1783205680212419300,5.26341943359375,-0.2973536648724228,-0.4387191148493439,-0.0030950434058904,7.52061605453e-05,-0.0012717386707663,-0.0207310933619737
1783205680222356200,5.273356201171875,-0.29154695135504,-0.4332807231876999,-0.002241641446948,-0.0008222786709666,-0.0042299777269363,-0.0174916237592697
1783205680232293400,5.28329345703125,-0.2931518292684107,-0.4279230686120688,-0.016346739166975,-0.0002127643674612,-0.0037015657871961,-0.0197654701769351
1783205680242230300,5.293230224609375,-0.2931037523429841,-0.4206001053128391,-0.0078577277630567,0.0005326541140675,-0.0012639742344617,-0.0178487934172153
1783205680252167200,5.303167236328125,-0.2958161531068384,-0.4277997710259631,-0.0080441902458667,0.0014133686199784,-0.0029354766011238,-0.0162341687828302
1783205680262104300,5.313104248046875,-0.2887444611549377,-0.4345430712737143,-0.0164630590230226,0.0017012562602758,-0.0034297592937946,-0.0186597760766744
1783205680272041200,5.323041259765625,-0.2953540885530412,-0.4327127871066331,-0.0057265609532594,0.0035161436535418,-0.0012575471773743,-0.0178787037730216
1783205680281978400,5.332978271484375,-0.299744724727422,-0.4286258831191807,0.0032183775246143,1.56853348016e-05,-0.0037454720586538,-0.0162602998316288
1783205680291915300,5.342915283203125,-0.3037965574014932,-0.4291396413275972,-0.0086398180514574,0.0004771910607814,-0.0030326824635267,-0.016353478655219
1783205680301853200,5.352853271484375,-0.2950928072683513,-0.433878616015613,-0.0103238256156444,-0.0003017829731106,-0.0027384031563997,-0.0192792266607284
1783205680311790300,5.362790283203125,-0.2866544300731271,-0.4282684479836374,-0.0143938515335321,0.0005098730325698,-0.0016178898513317,-0.0182582587003707
1783205680321727200,5.372727294921875,-0.2878406441830098,-0.4234435120452195,-0.0073977090358734,-0.0010115914046764,-0.001764097250998,-0.017070222645998
1783205680331664400,5.382664306640625,-0.2803263960953802,-0.4320345225188881,-0.0083235917091369,-0.0012841187417507,-0.0027573332190513,-0.0175058096647262
1783205680341601300,5.392601318359375,-0.2881651268970221,-0.4341130823586135,-0.0050759880900382,0.0010759746655821,-0.0063254358246922,-0.0177271179854869
1783205680351538200,5.4025380859375,-0.2909465012438595,-0.4465227743376046,-0.0171013569265604,0.0024423520080745,-0.0059474287554621,-0.0169627405703067
1783205680361475300,5.412475341796875,-0.2895614035610109,-0.4342444536533206,-0.0111684597462415,-0.0013236245140433,-0.0049894899129867,-0.0151075823232531
1783205680371413200,5.422413330078125,-0.2878116372842341,-0.4455743875715881,-0.0056879825085401,0.0021904725581407,-0.0061894133687019,-0.0144202876836061
1783205680381350400,5.432350341796875,-0.2907015135068446,-0.4406638922415673,-0.0054337154865264,0.0007038959302008,-0.0042559579014778,-0.0144700873643159
1783205680391287300,5.442287353515625,-0.2875345739085227,-0.4370225035319104,-0.0065302785515785,-0.0010054633021354,-0.0043926201760768,-0.0116301290690898
1783205680401224400,5.452224365234375,-0.2869872422240674,-0.4419263864580541,-0.0076215809196233,-0.0007284944877028,-0.0046597346663475,-0.0097155831754207
1783205680411161000,5.4621611328125,-0.2852981200933456,-0.4336106127291917,-0.0223246445327997,-3.90000641345e-05,-0.0027176495641469,-0.0104125533252954
1783205680421098200,5.47209814453125,-0.2910162054792046,-0.4345242935080081,-0.0098012630462646,-0.0007452704012393,-0.0023575900122523,-0.0133809130638837
1783205680431035400,5.482035400390625,-0.3032012949220836,-0.4281033936150372,-0.0125368254899978,-0.0009399140253663,-0.0031215297058224,-0.0155927538871765
1783205680440972300,5.49197216796875,-0.3072336191780865,-0.445152910756506,-5.8452188968e-06,0.0020995512604713,-0.0035156775265932,-0.0148041918873786
1783205680450910200,5.50191015625,-0.2969694878604262,-0.4421599029529839,0.0018938509225845,-0.000262607820332,-0.0038283122703433,-0.0139384940266609
1783205680460847400,5.511847412109375,-0.3011380057167261,-0.4403904821276664,-0.0029337153643369,0.0008966666646301,-0.0003656707704067,-0.0137571329250931
1783205680470783700,5.52178369140625,-0.2973798222269863,-0.4431083627842366,-0.0104448216468095,0.0010601161047816,-0.0031963838264346,-0.0181816667318344
1783205680480720600,5.531720703125,-0.3021097002930939,-0.4374073015984147,-0.0088426471471786,0.0007437323220074,-0.0034978538751602,-0.0165171921253204
1783205680490657800,5.54165771484375,-0.2993469575814902,-0.4446554460957646,-0.0091857614964246,0.0003391085192561,-0.0034275045618414,-0.0171619094908237
1783205680500594700,5.5515947265625,-0.3039158729322254,-0.4397659935537725,-0.0168488434702157,-0.0011549247428774,-0.0033593270927667,-0.0166609697043895
1783205680510531600,5.561531494140625,-0.3041412061206996,-0.4407872263602912,-0.0058194999337196,0.0008789147250354,-0.0043229386210441,-0.0188757646828889
1783205680520468700,5.57146875,-0.3076969258408993,-0.4355113317839801,0.0011725509107112,0.0006762482225894,-0.0029623294249176,-0.0193676501512527
1783205680530406700,5.58140673828125,-0.3161751966550946,-0.4388046377083286,0.0024883096843957,-0.0004068426787853,-0.0007328912615776,-0.0188410319387912
1783205680540343800,5.59134375,-0.3098583416584879,-0.4445462135676294,-0.0113198509156703,0.0032829670235514,-0.0055052759125828,-0.020754512399435
1783205680550280700,5.60128076171875,-0.3028927404295652,-0.4346537651065736,0.0001578209102153,0.002609877847135,-0.002336710691452,-0.0190648138523101
1783205680560217600,5.611217529296875,-0.3084851536091417,-0.4375908414717763,-0.0046761751174926,-0.0015060370787978,-0.0050158509984612,-0.0166858118027448
1783205680570154800,5.62115478515625,-0.3015921792250126,-0.446869468883425,-0.0107119481503963,0.0022652652114629,-0.0049414951354265,-0.0193223413079977
1783205680580091600,5.631091552734375,-0.294582884984836,-0.4395222479257732,0.003444587495923,-0.0014056358486413,-0.0051215253770351,-0.0157853960990905
1783205680590028800,5.64102880859375,-0.3012209347598255,-0.4381651342283934,9.58615899085e-05,-0.0005279444158077,-0.0043107066303491,-0.0181058794260025
1783205680599966700,5.650966796875,-0.2928657788686454,-0.4446333438618108,-0.0051888008147478,0.0011786096729338,-0.0043298816308379,-0.0157143604010343
1783205680609903600,5.660903564453125,-0.2789985084924847,-0.4388364941513165,-0.0058346975028514,0.0030236477032303,-0.0039841206744313,-0.0155713483691215
1783205680619840500,5.670840576171875,-0.2843318323444574,-0.4229970469193533,-0.0043804070413112,-0.0034036254510283,-0.0038341842591762,-0.0138546749949455
1783205680629777700,5.680777587890625,-0.2770229706358164,-0.4244135261211544,-0.008629296657443,0.0024507292546331,-0.0057768765836954,-0.0143477460369467
1783205680639714800,5.69071484375,-0.2803382326636463,-0.4385447811957448,-0.0101858784496784,0.0022227624431252,-0.0036894911900162,-0.013563978485763
1783205680649651700,5.700651611328125,-0.2948810642138123,-0.4369365788141265,-0.0103846158921718,0.0011749668046832,-0.0053068306297063,-0.0150295924395322
1783205680659588600,5.710588623046875,-0.3064160922501236,-0.4368790034079924,-0.0090869772970676,0.0013888184912502,-0.0024399375542998,-0.0167558528482913
1783205680669525500,5.720525390625,-0.3097906101845205,-0.4421359375555068,-0.0038935003072023,0.0002844054251909,-0.0028956048190593,-0.0137123921886086
1783205680679463700,5.730463623046875,-0.3110061234541237,-0.4507532515142112,-0.0073848495543003,0.0024506212212145,-0.0033331615850329,-0.01667888648808
1783205680689400600,5.740400634765625,-0.3066354340892285,-0.4556528601240366,-0.0069774377971887,0.0008667591027915,-0.0005812961608171,-0.0160734616219997
1783205680699337700,5.750337646484375,-0.3021006402038038,-0.4407643934739753,-0.007319967624545,0.0009170928969979,-0.0071497168391942,-0.0181352794170379
1783205680709275000,5.76027490234375,-0.2952693328790367,-0.43656763590388,-0.0193482590705156,0.0010893242433667,-0.0069371182471513,-0.0182737149298191
1783205680719211500,5.77021142578125,-0.3085493048865348,-0.4455460382599383,-0.0105845223784446,3.5539269447e-06,-0.0026020240038633,-0.0188646707683801
1783205680729148700,5.780148681640625,-0.3130119103185832,-0.4522982889991253,-0.0085433719396591,0.0014479253441095,-0.0061744805425405,-0.0215710792690515
1783205680739085600,5.79008544921875,-0.3167204094476997,-0.4578639237696305,-0.0066407531887292,-0.0005822023376822,-0.0035739038139581,-0.0189920738339424
1783205680749023700,5.800023681640625,-0.3115144383024424,-0.4565381915912032,-0.0132598790675401,-0.0013092346489429,-0.0003625638782978,-0.022228293120861
1783205680758960600,5.809960693359375,-0.3086054189879447,-0.4535742272190749,0.0022568390160799,0.0010974644683301,-0.0024435576051473,-0.019439697265625
1783205680768897800,5.819897705078125,-0.2992087912198156,-0.447453113990277,-0.0084153616458177,-0.0012923758476972,-0.0032515628263354,-0.0192722734063863
1783205680778834700,5.829834716796875,-0.2891503385420888,-0.4350861651744693,-0.0074321958273649,0.0002693012356758,-0.0075256694108247,-0.0185111425817012
1783205680788771600,5.839771484375,-0.2895833961971104,-0.428949342919886,0.0065706105619668,0.0017020520754158,-0.0061102481558918,-0.0163000337779521
1783205680798708700,5.849708740234375,-0.2970711216039955,-0.4423565215036272,-0.0085918872565031,-0.0012809550389647,-0.0038883723318576,-0.0189014095813035
1783205680808645600,5.859645751953125,-0.2914199639745056,-0.4415727141821757,-0.0029547581523656,0.0014840774238109,-0.0026502190157771,-0.014208729378879
1783205680818582800,5.869582763671875,-0.2878597872748971,-0.4468409003760665,-1.16904377937e-05,0.0007479796186089,-0.0054063247516751,-0.0136502645909786
1783205680828520700,5.879520751953125,-0.2865203553646803,-0.4529666167147457,-0.0076934771120548,-0.0012998217716813,-0.0044385120272636,-0.011919230222702
1783205680838457600,5.88945751953125,-0.2898453350689262,-0.4437462222963571,0.0016764087796211,0.0002671824768185,-0.0061719631776213,-0.0090289022773504
1783205680848394800,5.899394775390625,-0.2899018875617534,-0.4419228427940979,-0.0024228432327508,0.0031031579710543,-0.0043136561289429,-0.008987202309072
1783205680858331600,5.90933154296875,-0.2928808303073048,-0.4540357437836006,0.0052934302330017,0.0033918446861207,-0.0062995757907629,-0.0056593157351017
1783205680868268800,5.919268798828125,-0.3100491149902343,-0.4487183116205036,0.007620411875844,0.0003956705331802,-0.0075492579489946,-0.0074387583881616
1783205680878205700,5.929205810546875,-0.3091628336749971,-0.4500571224762126,0.0145931734979152,0.0011549382470548,-0.004298604093492,-0.0046490966342389
1783205680888142600,5.939142578125,-0.3028795156218111,-0.4485797068674117,0.0139437696784734,-0.0005511101335287,-0.0064265821129083,-0.0065438859164714
1783205680898080500,5.94908056640625,-0.2930866550777107,-0.4416561181493103,0.0167336926579475,-0.00041289255023,-0.003419074229896,-0.0051305461674928
1783205680908017700,5.959017578125,-0.2903946395147592,-0.4493628200691193,0.0072562547385692,0.0026111826300621,-0.0042187208309769,-0.003225159831345
1783205680917954600,5.96895458984375,-0.2863506248209625,-0.4428641787648201,0.0185778592199087,0.0010732072405517,-0.006081867031753,-0.0048233228735625
1783205680927891700,5.9788916015625,-0.2964816312782466,-0.4440841490138322,0.0185229141622781,0.0024997168220579,-0.0036656633019447,-0.0065797329880297
1783205680937828900,5.988828857421875,-0.3001208645634353,-0.4525977103371172,0.0172872348874807,0.0009588114917278,-0.0025543263182044,-0.0080362148582935
1783205680947765500,5.998765625,-0.3085145988993346,-0.4571377649195492,0.0205295778095722,0.000950037036091,-0.0049761245027184,-0.0079118255525827
1783205680957702700,6.00870263671875,-0.3081578213509172,-0.4501910510541871,0.0207739079594612,-0.0012015309184789,-0.0039247078821063,-0.0095712412148714
1783205680967640600,6.018640625,-0.2976773438688367,-0.4474651697542518,0.0201361945778131,0.002503196708858,-0.0047577274963259,-0.0086196642369031
1783205680977577700,6.02857763671875,-0.2874184001829475,-0.4433540081083774,0.0173830964773893,-0.000735473819077,-0.0074299443513154,-0.0084154000505805
1783205680987514600,6.0385146484375,-0.2875015484217554,-0.4458833804555237,0.022275544694066,-9.59383323788e-05,-0.002265341579914,-0.0110696414485573
1783205680997451800,6.04845166015625,-0.2974035684287548,-0.4485656783420592,0.0261275439471006,0.001186373643577,-0.002377993427217,-0.008544698357582
1783205681007388700,6.058388671875,-0.2995289630848914,-0.4494694953139871,0.027275544938445,-0.0014757039025425,-0.0064106862992048,-0.0109451822936534
1783205681017325600,6.06832568359375,-0.3151323365386575,-0.4465721664372831,0.0290115749508142,0.0011251391842961,-0.0050058690831065,-0.0122432075440883
1783205681027262700,6.0782626953125,-0.3149642864953726,-0.45249815895278,0.0276011236310005,-0.0001581227406859,-0.0072545204311609,-0.0138683980330824
1783205681037199600,6.08819970703125,-0.3186760735601187,-0.4435698428161442,0.0224596690893173,-0.0019975677132606,-0.0043362276628613,-0.0131157888099551
1783205681047137800,6.0981376953125,-0.3102037940952927,-0.447157820838131,0.0306301160633564,0.0046872925013303,-0.0064456081017851,-0.0121768051758408
1783205681057074700,6.10807470703125,-0.3070744100283831,-0.4427048600172624,0.0304179346174001,-0.0019165482372045,-0.0059715649113059,-0.0123989125713706
1783205681067011600,6.118011474609375,-0.2992107639811933,-0.4475017023723572,0.0270692087113857,-0.0007319552823901,-0.0049496535211801,-0.0132298218086361
1783205681076948700,6.12794873046875,-0.3027011633802205,-0.4450300150291994,0.0220697929888963,0.0009570219554007,-0.0042162192985415,-0.0141555368900299
1783205681086885600,6.1378857421875,-0.3051355509202927,-0.4559044237323105,0.0136187755078077,-0.0001716464757919,-0.0062664989382028,-0.0127334054559469
1783205681096822800,6.14782275390625,-0.311340323844552,-0.4526542262973264,0.0294224938392639,-0.0005234498530626,-0.0055642239749431,-0.0130417998880147
1783205681106759700,6.157759765625,-0.3151000417042523,-0.4519510464640334,0.0266781635671854,-0.0005308939144015,-0.0055353865027427,-0.0146325603127479
1783205681116696600,6.167696533203125,-0.2993091828543692,-0.4586122944515198,0.0448860204309225,0.0005588717758655,-0.0038996739313006,-0.014014440588653
1783205681126634500,6.177634521484375,-0.3050418812874704,-0.4609236036011949,0.0301613295078277,1.68718397617e-05,-0.0052843708544969,-0.0119769433513283
1783205681136571600,6.187571533203125,-0.297233472558856,-0.4661784188568592,0.0350192909330129,0.0021937396377325,-0.0072548426687717,-0.0125031843781471
1783205681146508800,6.1975087890625,-0.2925073938850313,-0.4499914368288591,0.0243237093955278,0.0016724821180105,-0.0077508566901087,-0.0109709091484546
1783205681156445700,6.20744580078125,-0.30072277597934,-0.4565985069436952,0.0368155267000198,0.0006197346374392,-0.0060315197333693,-0.0114564029499888
1783205681166382800,6.2173828125,-0.305135331724584,-0.4588437285872176,0.029562194570899,0.0001567769795656,-0.0042645772919058,-0.0062882900238037
1783205681176319500,6.227319580078125,-0.3033005905780941,-0.4556858125455677,0.0323486104190349,0.0018537426367402,-0.0025550946593284,-0.0023476101923733
1783205681186256600,6.237256591796875,-0.3075924425531178,-0.4603735685029998,0.0378413626164197,-0.00348337367177,-0.0029023708775639,-0.0033273871522396
1783205681196193800,6.24719384765625,-0.3041715281937271,-0.4542901934687048,0.0389893636077642,-0.0003016954287886,-0.0035492526367306,-0.0040155481547117
1783205681206131700,6.257131591796875,-0.3020794512853026,-0.4588384313575923,0.0315951617032289,0.0010012467391788,-0.0037533175200223,-0.0021391024347394
1783205681216068900,6.26706884765625,-0.2970734596915543,-0.4622241282731294,0.0360246685832738,0.0007746117189526,-0.0060303211212158,-0.003459763713181
1783205681226005800,6.277005859375,-0.2887238567583263,-0.4528167599152773,0.0319201558738946,0.0030947118066251,-0.0066748056560754,-0.0039987876079976
1783205681235942700,6.286942626953125,-0.2968857550997287,-0.4522956221180036,0.0339554610937833,0.0002477932721376,-0.0056207254528999,-0.0028112842701375
1783205681245879600,6.296879638671875,-0.2946539774596691,-0.4642361622152849,0.0326975699871778,-0.0014750994741916,-0.0059712100774049,-0.005220309831202
1783205681255816700,6.306816650390625,-0.3025890813078731,-0.4670684630317613,0.0326344416230916,0.0003483667969703,-0.0030803475528955,-0.004189932718873
1783205681265753900,6.31675390625,-0.3045809857774526,-0.4534047158710658,0.0397685312867164,-0.0025376304984092,-0.0037474846467375,-0.0030488211195915
1783205681275690800,6.326690673828125,-0.3063926383092999,-0.4559265990315005,0.0359650473505258,0.0013500517234206,-0.0055837333202362,-0.0061868233606219
1783205681285627600,6.336627685546875,-0.3062014996513724,-0.4528890214338898,0.0339502003967761,-0.000528865493834,-0.0069662798196077,-0.0071888286620378
1783205681295565600,6.346565673828125,-0.3131020728200674,-0.4538003275925293,0.0401706823468208,0.0014727665111422,-0.006515672430396,-0.0044497675262391
1783205681305502700,6.356502685546875,-0.3086882019005715,-0.457885952938348,0.0497001427143812,0.0015979101881384,-0.00123140681535,-0.0064234798774123
1783205681315439600,6.366439697265625,-0.3009253858793527,-0.4610728393461555,0.0435129785120487,-0.0007113171741366,-0.003160866908729,-0.0104919904842972
1783205681325376800,6.376376708984375,-0.2977881838321685,-0.4540208384754136,0.0504927543967962,0.0003519123420119,-0.0055082263424992,-0.0125987567007541
1783205681335314000,6.38631396484375,-0.3089949297621846,-0.4484752966448664,0.0411357279866933,0.0031255944631993,-0.0091514298692345,-0.0088535537943243
1783205681345250600,6.39625048828125,-0.3116328039851039,-0.4541162251412868,0.037907998111844,-3.61623242497e-05,-0.0062969708815217,-0.013209082186222
1783205681355187700,6.406187744140625,-0.3167169753815979,-0.4488041998056694,0.0430780942261219,0.0017148656770586,-0.0050495462492108,-0.0144834052771329
1783205681365124600,6.41612451171875,-0.3221584357831626,-0.456307999564521,0.0515460628420114,0.0015869080089032,-0.0041057495400309,-0.0154391974210739
1783205681375061800,6.426061767578125,-0.3308410700630396,-0.463932247365266,0.0532750785917043,0.0004875548183917,-0.0071039358153939,-0.0182789247483015
1783205681384999700,6.435999755859375,-0.3273882261954248,-0.4662750110991299,0.0481195955246686,0.0014195316471159,-0.0057294238358736,-0.0205822065472602
1783205681394936800,6.445936767578125,-0.3232598942190408,-0.4562370166875422,0.0540408022671937,0.0005127256736159,-0.0073488932102918,-0.0196221359074115
1783205681404873700,6.455873779296875,-0.3166312698595225,-0.4707708977462723,0.0449789594113826,0.0017059198580682,-0.0084601864218711,-0.021167267113924
1783205681414810600,6.465810546875,-0.3107815939832478,-0.4646449987445026,0.0432487746179103,0.0025810347869992,-0.0063592195510864,-0.021273260936141
1783205681424747800,6.475747802734375,-0.3193572607573121,-0.4624665952594951,0.0398807594895362,0.0008476730436086,-0.0093964040279388,-0.0218115411698818
1783205681434684700,6.4856845703125,-0.3044014644920825,-0.4598943701513111,0.0432411758333444,0.0029992409981787,-0.0055462718009948,-0.019658375531435
1783205681444621800,6.495621826171875,-0.30488647153005,-0.4515487858060747,0.0507949522137641,0.0019464534707367,-0.0063774324953556,-0.0189515221863985
1783205681454558700,6.505558837890625,-0.3104048696253448,-0.4681728075444698,0.0507248095870018,0.0015312666073441,-0.0065603926777839,-0.0153053887188434
1783205681464497000,6.515496826171875,-0.3016670710921287,-0.4634850150544196,0.0454120901316404,-0.0005210600793361,-0.0081269480288028,-0.0165195949375629
1783205681474433800,6.525433837890625,-0.3042570145200938,-0.4604834220856428,0.0511702152669429,0.0011277026496827,-0.005270441994071,-0.0158114619553089
1783205681484372000,6.5353720703125,-0.3079815149359405,-0.4574706136031076,0.044814124238491,0.0014675087295472,-0.007625869475305,-0.0133241768926382
1783205681494308900,6.545308837890625,-0.307223390045017,-0.460113346664235,0.0387456179797649,0.0025764494203031,-0.0059717809781432,-0.0126549247652292
1783205681504246000,6.55524609375,-0.2992139788515865,-0.4628328347560018,0.0546808537364006,0.001442389562726,-0.008604273200035,-0.0097373947501182
1783205681514183200,6.56518310546875,-0.2947717586204409,-0.4649851904843002,0.0469599040955305,0.0034240474924445,-0.0082729756832122,-0.0126761933788657
1783205681524119800,6.575119873046875,-0.2975516716625541,-0.4598567050220444,0.0441933619916439,0.0009636632166802,-0.0059771165251731,-0.0103864930570125
1783205681534057000,6.585056884765625,-0.3037229807086288,-0.4557108373889699,0.050114568734169,0.0020089535973966,-0.0043211635202169,-0.0098333545029163
1783205681543993900,6.594993896484375,-0.3010257775139063,-0.4615833461515605,0.0478144750982522,-0.0005260603502392,-0.0055543687194585,-0.0100145442411303
1783205681553931000,6.604930908203125,-0.3065581310693174,-0.462654080655612,0.0468465068489313,0.0041816090233623,-0.005229995585978,-0.0095183970406651
1783205681563868200,6.6148681640625,-0.3042163902487605,-0.4667519809611141,0.047505263018608,0.0022288211621344,-0.0078948065638542,-0.0096364617347717
1783205681573804800,6.6248046875,-0.3013581512734293,-0.466323234155029,0.053421209064126,0.0005566226318478,-0.0068820063024759,-0.0096327327191829
1783205681583742000,6.634741943359375,-0.3124952660333365,-0.4634109269049018,0.0617249270290136,0.0017829686403274,-0.0060411002486944,-0.0067155649885535
1783205681593680000,6.644679931640625,-0.3159840579971671,-0.4560092358136549,0.0662982262939214,0.0033678160980343,-0.0054022073745727,-0.0110418694093823
1783205681603617000,6.654616943359375,-0.3127018214561045,-0.4615191948741674,0.0575514407366514,0.0016628140583634,-0.0060673216357827,-0.0093044824898242
1783205681613554000,6.664553955078125,-0.3117684861287474,-0.4534050811972469,0.0534393292427062,0.0012502903118729,-0.0057296315208077,-0.0090243183076381
1783205681623491000,6.674490966796875,-0.3164783443201333,-0.4663505605533719,0.0487245756804943,0.0023366236127913,-0.0056115910410881,-0.01264732144773
1783205681633428000,6.684427978515625,-0.3148096804555505,-0.4636164594143628,0.0495364765852689,0.0032442291267216,-0.007740257307887,-0.0090323463082313
1783205681643364900,6.69436474609375,-0.319088599883765,-0.4653099654592573,0.0446726699411869,0.0007502008229494,-0.0070162769407033,-0.0065618893131613
1783205681653302000,6.704302001953125,-0.3154715784303843,-0.4645046769583597,0.0631558366149663,-0.0001866994425654,-0.0067339818924665,-0.0105614243075251
1783205681663239000,6.714239013671875,-0.3076040599256753,-0.4723865527819841,0.0575426729083061,0.0010915733873844,-0.0056514050811529,-0.004631582647562
1783205681673176000,6.724176025390625,-0.3094100864343345,-0.4727012447543442,0.0541805029988288,0.0038514072075486,-0.0055299643427133,-0.0090162102133035
1783205681683113000,6.734113037109375,-0.3143029730424285,-0.454768551570177,0.0505143817067146,0.0023071309551596,-0.0072219185531139,-0.0104781035333871
1783205681693049900,6.7440498046875,-0.3096386344932019,-0.459575148134306,0.0504161820292472,0.0018698396161198,-0.0090754777193069,-0.0077345147728919
1783205681702987000,6.753987060546875,-0.3274905175261199,-0.468066497625783,0.0560217469513416,0.0018849759362637,-0.0063069993630051,-0.0112144891172647
1783205681712924000,6.763923828125,-0.3238362328022718,-0.4707859857175498,0.058937926658988,0.0025568916462361,-0.0047690235078334,-0.0088535975664854
1783205681722862000,6.773862060546875,-0.3179708479002118,-0.4749665593378245,0.0534638791620731,-0.0001125782728195,-0.0071315579116344,-0.0093708205968141
1783205681732799000,6.783799072265625,-0.3143978117190301,-0.4698174694789573,0.0712041185140609,-0.0011040726676583,-0.0050393780693411,-0.0113671254366636
1783205681742736000,6.79373583984375,-0.3173002551622688,-0.4606564040323719,0.0613999328583478,0.0008579213172197,-0.0088610537350177,-0.0111985355615615
1783205681752673000,6.803673095703125,-0.3082469609390944,-0.4599444929033517,0.050536009016633,0.0033527710475027,-0.005400275811553,-0.0121412947773933
1783205681762610000,6.81360986328125,-0.3091207480989396,-0.4663865817148238,0.0534422518521547,0.000510511919856,-0.0074421148747205,-0.0143502466380596
1783205681772547000,6.823547119140625,-0.2940188213612884,-0.4645815050542354,0.0548445198655128,-0.000957422889769,-0.0080618318170309,-0.0115933418273925
1783205681782484000,6.83348388671875,-0.3059128189031034,-0.4603314098617062,0.0631342093050479,0.0032495418563485,-0.0090609695762395,-0.0114011289551854
1783205681792420900,6.8434208984375,-0.3084665219739079,-0.4687288339920342,0.0621545506179332,-0.0013926140964031,-0.0080931764096021,-0.0121276397258043
1783205681802358000,6.85335791015625,-0.3106877051547169,-0.4659717173036187,0.0625181232333183,0.0010931710712611,-0.0059115067124366,-0.0114248655736446
1783205681812295000,6.863294921875,-0.3058980597253888,-0.4716529047451913,0.0601905570685863,-0.0015012808144092,-0.0101054515689611,-0.0077022989280521
1783205681822232000,6.873232177734375,-0.307705839799717,-0.4771127775862813,0.0593488455474376,-0.0004388419911265,-0.0083613470196723,-0.0044244802556931
1783205681832169000,6.8831689453125,-0.2983168838813901,-0.4739139815449714,0.0631488223522901,-7.39889219403e-05,-0.0073554720729589,-0.0094173736870288
1783205681842105900,6.89310595703125,-0.3014462679482996,-0.4636162402186543,0.0621545506179332,-0.001276921480894,-0.0091361505910754,-0.0072786635719239
1783205681852043000,6.90304296875,-0.3067400635074824,-0.4646317008715123,0.0593722264230251,0.0023513692431151,-0.006812541745603,-0.006641901563853
1783205681861981000,6.91298095703125,-0.3101991179201752,-0.4600359705790877,0.0697527506619691,0.0005080504342913,-0.0083868699148297,-0.0079223308712244
1783205681871918000,6.92291796875,-0.3172166685320436,-0.4735530392780899,0.0575227991640567,-0.0005217939615249,-0.0118186203762888,-0.0068844966590404
1783205681881855000,6.93285498046875,-0.3230104495026171,-0.475970402618125,0.0550163693010807,0.0014089914038777,-0.0127403829246759,-0.0058801639825105
1783205681891792100,6.942792236328125,-0.3237186708372086,-0.4856683148877695,0.0598538724601268,0.0022646654397249,-0.0065916776657104,-0.0076277307234704
1783205681901728800,6.952728759765625,-0.3299382760044187,-0.4762512653861194,0.0664957946926355,0.0015395311638712,-0.0091676283627748,-0.0087694050744175
1783205681911666000,6.962666015625,-0.3224509159237146,-0.4660721089381724,0.068790627631545,0.0011730804108083,-0.0102424807846546,-0.0073467437177896
1783205681921603000,6.97260302734375,-0.3237617062613367,-0.4680665706910192,0.0770715492427349,0.0023186202161014,-0.0091767627745866,-0.0059570474550127
1783205681931540000,6.9825400390625,-0.3145249452300369,-0.471572386854887,0.0593190349310636,0.0027551120147109,-0.0088459979742765,-0.0061368104070425
1783205681941477000,6.99247705078125,-0.3018414047457277,-0.4683757827706635,0.0620645342469215,0.0018699704669415,-0.0075162015855312,-0.0083070797845721
1783205681951413800,7.002413818359375,-0.3092898210555315,-0.4768761192861944,0.0517886394262313,-0.0001987731084227,-0.0102685783058404,-0.0084982952103018
1783205681961351000,7.012350830078125,-0.3101208650521934,-0.4751084520265459,0.0629085838556289,0.0017657983116805,-0.0107033476233482,-0.0098967887461185
1783205681971288000,7.0222880859375,-0.3061138944331556,-0.470657463967055,0.0648942047148943,0.0002019898965954,-0.0112463645637035,-0.0077697220258414
1783205681981225000,7.032224853515625,-0.3060059770792722,-0.4723920326747,0.0605962152600288,0.0010004406794905,-0.0099114906042814,-0.0054892702028155
1783205681991161900,7.042161865234375,-0.3045169075652957,-0.4699952006660401,0.0729185212165117,-0.000550583936274,-0.008626515045762,-0.0079060895368456
1783205682001098800,7.0520986328125,-0.3028483898311853,-0.4578962916692718,0.0596381838828325,-0.0016752118244767,-0.0112277688458561,-0.0117764845490455
1783205682011036000,7.062035888671875,-0.3060420713059604,-0.4665001616245135,0.0574380434900522,0.0020292452536523,-0.0110890185460448,-0.0096688587218523
1783205682020973000,7.07197314453125,-0.302961275621131,-0.4752110356181859,0.0523790065348148,0.0027474919334053,-0.011874284595251,-0.0121706463396549
1783205682030910000,7.081909912109375,-0.3029536768365651,-0.4730979159217328,0.0570686256557703,0.0019038021564483,-0.0066590160131454,-0.0120532009750604
1783205682040846800,7.091846923828125,-0.3013423691824078,-0.4711556958127766,0.0536778141736984,0.0048793065361678,-0.0101242363452911,-0.0089329229667782
1783205682050784800,7.10178466796875,-0.3074172321166843,-0.4712126136317849,0.0580617283463478,-0.0006044087931513,-0.0097346156835556,-0.0112610580399632
1783205682060722000,7.111721923828125,-0.3063074442438781,-0.4664661497570574,0.0765104082286357,0.0023374441079795,-0.0084675010293722,-0.0105304243043065
1783205682070658800,7.121658935546875,-0.3121851771708577,-0.4715879497501999,0.0749012194663286,0.0028844573535025,-0.0106986965984106,-0.0096955234184861
1783205682080596000,7.131595947265625,-0.3126848703213036,-0.4717033197581767,0.0568336478561162,0.0015272041782736,-0.0094289472326636,-0.0074760825373232
1783205682090533000,7.141533203125,-0.3213984111960977,-0.4733274868939071,0.0535655859708786,0.0041959579102694,-0.0122969048097729,-0.010674538090825
1783205682100469800,7.1514697265625,-0.3302179697286337,-0.4806817221142351,0.0740998399555683,-0.000327480956912,-0.0104937460273504,-0.006573783699423
1783205682110407000,7.161406982421875,-0.3267531431622803,-0.4813053339052945,0.0666536156028509,0.0001761224120855,-0.0096085127443075,-0.0074507626704871
1783205682120343800,7.17134375,-0.3327149011109024,-0.4786790770549327,0.0674479808509349,0.0003979532048106,-0.0099505316466093,-0.0071313148364424
1783205682130281000,7.181281005859375,-0.3245565099008381,-0.4759414322519674,0.0784106888920068,0.0017870585434138,-0.008945720270276,-0.0094815548509359
1783205682140218000,7.191218017578125,-0.3146679338973015,-0.4777651405477896,0.0757476071625948,0.0010805809870362,-0.01049580052495,-0.0104346517473459
1783205682150154800,7.20115478515625,-0.3138767835196107,-0.4819346082521602,0.0578232434153556,-0.0004640519618988,-0.0110239051282405,-0.0077682943083345
1783205682160092000,7.211091796875,-0.3244236773014068,-0.4709229099702089,0.0678764353960752,0.0041529643349349,-0.0105028990656137,-0.0091458726674318
1783205682170028800,7.22102880859375,-0.3262712048642337,-0.4817117958143353,0.0700064331620931,0.0042086243629455,-0.0112789440900087,-0.0089163081720471
1783205682179966000,7.230966064453125,-0.3307417744070291,-0.4844326721455901,0.0634516046911478,0.0026512071490287,-0.0093413908034563,-0.0099567715078592
1783205682189903000,7.240903076171875,-0.330135917468369,-0.4932583681579679,0.0649801294326782,0.0001257313415408,-0.0113009456545114,-0.0121171278879046
1783205682199839700,7.25083984375,-0.3238679431147873,-0.4846831397753208,0.0642681817710399,-0.0012452704831957,-0.0076690297573804,-0.0111192753538489
1783205682209777000,7.26077685546875,-0.306513634340465,-0.4688215903094038,0.0679079995781183,0.0006501008756458,-0.0099052861332893,-0.0123525848612189
1783205682219714000,7.270714111328125,-0.2918926229875535,-0.4633827237237244,0.0654155982404947,0.0004225820302963,-0.0075315441936254,-0.0161705370992422
1783205682229651000,7.28065087890625,-0.2969160041075199,-0.4670578320398926,0.0672550886273384,-0.0017361771315336,-0.0131673254072666,-0.0156429652124643
1783205682239588000,7.290588134765625,-0.3014733020856976,-0.4751746491305529,0.0599345364809036,0.0022010393440723,-0.0120231369510293,-0.0181271508336067
1783205682249524700,7.300524658203125,-0.3285311126202345,-0.4800075491797179,0.0717699357032775,0.0023618941195309,-0.0165177546441555,-0.0189892165362834
1783205682259462000,7.3104619140625,-0.333656054418534,-0.475259587467648,0.0704161830067634,0.0024317381903529,-0.0117443446069955,-0.0208443887531757
1783205682269399000,7.32039892578125,-0.3354470294885337,-0.4805564152341335,0.0589092850863933,0.0008942950516939,-0.0101986471563577,-0.0208872649818658
1783205682279336000,7.3303359375,-0.3220250186618417,-0.4772084565130993,0.0595423222929239,0.0019623856060206,-0.0098428996279835,-0.0274142026901245
1783205682289273000,7.340273193359375,-0.3101280985105782,-0.4726818094015121,0.065415013718605,-0.0001662792637944,-0.0111814038828015,-0.0268187206238508
1783205682299209700,7.350209716796875,-0.3017529958099126,-0.4763489536069333,0.0663286214321851,0.0028369971551001,-0.0144392903894186,-0.0279533751308918
1783205682309147000,7.36014697265625,-0.299288651522994,-0.4777689764726907,0.0661854135692119,0.0029879980720579,-0.0157756656408309,-0.0309076197445392
1783205682319084000,7.370083984375,-0.3051454147271811,-0.4770802635561674,0.0676823741286993,0.0013472978025674,-0.0157487988471984,-0.0324968062341213
1783205682329021000,7.38002099609375,-0.317436521827802,-0.4869838909983635,0.0672223554015159,0.0009960266761481,-0.0141224060207605,-0.030224597081542
1783205682338958000,7.3899580078125,-0.3261752702090889,-0.4888047497499734,0.0664659840762615,0.0022451025433838,-0.0143208773806691,-0.0312370173633098
1783205682348894700,7.399894775390625,-0.319711407957226,-0.4934380721064284,0.0636333909988403,0.0006823595613241,-0.0097764609381556,-0.0267519876360893
1783205682358831900,7.409831787109375,-0.3177781748723238,-0.4841122080195695,0.0735392834633588,0.0022255596704781,-0.0108673125505447,-0.0256223939359188
1783205682368769000,7.41976904296875,-0.3127020406518131,-0.4807829539990052,0.0734054279506206,0.0010178158991038,-0.0112444162368774,-0.0233342051506042
1783205682378706000,7.429705810546875,-0.3174379831325262,-0.4870595865830778,0.0647369683265686,0.0003961510956287,-0.0116976452991366,-0.016999376937747
1783205682388644000,7.43964404296875,-0.3224350607674568,-0.4874047832915559,0.063995794570446,0.0002166535705327,-0.0143762538209557,-0.0160933695733547
1783205682398581000,7.4495810546875,-0.3308814751386642,-0.487890374851413,0.0779202750265598,0.000868157017976,-0.0107451267540454,-0.0163264703005552
1783205682408518000,7.459517822265625,-0.3404438879277557,-0.4924137705599888,0.0785468824923038,0.0043462449684739,-0.0083661247044801,-0.0123519692569971
1783205682418454800,7.469454833984375,-0.3395256771042942,-0.4920632035566493,0.0727361503869295,0.0006075007840991,-0.0093381954357028,-0.0123407458886504
1783205682428392000,7.479391845703125,-0.3271522254824638,-0.4916015408616512,0.0739677380084991,-0.0003224750980734,-0.0095384651795029,-0.0124414134770631
1783205682438329000,7.4893291015625,-0.3165560857314616,-0.4915478379130363,0.0684632953733205,0.0023279502056539,-0.0115077942609786,-0.0115028014406561
1783205682448266000,7.499265869140625,-0.3011981384061277,-0.4875868618601933,0.0602536854326724,0.0013276669196784,-0.0128391087055206,-0.0081328377127647
1783205682458203000,7.509202880859375,-0.2925736640542745,-0.4823726708758622,0.0584638794064521,0.0027480558492243,-0.0143567668274044,-0.0134300179779529
1783205682468139300,7.51913916015625,-0.3041706514108926,-0.4772102466113865,0.0719359399199485,0.000886240042746,-0.0127098681405186,-0.0103569962084293
1783205682478076200,7.529076171875,-0.312238660923764,-0.4752579434998333,0.0665472326189279,0.000454029534012,-0.0132787972688674,-0.0126708643510937
1783205682488013300,7.539013427734375,-0.3134844962663948,-0.4836443347794935,0.0758311937928199,0.0013997182250022,-0.0124686639755964,-0.0093048950657248
1783205682497950000,7.548949951171875,-0.3154308810938149,-0.4766808159098029,0.0738864894658327,8.83070752024e-05,-0.0123709868639707,-0.0146364299580454
1783205682507887000,7.55888720703125,-0.322816680496186,-0.4759963407769799,0.076282444691658,0.0033456194214522,-0.0138501059263944,-0.0158849172294139
1783205682517824300,7.56882421875,-0.3301044994167983,-0.4819315760448575,0.0679097531437873,0.0015911408700048,-0.0106715522706508,-0.0167813412845134
1783205682527761200,7.57876123046875,-0.3198429984476417,-0.4722020265279337,0.0719505529671907,6.00898638367e-05,-0.0146654937416315,-0.0183334313333034
1783205682537698300,7.5886982421875,-0.3186244895033538,-0.4802879004910588,0.068055883616209,0.0011722585186362,-0.0141177587211132,-0.0226878114044666
1783205682547635200,7.59863525390625,-0.3119865858588367,-0.47904067690894,0.0737473732560873,0.0033440664410591,-0.0120998807251453,-0.0214047003537416
1783205682557572000,7.608572021484375,-0.3130656132671982,-0.4794668664317578,0.0637210692822933,0.0003716466017067,-0.0140666365623474,-0.0219832584261894
1783205682567509200,7.61850927734375,-0.3141784698799252,-0.4798948095202445,0.0659510202914476,0.0019895168952643,-0.0160767901688814,-0.0260171480476856
1783205682577446100,7.628446044921875,-0.3162055187281221,-0.4839431715955957,0.0609831687510013,0.0037080701440572,-0.0180894434452056,-0.0257480908185243
1783205682587383300,7.63838330078125,-0.3214069598287344,-0.4933002710709348,0.0748562112808227,0.0061826794408261,-0.0165125858038663,-0.0248359572142362
1783205682597320200,7.6483203125,-0.3090864074379205,-0.4934065444570034,0.0721188952714204,0.0041912645101547,-0.0153854340314865,-0.0264499112963676
1783205682607257000,7.658257080078125,-0.3196746561434119,-0.485044666564092,0.0711930125981569,0.002687644213438,-0.0149878244847059,-0.0250962264835834
1783205682617194200,7.6681943359375,-0.3125141899295151,-0.4894634328544139,0.0698211397230625,0.003891899716109,-0.0162420365959405,-0.0206048022955656
1783205682627131100,7.678131103515625,-0.3059087272498756,-0.4857937313657253,0.0694786098957061,0.0025949398986995,-0.0198330432176589,-0.0207392927259206
1783205682637068300,7.688068359375,-0.3031814211778342,-0.4949469788320362,0.0682382544457912,0.0037403921596705,-0.0159019865095615,-0.0182559769600629
1783205682647005200,7.698005126953125,-0.3025028643291443,-0.4954334471747278,0.0723947896033525,0.0026130760088562,-0.0191113650798797,-0.0169827193021774
1783205682656942000,7.707942138671875,-0.312758154753223,-0.5031393819095566,0.0733995827317237,0.002665564417839,-0.0166553035378456,-0.0137411542236804
1783205682666879200,7.717879150390625,-0.3218784497980028,-0.4935086165919899,0.0775496881484985,0.0040956819429993,-0.0172896683216094,-0.0107805170118808
1783205682676816100,7.727816162109375,-0.3245366361565888,-0.5012227711658924,0.0685422058284282,0.0030707637779414,-0.015397978015244,-0.0107581093907356
1783205682686753300,7.737753173828125,-0.3269060687016695,-0.5029975257534534,0.0661094257235527,0.0008693947456777,-0.0164906717836856,-0.0062634921632707
1783205682696690200,7.747690185546875,-0.3319860753796994,-0.4986714061826467,0.072820906060934,0.0031861858442425,-0.014758164063096,-0.0070527018979191
1783205682706627000,7.757626953125,-0.3201788793385028,-0.4920142863810062,0.0771411073476076,-4.10331413149e-05,-0.0141174085438251,-0.0055986158549785
1783205682716564200,7.767564208984375,-0.3204344615347683,-0.4895520609859377,0.0649959115236997,0.0029550855979323,-0.0158535577356815,-0.0061064008623361
