time,seconds_elapsed,ax,ay,az,gx,gy,gz
1783206062863167000,0.0921669921875,-0.0080759005583822,0.0015210172885097,-0.1282183836340904,0.0279643461108207,-0.0138383144512772,-0.0006468787323683
1783206062873105200,0.102105224609375,-0.0194832014286424,-0.0165344254924915,0.0609276391714811,-0.016778090968728,0.0115421433001756,0.0004490122664719
1783206062883043000,0.11204296875,-0.0166658698524348,-0.0196444107391871,0.0750935271680355,-0.0356671027839183,0.0213950742036104,0.0004826106596738
1783206062892981000,0.12198095703125,-0.0202851015292108,-0.0207557329819537,-0.0136889181345701,-0.0179656017571687,0.0103538753464818,0.0004623706918209
1783206062902919200,0.131919189453125,-0.0129057592670898,-0.015644061657181,-0.1473117911607027,0.0150282280519604,-0.0106200948357582,-0.0008814157918095
1783206062912857000,0.141857177734375,-0.0092140834086108,-0.0179339626926463,-0.1595411581367254,0.0276321694254875,-0.0149999298155307,-0.0004625006113201
1783206062922795000,0.151794921875,-0.0042413912962656,-0.0188307014698162,-0.056854690644145,0.0099075073376297,-0.0069626602344214,-0.0005804996471852
1783206062932732200,0.161732177734375,-0.0167840985377784,-0.0254374062584713,0.0270826527148485,-0.0201673060655593,0.0132909463718533,-0.0016564165707677
1783206062942670000,0.171670166015625,-0.0148884027179796,-0.0335749647430609,0.0170201083838939,-0.0211430713534355,0.0107663366943597,-0.0017519160173833
1783206062952608000,0.18160791015625,-0.0139260330923832,-0.020020925034536,-0.0783183344334363,-0.0046064397320151,0.001968050841242,0.0015224404633045
1783206062962546200,0.191546142578125,-0.0133199752243235,-0.0161231595441699,-0.1287315938532352,0.0192746631801128,-0.0105359079316258,-0.0011524583678692
1783206062972484000,0.201484130859375,0.0003324194252956,-0.0129700658081099,-0.093089787107706,0.0118891857564449,-0.0078173531219363,0.0028215106576681
1783206062982422000,0.211422119140625,-0.0015598879941739,-0.0037736550535075,-0.0191588739782571,-0.0036761127412319,0.005292001646012,-0.000256126280874
1783206062992360200,0.221360107421875,-0.0067407886302564,-0.0125397298331372,0.0088081603556871,-0.0127915795892477,0.0068366350606083,0.000448812264949
1783206063002298000,0.231298095703125,-0.0067807096486911,-0.0059316276718396,-0.0271229847252368,-0.0088227940723299,0.0026691148523241,0.000908266287297
1783206063012236000,0.241236083984375,-0.0004713895045686,0.0019655187861528,-0.0937117183983325,0.0054813106544315,-0.0039006369188427,0.0006475429981946
1783206063022174200,0.25117431640625,0.007716784922406,-0.0096190840129274,-0.0999801311433315,0.0101780798286199,-0.006552914623171,0.0017649673391133
1783206063032112000,0.261112060546875,0.006987055008905,-0.0011322645660955,-0.0591138677477836,0.0011419737711548,-0.0042008110322058,0.0004935741890221
1783206063042050000,0.271050048828125,-0.0016168971447274,-0.0141364792389795,-0.0155728321850299,-0.0071517331525683,0.0052939960733056,-0.0024226300884038
1783206063051988200,0.28098828125,-0.007210789895337,-0.0088977931342087,-0.0332440979540348,-0.0080681284889578,0.0043256706558167,-0.0001533506438136
1783206063061926100,0.290926025390625,-0.0131101957980077,-0.0143435461184009,-0.0658680181831121,0.0031043598428368,-0.0024647070094943,-0.0001261655706912
1783206063071864000,0.300864013671875,-0.003688049996132,-0.0185903259758371,-0.0893517696231603,0.0062719234265387,-0.003456468693912,-0.0035113096237182
1783206063081802200,0.31080224609375,-0.0062802675795741,-0.017472418728657,-0.0719844552367925,0.004803579300642,-0.0018838299438357,0.0003074863925576
1783206063091740200,0.320740234375,-0.0048879547046497,-0.0305850439457688,-0.0393622885733842,-0.0020972043275833,0.0019367411732673,0.0025003333576023
1783206063101678000,0.330677978515625,-0.008988339228183,-0.0366307264513336,-0.0193184484541416,-0.0066302297636866,0.002542431699112,-0.0005773310549557
1783206063111616300,0.3406162109375,-0.014462596787652,-0.0292310355209279,-0.0556850623428821,-0.0005076229572296,0.0004755523987114,-0.000330455834046
1783206063121553200,0.35055322265625,-0.0063903951568529,-0.0178629432830493,-0.0706441465437412,0.0028066746890544,-0.0028504207730293,-0.0004823841154575
1783206063131491000,0.360490966796875,-0.0039428832737263,-0.0128339726725127,-0.0662958882063627,0.0017432738095521,-0.0048983916640281,-0.0008935763034969
1783206063141429200,0.37042919921875,-0.0175428444832097,-0.0230906696023885,-0.0591103606164455,-0.001110216602683,0.0014082859270274,-0.0017111026681959
1783206063151367200,0.3803671875,-0.0284486347052734,-0.0222357150071766,-0.0422083256542682,-0.005539053119719,0.0026810106355696,0.0008380748331546
1783206063161305000,0.39030517578125,-0.0151118910092394,-0.0253625235245097,-0.058674891808629,-0.0016887253150343,0.001162763684988,-0.0011147761251777
1783206063171243300,0.4002431640625,-0.0051920978835318,-0.0149584357468876,-0.0700438425630331,0.0021789837628602,-0.0053025926463305,0.0013286739122122
1783206063181181200,0.41018115234375,-0.0118580494455993,-0.0111331601039972,-0.0704863256335258,0.0045103849843144,-0.002724939957261,-0.0007022973150014
1783206063191119000,0.420119140625,-0.0065819722061976,-0.0187440460996702,-0.0546218170255422,-0.0015227403491735,-0.0005179783329367,0.0002974532544612
1783206063201057300,0.430057373046875,-0.0088669322050642,-0.0147197590196505,-0.0453466236799955,-0.0033538853749632,0.001418886706233,0.0017554215155541
1783206063210995200,0.4399951171875,-0.0185246951274108,-0.0212730074548628,-0.0520838229805231,-0.003250821493566,1.19386240839e-05,0.0002414146438241
1783206063220933000,0.44993310546875,-0.0185207861372735,-0.0183423882299102,-0.0517827942073345,0.0017019296064972,-0.0029857368208467,-0.0043935957364737
1783206063230871300,0.459871337890625,-0.0081085333195049,-0.0182190175785683,-0.0647960050374269,0.0018239030614495,-0.0013441639021039,-0.0013733047526329
1783206063240809200,0.469809326171875,-0.0085684424488339,-0.0185737310340628,-0.0588087473213672,-0.0021007824689149,0.000275535043329,0.0008091158233582
1783206063250747100,0.4797470703125,-0.0211248220226727,-0.0155660279849078,-0.043247605574131,-0.0021726880222558,-0.0012491247616708,-0.0001011525746434
1783206063260685300,0.489685302734375,0.0006526278229895,-0.0212649976783432,-0.0535731847554445,-0.0041815424337983,0.0002144016325473,-0.00303147546947
1783206063270623200,0.499623291015625,-0.0136826619237195,-0.024411113684345,-0.0635983196854591,-0.0012869518250226,0.0006554210558533,-0.0010439583566039
1783206063280561200,0.50956103515625,-0.0120787155921105,-0.0262386579050682,-0.0571633182018995,0.0014638062566518,0.0005527068860828,0.0011670922394841
1783206063290499300,0.519499267578125,-0.0068485324542038,-0.0128923791957087,-0.052376668447256,-0.00055140722543,0.0024755091872066,-0.0002249421086162
1783206063300437200,0.529437255859375,-0.0003765051621943,-0.0128584769261069,-0.0481903226733207,-0.0024969242513179,0.0001486106775701,0.0024132437538355
1783206063310375200,0.539375244140625,0.0015328355904668,-0.0164246632413938,-0.0454980148494243,-0.0013269977644085,0.0001781717874109,0.0028974066954106
1783206063320312000,0.54931201171875,0.0103764873846434,-0.0059166401652619,-0.0568698882132768,0.0011626575142145,-0.0040376055985689,0.0016174379270523
1783206063330250000,0.55925,0.0129744953880552,-0.0174499603016767,-0.0715279436409473,0.0001727603375911,-0.0008588563650846,-0.001082208706066
1783206063340188000,0.56918798828125,0.0126924361768178,-0.0158538228171877,-0.0510281764477491,-0.0034375982359051,-0.0003717183135449,-0.0004937902558594
1783206063350126000,0.5791259765625,0.0041236375349573,-0.0098664372369647,-0.0436976874291896,-0.0001651057973504,0.0017968937754631,0.0021131781395524
1783206063360064000,0.58906396484375,-0.005861585509777,-0.0149107332807965,-0.0547720391511917,-0.0002175448462367,0.0005090204067528,0.0012792726047337
1783206063370002000,0.599001953125,-0.0106697986422572,-0.0102880419162102,-0.0402571915864944,-0.0002052942290902,-0.0002023098058998,0.0029743746854364
1783206063379940000,0.608940185546875,-0.0095562205103226,-0.0130507572283502,-0.053725160446763,0.0008746376261115,0.0006170608103275,0.0031005886849015
1783206063389878000,0.6188779296875,-0.0154073211587034,-0.0236578293653205,-0.0622545038610696,-0.0010763946920633,-0.0021574199199676,-7.0969806984e-05
1783206063399816000,0.62881591796875,-0.0115267168656922,-0.0256704112967476,-0.0502811574727296,0.0007500629872083,-0.0021676770411431,-0.0001290342770516
1783206063409754000,0.638754150390625,-0.0088851071825716,-0.0146721387519501,-0.0481874000638723,-0.002374623902142,-0.0007849633693695,0.0001391458790749
1783206063419692000,0.648692138671875,0.0018976229154039,-0.0046896008546464,-0.0613578472822904,0.0016430644318461,-0.0003905529156327,-0.0009149790275841
1783206063429630000,0.6586298828125,0.0022525920992251,-0.0098312654588837,-0.064797758603096,0.0005586249753832,-6.77779316902e-05,0.0028121150098741
1783206063439568100,0.668568115234375,-0.012470336125046,-0.0363899125659372,-0.0618032529622316,-2.56476923823e-05,0.0006196154281497,0.0005050415638834
1783206063449506000,0.678506103515625,-0.0172234124036505,-0.0328096611926797,-0.0501309353470802,-0.0017393920570611,-0.0008837389759719,-0.00073306215927
1783206063459444000,0.68844384765625,-0.0094878862481564,-0.0153374251271132,-0.0420493357002735,-0.0016726180911064,-0.0007726647891104,-0.0022566302213817
1783206063469382100,0.698382080078125,-0.0187782862959895,-0.0170804785353131,-0.0526712674796581,0.000129809603095,0.00048115151003,-0.0007364978082478
1783206063479320000,0.708320068359375,-0.0309363050688523,-0.0226286689806729,-0.0700286449939012,0.0006677415221929,0.0003903061151504,-0.0018113490659743
1783206063489258000,0.718258056640625,-0.0250248342690523,-0.0236706888468936,-0.0632961218684911,-0.0004201596602797,0.0017738183960318,0.0019128152634948
1783206063499196200,0.728196044921875,-0.0153560567623469,-0.0232295757495798,-0.0475847579956054,-0.0013786451891064,0.0011466792784631,0.0007798885926604
1783206063509133000,0.738133056640625,-0.0067702704530674,-0.0122331846346147,-0.054321957296133,-0.0039922725409269,0.0002409382723271,-0.0021668993867933
1783206063519071000,0.748071044921875,-0.0009529533432796,-0.0097312848162837,-0.0583650952070951,-0.0011598877608776,0.001741072628647,0.0004129633307456
1783206063529009200,0.758009033203125,0.0013767225801479,-0.0152129584972281,-0.0644984833955764,0.0025275247171521,-0.0012099761515855,0.0015357523225247
1783206063538947000,0.767947021484375,0.0035853750729467,-0.0160715937537141,-0.0471370142281055,0.0002270862460136,0.0007860632613301,0.0018383970018476
1783206063548885000,0.777885009765625,-0.0049213820502161,-0.0195607236442621,-0.0565641832649707,-0.0019484497606754,-0.0001726746559143,-0.0013872238341718
1783206063558823200,0.7878232421875,-0.0067473462352063,-0.0304125277899205,-0.0552168603092432,0.0003346260637044,0.0006421892903745,-0.0027821497060358
1783206063568761000,0.797760986328125,0.0001518021613825,-0.013277177262213,-0.0567120673030614,-5.12655824422e-05,0.0007202196866273,0.0018323094118386
1783206063578699000,0.807698974609375,-0.0035200912843924,0.0007746102348435,-0.0486310521781444,-0.0002598837018013,-0.0003135148435831,0.0012964219786226
1783206063588637200,0.81763720703125,0.0090104049295187,0.0014148626334499,-0.0541641363859176,-0.0004521636292338,-0.0027574971318244,-0.0009651344735175
1783206063598575000,0.8275751953125,0.0080958839004859,-0.0176770287895109,-0.0459305610477924,0.0014343429356813,-0.0015983176417648,0.0018214194569736
1783206063608513000,0.837512939453125,-0.0033171708571258,-0.0206500623840838,-0.0415893169730901,0.0013619055971503,0.0004635015502572,0.0004680010024458
1783206063618451200,0.847451171875,-0.0043108946022111,-0.0198911155092529,-0.0454810637146234,-0.0013522887602448,0.00049439817667,0.0005463764537125
1783206063628389000,0.85738916015625,-0.0151239376400597,-0.0213409581245388,-0.0496685785323381,0.0005801012739539,0.0007165055721998,0.0005101573187857
1783206063638327000,0.8673271484375,-0.0124436855801381,-0.0174689115973189,-0.0483224246203899,-0.0013052094727754,0.0016597798094153,0.0001283881720155
1783206063648265200,0.87726513671875,-0.0025421587634831,-0.0157541527018416,-0.0544563973307609,0.0016154795885086,0.0012909318320453,0.0029785034712404
1783206063658203100,0.887203125,-0.0029021694486029,-0.0196177327948156,-0.0445809000045061,0.0011359099298715,-0.0009380290284752,0.0007640772964805
1783206063668141000,0.89714111328125,0.0021277692763134,-0.0173340240381192,-0.0577495936572551,0.0010578790679574,0.0018771984614431,-0.0013986760750412
1783206063678079200,0.907079345703125,0.0044513077198993,-0.0229987261357717,-0.0516144519031047,-0.0021848147734999,0.000767532736063,0.0013766717165708
1783206063688017200,0.91701708984375,0.0006907313436735,-0.0085065927263814,-0.0598451046317815,0.0005081743001937,0.0004245177842676,0.0017987829633057
1783206063697955000,0.926955078125,0.0010917133599985,-0.0047087896123062,-0.0587976414054632,-0.001011780463159,-4.98257577419281e-08,-0.0010305372998118
1783206063707892200,0.936892333984375,-0.0106957550674211,-0.0025008312392514,-0.052512862047553,-0.0024536158889532,0.0008545583114027,-0.00059271347709
1783206063717830100,0.946830078125,-0.0122001682810019,-0.0170888810374774,-0.0610398673743009,0.0010284949094057,-0.0012343758717179,7.01928511261e-05
1783206063727768000,0.95676806640625,-0.0098767942341975,-0.0257509109207428,-0.064631754386425,-0.0012357244268059,0.0015712641179561,-0.0019932242576032
1783206063737706200,0.966706298828125,-0.0090465448219794,-0.0250521880668587,-0.0490723662048578,-0.0034918328747153,-0.0006507965736091,0.0002700728364288
1783206063747644200,0.97664404296875,-0.01851506878254,-0.0202166028702631,-0.0590975011348724,-0.0013471897691488,-0.0012409533374011,-0.0025536767207086
1783206063757582000,0.98658203125,-0.02284999271431,-0.0210477381984703,-0.0739087012976408,0.0002148896455764,-0.0021292483434081,-0.0006653373129665
1783206063767520300,0.996520263671875,-0.0181273846392054,-0.0247219149328768,-0.0623860212862491,-0.0002399776130914,-0.0006045885384082,0.0017349699046462
1783206063777458200,1.006458251953125,-0.0235659224313218,-0.0315640633120667,-0.0561018264502286,-0.0004002628847956,-0.0003824857994914,-0.0027197119779884
1783206063787396000,1.01639599609375,-0.0199444348653778,-0.0246361637450288,-0.0402425785392522,-0.0019856430590152,0.0017488421872258,-0.0004586884751915
1783206063797334300,1.026334228515625,-0.0157202869648579,-0.0331215036208275,-0.0501192449092864,-0.000774223357439,-0.0007429220713675,0.0007244029548019
1783206063807272200,1.036272216796875,-0.0074880998662207,-0.0195606231795623,-0.0484726467460393,0.002684423699975,-0.0014111092314124,0.0005305248778313
1783206063817210000,1.046210205078125,-0.0112372780655976,-0.0105041780180763,-0.0529588522493839,-0.0012761279940605,-0.002832755446434,-0.0011056214570999
1783206063827148300,1.056148193359375,-0.0103426947128959,-0.0128433341559022,-0.0403869554460048,0.0006786314770579,0.0019497491884976,9.65292565524e-05
1783206063837087000,1.0660869140625,-0.0104736732819583,-0.0058391453491058,-0.0513122540861368,0.0003450624644756,-0.0007067532278597,-0.0006150749977678
1783206063847025000,1.07602490234375,-0.0189879013255238,-0.0034798780050128,-0.0483200865328311,-0.0001835748553276,-0.0003197956830263,-0.0011306630913168
1783206063856962800,1.085962890625,0.0017939707446843,-0.0134923269833903,-0.0487666612565517,-0.000455473549664,-0.0022058766335248,-0.0023164013400673
1783206063866901000,1.09590087890625,0.0012546397035941,-0.0120639838138595,-0.0595370615959167,-1.63177028298e-05,-0.0019241138361394,0.0016565024852752
1783206063876839000,1.1058388671875,0.009804012125777,-0.0129583479708526,-0.0511538486540317,-0.0019540078938007,-0.0002022059634327,0.0009395540691912
1783206063886776800,1.11577685546875,0.0060452258478384,-0.0100617497465107,-0.0538461564779281,-0.0010168422013521,0.0001282920129597,0.0002495287917554
1783206063896715000,1.125715087890625,0.0106797355143819,-0.0045453335457481,-0.0499573323458433,-0.000745378434658,2.88421288132e-05,0.0007291664369404
1783206063906653000,1.13565283203125,0.0085765526900533,-0.0152218907223548,-0.0599824672758579,0.0009209606796503,0.0003127348609268,0.0018735267221927
1783206063916590000,1.145590087890625,-0.0015252550722099,-0.0114609033541753,-0.0527992777734994,0.0010511530563235,0.0019659658428281,-9.71779227256e-05
1783206063926528000,1.155528076171875,-0.0027142639273777,-0.0166335750180296,-0.0530991375029087,-0.0009046727791428,-0.0014263689517974,-0.0040815332904458
1783206063936466000,1.1654658203125,0.0027251689138822,-0.0164552501759026,-0.0569885461568832,-0.0004661297425627,-0.0014169164933264,0.0008699223399162
1783206063946404000,1.175404052734375,0.0007959818164352,-0.0115724283040966,-0.0454652816236019,0.0240581221878528,0.015623852610588,0.0006038723513484
1783206063956342000,1.185342041015625,0.0007605999758001,0.0183323508930858,0.3489098837822675,0.0887674018740654,-0.0803933143615722,0.0019897292368113
1783206063966280000,1.195280029296875,0.0303812284693587,-0.0295030208627227,-0.4891957218289375,0.0614665336906909,-0.0340713523328304,-0.001012452179566
1783206063976218000,1.205218017578125,-0.0269602410447318,0.0130641281665768,-0.7797948709398508,0.0029366435483098,0.0423567257821559,0.001672358252108
1783206063986156000,1.215156005859375,-0.0256344358010683,-0.0616477975390385,0.980797335755825,-0.1017021536827087,-0.004327954724431,-4.93754632771e-05
1783206063996094000,1.225093994140625,0.0084419391254894,-0.038673036800744,-0.0120732996314764,-0.1151287630200386,0.1136640086770057,-0.0021713359747081
1783206064006032000,1.235031982421875,-0.0426760801633354,-0.0059657491371501,-0.3279758168250322,-0.0548401251435279,-0.0036522271111607,0.0011645397171378
1783206064015970000,1.244969970703125,0.0268114436911884,0.0007441602976527,-0.00816869340837,0.0453902669250965,-0.0227734372019767,0.0030862595885992
1783206064025908000,1.254907958984375,-0.0231377784134354,0.0088266458604484,-0.1770148555070161,0.0829951614141464,-0.034071896225214,0.0019363067112863
1783206064035846000,1.264845947265625,-0.0137841312705073,-0.0082936075628269,-0.3905816183418035,0.0368349030613899,-0.0358462631702423,0.0002018171362578
1783206064045784000,1.2747841796875,-0.0222983775803819,-0.033807723186165,0.2666279064148664,-0.0273826979100704,0.0295109059661626,-0.0013478763867169
1783206064055722000,1.284721923828125,-0.0335348245289176,-0.0423464646164793,0.2722352249026298,-0.0664639249444007,0.0238841846585273,0.0004084738902747
1783206064065660000,1.294659912109375,0.0004551416226662,-0.0276434375359211,-0.2077326498538255,-0.0272243805229663,0.024111621081829,-0.0013129936996847
1783206064075598000,1.30459814453125,-0.0045522564768791,-0.0039428924068808,-0.1032867714732885,0.0308321453630924,-0.0263703875243663,0.0001802905462682
1783206064085536000,1.314535888671875,0.0126640777320135,-0.0011819763261824,-0.204216166165471,0.0442355684936046,-0.0230494271963834,-0.0005582042504101
1783206064095474000,1.324473876953125,-0.0114817178133409,-0.0066958809094503,-0.1390747086912393,0.0147030465304851,-0.0071378238499164,0.0008044149726629
1783206064105412000,1.334412109375,-0.0150079648438841,-0.0245251045859884,0.1242804596632718,-0.0289975628256797,0.0100116021931171,-0.0007532681338489
1783206064115349800,1.344349853515625,-0.0140757985603064,-0.0220246934718452,0.1026741925328969,-0.0345310755074024,0.0221015531569719,0.001642049755901
1783206064125287000,1.354286865234375,-0.0043077710633631,-0.0219165112564805,-0.1111947681188583,-0.0082478085532784,-9.64263454079e-05,0.0016266033053398
1783206064135224800,1.364224853515625,0.0059602692444343,-0.010052854054002,-0.1440986743330955,0.0267978645861148,-0.0120023759081959,-0.0009795553050935
1783206064145162800,1.374162841796875,-0.0031675058539025,0.0022111275776755,-0.1154728838294744,0.022068889811635,-0.0192427113652229,-0.0011177733540534
1783206064155101000,1.384100830078125,-0.0096357976857107,-0.0038989893330726,-0.0681646046876907,0.0016128495335578,0.0015503047034144,0.0008425829000771
1783206064165038800,1.394038818359375,-0.0131507652704138,-0.0206195941805839,0.0661900897443294,-0.0225340314209461,0.0099589694291353,-5.25056384503e-05
1783206064174976800,1.403976806640625,-0.0097887140919454,-0.017162740858132,-0.000430792632699,-0.0176658816635608,0.0091536678373813,-0.0006165166851133
1783206064184915000,1.4139150390625,-0.0042051692054141,-0.0084475560155231,-0.1080289975643157,0.0069481176324188,-0.0038430909626185,0.0018154820427298
1783206064194852900,1.423852783203125,0.0054577356829307,-0.0124604540518485,-0.1316489426046609,0.0191806461662054,-0.0087195951491594,0.0001772586256265
1783206064204790800,1.433790771484375,0.0016374924081843,-0.0018424860615283,-0.0777554398536682,0.0076994923874735,-0.0031357449479401,-0.0005226202774792
1783206064214729000,1.44372900390625,-0.0060348688506055,-0.0144841236328706,-0.0204454066574573,-0.0112042613327503,0.0032915521878749,-8.10448545962e-05
1783206064224667000,1.4536669921875,0.008949715117691,-0.015496433347417,0.016044541350007,-0.0112569909542799,0.0092596961185336,-0.0015007760375738
1783206064234604800,1.463604736328125,0.0068491991744842,-0.0124473936408758,-0.0424777902454137,-0.0029148748144507,-0.0006537735462188,0.0011125798337161
1783206064244542700,1.473542724609375,-0.0019335984110832,-0.010965521052666,-0.1116004263103008,0.0120749929919838,-0.0079665472730994,0.0006763539277017
1783206064254481000,1.48348095703125,0.0030953904657624,-0.0117714214749168,-0.0858393775880336,0.0121652483940124,-0.0080802962183952,-0.0030669947154819
1783206064264418800,1.493418701171875,-0.0073254749167244,-0.0129704768000636,-0.0454284567445516,-0.0043122619390487,0.0007022763602435,-0.0018909429199993
1783206064274356700,1.503356689453125,-0.0066631750830914,-0.0173430384616367,-0.0197001412481069,-0.0092124277725815,0.0030464534647762,0.0019914517179131
1783206064284295000,1.513294921875,-0.0089740275750402,-0.0164143062441609,-0.031236849784851,-0.0073689883574843,0.0046707154251635,-0.0018211295828223
1783206064294232800,1.52323291015625,0.0007557320044375,-0.0093531174199655,-0.080019877654314,0.0053207762539386,-0.0035306247882544,0.001145068090409
1783206064304170800,1.533170654296875,-0.0068567522932775,-0.0157593312004581,-0.0958680196493864,0.0078007117845118,-0.0055825910530984,0.0010947342962026
1783206064314109000,1.54310888671875,-0.0121528676737099,-0.0099700620082207,-0.0514174680262804,0.0039910655468702,0.0015692925080657,0.0002571647055447
1783206064324046800,1.553046875,-0.0026348237493075,-0.0113423184758052,-0.0351128144353628,-0.0078980838879942,0.0045914477668702,-0.001158838160336
1783206064333984800,1.56298486328125,-0.0067434737776871,-0.0164492040276061,-0.0426069695830345,-0.0047175223007798,0.0038562375120818,1.47027894854e-05
1783206064343922000,1.572921875,-0.0064506283109541,-0.0132026781207416,-0.0598170475810766,0.001614143140614,-0.0007957722991704,-0.0001898279879242
1783206064353859800,1.58285986328125,-0.0086397358530666,-0.0131754887197166,-0.0846498755425214,0.0051460294052958,-0.0005344012752175,0.0022389604710042
1783206064363798000,1.592798095703125,-0.008325692334678,-0.0107693317602854,-0.052022448182106,0.004561198875308,-0.0029839766211807,-0.0018095769919455
1783206064373736000,1.60273583984375,-0.0150761895081959,-0.0121345830983482,-0.0318184490650892,-0.0018652528524398,-0.0002969312481582,-0.0001307337079197
1783206064383673900,1.612673828125,-0.0154681023020762,-0.0302677581575233,-0.0446913746416568,-0.0036375867202878,0.0023209562059491,0.0007877903990447
1783206064393612000,1.622612060546875,-0.0134387244994752,-0.0184173714285716,-0.0533738627910614,-0.0024916026741266,0.0003206878900527,-0.0003933776170015
1783206064403550000,1.632550048828125,-0.0101015520339366,-0.0174075459320563,-0.0737239923804998,0.0147134829312562,0.0093131177127361,0.0003704172559082
1783206064413487900,1.64248779296875,0.0013245814009569,0.0031151728784665,0.392190222582221,0.1380152702331543,-0.0955159291625022,0.0001136600039899
1783206064423425800,1.65242578125,0.0378090495157055,-0.015426505349786,0.3022568536788225,0.1238493844866752,-0.155990719795227,-0.0013694541994482
1783206064433364000,1.662364013671875,-0.0050259566695429,0.0119693323669256,-2.036937205004692,0.0748432278633117,0.0691277235746383,-0.0050935726612806
1783206064443302000,1.672302001953125,-0.081996383625362,-0.0546160951042314,0.9954629899680614,-0.0753116458654403,-0.0479626804590225,0.0020016208291053
1783206064453239800,1.68223974609375,0.0190990883487276,-0.0961088609342463,0.7756506107419728,-0.1770253777503967,0.1710937023162841,0.0019062994979321
1783206064463178000,1.692177978515625,-0.0844624997442588,-0.0311247494461946,-0.6891822876006365,-0.1383323073387146,0.0895682126283645,-0.0003083851188421
1783206064473116000,1.702115966796875,0.0326179654123261,-0.0318674484391231,-0.0042237551748752,-0.0161979477852582,-0.0368175543844699,-0.0024127988144755
1783206064483053800,1.7120537109375,0.0308786383311729,0.0267466348266694,-0.0316951149463653,0.0897758901119232,-0.0104144420474767,-0.000675352755934
1783206064492992000,1.721991943359375,0.0071612973309587,0.0298517429688479,-0.7109212411999702,0.0703405737876892,-0.0670055598020553,0.0018064326141029
1783206064502930000,1.731929931640625,0.0245051212438847,-0.0154511785667389,0.0590314501613378,-0.0041275341063737,0.0114255994558334,0.0008695323485881
1783206064512867800,1.741867919921875,-0.0307365721125155,-0.0512362297078594,0.5608434924572706,-0.0810710489749908,0.0307890623807907,0.0004117563366889
1783206064522806000,1.751805908203125,-0.0048373387622646,-0.0295000160548835,-0.1214659867644309,-0.0691542029380798,0.0361231081187725,-0.0004796034190803
1783206064532744000,1.761743896484375,-0.0084442041478119,-0.0103312234708108,-0.1463771406590938,-0.0084717534482479,0.0080870818346738,0.0010698463302105
1783206064542681900,1.771681884765625,-0.0104374511911068,-0.0033207875863183,-0.0884276405155658,0.0457219779491424,-0.0308597832918167,-0.0012447070330381
1783206064552620000,1.7816201171875,0.0025261940093711,0.0111550705417059,-0.1838175212591886,0.043922234326601,-0.0202943086624145,-0.0009137191809713
1783206064562558000,1.791557861328125,0.0014281879059039,-0.0040310456143692,-0.0890612622439861,-0.0004747910425066,-0.003590430598706,0.0005800481885671
1783206064572495000,1.8014951171875,-0.0138512416899669,-0.0233465531927533,0.1672375578582286,-0.0365372821688652,0.0180752892047166,0.0003722819965332
1783206064582433000,1.81143310546875,-0.0105135577677749,-0.0177789730603341,0.061688686671853,-0.0291320942342281,0.0163562186062335,-0.0013036453165113
1783206064592371000,1.821370849609375,0.0113680557052604,-0.0084938976415898,-0.1666805084973573,0.0059596435166895,-0.0033985641784965,6.9479458034e-05
1783206064602308900,1.831308837890625,0.0026402397099416,-0.0046063430179841,-0.1389630650103092,0.0304436795413494,-0.0178653877228498,0.0002306005917489
1783206064612247000,1.8412470703125,-0.0027369689495302,-0.0032968130556866,-0.0988145944952964,0.0201967880129814,-0.0109224896878004,0.0017881288658827
1783206064622185000,1.85118505859375,-0.0050738691981881,-0.0169022358915768,-0.031919571352005,-0.0085656186565756,0.0048649967648088,-0.0019592049065977
1783206064632123000,1.861122802734375,-0.0116421599389053,-0.0114402898244094,0.0783341165244579,-0.0218813270330429,0.013407664373517,-0.0019921611528843
1783206064642061000,1.87106103515625,-0.0023164419825188,-0.0201951673565898,-0.0252455004155635,-0.0098201399669051,0.0054072625935077,0.0003873731475323
1783206064651999000,1.8809990234375,-0.0002873381745535,-0.0075276281590107,-0.1377712248772382,0.0115978922694921,-0.0074868034571409,0.0004063248634338
1783206064661937000,1.89093701171875,-7.02522246167e-05,-0.0107597967469599,-0.0926993264853954,0.0177034549415111,-0.0123936785385012,-0.0009026189800351
1783206064671875000,1.900875,0.0043305217512883,-0.0137194594033062,-0.0524298599392175,0.0036789160221815,-0.0026050931774079,0.000327784800902
1783206064681813000,1.91081298828125,-0.0034158911244012,-0.0252262111932039,-0.0020107553005218,-0.0113655468448996,0.0073756361380219,-0.0001728893257677
1783206064691751000,1.9207509765625,0.0004363547238055,-0.0308309267319273,0.0063479077219963,-0.0104105407372117,0.0052465894259512,-0.0023382846266031
1783206064701689000,1.930689208984375,-0.0014763470297213,-0.0285248326134867,-0.0696767628163099,0.0012189503759145,-0.0016206377185881,0.0041760737076401
1783206064711626800,1.940626708984375,0.000276241391804,-0.0163303908203728,-0.1169493861228227,0.0126866959035396,-0.0067372638732194,0.0025216750800609
1783206064721564700,1.950564697265625,-0.0003664495590608,-0.0092551369382068,-0.0552811577171087,0.0061283954419195,-0.0034509235993027,0.0017008888535201
1783206064731502800,1.9605029296875,-0.0046358887728769,-0.0202326132901478,-0.0204138424754142,-0.0057717040181159,0.0021572802215814,0.0004281178116798
1783206064741440800,1.970440673828125,-0.0065523625192232,-0.0263847153122536,-0.0288064077675342,-0.0091461967676877,0.0035338683519512,-0.0009268983267247
1783206064751378700,1.980378662109375,-0.0015212182179093,-0.0220773826403077,-0.0481178419589996,-0.003379575908184,-0.0008365502581,0.0005244591739028
1783206064761316900,1.99031689453125,-0.007656469569914,-0.0197546022485476,-0.079238371887803,0.0061484156176447,-0.0044382093474268,0.0007500287611037
1783206064771254800,2.0002548828125,-0.0060846810753922,-0.0133327068417333,-0.0720423229038715,0.0078912377357482,-0.0043366798199713,-0.0026802555657923
1783206064781192700,2.010192626953125,-0.0039697986801154,-0.0182198030298575,-0.0446533807188272,0.0010032374411821,0.0007033520378172,0.0014194145333021
1783206064791131000,2.020130859375,-0.0064924033597577,-0.0128122174984309,-0.0234118552476167,-0.0094661535695195,0.0026867550332099,0.0003177088219672
1783206064801068800,2.03006884765625,-0.0039711047212127,-0.0145297802723478,-0.0482604653000831,-0.0010537607595324,-0.0016073258593678,-0.0021121590398252
1783206064811006000,2.040005859375,-0.007494630071707,-0.0080407013808377,-0.0660638330161571,0.0035909619182348,-0.0018209214322268,-0.0008093626238405
1783206064820944000,2.04994384765625,-0.0003197060741949,-0.0195483390867244,-0.080420859670639,0.0053260116837918,-0.0046244305558502,-0.0020421398803591
1783206064830881800,2.0598818359375,-0.0004724124178756,-0.0134786089852917,-0.0563221912026405,-0.0007538646459579,-0.0006019510328769,0.0005784991662949
1783206064840818400,2.069818359375,-0.0025975239462219,-0.0105577257030643,-0.0254991829156875,-0.006181919015944,-0.0001446860842406,0.0009971477556973
1783206064850756400,2.07975634765625,-0.0033127230108715,-0.0229088010963052,-0.0455535444289445,-0.0006940644234418,-7.3085539042e-06,-0.0014538476243615
1783206064860694500,2.089694580078125,0.0102095515862107,-0.0163136588812805,-0.0599175853461027,0.0007363194599747,0.0006020227447152,-5.40900509804e-05
1783206064870632400,2.099632568359375,0.0069890917023643,-0.0053075044241268,-0.0841530319362878,0.0038597472012043,-0.0031160381622612,-0.0024041077122092
1783206064880570400,2.1095703125,0.0017112426309846,-0.0124282596821431,-0.0627490093797445,-0.0007057106122374,-0.000888037495315,0.0001709030475467
1783206064890508300,2.11950830078125,-0.0021626487934496,-0.0130766679877415,-0.0446451974123716,-0.0015270104631781,0.002350167138502,0.0005864659324288
1783206064900446500,2.129446533203125,-0.0048522988693788,-0.0038911439533345,-0.0406073201984167,-0.0022077141329646,-0.0014983667060732,0.0009007188491523
1783206064910384400,2.13938427734375,0.0038309564650058,-0.0121965241523459,-0.0591629675865173,-0.0001937141641974,0.0009444765746593,0.0004723262973129
1783206064920322300,2.149322265625,-0.0049303142753429,-0.0152679126880131,-0.0670908379763364,0.003512074239552,-0.0031586550176143,-0.0005370115395635
1783206064930260500,2.159260498046875,-0.0008308704667259,-0.0186253790229093,-0.0579600215375423,0.0010211784392595,0.0007805940695106,0.0008029155433177
1783206064940198400,2.169198486328125,0.0027735198339447,-0.0285308787617832,-0.0498819290220737,-0.0020129606127738,0.0029641198925673,-0.0002255975268781
1783206064950136300,2.17913623046875,-0.0001430069335736,-0.0208546998444013,-0.0392629198521375,-0.0021479567512869,0.0004053865559399,-0.0002588203642517
1783206064960074500,2.189074462890625,0.0011569971485529,-0.0160723426723852,-0.04345452632308,-0.0003998577594757,0.0011505386792123,4.42473683506e-05
1783206064970012400,2.199012451171875,-0.0042581141022033,-0.0174906667714007,-0.0672463207989931,-0.0001299837604165,0.0002879514358937,0.0027569651138037
1783206064979950300,2.208950439453125,-0.001698374016257,-0.0205551415090914,-0.0615571692466735,0.0010442035272717,-0.0009634681046009,0.0007827638182789
1783206064989888500,2.218888427734375,-0.0004388206755276,-0.0151401215898804,-0.0419552276760339,-0.0018571401014924,-0.0004755873233079,-0.0020798896439373
1783206064999826400,2.228826416015625,-0.0045330494529102,-0.0090644001390784,-0.0419528895884752,-0.0008661774918437,0.0002751578576862,-0.0005078257527202
1783206065009764400,2.238764404296875,-0.0035383027945179,-0.0138227736473083,-0.0582622193545103,-0.0014060493558645,-0.0008435836061835,0.0006073506083339
1783206065019702500,2.24870263671875,-0.0014367639380041,-0.0118457744859159,-0.0510772762864828,0.0008235499262809,-0.0016854088753461,0.0010901817586272
1783206065029640400,2.258640380859375,-0.000645522228768,-0.0117689646563492,-0.0456891535073518,0.0015375651419162,0.0015806076116859,-0.0018658190965652
1783206065039578400,2.268578369140625,-0.0080110094954725,-0.0070720481449272,-0.049579146683216,-0.0014054933562874,0.0016935258172452,0.0024618175812065
1783206065049515500,2.278515625,-0.0078538918381556,-0.0095476079456042,-0.0471861140668392,0.0001900559291243,-0.0003740889951586,-7.39125534892e-05
1783206065059453400,2.288453369140625,0.0007587459454312,-0.0139577251385897,-0.0521218169033527,-0.0008565662428736,0.0007116817869246,-9.57504380494e-05
1783206065069391600,2.2983916015625,0.0011693634397815,-0.0100172256181947,-0.0524216766327619,0.0011539729312062,0.0002306411042809,-0.0003453278914093
1783206065079329500,2.30832958984375,0.0074732036911882,-0.008569848954631,-0.0573567949473857,0.00380514934659,-0.0011845626868307,-0.0001903320662677
1783206065089267500,2.318267333984375,0.0083569733889307,-0.0100593568600248,-0.0519686721682548,-0.0011721262708306,0.0004627075977623,0.0016533876769244
1783206065099205400,2.328205322265625,-0.0011878763440065,-0.0097727310715243,-0.0432896911501884,-0.0020469753071665,-0.0016675549559295,-0.0015248288400471
1783206065109143600,2.3381435546875,0.0023789401589427,-0.0145558554285205,-0.0393973598867654,0.0006158230826258,-0.0018579815514385,-0.0011783863883465
1783206065119081500,2.34808154296875,0.003514081668714,-0.0226141746644396,-0.0510673394143581,0.0007479153573513,-0.0009098961018025,-0.0008324417285621
1783206065129019400,2.358019287109375,-0.0049321774388663,-0.0136774286261759,-0.0525619618862867,0.0009712101891636,-0.0001266179606318,0.0017242587637156
1783206065138957600,2.36795751953125,-0.0010178992051165,-0.0185558574506547,-0.0518126048237085,0.0023794900625944,-0.0003580469638109,-0.0011719290632754
1783206065148895500,2.3778955078125,-0.0133386342590209,-0.0140894800257869,-0.043434068056941,-0.0001791082322597,-0.0005331430584192,-0.0013180037494748
1783206065158833400,2.38783349609375,-0.0050113710217643,-0.003806233015703,-0.0491197124779224,0.0007921466603875,-0.0009653740562498,0.0005741722416132
1783206065168771600,2.397771484375,-0.0074945387401618,-0.0064477878998965,-0.060640638923645,0.0016157645732164,-0.002719874959439,-0.0019763107411563
1783206065178709500,2.40770947265625,0.0043431985697709,-0.0107147976946085,-0.0567494767040014,-0.0013845525681972,0.0006575458683073,-0.000595461577177
1783206065188647400,2.4176474609375,0.0053408678376115,-0.0074705642095301,-0.0540548307925462,-0.0017931023612618,0.000808214303106,-0.0017681734170764
1783206065198585600,2.427585693359375,0.0006880553293973,-0.0125458307803608,-0.0539034396231174,-0.0024831276386976,-0.0020927675068378,0.0005727452225983
1783206065208523500,2.4375234375,-0.0021971721175592,-0.018170931519987,-0.0585422053396701,0.0016297120600938,0.0003058686852455,0.0001296359114348
1783206065218461400,2.44746142578125,-0.0017070596462115,-0.010499401378259,-0.046720250120759,0.0014880327507853,-8.50837677717e-05,-0.001275448128581
1783206065228399600,2.457399658203125,-0.0117774219574406,-0.0155771430339664,-0.0363935018956661,-0.001011149957776,-0.0002477820962667,0.0020089540630578
1783206065238337500,2.467337646484375,-0.0067894500775728,-0.0190729857930913,-0.0471674093663692,0.0005105808377265,0.00114451861009,-0.0008038766682147
1783206065248275500,2.477275390625,-0.0030941574899014,-0.0168845815038774,-0.0545008209943771,0.0011975988745689,-0.0008991346694529,-0.002331021009013
1783206065258213600,2.487213623046875,-0.0026401575115509,-0.0159116722179576,-0.0577934327989816,-0.0005638152360916,0.0003552143462002,-0.0002018236555159
1783206065268151600,2.497151611328125,-0.0058170248488429,-0.0186901970205828,-0.0485147323220968,-0.0009455885738134,-0.0010987143032252,0.000353661365807
1783206065278089500,2.50708935546875,-0.0037171208269894,-0.0161202552010305,-0.0541992076992988,-0.0006451839581131,-0.002163978293538,0.0008636568672955
1783206065288027600,2.517027587890625,-0.0041992691875901,-0.0233549008959904,-0.0414788423359394,-0.0006675776094198,-0.0027889385819435,5.11389225721e-05
1783206065297964500,2.526964599609375,-0.0066392462182324,-0.0068515463951975,-0.0525514404922723,-0.0014220513403415,0.0012066015042364,0.0009904359467327
1783206065307902500,2.53690234375,-0.0051205578841269,-0.0100031240276061,-0.0580880318313837,-5.35044819116e-05,-0.0005981344729661,0.00096434680745
1783206065317840600,2.546840576171875,0.0079942410237621,-0.0054547217419371,-0.0639233138561248,-0.0003557736054062,-0.0017278473824262,0.0001640669070184
1783206065327778600,2.556778564453125,-0.0028219986181706,-0.0081715429525822,-0.0515004701346158,0.0012917574495077,8.05649906396e-05,-0.0026968764141201
1783206065337716500,2.566716552734375,-0.0043061270955484,-0.0105572325127199,-0.0434182859659194,-0.0003796424716711,0.0003641918301582,-0.0021384116262197
1783206065347654700,2.576654541015625,0.0079489040446933,-0.0136182640511542,-0.0583826308637857,-0.0028825215995311,0.0003700810484588,0.0003774785436689
1783206065357592600,2.586592529296875,0.0002629252525046,-0.0154991367611568,-0.0558405451655387,-0.0018137944862246,0.0016230982728302,0.000370021443814
1783206065367530500,2.596530517578125,-0.0048493671267759,-0.0157376125589944,-0.044168812072277,6.75935298204e-05,-0.0008941511623561,-0.0005401810631155
1783206065377468700,2.60646875,-0.0033118096954189,-0.0118821609735488,-0.044763855355978,0.0014380561187863,-0.0003268979489803,0.0014017960056662
1783206065387406600,2.616406494140625,0.0034832664053421,-0.0229362096930388,-0.0434159478783607,-0.0026599513366818,0.0001261765137314,0.0022938884794712
1783206065397344500,2.626344482421875,0.0004473145092371,-0.013634119207412,-0.0534434208959341,0.0014415830373764,0.0010385755449533,-0.0008750068955123
1783206065407282700,2.63628271484375,5.57579083833e-05,-0.0149060205730609,-0.050750528550148,0.0009552165865898,1.65649689733e-05,0.0007859775796532
1783206065417220600,2.646220703125,-0.0004571965824346,-0.0123093916759826,-0.0508984125882387,-0.0019076820462942,0.0011244402267038,0.0020227497443556
1783206065427158500,2.656158447265625,0.0016393373053986,-0.0194730270945001,-0.0431201798021793,-0.0014816643670201,-0.0014694463461637,0.0007662470452487
1783206065437096700,2.6660966796875,0.0026095431775785,-0.0157165971704293,-0.0501519781351089,0.0008832225576043,0.0017058406956493,-0.0015722746029496
1783206065447034600,2.67603466796875,0.003619249943085,-0.0120187016337178,-0.0531447302103042,0.000581307336688,0.0011744778603315,-0.0003283286932855
1783206065456972500,2.68597265625,0.0084210607342422,-0.0047163518642541,-0.061522682455182,0.0003325687721371,0.0003606160171329,0.001093266531825
1783206065466910700,2.69591064453125,0.0007510284298565,-0.0106539800186175,-0.0491045149087905,-0.0008593378588557,-0.0007843491621315,-0.0007384046912193
1783206065476848600,2.7058486328125,0.0058298112651798,-0.0173042225548997,-0.0514993010908365,-0.0024905242025852,-0.000272755511105,-0.0019336314871907
1783206065486786600,2.71578662109375,0.0044909821431618,-0.0037851536950562,-0.0543430000841617,-0.0002794964239001,-0.0005669188685715,-0.0014183241873979
1783206065496724500,2.725724365234375,-0.0003027640725485,-0.0132066145103424,-0.0526987400084733,-0.0025013722479343,0.0027377975638955,0.0007907678373157
1783206065506662700,2.73566259765625,-0.0090187434996012,-0.0125568270984105,-0.060181789240241,2.60584056377e-05,-0.0022231289185583,0.000413819681853
1783206065516600600,2.7456005859375,-0.0054649052092339,-0.0155416607286315,-0.0480593897700309,-0.0008165650069713,-0.0004449361003935,-0.0005017754156142
1783206065526538500,2.75553857421875,-0.0048739627119153,-0.0238359806775115,-0.0507540356814861,-0.0027355831116437,-0.0003039636649191,0.0001233112998306
1783206065536475400,2.765475341796875,0.0005162424264475,-0.0111982520963065,-0.0500064321845769,-0.0016024075448513,0.000192183535546,0.0016168118454515
1783206065546413300,2.775413330078125,-0.0011860679794102,-0.0052979054787196,-0.0485094716250896,-0.0010116966441273,-0.0015748674049973,-0.0023185026366263
1783206065556351500,2.7853515625,-0.0007447356863878,-0.0203250316808,-0.0498550410151481,-0.000929937697947,-0.0008933646604418,-9.13010444492e-05
1783206065566289400,2.795289306640625,0.0009661598847247,-0.0162648513034917,-0.0525491024047136,0.0005201417952775,0.0015214313752949,0.0010142573155462
1783206065576227300,2.805227294921875,-0.0044460561560466,-0.0153441927946172,-0.0565899022281169,0.0001233303919434,-0.0008655595593154,-0.000456873094663
1783206065586165500,2.81516552734375,-0.0070573163666762,-0.0128590797143056,-0.0449175846129655,-0.000770354643464,-0.0006405999884009,-0.000103001948446
1783206065596103400,2.825103515625,-0.0062785231470596,-0.017522130488744,-0.0432709864497184,-0.0008326731622219,0.0003591505810618,-0.001124590402469
1783206065606041300,2.835041259765625,-0.0066837429470848,-0.0174828670574352,-0.0461135163992643,-0.0019928645342588,-0.0014623240567743,0.0021088444627821
1783206065615979500,2.8449794921875,-0.0052599572216626,-0.0110441118473652,-0.0509007506757974,-0.0016253478825092,0.0002444959245622,0.0006523616611957
1783206065625917400,2.85491748046875,0.0020096227893605,-0.0102029391823336,-0.0526958173990249,0.0004382412880659,-0.0007607513107359,-0.0025746808387339
1783206065635855400,2.86485546875,-0.0056603455829434,-0.011082142302813,-0.0523947886258363,-0.0007609808817505,-0.0011999066919088,0.0014642695896327
1783206065645793500,2.87479345703125,0.0007979089120402,-0.0126177087064832,-0.0576315202355384,-0.001443650573492,-0.0002105976454913,-3.72303184121e-05
1783206065655731500,2.8847314453125,0.0074036090536974,-0.011887229874311,-0.0488017325699329,0.0038262130692601,0.001335100736469,-0.0013405813369899
1783206065665669400,2.89466943359375,0.0006604823358822,-0.0150050422344356,-0.0511959342300891,0.0006715077906847,-0.0010117604397237,0.0003607580438256
1783206065675607600,2.904607666015625,0.0080004607019945,-0.0169040807887911,-0.0522428129345178,-0.0011058859527111,-0.0014551770873367,-0.0008445887360721
1783206065685545500,2.91454541015625,0.0060821237921249,-0.0098157664956524,-0.0589776741474866,0.0012320885434746,-0.0007853810675442,0.000481772236526
1783206065695483400,2.9244833984375,0.002877756526554,-0.0118602962016128,-0.0540378796577453,-0.0007381178438663,-0.0018138936720788,-0.0010780410375446
1783206065705421600,2.934421630859375,0.0093586338452994,-0.0169356815034523,-0.040422026759386,-0.0001935334876179,0.0002331235446035,0.0025633289478719
1783206065715359500,2.944359375,-0.0009866272840183,-0.0187520376098807,-0.0474538250923156,-0.0003453334793448,0.0002277973107993,0.0016325544565916
1783206065725297400,2.95429736328125,0.0063380621814168,-0.0067480494881048,-0.0496960510611534,-0.0016757464036345,0.0004991488531231,0.0012237722985446
1783206065735235300,2.9642353515625,0.0042345414303708,-0.0089216763332951,-0.0531371314257383,0.0025131395086646,4.98737208545e-05,-0.0006601477507501
1783206065745173500,2.974173583984375,0.0080324267428368,-0.0070416986724361,-0.0588192687153816,0.0028494670987129,-0.0019141156226396,-8.94332770258e-05
1783206065755111400,2.984111328125,-0.0001810008564032,-0.0129014210186898,-0.057022448426485,-0.0007410068064928,0.0018579857423901,-0.0004825158976018
1783206065765049300,2.99404931640625,0.0011604038151912,-0.0153454075041692,-0.0411608624279499,0.0016137203201651,-0.0004832437261939,-0.0013521758373826
1783206065774987500,3.003987548828125,0.0004414692903403,-0.0153287029645405,-0.0546264932006597,0.0022624665871262,-0.0006158691830933,0.0001719510182738
1783206065784925400,3.013925537109375,0.0017911942657083,-0.0189669772685039,-0.0444517206668853,5.3503550589e-05,-0.0021620271727442,-0.000710787018761
1783206065794862600,3.023862548828125,-0.0025323862881399,-0.018325656290818,-0.0496890367984771,0.0015451405197381,0.0050117298960685,0.0017060316167771
1783206065804800500,3.033800537109375,0.0048347632126882,-0.0063070185891818,-0.0480441922008991,0.001733717508614,-0.0009684897959232,0.0003300136886537
1783206065814738400,3.043738525390625,-0.0043263844322878,-0.0090445263948291,-0.0507370845466852,0.0004375567659735,0.0013098446652293,-0.0015387265011668
1783206065824676600,3.053676513671875,-0.0081837539801839,-0.0118421303572598,-0.0502875872135162,0.0013842275366187,-0.001428629271686,0.0037799724377691
1783206065834614500,3.063614501953125,-0.0012423830102197,-0.0126253805562853,-0.0514811809122562,-0.000145492143929,-0.001672841142863,0.00316424947232
1783206065844552700,3.073552734375,-0.0059243394145276,-0.0138596441921312,-0.0616553689241409,-0.0011535501107573,-0.0008659516461193,0.0007819319143891
1783206065854490600,3.08349072265625,-0.0031910328599624,-0.0117861167205497,-0.0538742135286331,-0.000198807567358,0.0001103631220757,-0.0002271397970616
1783206065864428500,3.093428466796875,0.0044060438060667,-0.013608820369374,-0.0531254409879446,0.0013365754857659,0.0017456007190048,0.0009135846048593
1783206065874366500,3.103366455078125,0.0027300460183992,-0.0131092368167825,-0.0550724834024906,0.0012950301170349,0.001683815382421,0.0014821696095168
1783206065884304600,3.1133046875,0.0012072020989842,-0.016228209087532,-0.0425046782523393,-0.002015633508563,0.0019494332373142,-0.000138730276376
1783206065894242600,3.12324267578125,0.006639812473813,-0.0135273434978444,-0.0475935258239507,0.0003745537251234,-0.0006769765168428,-0.001349403290078
1783206065904180500,3.133180419921875,-3.00115457735e-05,-0.0183172903212718,-0.056571197527647,-0.0011619087308645,-0.0001424672082066,0.000181421637535
1783206065914118700,3.14311865234375,0.0068728540447074,-0.0234899071861989,-0.0522322915405034,-0.0017134500667452,0.000365131534636,0.0005348231643438
1783206065924056600,3.153056640625,0.0038203254731372,-0.0271359720709733,-0.0484907669246196,-0.001114540733397,-0.0013696290552616,-0.0002151678781956
1783206065933994500,3.162994384765625,-0.0024414657348301,-0.0163403824914246,-0.0432511127054691,0.0003765625879168,-0.0038703372702002,0.0014104256406426
1783206065943932400,3.172932373046875,-0.0004464468595571,-0.0104915285990573,-0.051328620699048,4.76287677884e-05,-0.0002332651056349,0.0013102968223392
1783206065953870600,3.18287060546875,0.0002494629827328,-0.0110810554574243,-0.0580611438244581,0.000129654072225,-0.0011547189205884,-0.0027992269024252
1783206065963808500,3.19280859375,-0.0043757217330392,0.0009986739148385,-0.0549181696236133,-0.0045017655938863,-0.0029643694870173,0.0011967909522354
1783206065973746400,3.202746337890625,-0.0079915924089495,-0.0113030459113419,-0.0573129558056592,0.0002652928233146,-0.0001768390648066,-0.0005771405994892
1783206065983684600,3.2126845703125,0.0019893563194666,-0.0162596636717207,-0.0570142651200294,0.000629530288279,-0.0027780923992395,0.0002612294629216
1783206065993622500,3.22262255859375,0.0040517870082985,-0.0106947778198868,-0.0519283401578664,0.0014995848760008,0.0002411329187452,-0.0023598538246005
1783206066003560400,3.232560546875,-0.0090359503627289,-0.0007332735774572,-0.0647971740812063,0.0022464292123913,0.0033708410337567,-0.0005773343145847
1783206066013498600,3.24249853515625,0.0004912723819725,-0.0064379606256261,-0.0484878443151712,-0.0010622823610901,-0.001039087306708,-0.001639402937144
1783206066023436500,3.2524365234375,0.0073142868024297,-0.0180030458734836,-0.0460930581331253,0.0005436753854155,0.0014369995333254,0.0008193687535822
1783206066033374500,3.26237451171875,0.0024441691485699,-0.0154010284152347,-0.0523778374910354,-0.0017993738874793,-0.0012192372232675,0.0002625016495585
1783206066043312600,3.272312744140625,0.0112704496828373,-0.0185468795597553,-0.0546218170255422,-0.0036500012502074,-0.0008152099326252,-0.0002077289391309
1783206066053249500,3.28224951171875,0.0155007441963534,-0.0207372474771924,-0.039209728360176,-0.0012510260567069,-0.0003214594908058,-0.0005592661909759
1783206066063187700,3.292187744140625,0.0020425843440461,-0.0044721313122194,-0.0513303742647171,0.0004116389900445,-1.91507861018e-05,-0.0012885485775768
1783206066073125600,3.302125732421875,-0.0042476840397343,-0.0217917980314232,-0.0484872597932815,-0.0023058513179421,-0.000776819884777,0.0010590278543531
1783206066083063600,3.3120634765625,0.0033103849233128,-0.0233236472412012,-0.0435486343473196,-0.0008041160181164,0.0001069167628884,0.0010140491649508
1783206066093001700,3.322001708984375,0.0026123379228636,-0.0167918160533532,-0.0526759436547756,-0.0003662919625639,-0.0008725938387215,0.0017868988215923
1783206066102939600,3.331939697265625,-0.0021090645758435,-0.0091824096287135,-0.0585112256795167,-0.0013146782293915,-0.0008520651608705,0.0010729762725532
1783206066112877600,3.341877685546875,0.002944492486678,-0.014953531242907,-0.0475859270393848,0.0001580500975251,-0.0034204176627099,-0.0018849968910217
1783206066122815500,3.3518154296875,-0.0052124739512801,-0.0117931583826895,-0.0571580575048923,0.0016869278624653,0.0005809594877064,0.0003266264684498
1783206066132753700,3.361753662109375,-0.0069183188879396,-0.0182292101790197,-0.0570095889449119,0.0012949109077453,0.001725586131215,0.0008211755193769
1783206066142691600,3.371691650390625,-0.0003126461457461,-0.0149417951393406,-0.0480289946317672,0.0001420900225639,-0.001548090018332,-0.0021874182857573
1783206066152629500,3.38162939453125,0.0081963029345031,-0.0032659064607694,-0.0520680408895015,-0.0003364803269505,0.0008373036980628,0.0005668229423463
1783206066162567700,3.391567626953125,0.0063560818952973,-0.0082495309590827,-0.0622428134232759,-0.0003440715372562,0.0012077712453901,0.0004884246736764
1783206066172505600,3.401505615234375,-0.0017503233992028,-0.0062101523522753,-0.057305941542983,0.0004833731800317,-0.0004210178740322,0.0001664482988417
1783206066182443500,3.411443603515625,0.0006418963664211,-0.0072757448903284,-0.0513186838269233,-0.0016979603096842,0.0005961335264146,-0.0004053672309964
1783206066192381700,3.421381591796875,0.0031816987760365,-0.0142142571829259,-0.0519178187638521,-0.0017064828425645,-0.0006686020642518,-0.0005443843547254
1783206066202319600,3.431319580078125,0.0051769733796361,-0.0044457821614108,-0.058801733058691,0.0002153068780899,0.0031010827515274,0.0003010733053088
1783206066212257500,3.441257568359375,-3.0678266054e-05,-0.0192097365158144,-0.0490764578580856,0.000423832796514,-0.0006108311936259,-0.0004882875364273
1783206066222195700,3.45119580078125,0.0064241969617549,-0.0137520647649653,-0.0543131894677877,-3.76002863049e-05,0.0004024151712656,-0.0001655321102589
1783206066232133600,3.461133544921875,0.0023952519729267,-0.0116402237101458,-0.0480278255879879,0.0017200857400894,0.0015758038498461,0.0018435567617416
1783206066242071600,3.471071533203125,-0.0008160382237751,-0.0215765295792371,-0.0457815079659223,0.0007506357505917,-0.0011532376520335,0.0015550511889159
1783206066252009700,3.481009765625,-0.0040312739432323,-0.0178479831759352,-0.0477273813366889,0.0300214402377605,0.0201307460665702,-0.0001325937919318
1783206066261947600,3.49094775390625,0.0058620513006579,0.0151281114916782,0.3512807045668363,0.077115423977375,-0.0726996213197708,0.0023980648256838
1783206066271885600,3.500885498046875,0.0379645140720531,-0.0081443398518254,-0.5140811567604542,0.0799554213881492,-0.0273044444620609,0.0004318528808653
1783206066281823700,3.51082373046875,-0.0032204690170008,0.0030986464353511,-0.4675023609369993,0.0247619152069091,-0.0042142220772802,0.0003935629501938
1783206066291761700,3.52076171875,-0.0018658578039612,-0.0504063821544405,0.5738210474520922,-0.0652787610888481,0.0117389122024178,0.0016875932924449
1783206066301699600,3.530699462890625,-0.016937480734894,-0.0547700115908868,-0.0371393518269062,-0.1022317707538604,0.0915424525737762,0.0007880348712205
1783206066311636700,3.54063671875,-0.0250572295681573,-0.0262586138477083,-0.1370838271349668,-0.068017341196537,0.0074747106991708,0.0009611402638256
1783206066321574700,3.55057470703125,0.0349578430693596,-0.0083699607346672,0.0346820218026638,0.0164433866739273,-0.000703218858689,-0.0007302530575543
1783206066331512600,3.5605126953125,0.0035800139112398,0.0132240588354878,-0.3257435277283191,0.0534267053008079,-0.0328981727361679,-0.0025550508871674
1783206066341450800,3.57045068359375,0.0149069521548226,-0.0092334730956703,-0.3021685908734798,0.0275619141757488,-0.0258423499763011,0.0024796342477202
1783206066351388700,3.580388671875,-0.00111492070565,-0.0265524182956665,0.2570329795956611,-0.0294244047254323,0.0130927991122007,-0.0001046971883624
1783206066361326600,3.59032666015625,-0.0149156651842407,-0.0316332834902219,0.1011976902395486,-0.0580500438809394,0.0212948769330978,-0.0008920289110392
1783206066371264800,3.6002646484375,0.0001038074343465,-0.0211952386440709,-0.0491109446495771,-0.0315015278756618,0.0223995558917522,-0.0016726015601307
1783206066381202700,3.61020263671875,0.0076994684614241,-0.0036764965556561,-0.0363993471145629,0.0178475975990295,-0.016183054074645,-0.0009710441809147
1783206066391140600,3.620140625,0.0236753832883201,0.0049545719337649,-0.2851969978064298,0.0388884358108043,-0.0139321498572826,0.0017501739785075
1783206066401078800,3.630078857421875,0.0057733957696706,0.0031166524494998,-0.1022965913921594,0.0145291788503527,-0.0148582067340612,-0.0018239261116832
1783206066411016700,3.6400166015625,0.0064757901516743,-0.0256522271860856,0.0959784942865371,-0.0145741114392876,0.0104127936065196,-0.0014899657107889
1783206066420954600,3.64995458984375,-0.0008993691256735,-0.0290202057818416,0.0241091898620128,-0.0309087522327899,0.0181180443614721,-0.0001861995551735
1783206066430892800,3.659892822265625,-0.0007657054091803,-0.0199367082166485,-0.0664513710290193,-0.0101848347112536,0.0020834181923419,-0.0004493198357522
1783206066440830700,3.669830810546875,0.0009849193841218,-0.011440180226555,-0.0960696797013282,0.0197687298059463,-0.0094062369316816,0.0006057666614651
1783206066450768600,3.6797685546875,-0.0022849051999393,-0.0065667837702203,-0.1428717628866434,0.0238058157265186,-0.0117844399064779,0.0014289496466517
1783206066460706800,3.689706787109375,0.0078854468870442,-0.0167249887616839,-0.0373591320574283,-4.07826155424e-05,-0.0008371407166123,-0.0006782682612538
1783206066470644700,3.699644775390625,-0.0028541016563307,-0.0223687668023165,0.0612362667292356,-0.0173787586390972,0.0094929952174425,-0.0014386007096618
1783206066480582700,3.709582763671875,-0.0038603560894262,-0.0199431562237441,-0.0375502707153558,-0.0133723011240363,0.0092269452288746,-0.0018480245489627
1783206066490520800,3.719520751953125,0.0077782327860593,-0.0194160636097192,-0.0978618238151073,0.004040777683258,-0.0030630105175077,0.000648955348879
1783206066500458800,3.729458740234375,0.0053057508584577,-0.00805521396338,-0.1157972934782504,0.0180371440947055,-0.0095817390829324,-0.0013783811591565
1783206066510396700,3.739396728515625,6.25803748145e-05,-0.0056478605607058,-0.0855523773401975,0.0075064720585942,-0.0032450133003294,-0.0019400417804718
1783206066520334800,3.7493349609375,0.0032294103752821,-0.0146879208429716,-0.0069932198882102,-0.0077818660065531,0.0046761557459831,-0.0004813277628272
1783206066530272800,3.759272705078125,0.0045484936172142,-0.0132410465029068,0.001967500680685,-0.0099531402811408,0.0069584846496582,5.7962257415e-05
1783206066540210700,3.769210693359375,0.0055684843147173,-0.008239594086958,-0.0760059658378362,-0.000809128396213,-0.0002602161839604,0.0016654790379106
1783206066550148600,3.779148681640625,0.0058483424357138,-0.0112753085210453,-0.0852758984863758,0.0085667967796325,-0.0053830728866159,-0.0038041213992983
1783206066560086800,3.789086669921875,0.0083126410568598,-0.0135372073047328,-0.0677560238867998,0.0079596452414989,-0.0022495351731777,0.0033812667243182
1783206066570024700,3.799024658203125,0.0121355968785006,-0.0189712607179768,-0.0439601377576589,-0.0026410678401589,0.0004956517368555,0.0027461028657853
1783206066579961600,3.808961669921875,0.0004524016763083,-0.0127855852198321,-0.0050613750427961,-0.0080460514873266,0.0034009993541985,0.0009679435752332
1783206066589899500,3.8188994140625,0.0140769493377767,-0.0053099795090034,-0.0544511366337537,-0.0031050890684127,0.001361284404993,-0.0011079907417297
1783206066599837400,3.82883740234375,0.0093016338279005,-0.0096593703575432,-0.0866197143107652,0.0038104634732007,-0.003048300743103,0.0006217453628778
1783206066609775600,3.838775634765625,0.0071538629431743,-0.0136759307888336,-0.0806236887663602,0.0078515447676181,-0.0063777845352888,0.0004768692888319
1783206066619713500,3.848713623046875,0.0031170543082989,-0.0134174716488923,-0.0442541522681713,-0.0023025320842862,-0.0016557020135223,-0.0011874514166265
1783206066629651500,3.8586513671875,-0.0045012386756949,-0.017010427240096,-0.0273509482622146,-0.0076967645436525,0.0035691538359969,0.0003712968900799
1783206066639589600,3.868589599609375,0.0032475214207079,-0.0139042413856834,-0.0405278252214193,-0.0035407813265919,0.0024556119460612,0.0018574055284261
1783206066649527600,3.878527587890625,0.0059282392715103,-0.0097664291949011,-0.0544464604586362,0.0019306829199194,-0.000184379518032,-0.0011048284359276
1783206066659465500,3.888465576171875,-0.0022019670236855,-0.013198504269123,-0.0785311004012823,0.0045503387227654,-0.0025303685106337,0.0018850956112146
1783206066669403600,3.898403564453125,0.0005973083060234,-0.0178171131136361,-0.0587742605298757,0.000519910827279,-0.0004072962328791,0.0005945279262959
1783206066679341600,3.908341552734375,0.0023288082737475,-0.0187022801840212,-0.0315454773426055,-0.0064580319449305,0.0004081428050994,-4.80886083096e-05
1783206066689279500,3.918279541015625,0.00161173691242,-0.0205606305349618,-0.0387345120638608,-0.0037778271362185,0.00341218826361,-0.0008062906563282
1783206066699217700,3.9282177734375,0.0047420068953186,-0.0121392227408476,-0.0635755233317613,0.0025228736922144,-0.0008938559330999,-0.0033074321690946
1783206066709155600,3.938155517578125,0.0025666995496954,-0.0127962527443189,-0.0756914930611848,0.0034565785899758,-0.0006070332601666,-0.0029961087275296
1783206066719093500,3.948093505859375,0.008452707114676,-0.0153090758154634,-0.057882280126214,0.0009536417201161,0.0019301497377455,-0.0011572847142815
1783206066729031700,3.95803173828125,0.0123503904066514,-0.0109719507934525,-0.043219548523426,-0.0006314720958471,-0.0008837459608912,0.0004517971538007
1783206066738969600,3.967969482421875,-0.0016530461703427,-0.0162602025278378,-0.0400794969320297,-0.0015425626188516,0.0016053281724452,-0.0008266668301075
1783206066748907500,3.977907470703125,0.0055292208834085,-0.0116282775440253,-0.0580383474707603,0.0005485508590936,-0.0003859172575175,0.0015973425470292
1783206066758845400,3.987845458984375,0.0011781495344359,-0.0140346171665471,-0.0601303513139486,0.0012720096856355,-0.0020938799716532,-0.0001012624707072
1783206066768783600,3.99778369140625,0.0011821224566549,-0.0132957997642923,-0.0593786561638116,-0.0012625204399228,0.001207108143717,-0.0012043437454849
1783206066778721500,4.007721435546875,0.0014810232048388,-0.0024695867176167,-0.0474088169068098,-0.0009154127910733,0.004007467534393,-0.0019597357604652
1783206066788659500,4.017659423828125,0.0076870839038863,-0.0190703737108968,-0.0364881944417953,-0.000718604773283,0.0017653522081673,-0.0012886191252619
1783206066798597600,4.02759765625,-0.000909945318615,-0.0158981916818767,-0.0559410829305648,-0.0025752875953912,-0.0017754919826984,-0.0004330168012529
1783206066808535600,4.03753564453125,0.0012302633141633,-0.0093053053560201,-0.0601285977482795,0.0035848701372742,0.000870092306286,-0.0027686092071235
1783206066818473500,4.047473388671875,0.0002362564412876,-0.0060318823090754,-0.0593774871200323,0.0027773743495345,0.0006843232549726,0.0005741752684116
1783206066828411600,4.05741162109375,0.0027995127917267,-0.0206197677105199,-0.055338440862298,-0.0021867575123906,-0.0008789524435997,0.0024767373688519
1783206066838348500,4.0673486328125,0.0020455069534946,-0.0177948647492099,-0.0465127448499202,-0.0003414517268538,0.0020325302612036,-0.0010356768034398
1783206066848288800,4.077288818359375,-0.0009109499656129,-0.0056415952167008,-0.0580348403394222,0.0016026552766561,0.0005765799432992,-0.000680144643411
1783206066858226000,4.087225830078125,0.007288403442502,-0.0066675315978005,-0.0631195962578058,0.0019823741167783,-0.0041882945224642,9.43099148571e-05
1783206066868163800,4.097163818359375,0.0111024087727069,-0.0078355159312486,-0.0548848518759012,0.0012691793963313,-0.0015062252059578,0.0001478395424783
1783206066878101800,4.107101806640625,0.0104362821473274,-0.0048655602097511,-0.047249826952815,-0.0026786681264638,-0.0013696891255676,-0.0005102991126477
1783206066888040000,4.1170400390625,0.0098907131616957,-0.0149511292232666,-0.0405173038274049,-0.0026525687426328,0.0010479283519089,-0.0020109903998672
1783206066897977900,4.126977783203125,0.0032550380068831,-0.0162153496059589,-0.0536842439144849,0.0015593161806464,0.0003985445946455,0.0006474126130342
1783206066907915800,4.136915771484375,0.0024732856451999,-0.0190110538722481,-0.0640080695301294,0.0023460136726498,0.0007993504405021,0.0003115879371762
1783206066917854000,4.14685400390625,0.0025772026774007,-0.0115260592785663,-0.048443420651555,-0.0006595784798264,-0.0012463112361729,-0.0009663526434451
1783206066927791900,4.1567919921875,0.0048618156163953,-0.0146722392166499,-0.0421580567717552,-0.001026296056807,0.0015329634770751,0.000239792978391
1783206066937729800,4.166729736328125,0.0075951678367331,-0.0058433009344153,-0.0559270544052124,0.0014334479346871,0.0001382138580083,0.0018056209664791
1783206066947667700,4.176667724609375,-0.0053844877836294,-0.0065593950482085,-0.0514390953361988,0.000425174832344,0.001242893282324,-0.0015558209270238
1783206066957606000,4.18660595703125,0.0026469525785185,-0.0075845825106371,-0.0616156214356422,0.0016002813354134,0.0024183036293834,0.001311402535066
1783206066967543800,4.196543701171875,-0.0083291720665525,-0.0116566359888296,-0.0569762711971998,0.0016871010884642,0.0005016266368329,-0.000832175835967
1783206066977481700,4.206481689453125,-0.0066256926169153,-0.0219303297192789,-0.0478472083240747,0.001232330687344,0.0010980693623423,-0.0007580935489386
1783206066987420000,4.216419921875,-0.0080333126588258,-0.0130156037165783,-0.0462029482483863,-0.0009732991456985,0.0015832972712814,-0.0013146942947059
1783206066997357800,4.22635791015625,-0.0027358090389054,-0.0064258774621877,-0.0499427192986011,-0.0006381291896104,-0.0017146873287856,0.0022008325904607
1783206067007295700,4.236295654296875,-0.0088423822856973,-0.0183022936815395,-0.0526332735568284,0.0009182216599583,-0.00217408221215,0.0018349140882492
1783206067017234000,4.24623388671875,-0.0202769730216823,-0.0259527536357752,-0.0569715950220823,0.0002759406343102,-0.000966627150774,-0.0015651879366487
1783206067027171800,4.256171875,-0.0395069577410817,-0.0363820215204264,-0.0523334138274192,0.0009534489363431,0.0008408604189753,-0.0004525193944573
1783206067037109800,4.26610986328125,-0.0374320602963212,-0.0276478031837847,-0.0454530066639184,-0.0023855026811361,0.0015115216374397,-0.0013251022901386
1783206067047048000,4.2760478515625,0.0043431346376892,-0.0111129301667213,-0.0441103598833084,-0.0028084116056561,0.0009767585434019,-0.0012776982039213
1783206067056985900,4.28598583984375,0.0340415502083487,0.0045159247881732,-0.0568307252466678,-0.0006964998319745,-0.0002888939343392,0.0007684521842747
1783206067066923800,4.295923828125,0.0544946926476899,-0.0107461518140975,-0.059223173341155,0.0004537189379334,-0.001149361487478,-0.0003426186740398
1783206067076862000,4.305862060546875,0.0522549143642652,-0.0209475292270071,-0.0605669891655445,0.0027422700077295,-8.34031961858e-05,-0.000237378058955
1783206067086800000,4.3157998046875,0.007239906391967,-0.0174183687201701,-0.0586187777072191,0.0005257204174995,-0.0014067282900214,-0.0017958600074052
1783206067096737800,4.32573779296875,-0.0178288492172025,-0.0047996644998434,-0.0485948118209838,-0.0024253772571682,0.0002510268241167,-0.0039393058978021
1783206067106676000,4.335676025390625,-0.0039314028984867,0.0002189034476876,-0.0494949755311012,-0.0013121757656335,0.0018177647143602,0.0010618446394801
1783206067116612600,4.345612548828125,0.0202754112522583,-0.0031271281777415,-0.0536836593925952,-0.0025636432692408,-0.0026560272090137,-0.0005271525587886
1783206067126550800,4.35555078125,0.0127000258282292,-0.0282906311319675,-0.0608656798511743,0.0005144383758306,-0.0003974009305238,-0.0004163652192801
1783206067136488700,4.36548876953125,0.0319096892788074,-0.0020928714928682,-0.0465016389340162,-0.0013105273246765,0.0019814609549939,0.0005897763185203
1783206067146426600,4.375426513671875,0.0456948982615489,0.0041828386425971,-0.0545838231027126,0.0006330478936433,0.0001851585693657,5.98072074353e-05
1783206067156364800,4.38536474609375,0.0140051170774269,0.0045531149934045,-0.0424643462419509,0.0011335760354995,0.0011454215273261,0.0014330449048429
1783206067166302700,4.395302734375,0.01716326144794,0.002163489043666,-0.0518897617131471,0.000498678535223,-0.0028937947936356,-0.0008178590796887
1783206067176240600,4.40524072265625,0.0417784920027945,-0.0085459200897719,-0.0635579876750707,0.0017938306555151,-0.001717209815979,0.0007270909845829
1783206067186178600,4.415178466796875,0.0269668534486088,0.0062427029150072,-0.0370703782439231,-0.0011505605652928,-0.0017888485454022,0.0021020811982452
1783206067196116700,4.42511669921875,0.0283833417835645,0.0281043330459389,-0.0479933387964963,0.0006655100733041,0.001245898194611,0.0008546148892492
1783206067206054700,4.4350546875,-0.0042525794105604,-0.011159445322724,-0.0584656329721212,0.0012663193047046,-0.0023514996282756,-0.0008356934413313
1783206067215992600,4.44499267578125,-0.0131896999081596,-0.0275532293686643,-0.056218730828166,0.0013396646827459,-0.0016460325568914,0.0002361189108341
1783206067225930800,4.4549306640625,0.0003510236610658,-0.0145791541057173,-0.0497854829102754,-1.80145725607e-05,0.0007494809105992,-0.0001742742024362
1783206067235868700,4.46486865234375,-0.0145152128908783,-0.0113692521485034,-0.0502379028528928,-0.00188609957695,0.0022541470825672,0.001835857052356
1783206067245806600,4.474806640625,-0.0150098645400255,-0.0063746861310675,-0.0451537314563989,-0.0010983366519212,0.00120246456936,0.0005207881331443
1783206067255744800,4.484744873046875,-0.0016274824708234,-0.0194693738326895,-0.0574263530522584,0.0024090083315968,0.0016776984557509,-0.0032761879265308
1783206067265682700,4.4946826171875,-0.0146916197705548,-0.0198711869660764,-0.0520382302731275,0.0024875709787011,0.0012830179184675,0.0038538933731615
1783206067275620600,4.50462060546875,-0.0237187383728567,-0.0201596850512549,-0.057874681341648,-0.0014486880972981,-0.0002602990716695,5.2273273468e-05
1783206067285558800,4.514558837890625,-0.0214032097057905,-0.0137664403501898,-0.0509925206124782,-0.0017701312899589,0.0023661106824874,0.0006618709303438
1783206067295496700,4.52449658203125,-0.0170254421461373,0.0048605826405342,-0.0408171635568141,-0.0021396186202764,-0.000720823649317,0.0008308615069836
1783206067305434600,4.5344345703125,-0.0046933545811567,-0.0110031313830055,-0.0602677139580249,0.0002598892897367,-0.0009911344386637,0.0017389992717653
1783206067315372800,4.544372802734375,-0.0081875259730033,-0.0161963617776986,-0.0583159953683614,0.004413484595716,-0.0023480760864913,0.0015982028562575
1783206067325310700,4.554310791015625,-0.0086253511346876,-0.0200674493236932,-0.0487356815963983,-0.0011077811941504,-0.0013856096193194,0.0004999150987714
1783206067335248600,4.56424853515625,-0.001833024113439,-0.0185822796666994,-0.0538245291680097,0.0004433924332261,-0.0007905610837042,-9.22533217817e-05
1783206067345186800,4.574186767578125,0.0051242111459374,-0.0234582790720742,-0.0634030893743038,-0.0009334618225693,0.0009301071986556,0.0007932477165013
1783206067355124700,4.584124755859375,-0.0086627605356276,-0.0417248347199521,-0.0647504123300313,-0.0001406362280249,-0.0003465618938207,7.91675411164e-05
1783206067365062700,4.594062744140625,-0.0132228897917084,-0.0295134600583463,-0.0554711273312568,0.0007419353350996,-0.001652842387557,-0.0014303119387477
1783206067375000800,4.604000732421875,0.0062684036118444,0.0010708441019058,-0.0449970795899629,0.001609711907804,0.0010461043566465,-0.0008257965091615
1783206067384938800,4.613938720703125,0.0152775298997294,0.0003852912568487,-0.0514326655954122,-0.0007735509425401,-0.0007358165457844,0.000424823956564
1783206067394876700,4.623876708984375,0.0124012529442086,0.0006411474477499,-0.0520288779228925,-0.003181304782629,0.0016653509810566,-0.0007432461716234
1783206067404813800,4.633813720703125,0.0111360735802911,-0.0082755604494828,-0.0565162524700164,-0.000167672522366,-0.001106733456254,1.46892853081e-05
1783206067414751700,4.643751708984375,0.0107240861127618,-0.0146896561423316,-0.0485848749488592,0.0004259701818227,0.0007674428634345,0.0007712352089583
1783206067424689700,4.653689697265625,0.0065137110092677,-0.0149404890982434,-0.04125380140841,-0.0014278562739491,0.0007346859201788,0.0001776167191565
1783206067434627800,4.6636279296875,0.0063948064704891,-0.0094290595998521,-0.0527770659416913,0.0005345195531845,8.40304419398e-05,-0.0002309693954885
1783206067444565800,4.673565673828125,0.0143000266370829,-0.0108367344406899,-0.0518798248410224,-0.0012420751154422,-0.0013633975759148,0.0005314934533089
1783206067454503700,4.683503662109375,0.0125274092076811,-0.0125766369105782,-0.0657943684250116,0.001698050647974,0.0007362961769104,0.001268888823688
1783206067464441900,4.69344189453125,0.0111706882359459,-0.0056904667265713,-0.0566664745956659,-0.0002194251865148,-3.89502383768e-05,0.0010417210869491
1783206067474379800,4.7033798828125,0.0109284769779071,-0.013064721821621,-0.0411059173703193,-0.0015897778794169,-0.0006646723486483,-0.0042274352163076
1783206067484317700,4.713317626953125,0.0020172672396991,-0.0288913552377838,-0.0574164161801338,-0.0005133282393217,0.0008048596791923,0.000172373605892
1783206067494255900,4.723255859375,0.0060331883501727,-0.023706527345255,-0.0556195958912372,-0.0007627606391906,-0.0042121834121644,0.0003138196188956
1783206067504193800,4.73319384765625,0.0051507794924546,-0.0125141752667725,-0.0607055208534002,-0.0035284543409943,0.0006150626577436,0.0004688154440373
1783206067514131700,4.743131591796875,0.0013731423835735,-0.0151949570496566,-0.0533738627910614,0.0002674059942364,-0.0008571441285312,0.0010531099978834
1783206067524070000,4.75306982421875,0.0007390457311179,-0.0215731594452168,-0.0515770425021648,-0.0033995006233453,0.0006225081160664,0.0010653606150299
1783206067534007800,4.7630078125,-0.0039040491006802,-0.0216102765852119,-0.0487356815963983,0.0018170904368162,0.0007350980304181,-0.0005971090868115
1783206067543945700,4.77294580078125,0.0054448853345122,-0.0205830158967059,-0.0539741667717695,-0.0003991918638348,0.001656019128859,-0.0016048492398113
1783206067553884000,4.7828837890625,-0.009206502890354,-0.0187256062606815,-0.0505336709290742,0.0002727396786212,0.0008039115928113,0.000156412133947
1783206067563821800,4.79282177734375,-0.0032908765052445,-0.0197023332051932,-0.0473906967282295,0.002236820757389,0.0004433197900652,0.0015764094423502
1783206067573759700,4.802759765625,-0.0070449774749111,-0.0122052280486095,-0.0529272880673408,-0.0003264211118221,0.0020413273014128,-0.0020030634477734
1783206067583698000,4.812697998046875,-0.0033032336633186,-0.0141113356645684,-0.0587637391358613,-0.0028742682188749,0.0004807151854038,-0.0030709910206496
1783206067593635800,4.8226357421875,0.0043488611255772,-0.0111824243395123,-0.0584668020159006,-0.0006266813725233,-0.000259282067418,0.0023088501766324
1783206067603573800,4.83257373046875,0.007259305212181,-0.0078314242780208,-0.0517336943686008,0.0013919938355684,-0.0015043099410831,-0.0017530033364892
1783206067613511700,4.84251171875,0.0112724863762967,0.0012559731441549,-0.0470943441301584,0.0026676747947931,0.0006690719164907,-0.0018523641629144
1783206067623449900,4.852449951171875,0.0072395136663224,0.0029459263919387,-0.0608615881979465,-0.0026455977931618,0.0012376569211483,-0.0028230864554643
1783206067633387800,4.8623876953125,0.0013433043677359,-0.0135483954190276,-0.055026890695095,-0.0003005620092153,-9.07373614609e-05,0.0017354222945868
1783206067643325700,4.87232568359375,0.0054692525907885,-0.0091826562238857,-0.0454489150106906,0.0032765958458185,-0.0018920991569757,-0.0022073877044022
1783206067653264000,4.882263916015625,0.011660426247958,-0.0078500650464091,-0.042005496558547,0.0006983811035752,-0.0007127500139176,-0.0031176463235169
1783206067663201800,4.892201904296875,0.0067435285766143,-0.0056526919994503,-0.0581651887208223,-7.0901587605e-06,0.0008579823188483,-0.0017389277927577
1783206067673139700,4.9021396484375,0.0033455201687756,-0.0009187588127329,-0.0593640431165695,-0.0002363985404372,0.0010842033661901,0.0005724914371967
1783206067683078000,4.912077880859375,0.008881590918079,-0.0034073424917645,-0.0566711507707834,-0.0023221857845783,0.0009846012108027,-0.0005468348972499
1783206067693015800,4.922015869140625,0.0022798088997136,-0.0033431090159807,-0.057718029475212,0.0020175939425826,0.0003771479241549,0.0017745804507285
1783206067702953700,4.93195361328125,0.0037701570553239,-0.0144325213097967,-0.0532277323186397,1.94245949387e-05,0.0008416031487286,0.0012571283150464
1783206067712891000,4.941890869140625,-0.0028274693777319,-0.0160446874804794,-0.0565197596013545,-0.0005831094458699,-0.0018803253769874,0.0011045979335904
1783206067722828800,4.951828857421875,0.0032279308042488,-0.0136687612625304,-0.042602293407917,5.12553378939e-05,-0.0003585945814847,0.0004454655572772
1783206067732767000,4.96176708984375,0.0063245907784905,-0.0043506420907098,-0.0524766216903924,0.0026833210140466,2.40230001509e-05,-0.0003728382289409
1783206067742705000,4.971704833984375,0.0054027723589912,-0.004972619047109,-0.0551677604705095,0.0014444179832935,-0.0017938506789505,0.000403206795454
1783206067752642800,4.981642822265625,0.0144908547677565,-0.0094950557744596,-0.0506792168796062,-0.0029207719489932,0.0015914379619061,0.0009324534330517
1783206067762581000,4.9915810546875,0.0139156030299142,0.0005820559379644,-0.0426034624516963,0.0003389371559023,0.0018926416523754,-0.0005027242004871
1783206067772519000,5.001518798828125,0.0094328863915987,0.0022331476132385,-0.050536009016633,0.0011707292869687,-0.0003293142654001,-0.0020730923861265
1783206067782456800,5.011456787109375,0.0038402722826227,-0.0091436850535217,-0.0556207649350166,0.0020961770787835,-4.83505427837e-05,0.0028324506711214
1783206067792394800,5.021394775390625,-0.0006705379390157,-0.0080401259921025,-0.0538233601242303,-4.23612073063e-05,-0.0025152782909572,0.00081432540901
1783206067802333000,5.0313330078125,0.0102044278865214,-0.0068176258592866,-0.0424514867603778,0.0024658031761646,0.0003332388587296,8.96793790161e-05
1783206067812270800,5.041270751953125,0.0120476172009482,-0.0097652236185036,-0.0451426255404949,0.0049480702728033,-0.0025921505875885,0.0012435559183359
1783206067822208800,5.051208740234375,0.0072272478397935,7.08184801973e-05,-0.0580102904200553,0.0001037800684571,0.0009780833497643,0.0014494182541966
1783206067832146700,5.061146728515625,0.0049636228899005,-0.0156168083240743,-0.052022448182106,-2.4316832423e-06,-0.003088098950684,0.0020273379050195
1783206067842084000,5.071083984375,-0.0050464971340727,-0.0120845151452347,-0.0545657029241323,0.0001235352829098,0.0017503323033452,0.0003050714731216
1783206067852022300,5.081022216796875,-0.0064066704382188,-0.0114277774027083,-0.0470832382142543,-5.3190626204e-05,-0.0011370750144124,0.0017349191475659
1783206067861960200,5.090960205078125,0.0064921567645855,-0.0165135836338624,-0.0488788894593715,0.000241887755692,0.0016749566420912,0.0024654243607074
1783206067871898000,5.100898193359375,0.0170036413062829,-0.0131597248950041,-0.0445434906035661,-0.0002238266170024,0.00422871299088,0.0005214868579059
1783206067881836300,5.110836181640625,0.0170049473473802,-0.0069710445890203,-0.0515776270240545,0.0005700616165995,-0.0001077121123671,0.0008067113813012
1783206067891774200,5.120774169921875,0.0113943957229144,-0.0105233211099635,-0.0562152236968278,-9.56365838646e-05,0.000864596106112,-0.0009050038643181
1783206067901712100,5.130712158203125,0.0023343064327724,-0.0052902701615355,-0.0457417604774236,0.0006923926994204,-0.0027218824252486,0.0008284477517008
1783206067911650300,5.140650390625,0.0021505016979295,-0.0060819959279615,-0.0496311691313982,0.0015266714617609,0.0007343180477619,-0.0008237352594733
1783206067921588200,5.150588134765625,0.0020966891514603,-0.0072062963833101,-0.0569634117156267,0.0022529158741235,0.0007489654235541,-0.0006125464569777
1783206067931526100,5.160526123046875,-0.0004314502198249,-0.0144434445626102,-0.052024201747775,0.0011715721338987,0.0013705440796911,0.0005230321548879
1783206067941464000,5.170464111328125,-0.0104237240598537,-0.0049827203160151,-0.0482844306975603,0.0005188314244151,0.0015425845049321,0.0002426011487841
1783206067951402200,5.18040234375,-0.0007117375990841,-0.0093462492877617,-0.0536719689548015,0.0016088830307126,-0.000993974506855,0.0005410921294242
1783206067961340200,5.190340087890625,-0.0051157447116915,-0.0163784951452631,-0.0491834253638982,0.0003161849454045,-0.0008666752837598,-3.0688708648e-05
1783206067971278000,5.200278076171875,-0.0110620950286276,-0.0205500908746384,-0.0505295792758464,0.0012638717889785,0.0003243717364966,0.0012960142921656
1783206067981216300,5.21021630859375,-0.0032838622425682,-0.0258784371573943,-0.0487333435088396,-0.0004469426348805,0.000922517850995,-0.0013229383621364
1783206067991153200,5.220153076171875,-0.0052618660509586,-0.0161199446737766,-0.0500800819426775,0.0007565580308437,-2.14627943933e-05,-0.0014605477917939
1783206068001091300,5.23009130859375,-0.009503166015679,-0.0223799001176841,-0.052024201747775,0.0011099595576524,-0.0001202658750116,0.0008569348137825
1783206068011029200,5.240029296875,0.0005145710591692,-0.0263317886817734,-0.0508224247425794,-0.0001272102817893,-0.0041577853262424,-0.0013361042365431
1783206068020967200,5.24996728515625,-0.0077499930722638,-0.019273896926362,-0.0500724831581115,-0.0010827528312802,-0.0009942166507244,-0.0006966791115701
1783206068030905300,5.2599052734375,0.0057132356808055,-0.026017644698685,-0.0481277788311243,-0.0022830385714769,0.0005605989135801,0.0002870305906981
1783206068040843300,5.26984326171875,0.0122486196657642,-0.0217738970485515,-0.0514192215919494,0.0014483164995908,-0.0027198828756809,-0.001410201890394
1783206068050781200,5.27978125,-0.0030158224235288,-0.0124655777515377,-0.0446831913352012,-0.0004639877006411,-0.0012521124444901,0.0005790109280496
1783206068060719400,5.28971923828125,0.0044353246994782,-0.0148773698673117,-0.0409428357630968,-0.0007646586745977,0.0011852127499878,-0.0022074545267969
1783206068070657300,5.2996572265625,0.005313459240878,-0.0176069044290576,-0.05141805254817,0.0002967901527881,-0.0007714559324085,0.0018787984736263
1783206068080595200,5.30959521484375,0.0053211584901437,-0.0154396342594176,-0.0542605824977159,0.000491733662784,-0.00015360256657,-0.0010046060197055
1783206068090533400,5.319533447265625,0.0066730662894435,-0.0102692458841949,-0.0580009380698204,0.0001309812068939,-0.0005025560967624,-0.0010567444842308
1783206068100471300,5.32947119140625,0.006637730114581,-0.0173775252531282,-0.0454325483977794,-0.0003518490120768,0.0024740591179579,-0.000830908305943
1783206068110409200,5.3394091796875,0.0091357666085474,-0.0149980005722958,-0.0466302337497472,-0.0007188031449913,-0.0015518516302108,-7.60375987738e-05
1783206068120347100,5.34934716796875,0.0051981896976009,-0.0068012957789935,-0.0482780009567737,-0.0023731589317321,0.0020444807596504,-0.001823870348744
1783206068130285300,5.359285400390625,-0.0018037980189546,-0.0028015586183406,-0.0541162055909633,-0.000519236549735,0.0006491728127002,-0.0004521342925727
1783206068140223200,5.36922314453125,0.0028516357046086,0.0106975908314809,-0.0485790297299623,0.0005739908665418,-0.0002320669591426,0.0002983445301651
1783206068150161200,5.3791611328125,-0.0078023077813908,0.004504919336969,-0.0509720623463392,0.0007413458079099,-0.0030435239896178,-0.0005962816067039
1783206068160099300,5.389099365234375,-0.0054498355042655,-0.0040511568206362,-0.0412432800143957,-0.0005609393119812,0.001237507443875,0.000450607156381
1783206068170037200,5.399037353515625,-0.010249518270418,-0.0034877507842145,-0.0425906029701232,0.0026475749909877,0.0007107607088983,-0.0014804182574152
1783206068179975200,5.40897509765625,-0.0068517564577516,-0.0066283868975006,-0.0449859736740589,0.0012379633262753,-0.0010858080349862,0.0007646263111382
1783206068189913300,5.418913330078125,-0.0070945613708347,-0.012370200218819,-0.0415425552219152,-0.0015369718894362,0.0002771695144474,-0.0006288166623562
1783206068199851300,5.428851318359375,0.0090733232310507,-0.0193249147275462,-0.0464811806678771,0.0019752047955989,0.0001836926676332,-0.0006253544706851
1783206068209789200,5.4387890625,0.0078739117128774,-0.0155306461442727,-0.0500724831581115,0.0007153637707233,-0.00187265034765,-0.0011304612271487
1783206068219727400,5.448727294921875,0.0023186522059142,-0.0146856923532672,-0.0379541753411293,-0.003455945290625,-0.0010260310955345,0.0005183019675314
1783206068229665300,5.458665283203125,0.008261942916084,-0.0073764013863634,-0.0282265620529651,-0.0002822903916239,-0.0020622527226805,0.0005921481642872
1783206068239603200,5.468603271484375,-0.0041031518693547,-0.0003853003900032,-0.0433393755108118,0.0010535512119531,0.0015021217986941,0.0005687123630195
1783206068249541400,5.478541259765625,-0.0026647165640722,-0.0043588893292471,-0.0560585718303918,-0.001933098770678,0.0009067086502909,0.0023191845975816
1783206068259479300,5.488479248046875,0.0074092350768856,-0.0033737598825711,-0.0617448007732629,0.0025402121245861,-0.0019447384402155,0.0011796178296208
1783206068269417200,5.498417236328125,0.0062541284913197,-0.0013838647069875,-0.054264089629054,0.0005437228828668,0.0005118232220411,0.0008538858965039
1783206068279354000,5.50835400390625,0.0093807360792532,-0.0111051030532922,-0.0633937370240688,-0.0013130325824022,8.30539502203e-05,0.0003683916293084
1783206068289292000,5.5182919921875,0.0217538315080571,-0.018101090287324,-0.0565121608167886,0.0016657300293445,0.0027643286157399,0.0005589269567281
1783206068299230200,5.528230224609375,0.0196140886661596,-0.0129594804820138,-0.0457382533460855,0.000924838706851,3.91160137951e-05,0.0024319284129887
1783206068309168000,5.538168212890625,0.0223684562750626,0.0061501566601917,-0.0414005164027214,-0.001018394716084,0.0011957050301134,0.0006859789136797
1783206068319106000,5.54810595703125,0.0191298031473997,-0.005415366979083,-0.058458618709445,-0.0008721873164176,-0.0016839709132909,-0.001760933548212
1783206068329044200,5.558044189453125,0.01408710540561,-0.0061108658294193,-0.0509738159120082,0.0028116721659898,-0.0034148921258747,0.0014525544829666
1783206068338982100,5.567982177734375,0.0083858980893157,-0.0167939714778214,-0.0458837992966175,-0.0009282045066356,0.0001028776168823,0.0022586933337152
1783206068348920000,5.577920166015625,0.0045687692202627,-0.0182416130028665,-0.0488765513718128,-0.0008257050067186,-0.00090256286785,0.0006840890273451
1783206068358858000,5.58785791015625,0.0097363080512732,-0.0163258973083458,-0.0460328523784875,-0.0004081213846802,-0.0016218828968703,-8.79613216966e-05
1783206068368796200,5.597796142578125,0.0160771832442842,-0.0149669935126788,-0.0430389312595129,0.0007603745907545,-0.0009689084254205,-0.001006580889225
1783206068378734000,5.607734130859375,0.0149936805902048,-0.0194454723672941,-0.0580032761573791,-0.0007397849112749,1.80592760443e-05,0.0001862489152699
1783206068388672000,5.617672119140625,0.0162837660665158,-0.0195872828576248,-0.0542646741509437,0.001083648763597,0.0018359692767262,-0.0007408030796796
1783206068398610200,5.627610107421875,0.0215341608753893,-0.0146797923354431,-0.0485784452080726,0.0015169447287917,-0.000581381842494,0.0007383164484053
1783206068408548000,5.637548095703125,0.0179265739706344,-0.0076871661022771,-0.0554623595029115,-0.000319555401802,0.0004711663350462,0.0017369126435369
1783206068418486000,5.647486083984375,0.0178739487342536,-0.0086415350845083,-0.0517225884526968,-0.000491595827043,-0.0017541707493364,-4.26115002483e-05
1783206068428424200,5.657424072265625,0.0124858898872043,-0.0092145674658007,-0.0551624997735023,0.0008591627702116,-0.0030873101204633,-0.0001477769110351
1783206068438362000,5.667362060546875,0.0140063774527516,-0.0071576988680753,-0.0645855771571397,0.000821080058813,-0.0027687968686223,-0.0007746850606054
1783206068448300000,5.677300048828125,0.0164215397025458,-0.0101179460463114,-0.0542570753663778,0.0006337575614452,-0.0021351245231926,0.0001806230284273
1783206068458238200,5.68723828125,0.0084075253992341,-0.0025406335266772,-0.0485690928578376,0.0013075377792119,-0.0020272661931812,0.0003241673111915
1783206068468176100,5.697176025390625,0.0024901911142282,-0.0087183266477659,-0.0449760368019342,0.0015075290575623,0.0005642133764922,-0.0026122049894183
1783206068478114000,5.707114013671875,-0.005847008995153,-0.0230207461713347,-0.0494657494366168,0.0008718324825167,0.000656624790281,0.0005356513429433
1783206068488052200,5.71705224609375,-0.0046339251446537,-0.023202980003599,-0.0482692331284284,-0.0009996443986892,0.000496675260365,0.0021816494408994
1783206068497990100,5.726990234375,-0.0020505393216386,-0.0208068238483741,-0.0524602550774812,0.0001063663512468,-0.0001326296478509,-0.0013033631257712
1783206068507928000,5.736927978515625,-0.0061089022011961,-0.0151184486141894,-0.0553033695489168,-0.0006210235878825,-0.0017171585932374,-0.000788141041994
1783206068517866200,5.7468662109375,-0.009402335989708,-0.0101260471543762,-0.0458773695558309,-0.0007648346945643,0.0002586408518254,0.0016478525940328
1783206068527804200,5.75680419921875,-0.0044419371033553,-0.0038717268668115,-0.0472241079896688,-0.000751513056457,-0.0003531537950038,0.0012529673986136
1783206068537742000,5.7667421875,0.0104099603959824,-0.0080981215233448,-0.0458767850339412,-0.001135541126132,-0.0002639382146298,-0.0009143128991127
1783206068547680300,5.77668017578125,0.0026783980295527,-0.0086950188374146,-0.0416863476067781,-0.0002367394044995,-0.0021585715003311,0.0001630845945328
1783206068557618200,5.7866181640625,0.0074133449964225,-0.007990058038989,-0.0479670353114604,-0.0006095813587307,-0.0046795201487839,0.0005843967664986
1783206068567555000,5.79655517578125,0.0133647642141208,-0.0090528101659845,-0.0386854122251272,0.0026130676269531,-0.0013763247989118,0.0027880852576345
1783206068577493200,5.8064931640625,0.0014815711941104,-0.0154266651799902,-0.0478121370106935,0.0015595210716128,0.0009347661398351,-0.0002295426093041
1783206068587431200,5.81643115234375,0.0039320239529944,-0.0179717739523854,-0.0511024107277393,-0.0030064964666962,-0.0004977770149707,0.0008819724898785
1783206068597369000,5.826369140625,0.0108538956380449,-0.01314216183885,-0.0307505275726318,0.002503584139049,-0.0015694331377744,9.4209332019e-05
1783206068607307300,5.836307373046875,0.0019343838623724,-0.004379986916203,-0.0445160180747509,-0.0005480740219354,-0.002572392579168,-0.0015959041193127
1783206068617245200,5.8462451171875,-0.0052247763104271,-0.0165795341426972,-0.0425695601820945,0.0018319925293326,0.0018266164697706,-0.001569805201143
1783206068627183000,5.85618310546875,-0.0161898407053668,-0.0137688058372121,-0.048853755018115,-0.0009726928547024,-0.0013993973843753,0.0028897596057504
1783206068637121300,5.866121337890625,-0.0152321289885789,-0.012955891152285,-0.0371790993154048,0.0022896798327565,-0.0018340251408517,0.0007528390269726
1783206068647059200,5.87605908203125,-0.0094703414583113,-0.0050823082329705,-0.0400204602211713,-0.002058015204966,-0.000639677979052,0.0006326574366539
1783206068656997000,5.8859970703125,6.18588556069e-05,-0.0099034813117235,-0.0460047953277826,-0.0002550557255744,-0.0002133059315383,-0.0001713510137051
1783206068666935300,5.895935302734375,0.0185789277989882,-0.0160544416895136,-0.0359779068320989,9.09604132175e-05,-0.0014149667695164,0.0010345869231969
1783206068676873200,5.905873291015625,0.012613297392847,-0.015730388233764,-0.0323860198199748,-0.0017375657334923,-0.0017310841940343,0.0003589431289583
1783206068686811100,5.91581103515625,0.0077204564505256,-0.0068991027308162,-0.0301408712416887,0.0004449775442481,0.0013221222907304,-0.0002388549037277
1783206068696749300,5.925749267578125,0.0118617483731824,-0.006973382676579,-0.0278963071852922,-0.0003960486501455,0.0008344976231455,-0.0002662853803485
1783206068706687200,5.935687255859375,0.0211261371969245,-0.0002919869502075,-0.0311889189898967,-0.0014690803363919,0.0003604334779083,0.0018678510095924
1783206068716625200,5.945625244140625,0.0160705251746345,0.0033572014734148,-0.0277466695815324,-0.0012003676965832,-0.0015027141198515,-0.0006911803502589
1783206068726563300,5.955563232421875,0.0125476300118025,0.0039515323710627,-0.0275958629339933,-0.0002490263432264,-0.0007086107507348,0.0001900463830679
1783206068736501200,5.965501220703125,0.0175089330804534,0.0046832350459415,-0.0216091897398233,0.0017251744866371,-0.0025600404478609,0.003707017051056
1783206068746439200,5.975439208984375,0.0209127045087981,-0.0117129236201755,-0.0248982944130897,0.002730562351644,-0.0001174476929008,0.0024008674081414
1783206068756377300,5.98537744140625,0.0179460549892392,-0.0138223535222001,-0.025045009407401,0.0025523975491523,-0.0008032117038965,0.0030501459259539
1783206068766315300,5.995315185546875,0.0065116377831902,-0.0054796643869485,-0.0265390473574399,0.0016539962962269,-0.0036748019047081,-0.0030965215992182
1783206068776253200,6.005253173828125,0.0001041362279094,-0.010921691044094,-0.0221948806732892,0.0030726622790098,0.0011393944732844,0.0025903927162289
1783206068786191000,6.015191162109375,-0.0023094551193062,-0.0089420980668161,-0.0156108261078596,-0.0010341815650463,0.0003483188338577,0.0010970237199217
1783206068796129300,6.02512939453125,0.0072359060702845,-0.0092660419247113,-0.0215951612144708,0.0005679763853549,-0.0008514351211488,0.000591023126617
1783206068806067200,6.035067138671875,0.0037691432751715,-0.0137970729504711,-0.0233913969814777,0.0005009723827242,0.0011396948248147,-0.0022898958995938
1783206068816005000,6.045005126953125,0.0138358157919719,-0.0133280032671522,-0.0245896668553352,-0.0002774698659777,-0.0003892257809638,0.0003932388499379
1783206068825942300,6.0549423828125,0.0182416038697119,-0.0056724287463817,-0.0232417593777179,0.0024977037683129,-0.0029378165490925,-0.0009369580075144
1783206068835880200,6.064880126953125,0.0111477366186212,-0.0205201341277919,-0.0200976161330938,0.0013626646250486,4.94509004056e-05,-0.0001113780308514
1783206068845818600,6.074818603515625,-0.0013824490680359,-0.0175975064130499,-0.0172533326178789,0.0014637652784585,-0.0011294423602521,0.0010011054109781
1783206068855756500,6.084756591796875,-0.0119527785243466,-0.0137554348989855,-0.0259317291140556,-0.0023946221917867,0.0020362571813166,0.0003688710276037
1783206068865694500,6.094694580078125,-0.0138645212966483,-0.0124406077070627,-0.0203963068187236,-0.0019443091005086,-0.0028698528185486,-0.0008388378191739
1783206068875632600,6.104632568359375,-0.0292753130540717,-0.0173994904897641,-0.0078261635810136,-0.0009959572926163,-0.000550506170839,0.0003755635116249
1783206068885570600,6.114570556640625,-0.0335530360390432,-0.0079018774320371,-0.0260807821959257,-0.0021789604797959,-0.001249102409929,0.0006045112386345
1783206068895508500,6.124508544921875,-0.0325910774054005,0.0098457963077351,-0.0148579619139432,0.0004373285919427,-0.0004458930343389,0.0007429951801896
1783206068905446700,6.13444677734375,-0.0327506153486669,0.0029372681614477,-0.0114180505931377,-0.0004814295098185,0.0007398300804197,-0.0007474911399185
1783206068915384600,6.144384521484375,0.0023018563347402,-0.0108607637702487,-0.0160585698753595,-0.0008177859708666,0.0005155918188393,-0.0029816168826073
1783206068925322500,6.154322509765625,0.0199455217107664,-0.0057448455286212,-0.00259235458076,-0.002367497421801,0.0009480123408138,0.0026354254223406
1783206068935260400,6.164260498046875,0.0413376072343438,-0.0051206948814447,-0.0054366380959749,0.0006631799042224,0.0009810356423258,4.17730771005e-05
1783206068945198600,6.174198486328125,0.0460126863732934,0.0069951195843517,-0.006036942076683,0.0015090052038431,0.0015913313254714,0.0029908900614827
1783206068955136500,6.184136474609375,0.0292355381661094,0.012037999989232,-0.0223462718427181,-0.0002143261954188,-0.0006723557598888,0.0029512092005461
1783206068965074400,6.194074462890625,-0.0064863389451522,-0.0042917241108603,-0.0221954651951789,0.0020946692675352,0.0007213470526039,0.0001256498508155
1783206068975012600,6.2040126953125,-0.0215248267914634,-0.0144004274047911,-0.0045364743858575,-0.0008161654695868,-0.0012445985339581,0.0001187259331345
1783206068984950500,6.213950439453125,-0.0157836801904253,-0.0134155993522144,-0.0051367783665657,-0.0009619332849979,0.00054811546579,-0.0020608541090041
1783206068994888400,6.223888427734375,-0.0066417304362636,-0.0112740664120297,-0.0139659815102815,-0.0006239777430891,-0.0003136834129691,0.0026747786905616
1783206069004825600,6.23382568359375,0.0041696412343066,-0.0152127484346739,-0.0049894788503646,0.0004767216742038,0.0014101103879511,-0.0008504742290824
1783206069014763500,6.243763427734375,0.0112768976899329,-0.0131910698813386,-0.0211497555345296,0.0011212062090635,0.0004519051872193,-0.0006243719253689
1783206069024701700,6.25370166015625,0.0171953370866365,-0.0125074989308137,-0.0117208329319953,-0.0028050495311617,-0.003025819081813,-0.0014721618499606
1783206069034639600,6.2636396484375,0.0174962745282798,-0.0114922392073553,0.0023439327776432,-0.0012284573167562,0.0010818406008183,-1.14180147647e-05
1783206069044577500,6.27357763671875,0.0233995437553152,-0.0100737781110219,-0.0097778821706771,-0.0006450088694691,0.0006720013916492,0.000232687452808
1783206069054515700,6.283515625,0.0296932279388885,-0.0053266383828595,-0.0070867433905601,-0.002917218953371,-0.0006718295626342,-0.0004229829646646
1783206069064453600,6.29345361328125,0.0304168843046296,-0.0048146063406486,-0.0073836805105209,0.0016449019312858,-0.0039017074741423,-0.0009476952254772
1783206069074391600,6.3033916015625,0.0143141099613625,-0.0101132242054212,-0.0030406828701496,-0.0011167963966727,-0.0007796832360327,0.0003444706089794
1783206069084329700,6.313329833984375,0.0002991564765106,-0.0014596059574745,-0.0103729254543781,-0.0001098047941923,0.0003484417684376,0.002331384923309
1783206069094267600,6.323267578125,0.0014789408456068,-0.0024193543677218,-0.0123187988251447,-0.0001790467649698,-0.0003897864371538,-2.25831754505e-05
1783206069104205600,6.33320556640625,0.0018410886888857,-0.0147340341401752,-0.0120195236176252,0.0004579490050673,0.0025037841405719,-0.0020389028359204
1783206069114143500,6.3431435546875,0.0032610019567888,-0.0050960992963053,-0.0049871407628059,-0.0010712379589676,0.0009002950973808,0.0008402403909713
1783206069124081700,6.35308154296875,0.0036519649025984,-0.0053125093928072,-0.0126198275983333,0.0002202000468969,-0.0002343924716114,-0.0012923178728669
1783206069134019600,6.36301953125,-0.001731308171479,-0.0089138218204025,-0.0019978958189487,0.0003339173272252,0.0014199628494679,-0.0021581114269793
1783206069143956700,6.372956787109375,0.0062112117982003,-0.0039932526209391,-0.0052916766673326,-0.0006143171340227,0.0002252515405416,-0.0035982462577521
1783206069153894700,6.382894775390625,-0.0015055639910511,-0.0049362873584032,-0.0019990648627281,-0.0005325581878423,-0.0002115070819854,0.002145659411326
1783206069163832600,6.39283251953125,-0.0045526766019873,-0.0099660160207655,0.0018915128350257,-0.0007484005764126,-0.0007836678996682,-0.0026429025456309
1783206069173770800,6.402770751953125,0.0088389664859045,-0.0190354941937606,-0.0088841482013463,-0.0019228551536798,0.0001686788164079,-0.0001275467220693
1783206069183708700,6.412708740234375,0.0133950406213756,-0.0200793680903501,-0.0124766197353601,-2.90544703602e-05,0.0023329891264438,-0.0021902178414165
1783206069193646600,6.422646484375,0.0039433855972252,-0.0233518778218422,-0.0002080897927284,0.0007280819118022,-0.0017552296631038,-0.000705505721271
1783206069203584800,6.432584716796875,0.008272838769434,-0.0111330322398338,-0.0112836105585098,-0.0016527958214282,0.0027759866788983,0.002549928613007
1783206069213522700,6.442522705078125,0.0098611765399575,-0.0064095473818946,-0.0115846393316984,-0.0023979479447007,-0.0003548255190253,-0.000281810760498
1783206069223460400,6.45246044921875,0.0156743563307449,-0.0110290512755513,-0.0041015900999307,0.0026644989848136,0.0019699470140039,0.0015403355937451
1783206069233398500,6.4623984375,0.0094695286075584,-0.0039344990378711,-0.0075432549864053,0.0019315974786877,-0.0015653991140425,0.0010236820671707
1783206069243336400,6.47233642578125,0.0061478642384056,-0.0042133616450242,-0.0070960957407951,-0.0043700290843844,-0.0005006585270166,-0.0023318286985158
1783206069253274400,6.4822744140625,0.004956672559306,-0.0124054633284453,-0.0066471829295158,0.0005930392071604,-0.0014689834788441,0.0016993980389088
1783206069263212500,6.492212646484375,0.0046417248586192,-0.0084018354439642,-0.012032967621088,-2.88235023617e-05,-0.0014509805478155,-0.0011441817041486
1783206069273149400,6.5021494140625,0.0021465470420196,-0.0003137238579802,-0.0106838910996913,-0.0006352253258228,-0.0034139966592192,-2.88498122245e-05
1783206069283087600,6.512087646484375,-0.0054150016529019,-0.0097253665321506,-0.003649754679203,-0.0011307625100016,0.0007941676303744,0.0026980023831129
1783206069293025500,6.522025634765625,-0.0053050567387137,-0.0092553561339154,-0.0029015666604042,0.0013798000290989,-0.0017994851805269,0.0038130679167807
1783206069302963500,6.53196337890625,-0.0043050676496233,-0.0062367754977196,-0.0029015666604042,-0.000749354250729,-0.0011445339769124,-1.44571531563e-05
1783206069312901400,6.5419013671875,0.0019942334239836,-0.0053172038342338,-0.001253214931488,0.0011910246685147,-0.0028364402242004,0.0003810222260653
1783206069322839600,6.551839599609375,-0.0085112141025718,-0.0104662754267919,-0.0073860185980796,0.0006240019574761,-0.000885555986315,-0.0009334571659564
1783206069332777500,6.561777587890625,0.0014259046172723,-0.0084631371771451,-0.0034966099441051,0.0007614204660058,0.0001299073919653,0.0025142710655927
1783206069342715400,6.57171533203125,0.0005659907191526,-0.0099116006860975,0.0003951367974281,-0.0021615363657474,-0.0019844775088131,-0.0003926039207726
1783206069352653600,6.581653564453125,0.0022805486852303,-0.0051296910386532,0.0008434650868177,-0.0008262274786829,-0.0003804555162787,-0.0007518643978983
1783206069362591500,6.591591552734375,0.0084774670965969,-0.0038098954106681,-0.0066366615355014,0.0028678383678197,-0.0005574556998908,-0.0014613512903451
1783206069372528600,6.601528564453125,0.0102673918538261,-0.0115459238896612,-0.0082803370893001,0.0004076100885868,-0.0010024700313806,0.0019980950746685
1783206069382466600,6.611466552734375,0.0039218678851611,-0.0059010407373309,0.0044394437521696,0.0012338729575276,0.0002050050534307,-0.0025223661214113
1783206069392404500,6.621404541015625,0.0110299189252313,-0.0027451339896768,0.0084808280974626,-0.0012772213667631,0.0024702895898371,-0.0003316497895866
1783206069402342700,6.6313427734375,0.0063111102424096,-0.0097202154329977,0.0021954642176628,7.03074038028e-05,0.000568370334804,-0.0002993056550621
1783206069412280600,6.641280517578125,-5.47167287673e-05,-0.0078386394700966,-0.0007955342918634,0.001416003331542,-0.0020444574765861,0.0008780779317021
1783206069422218500,6.651218505859375,0.0089506558326073,-0.0019904340317007,0.0045937575310468,0.0023890044540166,-0.0017892862670123,0.0002575479447841
1783206069432156700,6.66115673828125,0.01513771957024,-0.0072313760256394,-0.0001911386579275,0.0038319053128361,-0.0011248276568949,-0.0030343853868544
1783206069442094600,6.671094482421875,0.0130530861827544,-0.0117454376502893,-0.0024362872362136,0.0002545239403843,-0.000936534255743,-0.000393524300307
1783206069452032500,6.681032470703125,0.0177265852859709,-0.0018474179649725,0.002651975813508,0.0010966155678033,0.0005503087304532,0.0004070219583809
1783206069461970700,6.690970703125,0.0171813176944386,-0.0094457184737082,0.0117810386866331,-0.0012718550860881,0.0021969240624457,-0.0008520339615643
1783206069471907600,6.700907470703125,0.0167360307455062,-0.0129627227518707,0.0008545710027217,-0.0005011362954974,0.0002525500021874,-0.0005854514893144
1783206069481845500,6.710845458984375,0.0163824954669456,-0.0113217871444299,-0.0046808512926101,-0.0004595061764121,-0.0007720254361629,-0.0012674459721893
1783206069491783700,6.72078369140625,0.0102379191641695,-0.009163367001526,0.0025058453410863,0.0026321578770875,-0.0031917737796902,7.87819735705e-05
1783206069501721600,6.7307216796875,0.0120108927865978,-0.0168786814860533,0.0119353524655103,0.0024215150624513,0.0019722562283277,2.68071889877e-05
1783206069511659500,6.740659423828125,0.0078737381829414,-0.0141769299803767,-0.00078325933218,-0.0011463211849331,-0.0025809505023062,0.0007099080830812
1783206069521597700,6.75059765625,0.0008406794746872,-0.0141311454767361,0.0084948566228151,-5.5683776736e-06,0.0010367096401751,0.0001155789941549
1783206069531535600,6.76053564453125,-0.0022975820184219,-0.0170173227717634,0.0065507368177175,0.0009774044156074,-0.0004240339621901,0.0005289013497531
1783206069541473500,6.7704736328125,0.001077840098273,-0.0116519780800212,0.0050531917363405,0.0005221962928771,0.001553663983941,-0.003078939160332
1783206069551411700,6.78041162109375,0.0062022613067645,-0.0098335852801334,0.001311082598567,-0.0018488159403204,-0.0017270841635763,-0.0011662568431347
1783206069561348400,6.790348388671875,0.0134880344007629,-0.005497492304584,-0.0037771804511547,-4.16720286011e-05,0.0001278100535273,0.0006390430498868
1783206069571286500,6.80028662109375,0.0089669402471277,-0.0032176286059431,0.0071446110576391,-0.0022504972293972,0.0017129238694906,-0.0007260935381054
1783206069581224400,6.810224365234375,0.004799673632998,-0.004282070366526,0.001907879447937,-0.0010409764945507,-0.0001339423470199,-0.0018648609984666
1783206069591162400,6.820162353515625,0.0129564208752475,-0.0064107803577557,0.0041524435043334,1.78962945938e-05,-0.0008868179284036,0.0024135073181241
1783206069601100500,6.8301005859375,0.0009048307520803,-0.0061468869908712,0.0129816466480493,-0.0008705984801054,-0.0002147578634321,0.0001853355206549
1783206069611038500,6.84003857421875,-0.0057420416501816,-6.69642889872e-05,0.0132809218555688,0.0009917495772242,-0.001061909366399,-0.0012929853983223
1783206069620976400,6.849976318359375,0.000458000300033,0.0009870656754355,0.0057996261894702,0.0005086194723844,-0.0009092027321457,0.0002203593030571
1783206069630914600,6.85991455078125,0.0133419952598866,-0.004999653184507,0.0029570962399244,0.0001115417107939,0.0007755132392048,0.0002738889306783
1783206069640851500,6.8698515625,0.0112499457509256,-0.0031142869624774,0.013579028019309,-0.0027737002819776,0.0034030773676931,0.0007452962454408
1783206069650789400,6.879789306640625,0.0108344785515218,-0.0081913618979044,0.0068435822844505,0.001812795177102,-0.0007831454277038,-0.0020973617210984
1783206069660727600,6.8897275390625,0.0116130982412025,-0.0136193965623155,0.0074433017432689,0.0007544551044702,-0.0019925027154386,-0.0004437218885868
1783206069670665500,6.89966552734375,0.0059417380739003,-0.0154387026776559,0.0077431614726781,-0.002057310193777,0.0001388257369399,-5.6232092902e-05
1783206069680603400,6.909603271484375,0.011586073236959,-0.007819715573918,0.0110346042335033,0.0001147668808698,-0.0005510654300451,-0.0002827157732099
1783206069690541600,6.91954150390625,0.0095037779370322,-0.0091043485569767,0.0107376671135425,-7.19213858246e-05,-0.000507656019181,-0.0007761993911117
1783206069700479500,6.9294794921875,0.0081369282969273,-0.006357187006995,-0.0025812486648559,-0.0009074546396732,-0.0006699184887111,0.0010060216300189
1783206069710417400,6.93941748046875,0.0133062389599159,-0.0016342410051729,0.0179191030502319,0.0016009761020541,0.0004400867037475,0.0007847128435969
1783206069720354600,6.9493544921875,0.0025226320791058,-0.0083297748547513,0.005050269126892,0.0022473130375146,-0.0001098848879337,-0.003091482212767
1783206069730292500,6.95929248046875,0.004203570903372,-0.0063420625030994,0.0078939681202173,0.0003524739295244,-0.0003109537065029,-0.0006341836415231
1783206069740230700,6.969230712890625,0.0102911654550582,-0.0028670068036764,0.0046019408375024,0.0008015716448426,0.0021589156240224,0.0022562255617231
1783206069750168600,6.97916845703125,0.0117041923244483,-0.0078528141259215,0.0029576807618141,0.0011304719373583,-0.0011583175510168,-0.0002215795684605
1783206069760106500,6.9891064453125,0.0112999223724938,-0.0112710433378815,0.0077466686040163,-0.00094392336905,9.92007553577e-05,-0.0022178697399795
1783206069770044700,6.999044677734375,0.0165986589682754,-0.0093054697528015,0.0071492872327566,-0.0020270310342311,0.0013000201433897,-0.0016175932250916
1783206069779982600,7.008982666015625,0.0097284900709986,-0.0041477947286795,0.0068476739376783,0.0009418865665793,0.0008063209243118,0.0004291289951652
1783206069789919500,7.01891943359375,0.0078396167176309,-0.0094400011189747,-0.0030289924323558,0.0003224350512027,-0.0011881203390657,-0.0021208475809544
1783206069799857700,7.028857666015625,0.0055230286046396,-0.003426211589016,-0.0007815057665109,0.0008145458996295,-0.0026707360520958,0.0004053339362144
1783206069809795600,7.038795654296875,0.0179490689302328,-0.0054828153252601,0.0019143091887235,-0.0001050438731908,-0.0030403826385736,-0.0008929572068154
1783206069819733500,7.0487333984375,0.0126186585545539,-0.0146969991985708,-0.0012269114464521,0.0001210598275065,-0.0002048951573669,-0.0006715734489262
1783206069829671700,7.058671630859375,0.0110556196220684,-0.0080598992716521,0.003709375911951,0.0008105523884296,0.0010736887343227,0.000175844412297
1783206069839609600,7.068609619140625,0.016459734554775,-0.0119671267101075,0.0032592940568923,-0.0001859441399574,-0.0016288524493575,0.0043825721368193
1783206069849547500,7.078547607421875,0.0129849437168333,0.000941664764285,0.0064016837358474,0.0005592079833149,5.2401330322e-05,-0.0009509399533271
1783206069859484700,7.088484619140625,-3.8487113174e-05,-0.0038639362860005,0.0016132804155349,-0.0011826250702142,-0.000415900722146,-0.0008231231477111
1783206069869422600,7.098422607421875,0.0097187815277371,-0.0156762012279592,0.0029582652837038,0.0028134481981396,0.003329835133627,-0.001083047594875
1783206069879360800,7.10836083984375,0.0010536372387781,-0.0027231139541137,-0.0019803601622581,-0.002566760405898,0.0004093553870916,-0.0009781988337635
1783206069889298700,7.118298583984375,-0.0057630113729741,-0.0089027159044984,-0.0034779052436351,0.0002489993348717,1.22780911624e-05,0.002691104542464
1783206069899236600,7.128236572265625,-0.0031834980074781,-0.0121213948232121,0.0026566519886255,0.0006630569696426,0.0018029049970209,-0.0019851895049214
1783206069909174800,7.1381748046875,0.0024526995148975,-0.0054566762370057,-0.004226093262434,-0.0012754574418067,-0.0024464349262416,0.0003751702606678
1783206069919111700,7.148111572265625,0.0069878587265033,-0.0076966554498299,-0.0006342062503099,-0.0016504283994436,-0.0012771119363605,-0.0014330286066979
1783206069929049900,7.1580498046875,0.0049387350438162,-0.0128872189634013,0.0095423198491334,0.001777060329914,-0.0008755074813961,-9.6654286608e-05
1783206069938987800,7.16798779296875,-0.0020952826456632,-0.0099759437597356,0.0074479779183864,-0.0002068961039185,0.0016900086775422,0.001621795585379
1783206069948925700,7.17792578125,-0.0018713011640589,-0.0098658618482295,-0.001381809747219,0.000486590899527,-0.000400039833039,-0.0005175217520445
1783206069958863600,7.187863525390625,0.0086961970143485,-0.0080042052953504,0.0019067104041576,-0.0013069361448287,0.00381213077344,0.0015688163693994
1783206069968801800,7.1978017578125,0.0109033516698051,-0.0061336713162716,0.0039987142473459,-0.0005727028474211,0.0014760056510567,1.75249297171e-05
1783206069978739700,7.20773974609375,0.0081674878319725,-0.003491020453535,-0.0054296238332986,-0.0010660206899046,-0.0004069511778652,-0.0018569747917354
1783206069988676600,7.217676513671875,0.0104280257756356,-0.0125152073132339,0.0029500819772481,-0.0005826577544212,-0.0014647585339844,-0.000565075315535
1783206069998614500,7.227614501953125,0.0129604303300846,-0.0026398013185244,0.0144721774667501,-0.0013285195454955,0.0007118731737136,0.0017371966969221
1783206070008552400,7.237552490234375,0.0194520482385531,-0.0109902536351233,0.0042962358891963,-0.0023844623938202,-0.0002729641273617,-0.000908653717488
1783206070018490600,7.24749072265625,0.0122542822215706,-0.0103596915134694,0.003847323077917,0.0011729439720511,-0.0003866776823997,-0.0029051981400698
1783206070028428500,7.257428466796875,0.0098617245292291,-0.0089174659490585,0.0056458969324827,0.0016933260485529,-0.0012641893699765,0.0013784964103251
1783206070038366500,7.267366455078125,0.0103670619691722,-0.0118341388470493,0.0092383684664964,0.0010675610974431,0.0016266941092908,0.0006941233295947
1783206070048303600,7.2773037109375,0.0036978133383207,-0.0180183073746971,0.0002601122409105,0.0016670394688844,0.0019779652357101,-0.0008832670282572
1783206070058241500,7.287241455078125,0.0066507539929356,-0.0129085814118385,0.0108837975859642,-0.0017812838777899,-0.0003580413758754,0.000799206783995
1783206070068179700,7.2971796875,0.0076685527333524,-0.0075418941463809,0.00714285749197,-9.76333394646e-05,0.0015077693387866,-3.736000508e-06
1783206070078117600,7.30711767578125,-5.0963002257e-05,-0.0118489710900001,0.0144739310324192,-0.0008645458146929,-0.0007894420996308,0.0003264059778302
1783206070088055600,7.3170556640625,-0.0012267287833616,-0.0072401895197574,-0.0042307694375514,0.00152297783643,-0.001547111198306,0.0012617080938071
1783206070097993700,7.32699365234375,0.0033407617952674,-0.001443148013018,-0.0090191727578639,0.0004584668204188,0.0051197158172726,0.0014942986890673
1783206070107930600,7.3369306640625,0.0051356641217134,0.0001450892928056,0.0054933367192745,-0.0040342854335904,0.000296997372061,0.0029025780968368
1783206070117868500,7.34686865234375,0.0033987116607371,-0.0156542177250143,0.010880290454626,0.0015044994652271,-0.0018403064459562,0.0006358989048749
1783206070127806700,7.356806640625,0.0133643532221671,-0.0052355077669955,0.0017541501909494,0.0001787776127457,-0.0004898174665868,0.0003711807075887
1783206070137744600,7.36674462890625,0.00894761449215,-4.00762820616e-05,0.0013075754672288,0.0026427628472447,-0.0002643405459821,0.0002156046684831
1783206070147682600,7.3766826171875,0.0117599228333681,-0.0020630060775671,-0.0027326398342847,0.0003439225256443,-0.0005277269519865,0.0022981965448707
1783206070157619700,7.38661962890625,0.0032132720912341,-0.0103651440067216,0.0092389529883861,0.0013488791882991,-0.0012296950444579,-0.0013997622299939
1783206070167557600,7.3965576171875,0.010050598164834,-0.0144266486914362,0.0063964230388402,-0.0015648854896426,-0.0003156983293592,-0.0015443719457834
1783206070177495800,7.406495849609375,0.0009103563105687,0.0003787884508259,-0.0006371288597583,0.0011337585747241,8.4038823843e-05,0.0008918109815567
1783206070187433700,7.416433837890625,-0.001607937520137,-0.0050718690373469,-0.0019826982498168,0.0004727616906166,-0.001870987471193,0.0001911332365125
1783206070197371600,7.42637158203125,0.0013905501761008,-0.0199809857497923,0.0056511576294898,0.0023667849600315,-8.42371955513e-05,0.0001729116775095
1783206070207309800,7.436309814453125,-0.0042136265065055,-0.0214459802684374,0.009988894572854,-0.0032010860741138,0.0005871457979083,-0.0002420088276267
1783206070217246500,7.44624658203125,-0.0048708939719945,-0.0012802582020405,0.0108855511516332,0.0015480425208806,-0.0007454818114638,-0.0020877376664429
1783206070227184600,7.4561845703125,0.0051312071423046,-0.011552271432057,0.0029553426742553,0.0013927798718214,0.0008489526808261,0.0017014080658555
1783206070237122600,7.46612255859375,0.0033244773807469,-0.0138679462295956,0.0059504328370094,-1.06059014797e-05,-0.0012062932364642,-0.0007914763409644
1783206070247060500,7.476060546875,0.0112813455361872,-0.0038952904054895,0.0080453592896461,-0.0005528256297111,0.0005077174864709,-0.0013435496948659
1783206070256998700,7.48599853515625,0.011794537489023,-0.0101849286016076,0.0011608604729175,0.000403263606131,0.0016583856195211,-0.0018833479844033
1783206070266935600,7.495935546875,0.0135829187431372,-0.0051355910564772,0.0028045360267162,0.0003566583618521,0.0014908728189766,-0.0015603066422045
1783206070276873500,7.50587353515625,0.0067353909359313,-0.0089190733842551,0.008638649007678,-0.0037116464227437,0.0009284713305532,-0.0024058283306658
1783206070286811600,7.515811767578125,0.0031149628159124,-0.0138322355953976,0.0108832130640745,0.0013997573405504,-0.0006995191797614,-0.0014532157219946
1783206070296749600,7.52574951171875,0.0182002398128621,-0.0139452857821248,0.0013064064234495,-5.01060858368e-05,0.0008677719160914,0.0004238211549818
1783206070306687500,7.5356875,0.0126559126918669,-0.010746855066996,0.0107306528508663,-0.0023718494921922,0.0009173066355288,-5.42164780199e-05
1783206070316624600,7.545624755859375,0.0050771480006631,-0.0098341880683321,0.00893324804008,-0.0004725726321339,0.0010700477287173,0.0003501698374748
1783206070326562600,7.5555625,0.0082679342654533,-0.005138970323652,0.0054909986317157,-0.0029932549223303,-0.0026855422183871,-0.0010354730766266
1783206070336500700,7.565500732421875,0.0157474946321919,-0.0161940328232944,0.0045920039653778,-0.0016566561535,-0.0016843387857079,-0.0002239230088889
1783206070346438700,7.575438720703125,0.017108864379581,-0.0139474686060566,0.0053407765060663,0.0025948137044906,0.0014302278868854,-0.0011038314551115
1783206070356376600,7.58537646484375,0.0110860421597957,-0.0057218756449874,-0.0003460369586944,-0.0038991598412394,-0.0008649686351418,-0.0003318793606013
1783206070366314800,7.595314697265625,0.015713574096281,-0.0036592896925285,0.0039916999846696,-0.0008399859070777,-0.0020830980502068,0.0015975809656083
1783206070376251600,7.605251708984375,0.0123686932483222,-0.0105482911544386,0.0056388826698064,0.0002720188349485,-0.0027533662505447,0.0008053092751652
1783206070386189800,7.61518994140625,0.0031358412071596,-0.0074675411353819,0.0062386021286249,-0.0007485039532184,0.0039671212434768,-0.0017760929185897
1783206070396127700,7.625127685546875,0.0100889574138447,-0.0087762673800811,0.0147673610210418,0.0026379292830824,0.0015781950205564,-0.000146486563608
1783206070406065700,7.635065673828125,0.0070828070009592,-0.0011140165233518,0.012825579303503,0.0010504191741347,-0.0060195373371243,-0.0004141342360526
1783206070416003600,7.645003662109375,0.0083938895995263,0.0029643479646183,-0.0082704002171754,0.0006550941616296,-0.0030984431505203,-0.0001587632577866
1783206070425940700,7.654940673828125,0.0034758685501758,0.0016498039004858,-0.0058732759475708,0.0001842472702264,-0.0008270326070487,0.0001967686694115
1783206070435878700,7.664878662109375,0.0008678962751757,-0.007146830414189,0.0087906246989965,-0.0007945727556943,-0.0006127879023551,-0.0018001527059823
1783206070445816800,7.67481689453125,0.0076851294088177,-0.0138378981512039,0.0037029461711645,-0.000445432960987,0.0002503427676856,0.000891504343599
1783206070455754500,7.68475439453125,0.0093191786177456,-0.0067504606408998,-0.0015355390042066,-0.0017421534284949,0.0011229310184717,0.0004627709276974
1783206070465692400,7.6946923828125,0.0026811836416833,-0.0089470117039512,0.0096872812777757,0.0003795875236392,0.0004440913908183,-0.0009436444379389
1783206070475629600,7.704629638671875,0.0105167269723955,-0.007536395987356,-0.0049760348469018,0.0007806606590747,0.0003626383841037,0.0006703762337565
1783206070485567500,7.7145673828125,-0.000691608126508,-0.0099222956100478,0.0032540333598852,-0.0002971207723021,0.0006417375989258,0.0006016665138304
1783206070495505700,7.724505615234375,0.0053651346291881,-0.0138897562026046,-0.0115595048904418,-0.0033351378515362,-0.0003693141043186,-0.0007302719168365
1783206070505443600,7.734443603515625,-0.000527320942888,-0.0146242718890774,-0.0133569097012281,-0.0010059382766485,-3.08263115584e-05,-0.0011031145695596
1783206070515380700,7.744380615234375,-0.0026557112737093,-0.0078988726241979,0.001458382114768,0.0011842371895909,-0.0025820722803473,-0.000948010245338
1783206070525318700,7.754318603515625,0.0078840677807107,-0.0111716746166348,-0.0043763153880834,-0.0045021437108516,-0.001584452111274,0.0002621300518512
1783206070535256600,7.764256591796875,0.0098638708205427,-0.0075046217427589,-0.0015337854385375,0.0014311354607343,0.0008072867058217,-0.001338736154139
1783206070545194800,7.77419482421875,0.0060840417545754,-0.0133491099872626,0.004002221378684,-0.0004969928413629,0.0004767887294292,-0.0001797282602638
1783206070555132700,7.784132568359375,0.0116218112706206,-0.009374242406385,0.0120820674598217,-0.0016041593626141,0.0001285993494093,0.0013781024608761
1783206070565069600,7.794069580078125,0.0102982345166616,-0.0068974130972288,-0.0046790977269411,-0.0007380992174148,0.0009453911334276,0.0006151071283966
1783206070575007700,7.8040078125,0.0098899733761791,-0.0096246369708795,0.0059451721400022,0.0009692898020148,-0.0005608117207884,0.0018533156253397
1783206070584945700,7.813945556640625,0.0094304569724947,-0.0015444529630243,0.0155219787806272,-0.0003582956269383,0.003032591426745,-0.0019523416412994
1783206070594883600,7.823883544921875,0.0080760192893911,-0.0074682352551259,-0.0010907178461551,-0.0017062863335013,0.0013757608830928,0.0022248940076678
