time,seconds_elapsed,ax,ay,az,gx,gy,gz
1783206460023427800,0.097427734375,-0.0097069906252436,0.0006947225322015,0.0462888729661703,-0.0143204927444458,0.0056892549619078,0.0014407669659703
1783206460033364000,0.107364013671875,0.0064345082932151,0.0055971076210029,0.0524333670705556,0.0080013247206807,-0.0070502418093383,-0.0021957796998322
1783206460043301000,0.117301025390625,0.0107807390702888,0.0183913236718624,-0.0994505543112754,0.0108494581654667,-0.0140369972214102,0.0015768567100167
1783206460053238300,0.12723828125,0.0162378171660937,0.0102361655985005,-0.0967570774435997,-0.002511354163289,0.0056237895041704,0.0026269410736858
1783206460063174000,0.137173828125,0.0037423283334821,-0.0008814590096473,0.0555728341400623,-0.0093528609722852,0.0058994707651436,-0.0006976854056119
1783206460073110000,0.147110107421875,0.0065704096325673,0.0038116672426462,-0.0038262802898883,0.0016755554825067,-0.002576838247478,0.0007180511020123
1783206460083047200,0.157047119140625,0.0213186823606491,0.008132325187046,-0.0979541782736778,0.0073061282746493,-0.0048968270421028,-0.0008248332887887
1783206460092983000,0.166983154296875,0.0120757290505804,0.0027223924349062,-0.0496194786936044,-0.0030192136764526,0.0001059207133948,0.0026724301278591
1783206460102920000,0.176919921875,0.0054168008843436,0.0050186318796128,-0.0150438398748636,-0.0072939302772283,0.0027882410213351,0.000321734463796
1783206460112857000,0.186857177734375,0.00904585983539,-0.0139410662647336,-0.0153343472540378,0.0017469692975282,-0.0003574849106371,0.0014346693642437
1783206460122793000,0.19679296875,0.0090152820340357,0.0056764564675278,-0.0458574958115816,0.003638613037765,-0.0054214857518672,0.0026533319614827
1783206460132730000,0.206730224609375,0.0035546602742746,-0.0043787265408784,-0.0576665915489196,-0.0051042791455984,-0.0017455243505537,-0.0013501980574801
1783206460142666000,0.216666015625,0.0118014056212268,-0.0043116709203459,-0.0262263281464576,-0.0078403456136584,0.0041186367161571,-0.000722732162103
1783206460152603100,0.22660302734375,0.0173012999454513,-0.0098963026522658,-0.0134936878234148,0.0006865626201033,-0.0048178662545979,0.0005926031153649
1783206460162539000,0.2365390625,0.0076615293375216,0.003579758182913,-0.0658510670483112,-0.0014608856290578,-0.0027735875919461,0.0009609193075448
1783206460172476200,0.24647607421875,0.0126382583041675,0.0125512010752223,-0.0609025047302246,-0.0021714167669415,-0.0018095229752361,-0.0015568333910778
1783206460182412000,0.256412109375,0.0174822642692364,0.0165508469043299,-0.0326052155286073,-0.007061737589538,0.0004812045954167,-0.0002495259977877
1783206460192349000,0.266348876953125,0.0108704997129738,0.0106910880254581,-0.0309369900554418,-0.0072899693623185,-0.0017915368080139,0.0013563602697104
1783206460202285000,0.27628515625,0.0172971900259144,0.000785707017593,-0.0478320107549428,-0.0013274187222123,-0.0013893996365368,0.00137819792144
1783206460212222200,0.28622216796875,0.0118652098387479,0.0067618405514396,-0.0448316598951816,0.0002555642277002,-0.0045154183171689,0.0009672723244875
1783206460222158000,0.296157958984375,0.0220399458399042,0.0013040866021998,-0.0457183796018362,-0.0028321333229541,-0.0016117799095809,-0.0011587926419451
1783206460232095000,0.306094970703125,0.0207199858151376,-0.0115317766332998,-0.0295358910858631,-0.0034952610731124,-0.0033833147026598,-0.0019223209237679
1783206460242031000,0.316031005859375,0.0127370973024517,0.0022334033415652,-0.0477840799599885,-0.0013181464746594,-4.56464476883e-05,0.0001116872299462
1783206460251968300,0.32596826171875,0.0074943560770712,0.0105923403587192,-0.0417892234593629,0.001318116672337,-0.0025346367619931,0.0004395223222672
1783206460261904100,0.335904052734375,0.0085853296515531,0.0110142920978367,-0.0459726466238498,-0.0017978437244892,-0.0006888145580887,-0.001617097761482
1783206460271841000,0.345841064453125,-0.0011827435111626,0.0145952193245291,-0.0413262821227312,-0.0003469530493021,-0.0026917774230241,-0.0012511793756857
1783206460281777200,0.355777099609375,-0.0024068602123297,0.0166282960547134,-0.029054829570651,0.0011004591360688,-0.0003933408297598,-0.000122430268675
1783206460291714300,0.36571435546875,-0.0059391807906329,0.0017651282426901,-0.0467132358580827,-0.0001589497551321,-0.0015877685509622,-0.0012686548288911
1783206460301650000,0.37564990234375,-3.09613938443e-05,0.009740052644629,-0.0452115991234779,-0.0021052788943052,0.0005437363870441,0.0010901317000389
1783206460311587000,0.385587158203125,0.0066961001051589,0.0045006724201142,-0.0416202966332435,0.0025022560730576,-0.0010512308217585,0.0013897372409701
1783206460321523200,0.395523193359375,0.0083711389116011,0.0048355669302865,-0.0480506219416856,-0.0023594787344336,-0.0008145794272422,-0.000552280107513
1783206460331460400,0.40546044921875,0.005762107190676,0.0119720312140882,-0.0492436311185359,0.0025761574506759,-0.0002651694230735,-6.46552070975e-05
1783206460341396000,0.41539599609375,0.0077707435993477,0.0073474401533603,-0.0453472082018852,-0.0030899113044142,-0.0005719452165067,-0.0011795924510806
1783206460351333000,0.4253330078125,0.0160574373641982,0.0133948670914396,-0.0411532636433839,-0.0011644456535577,-0.001455848570913,0.0012848966289311
1783206460361269200,0.435269287109375,0.0096674440661445,0.00895021744119,-0.0484855062276124,-0.0011720648035407,-0.0005234479904174,0.0013058607000857
1783206460371206100,0.4452060546875,0.0078398998454213,0.0140709031894803,-0.0345668709903955,-0.0001938855275511,-0.001289905514568,1.50266569107e-05
1783206460381142000,0.45514208984375,0.0054017677119933,0.0062385107970796,-0.0420481666564941,-0.0023385165259242,0.0012179231271147,-0.0012693310854956
1783206460391079200,0.4650791015625,0.0046238969409838,0.002349412670359,-0.0486246224373579,-0.0029814029112458,-0.0007229885086417,0.0013216584920883
1783206460401016300,0.475016357421875,0.0022463541546836,-0.0051565607792697,-0.0439800115019083,-0.0021467208862304,-3.3282674849e-05,0.0021232834551483
1783206460410952200,0.4849521484375,0.0087268387477844,0.0019070757303386,-0.0406879842191934,-0.0004383036866784,0.002952919807285,-0.0003848818596452
1783206460420888000,0.49488818359375,0.0072088901991955,0.0054233767556026,-0.0421872828662395,-0.0004058899357914,0.0008639213629066,0.0012972494587302
1783206460430825200,0.5048251953125,0.0075520228147506,0.0064173014300875,-0.0302133519560098,0.0001310035586357,-0.0003709867596626,-0.0011659082956612
1783206460440762000,0.51476220703125,0.007434680045396,0.0095876202955842,-0.0504144284635782,-0.0006867563351988,-0.0004781582392752,0.0001573625486344
1783206460450698200,0.5246982421875,0.0126340387867763,0.0077009662987664,-0.0498141244828701,-0.0010833013802766,-0.0015892288647592,0.0020894857589155
1783206460460635100,0.53463525390625,0.0158332732195034,-0.0071719374559819,-0.046664136019349,-0.002023790962994,-0.0016991873271763,-0.0005938305985182
1783206460470571000,0.544571044921875,0.0151163205891847,-0.0050635122009553,-0.0435164856433868,-0.0021801190450787,9.33860428631e-05,0.0015790425240993
1783206460480508200,0.554508056640625,0.010465097249858,0.0061949091173708,-0.0542833788514137,-0.0014736745506525,0.0015532476827502,0.0009516754653304
1783206460490444300,0.5644443359375,-0.0011282733775675,0.014200429586973,-0.0421627329468727,0.001391620375216,0.000412615481764,0.0008320992346853
1783206460500381200,0.574381103515625,-0.006175583362393,0.0353796669443137,-0.0460585713416338,0.0016759326681494,0.002082385122776,0.000138911884278
1783206460510317000,0.584317138671875,-0.0085649079180322,0.0410171065757051,-0.0580371784269809,-0.0006141196936368,-0.0001504090614616,0.0012728855945169
1783206460520254200,0.594254150390625,0.0049619515226222,0.0275249531222507,-0.0504027380257844,-0.0010964991524815,-0.0013856063596904,0.0023243424948304
1783206460530190300,0.6041904296875,0.0145529510853812,0.0002358180498704,-0.0481523287504911,-0.0024339389055967,-0.0027350303716957,0.0015727987047284
1783206460540127000,0.614126953125,0.011258055992145,-0.0084056987683288,-0.0367716875582933,-0.0007010726258158,0.0014925226569175,0.0035030483268201
1783206460550064000,0.624064208984375,0.0034927009539678,0.0051774209042079,-0.046945875570178,-0.0012496840208768,-0.0015791673213243,0.0013951566070318
1783206460560000300,0.634000244140625,-0.0179966983310878,0.0295725333018228,-0.0607066898971796,0.0005819639191031,-0.0008964221924543,-8.01095739006e-05
1783206460569937200,0.643937255859375,-0.0240101864669471,0.0404565683498047,-0.0472346293836832,-0.0005128616467118,-0.0027553085237741,-0.000962414778769
1783206460579873000,0.653873046875,0.0023249358162283,0.038322131870687,-0.0451385338872671,-0.0005720388144254,-0.0002407026477158,0.0015501254238188
1783206460589810200,0.66381005859375,0.0156506466615945,0.0010948825646191,-0.0491746575355529,-0.002261015586555,-0.0017970539629459,0.0026398906484246
1783206460599746300,0.673746337890625,0.0327649361349642,-0.010690357373096,-0.0436333900213241,-0.001095050945878,-0.0023261471651494,-0.0013115392066538
1783206460609683000,0.683682861328125,0.024525826105196,-0.0031115926818922,-0.0431833081662654,-0.0003325883299112,-0.0011362466029822,-0.0017325850203633
1783206460619619000,0.693619140625,0.0074292366852983,0.0196296515614725,-0.0538087470769882,0.0003492143005132,-0.0019054403528571,0.0002342206425964
1783206460629556200,0.70355615234375,-0.0010429331816732,0.036821152723208,-0.0497661936879158,-0.0003013955429196,0.0004080473445355,-0.0013466316740959
1783206460639492000,0.7134921875,-0.0022562179615721,0.0232073456514626,-0.0484200397759675,0.0003162147477269,-0.0010847798548638,-0.0020677561406046
1783206460649429000,0.723428955078125,0.010667487954162,0.0107256844148039,-0.0479676198333501,0.0011633662506937,-0.0009609432891011,-0.0012184741208329
1783206460659366100,0.7333662109375,0.025223489513155,-0.0041946752108633,-0.0506564205259084,-0.0016948748379945,-0.0005301544442772,-0.0008490483742207
1783206460669302300,0.74330224609375,0.0234691931917332,-0.0053052120023407,-0.0497603484690189,0.0007190145552158,0.002584146335721,0.0017568548209965
1783206460679239000,0.753239013671875,0.0137756831025704,-0.0011142813848331,-0.0362964712619781,-0.0011402433738112,0.0009324392303824,0.0003294835332781
1783206460689175000,0.763175048828125,0.0002785612130537,0.0106711777485907,-0.0463262823671102,0.0006970707327127,0.00052151363343,-0.0006577502936124
1783206460699112200,0.7731123046875,0.0026722696828655,0.0073245707344263,-0.0460346059441566,-2.66842544078e-05,-0.0001423358917236,0.0001794833224266
1783206460709048000,0.783048095703125,0.0116109610830433,0.0042490722792223,-0.0463414799362421,0.000226049683988,0.0023133652284741,-0.0014096249360591
1783206460718985000,0.79298486328125,0.0141267250299453,-0.0084727543888613,-0.0479880780994892,0.0001901853829622,-0.0002924427390098,-0.0051512010395526
1783206460728921000,0.802921142578125,0.009859623903688,-0.0031403438523411,-0.0478390250176191,-0.0001104846596717,0.0007680281996726,-0.0027223983779549
1783206460738858200,0.812858154296875,0.0118365682661533,-0.0027297354911454,-0.0574228459209203,0.0021616267040371,0.001053087413311,-0.0003192687872797
1783206460748795100,0.822795166015625,0.0109122199628502,0.0149188252557069,-0.0503945547193288,0.0005275113508105,-0.000582093372941,-0.0006263311952352
1783206460758731000,0.83273095703125,0.0165547558944672,0.0002417180676944,-0.0499468109518289,-0.0008368594571948,-0.0010316330008208,-0.0047348989173769
1783206460768668200,0.842668212890625,0.0164674794698134,0.0020031382496468,-0.0524877276062965,0.0003205500543117,0.0014794617891311,-0.0009388292673975
1783206460778604000,0.85260400390625,0.0108205230914056,-0.007124481585063,-0.0409644630730152,-0.0012673875316977,-0.0002748831175267,0.0004688866902142
1783206460788541200,0.862541259765625,0.0076753934660926,-0.0147078311198391,-0.0475455950289964,0.0002263793721795,-0.0018488112837076,0.0004973823670297
1783206460798477000,0.87247705078125,0.015301851490233,-0.0335858788627199,-0.0415635980099439,0.0049035521224141,0.0010393992997705,-0.0012632692232728
1783206460808414200,0.882414306640625,0.0166338855452835,-0.0213330396795645,-0.0424573319792747,-0.0033016465604305,-0.0048027774319052,-0.0006118600722402
1783206460818351000,0.89235107421875,0.0161843334131874,-0.0202504503409378,-0.0418552744328975,0.0015604281798005,-6.62403181195e-05,0.0002195131964981
1783206460828287200,0.902287353515625,0.0046108365300111,-0.0219198631241917,-0.0450029248088598,0.0008459016680717,0.0018818615935742,-0.0014657351421192
1783206460838224100,0.91222412109375,0.0034261750563979,-0.0144242101391777,-0.0479956768840551,-0.0001701097935438,0.0008955681696534,0.0005636354908347
1783206460848160000,0.922159912109375,0.0084185034509748,-0.01668119528573,-0.0417179117888212,0.0014914367347955,0.002242062240839,-2.22600065171e-05
1783206460858097200,0.93209716796875,0.0036159254748374,-0.0130920482199639,-0.0445610262602567,0.0016171764582395,-0.0021600956097245,-0.0012345997383818
1783206460868033300,0.942033203125,0.0055696533584967,-0.0136772642293944,-0.0496492893099784,-0.0028297696262598,0.0020511611364781,-0.0019078468903899
1783206460877970200,0.95197021484375,0.0019525588398799,-0.0116799529323354,-0.0491980384111404,-0.0013706563040614,0.0003376272507011,0.001475675497204
1783206460887907000,0.961906982421875,0.0066647185862064,-0.0098011351821012,-0.0503951392412185,0.002399580553174,-0.000312983058393,0.0010282644070684
1783206460897843200,0.97184326171875,-0.0046483007298782,-0.0070535169743932,-0.0472615173906087,9.13692638278e-05,-0.0019246377050876,0.0010611882898956
1783206460907780000,0.981780029296875,-0.0027740130242891,-0.0010996135386638,-0.0451677599817514,0.0001134732738137,0.0020695710554718,-0.0008472327608615
1783206460917716000,0.991716064453125,0.0003173223208636,-0.0008631196353584,-0.043376200389862,0.0006606727838516,-0.0002875472418963,-0.0034580267965793
1783206460927653000,1.001653076171875,0.0118337917871773,-0.0041975247550755,-0.0412760132402181,5.53354620933e-05,-0.0019674692302942,0.0002866440918296
1783206460937589200,1.01158935546875,0.0158325425671413,-0.0125991684027947,-0.0496516273975372,-0.002395243383944,-0.0026701022870838,0.0021986733190715
1783206460947526100,1.021526123046875,0.0048629298612475,-0.0080972538736648,-0.0499397966891527,-0.0031619677320122,-0.0003819139674305,-0.0002058946993201
1783206460957463000,1.031463134765625,-0.0015867942674085,7.90931181982e-05,-0.0452951857537031,-0.0014622053131461,0.0007478767074644,0.0022927420213818
1783206460967399200,1.041399169921875,-0.0001625336179509,0.0040441973568871,-0.0425976172327995,-0.002424937672913,-0.0011959644034504,0.002290345262736
1783206460977336000,1.051336181640625,-0.0010443214211612,0.0058203767165541,-0.0400479327499866,-0.0035802675411105,0.0009586475789546,0.0016928697004914
1783206460987272000,1.06127197265625,0.0046858562612906,-0.0045888256276026,-0.0415361254811286,-0.002062264829874,-0.000498101580888,0.0003594250883907
1783206460997209000,1.071208984375,0.0096756639052182,-0.0091209891645237,-0.0487204840272665,0.0003341557458043,0.0015373593196272,-0.0008369632996618
1783206461007146200,1.081146240234375,0.0094661676066927,-0.0016278021312318,-0.0479705424427986,0.0015219254419207,0.0014201803132891,0.0016653430648148
1783206461017082000,1.09108203125,0.0090496409613639,-0.0028993747033178,-0.0443845006495714,-0.0018847221508622,-0.0001132865436375,0.0011225456837564
1783206461027019000,1.10101904296875,0.0085271149246022,-0.0066158196768723,-0.0461789828509092,-0.0022090952843427,-0.0014525903388857,0.0009089598897844
1783206461036955100,1.110955078125,-0.0009782704476267,-0.0065320686498656,-0.0472223544239997,-0.0010017147287726,0.0008330233395099,0.0038219233974814
1783206461046892300,1.120892333984375,0.0012855828311294,-0.003412694520317,-0.0524585015118122,-0.0009713554754853,0.0004577836953103,0.0010479744523763
1783206461056828000,1.130827880859375,0.0079769519622437,0.0053622394192032,-0.0473655622869729,-0.001870390959084,4.6021305024e-06,0.0014731453265994
1783206461066765000,1.14076513671875,-0.0095227200995199,0.00170863054879,-0.0487058709800243,-0.0007846197113394,-0.0007991399616003,-0.0013138526119291
1783206461076702200,1.1507021484375,-0.0014864939644001,0.0105005156231112,-0.0546919596523046,-0.0009219925850629,0.0003350847400724,0.0010120957158505
1783206461086638300,1.160638427734375,0.0106020032362081,0.003597421703767,-0.0525970331996679,-0.0015640808269381,-0.0021749446168541,0.0026294332928955
1783206461096575000,1.170574951171875,0.0115034638542681,-0.0011749620635062,-0.035090018081665,-0.0017261793836951,-0.001020735129714,-0.0003364360891282
1783206461106511000,1.180510986328125,0.0116624538082629,-0.0107951329218223,-0.0407704018056392,-0.0005506593734025,0.0014810385182499,-0.0005018182564526
1783206461116448300,1.1904482421875,0.0058803998081013,-0.0043169498836621,-0.0457078582078218,-0.0019420590251684,-0.0021414565853774,0.0009540878236293
1783206461126385200,1.20038525390625,-0.0056032268345355,-0.0036384661002084,-0.0470563502073288,-0.0015846630558371,-0.0004628663882613,0.0039032720960676
1783206461136321000,1.210321044921875,-0.0015557050094008,0.0425692679211497,-0.051095396465063,0.001223899424076,-0.0012499010190367,-0.0010895465966314
1783206461146258200,1.220258056640625,-0.0054463192397728,0.0281895179782062,-0.0431640189439058,-0.0004235319793224,0.0002720952033996,-0.0001068401616066
1783206461156194300,1.2301943359375,0.0125967024510726,0.026302005464863,-0.0427098454356193,0.0005916934460401,-0.0005885539576411,0.0019227566663175
1783206461166131000,1.240130859375,0.0219356452152133,0.0070058236414566,-0.0606692804962396,0.0002697175368666,0.0023081665858626,0.0008526982273906
1783206461176068000,1.250068115234375,0.0061136788410134,-0.0029383732731454,-0.0356809697121381,-0.0021410267800092,0.0008204034529626,-0.0010054262820631
1783206461186004200,1.260004150390625,0.0304137516326271,0.0007549648194573,-0.0431640189439058,9.89586114883e-05,0.0023200295399874,-0.0007484310772269
1783206461195941000,1.269941162109375,0.0175722623739391,0.0044941696140915,-0.0445189406841993,0.0001694308593869,-0.0001107663847506,-0.000314223812893
1783206461205877000,1.279876953125,0.0049082851066254,0.0096474059251137,-0.04886310736835,0.0021404363214969,0.0030077951960265,0.0002751336432993
1783206461215814100,1.289814208984375,0.0059290795217268,0.0130062513663433,-0.0433475588172674,2.5238841772e-06,0.0051838313229382,-0.0024205395020544
1783206461225751000,1.2997509765625,0.0010764335924759,0.0182837168452329,-0.0216664728850126,0.0020331842824816,0.0040565151721239,-0.000784293282777
1783206461235687000,1.30968701171875,0.016015096059814,0.0158396116287447,-0.0656809711784124,0.003937997855246,0.0013728854246437,0.0005118695553392
1783206461245623800,1.319623779296875,0.0073175930043682,0.017972513737902,-0.0558154107242822,0.0006162375211715,0.0039526894688606,-0.0015009475173428
1783206461255561000,1.32956103515625,-2.31251472607e-05,0.0140864295521751,-0.034435353565216,0.0004300232976675,0.0035674145910888,-0.0008296817541122
1783206461265497000,1.3394970703125,0.0075098093745298,0.0161392338961362,-0.0444715944111347,-0.0002381633967161,0.0007503228262066,-0.0018062628805637
1783206461275433700,1.349433837890625,0.0115320323616266,0.018714874804113,-0.0627379034638404,0.0023028291761875,0.000329568516463,0.0023581886198371
1783206461285369900,1.359369873046875,-0.0059217547317966,0.0302237454858608,-0.0444932217210531,0.0024224054068326,0.0036523945163935,0.0013608348090201
1783206461295307000,1.36930712890625,-0.0067784080937504,0.0268077082309871,-0.0424070630967617,-0.000758284702897,0.0051220031455159,0.0005580394063144
1783206461305244000,1.379243896484375,-0.0065917264152318,-0.0080798095485195,-0.050349546533823,0.0003194967284798,0.004658879712224,-0.0002571542281657
1783206461315179800,1.3891796875,0.0135587158836424,0.0352999345052987,-0.0415220969557762,-0.0007423358038067,-0.0009726216085255,-0.0029068477451801
1783206461325117000,1.399116943359375,0.006858999049291,-0.0135424223359674,-0.0472188472926616,0.0039067445322871,0.0020455387420952,0.0012189215049147
1783206461335053000,1.409052978515625,0.0038828875816427,0.0152459017856046,-0.0400461791843175,-0.0004529235884547,0.0024339624214917,-0.0006496217101812
1783206461344989700,1.41898974609375,0.0044048290965147,0.0080340341780334,-0.0541179591566324,-0.0009543970227241,0.0024336960632354,-0.0005673300474882
1783206461354926800,1.4289267578125,0.0050927200291305,0.0091387074843049,-0.0402010774850845,0.0016770008951425,0.0001924592070281,9.18505247682e-05
1783206461364863000,1.438863037109375,0.013787337007746,0.0028622210307046,-0.047093175086379,0.001984329894185,0.0015972764231264,-0.0014820777578279
1783206461374800000,1.4487998046875,0.0098401702845469,0.0056567105874419,-0.0487438649028539,0.0018069129437208,-0.0006018844433128,-0.0010745723266154
1783206461384735700,1.45873583984375,0.0068161828208714,-0.003582863455452,-0.046800329619646,0.001607708632946,0.0013621966354548,-0.0001001216005533
1783206461394673000,1.4686728515625,0.0165263152512721,-0.0008198650155216,-0.0442588284432888,0.0013962499797344,-0.0013578529469668,-8.39144922792e-05
1783206461404609800,1.47860986328125,0.0079541373422369,0.009124185768608,-0.0430611430913209,0.0015342012047767,0.0023215701803565,-0.001058631343767
1783206461414545700,1.488545654296875,0.0104312132465653,0.0066170617858879,-0.0373819284111261,0.0020327260717749,-0.0001995479688048,-0.0027833471540361
1783206461424482800,1.49848291015625,0.0132437681829556,0.0039378143729642,-0.0420265393465757,0.0026202192530035,-0.0002109995111823,-0.0001257788389921
1783206461434420000,1.508419921875,0.0134053519528359,-0.0158793773835524,-0.0551969865649938,-0.0005954997614026,0.0021819709800183,0.002347245812416
1783206461444355800,1.51835595703125,0.0163822123391553,-0.0086513258261606,-0.0444295088350772,-0.0010277302935719,-0.0007397830486297,-0.0012474891263991
1783206461454292700,1.528292724609375,0.009053842212446,0.0013933723208494,-0.0403852018803358,-0.0015188856050372,-5.0775706768e-06,-0.0021153772249817
1783206461464228900,1.538228759765625,0.0089947324363514,-0.0069594272164627,-0.0476519780129194,0.0238479897379875,0.0934069007635116,0.0014087841846048
1783206461474166000,1.548166015625,-0.0143269603097811,0.0073121313779614,0.0591378331452608,0.0196858532726764,0.060162030160427,0.0025334053207188
1783206461484103000,1.55810302734375,-0.0341332653461024,-0.0206256768614985,1.330154378783703,-0.0188708584755659,-0.0925183221697807,-0.0017851768061518
1783206461494038800,1.568038818359375,0.1176752892445772,0.0158626819770783,-2.0637264277309177,0.0134468451142311,0.0850109830498695,0.0004569881130009
1783206461503976000,1.577975830078125,-0.0793330644339323,-0.0040064956950023,0.086457801747322,-0.0255394354462623,-0.0727533474564552,0.0003248953726142
1783206461513912800,1.587912841796875,0.0882903874693438,-0.0140272832434624,0.7942056736081838,-0.0032160207629203,0.0234661288559436,-0.0017622240120545
1783206461523848700,1.5978486328125,-0.0077651358424685,0.0017115896908566,-0.6737789667636156,-0.0225566960871219,-0.0903810784220695,-0.0025984565727412
1783206461533785900,1.607785888671875,0.0263720567600801,0.0045059696497395,-0.425087114533782,-0.0083362543955445,-0.0320447199046611,0.003188261995092
1783206461543722000,1.617721923828125,0.0577716228259727,-0.0125593478490598,0.3920610432446003,0.0036884499713778,0.0115285906940698,0.001128306845203
1783206461553659000,1.627658935546875,-0.0489673897267319,0.0147610043454915,0.1308528237909078,-0.009500085376203,-0.0250924080610275,0.0013811502140015
1783206461563595800,1.637595703125,0.0242021653750911,0.0155490129180252,-0.1452215408831834,0.0003488166257739,0.012108489871025,-0.0002255348954349
1783206461573532000,1.647531982421875,-0.0004713073061779,0.0099681805783882,0.0421492889434099,-0.0071882624179124,-0.0242618899792432,0.002017373451963
1783206461583468800,1.65746875,0.03410265101213,0.0011647511967457,-0.0947387233585119,-0.0007878867909312,0.0076190764084458,0.0012349367607384
1783206461593406000,1.667406005859375,0.0144042633296921,-0.0111105007476173,-0.0574684386283159,-0.0062975520268082,-0.0140005787834525,0.000442479038611
1783206461603341800,1.677341796875,0.0075499404555186,0.0051215807974338,-0.0102934304773807,0.0003227991983294,-0.00119956349954,-0.001627329736948
1783206461613279000,1.687279052734375,0.011343304856494,0.015686192899011,-0.0680418550908565,-0.0057200957089662,-0.0086100753396749,-0.0015273265307769
1783206461623215900,1.6972158203125,0.0117525067118927,0.0080483366980217,-0.055437225061655,-0.0030401572585105,-0.0027463273145258,0.0022050936240702
1783206461633151700,1.70715185546875,0.0173952070402912,-0.0031855529672466,-0.0367336936354637,0.0003190087154507,-0.0001927427947521,0.0004145016428083
1783206461643089000,1.7170888671875,0.0074907028152607,-0.0095184640495106,-0.0313286197215318,-0.0025396281853318,-0.0049076033756136,-0.002700331620872
1783206461653025000,1.72702490234375,-0.0006484174387529,0.0157518237474374,-0.0690343732595443,-0.0008823629468679,-0.0015210360288619,-0.0014284616336226
1783206461662962000,1.7369619140625,-0.0156999291634187,0.0033318113038316,-0.0564542931497097,-0.0015833070501685,-0.0029988237656652,0.0005081889685243
1783206461672898800,1.74689892578125,-0.0020488953538239,0.0020006357653066,-0.0431359618932008,0.0001724287867546,0.0004983749240636,-0.001701257075183
1783206461682835000,1.7568349609375,-0.0002777574954554,-0.0044002077203243,-0.0546510431200265,-0.0020156241953372,-0.0017277617007493,0.0006183562800288
1783206461692771800,1.766771728515625,0.0048373387622646,-0.0030953539331443,-0.0485094716250896,-0.0007083881646394,0.0001122429966926,-0.0010437059681862
1783206461702709000,1.776708984375,0.0140768762725405,-0.0033660423669964,-0.0474596703112125,-0.0024426383897662,-0.0020851315930485,0.0024791236501187
1783206461712644900,1.786644775390625,0.0261661771907471,0.0043472171577624,-0.0585270077705383,0.001027287915349,-0.0015684114769101,-0.0011123314034193
1783206461722581800,1.796581787109375,0.004695354741998,0.001054641885776,-0.046104748570919,-0.0001274580135941,-0.0022195545025169,-0.0042338222265243
1783206461732519000,1.806518798828125,0.0053052485349588,0.0025080007655546,-0.0372702847301959,-9.05450433492e-05,-0.001382227987051,-0.0023878747597336
1783206461742454800,1.816454833984375,0.0065329636990092,-0.0095652805996127,-0.0465478161633014,-0.0003555295988917,0.0010244706645607,0.0015948824584484
1783206461752392000,1.826391845703125,0.0101888010591268,-0.0031934257464483,-0.0538806432694196,0.0012218039482831,-0.0011236537247896,-0.0014514370122924
1783206461762328800,1.836328857421875,0.0118067941823974,0.007987089763768,-0.0495411527603864,-0.0018227212131023,-0.0009327046573162,-0.0023795487359166
1783206461772265000,1.846264892578125,0.009988547512982,0.0168384682066738,-0.0472930815726518,0.0015385216102004,-0.0004742830060422,0.0017100307159125
1783206461782201900,1.856201904296875,0.020127846874576,-0.001635492247343,-0.0520762241959571,-0.0028490349650382,-0.0029789865948259,0.0003779174294322
1783206461792138800,1.866138671875,0.016889814801421,-0.0093042733095586,-0.0468318938016891,-0.0006724800914525,0.0009186663664877,-0.0011843119282275
1783206461802075000,1.876074951171875,0.011695059169922,-0.0023566643950529,-0.051171968832612,0.0030580759048461,-0.0015396974049508,0.0014628700446337
1783206461812012000,1.886011962890625,-0.0087105634664185,0.0036810448666103,-0.0390542455375194,0.0018442077562212,-0.0001934696920216,0.000863830326125
1783206461821948000,1.895947998046875,-0.0083598503326065,0.0022789047174155,-0.0481833084106445,0.000593320466578,-0.0020835152827203,0.0018763642292469
1783206461831884800,1.905884765625,0.0061046735506504,-0.0030124796889722,-0.0487818588256835,8.80733132362e-05,-0.001002422068268,0.001384733710438
1783206461841822000,1.915822021484375,0.0121969990763813,-0.0166644816129468,-0.0390554145812988,-0.0020919907838106,0.0029776722658425,-0.0012272945605218
1783206461851757800,1.9257578125,0.0115527828887104,5.87809825316e-05,-0.0460848748266696,-0.0004478618502616,-0.0033509382046759,-3.31869814544e-05
1783206461861694700,1.93569482421875,-0.0017103841144591,0.0071744216740131,-0.0601473024487495,-0.0003208294510841,-0.0008920417167246,0.00069918227382
1783206461871632000,1.9456318359375,-0.0070518182076513,-0.0013819558776915,-0.0429366399288177,-0.0017485953867435,-0.0030669290572404,0.0012500565499067
1783206461881568000,1.955568115234375,-0.010672328526061,-0.0025441497911699,-0.0432335770487785,-0.0003216732293367,0.0024343631230294,-0.000291114905849
1783206461891504600,1.965504638671875,-0.0026325952596031,0.0020290216095745,-0.0513134231299161,-0.0005882335826754,-0.0016650995239615,0.0012183103244751
1783206461901441800,1.97544189453125,0.0094117522720247,0.0047127260019071,-0.0387409418046474,-0.0019413856789469,-0.0011010416783392,-0.00012685242109
1783206461911378000,1.9853779296875,0.0243790745782665,0.0097475418313406,-0.0442716879248619,-0.0008799945935606,0.0002793543972074,-0.0005669298116117
1783206461921315000,1.995315185546875,0.0217677413024008,0.0085459474892355,-0.0496522119194269,-0.0027303593233227,-0.001040774397552,0.0018134035635739
1783206461931251700,2.005251708984375,0.0119295072466135,0.0232609755348414,-0.0424655152857303,-0.0008715260773897,2.10390426218e-05,0.0021803712006658
1783206461941187800,2.015187744140625,-0.0008949030131101,0.0120703770220279,-0.0490536615043878,0.000650736503303,0.0016154735349118,-0.000269204378128
1783206461951125000,2.025125,-0.0072452584205195,0.0119405400972813,-0.0496498738318681,0.0017836866900324,-0.0013986420817673,0.0010440186597406
1783206461961062000,2.035061767578125,-0.0091396207997575,0.0035203561458736,-0.0393225410848855,-0.0007551051676273,0.0007020593620836,-0.0025299433618783
1783206461970997800,2.044997802734375,-0.0043507242891006,-0.0038901027737185,-0.0467974070101976,-0.0012940466403961,0.0011480036191642,0.0029674826655536
1783206461980935000,2.054934814453125,0.010801599195227,0.0094324480001814,-0.0466425087094306,-0.0021292138844728,-0.0006235311739146,-0.0004746527411043
1783206461990871800,2.064871826171875,0.0216303055930882,0.0062751347467303,-0.0511257916033267,-0.0017121098935604,0.0015797549858689,0.000954826362431
1783206462000807700,2.0748076171875,0.0157798259992152,0.0074951780609786,-0.0460346059441566,-0.0010412596166133,-0.0009113661944866,0.0007609482854604
1783206462010744800,2.084744873046875,0.0105273670974187,0.0113838743289001,-0.0469283399134874,-0.001076634041965,-0.0001753834076225,0.0012426069006323
1783206462020682000,2.094681884765625,0.0185909013645723,0.0018171872234903,-0.0404863241672515,-0.002082509920001,0.0006794910877943,0.0013741669245064
1783206462030617900,2.104617919921875,0.0112631522923707,0.0023786570311523,-0.0404851551234722,-0.0008565383031964,0.001903723925352,0.0003960293252021
1783206462040554800,2.1145546875,0.0027335714160464,0.0052902518952265,-0.0434755691111087,-0.0017377780750393,-0.0011194967664778,0.0012005702592432
1783206462050492000,2.124491943359375,-0.0080775810588151,0.0120175325899384,-0.0457125343829393,-0.0009960597380995,-0.0007886881940066,0.001276368740946
1783206462060428000,2.134427978515625,0.0090526366360485,0.0110941524010151,-0.0409212084531784,0.0012388648465275,-0.000634757336229,0.0013647857122123
1783206462070365000,2.144364990234375,0.0224569656755775,0.0034602782553993,-0.0268482594370841,-0.0024748174473643,-0.0003188704140484,-3.2444950193e-06
1783206462080301800,2.1543017578125,0.0324224793728441,-0.0105251203414052,-0.0379126742869615,-0.0029009226709604,0.0007794173434376,-0.0011800953652709
1783206462090238000,2.164238037109375,0.0339027993247844,-0.0115843105381354,-0.0412006099164485,0.0001533366739749,-0.0007683904841542,5.13948034495e-05
1783206462100174800,2.1741748046875,0.0237791541900485,-0.0110806718649342,-0.0350613765090703,0.0001661200076341,2.62968242168e-05,0.0011238495353609
1783206462110112000,2.184112060546875,0.007261734631285,-0.0163345372725278,-0.0355073667109012,-0.0021246867254376,-0.0015074340626597,-0.0010436759330332
1783206462120047900,2.1940478515625,0.0095230123604647,-0.0070501194409094,-0.0380465297996997,-0.0012799324467778,0.0017357631586492,0.002379551064223
1783206462129984800,2.20398486328125,0.0056178581480868,0.0036151582898572,-0.0428320105105638,-0.0023188414052128,0.0018200147897005,0.0028623007237911
1783206462139922000,2.213921875,-0.0048537967067211,0.0125591469196602,-0.0444774396300315,-0.0015973914414644,0.0018008397892117,-0.001114864135161
1783206462149857800,2.22385791015625,-0.0027049846423789,0.0047867045535705,-0.0423813441336154,-0.0008712075650691,0.0006083152256906,-0.0014802471268922
1783206462159794700,2.233794677734375,0.0210896959103643,0.0036747429899871,-0.0402846641153097,-0.0027974713593721,0.0006732959300279,-0.000823245383799
1783206462169731800,2.24373193359375,0.01691547896564,-0.007332096453756,-0.045664603587985,-0.0033972561359405,-0.0019766455516219,0.0022185614798218
1783206462179668000,2.25366796875,0.018807046599593,-0.0080860748925246,-0.0438660297334194,-0.0020813876762986,0.0003349781036376,-0.0010864213109016
1783206462189604900,2.26360498046875,0.0178972748109139,-0.0075425973992794,-0.0476011246085166,-0.0017504319548606,0.0010123052634298,0.0010048858821392
1783206462199541800,2.273541748046875,0.0104532789479009,-0.006309347543586,-0.0381698639184236,-0.0026918584480881,0.0002109599299728,0.0020424532704055
1783206462209478000,2.283477783203125,0.0074358673554845,0.0013937011144123,-0.054928106495738,0.0006511537358164,-0.0008682426996529,-0.0010745162144303
1783206462219415000,2.2934150390625,0.0088532233401201,-0.0141070887477137,-0.0469879611462354,-0.0004095835611224,-0.0022035515867173,-0.0018737307982519
1783206462229351700,2.3033515625,0.011190123588778,-0.0087303824117407,-0.0389005162805318,-0.0006591910496354,-0.0026409621350467,-0.0019937925972044
1783206462239287800,2.313287841796875,0.0167605075996369,-0.0024468816954642,-0.0405365930497646,-0.000778766348958,-0.0029179309494793,-0.0004076138138771
1783206462249225200,2.32322509765625,0.0211250594846904,0.0001161919918842,-0.044726445955038,-1.79689377546e-05,-0.0002468517050147,5.28211239725e-05
1783206462259162000,2.333162109375,0.0191869675615802,-0.0103557916564866,-0.0547474892318248,-0.0028513064607977,0.0003198692575097,0.0013170237652957
1783206462269098000,2.343097900390625,0.0130068906871601,0.0012170841721817,-0.0492097288489341,-0.0008607981726527,0.0011001015082001,0.0014757374301552
1783206462279035100,2.35303515625,0.0066255921522155,-0.0103406306199729,-0.0406733711719512,-0.0006402879953384,-0.0030893166549503,0.0003870374057441
1783206462288972000,2.362971923828125,0.0006139306472614,-0.0028723588322289,-0.0396259079456329,0.0005470486357808,0.0008133598603308,0.0009670718573033
1783206462298908200,2.372908203125,-0.0030194026201032,-0.0029713439609855,-0.052941901114583,0.0005590328946709,1.7340760678e-05,0.0009686695411801
1783206462308845000,2.382844970703125,-0.0024130890237167,-0.0064240051655098,-0.0342412922978401,0.0006234282627701,0.0030479694250971,0.0008518442045897
1783206462318782200,2.3927822265625,0.0156850969204679,-0.0033296193467453,-0.034834582015872,-0.0010809954255819,-0.0031816968694329,0.0027200516778975
1783206462328718000,2.402718017578125,0.0197193939378485,-0.0132117656094953,-0.0488917489409446,-0.0034577213227748,0.000174424611032,6.48989807814e-05
1783206462338655200,2.4126552734375,0.01324561308017,-0.0025547077178023,-0.04423778565526,-0.0009234584867954,-0.0010040239430963,-0.0032912166789174
1783206462348592000,2.422592041015625,0.0123964671712368,0.0074952328599058,-0.0377986925184726,-0.0008511990308761,0.0007372051477432,-0.0006462468300014
1783206462358529000,2.432529052734375,0.0102807536588981,-0.005213149804715,-0.0502151064991951,-0.0005417400971055,-0.0005400464870035,0.0001284668687731
1783206462368465200,2.442465087890625,0.0020902685438282,-0.0057005497291684,-0.0481225181341171,-0.0006774337962269,0.0014492282643914,5.8407895267e-06
1783206462378402300,2.45240234375,0.0049812224786728,-0.0123208811843767,-0.0352513461232185,-0.0033736182376742,0.0002161846496164,9.34589188545e-05
1783206462388339000,2.4623388671875,0.007517481224332,-0.0117322128425352,-0.0416769952565431,-0.0032242918387055,1.90413556993e-05,0.0009243616368621
1783206462398275000,2.472275146484375,0.0098600805614143,-0.0078411419544368,-0.0365863941192626,0.0002838894724845,-0.0005407552234828,0.0001459193881601
1783206462408212200,2.482212158203125,0.0088387016244232,-0.0130810519019141,-0.0425666375726461,-0.0002794517204165,-0.0032182498835027,-5.05377538502e-05
1783206462418149000,2.492149169921875,0.0169452530493959,0.0039830965531058,-0.0490004700124263,-0.0010086251422762,0.0018697190098464,-5.53315039724e-05
1783206462428085000,2.5020849609375,0.0158153722366318,-0.0019002258644439,-0.0479500841766595,-0.0020423708483576,0.0006798808462917,0.0021320178639143
1783206462438022100,2.512022216796875,0.0168869104582816,0.0025310893801972,-0.0404658659011125,0.0005675265565514,-0.0005888491868972,-0.0012326200958341
1783206462447959300,2.521959228515625,0.003942271352373,0.0008516118606552,-0.0483978279441595,0.0015797279775142,-0.0003718668594956,-0.0002727115061134
1783206462457895200,2.531895263671875,-5.1985915564e-05,0.0263503198523074,-0.0557306550502777,-0.0009814342483878,-0.0018065120093524,-0.0004623285494744
1783206462467832000,2.54183203125,-0.0026220555992797,0.0222771338629536,-0.0398684845298528,0.0008036121726036,-2.9918737709e-06,-0.0001187932211905
1783206462477769200,2.551769287109375,0.0182434396337717,0.0017812573935836,-0.0437573086619377,-0.0004581939429044,-0.0024456433020532,0.0017004122491925
1783206462487705300,2.561705322265625,0.0380540920516476,-0.0325943288084119,-0.0473398433238267,-0.0019014067947864,-0.0010408917441964,-0.0017149166669696
1783206462497642200,2.571642333984375,0.028551592756249,-0.0013804397740401,-0.0386567706525325,-0.0020079333335161,-8.88118520379e-05,-0.0012794898357242
1783206462507579100,2.5815791015625,0.0070434157054871,-0.0120581385949626,-0.0510784453302621,0.0001576673239469,0.0005554133094847,0.0006189940031617
1783206462517516000,2.59151611328125,0.0206239232958294,-0.0042205037718638,-0.0341676425397396,-0.0006159804761409,-0.0009410167112946,0.001933796564117
1783206462527452200,2.6014521484375,0.0130880113656632,-0.003748867672123,-0.0391080215513706,0.0019087325781583,0.0027008662000298,0.0006894206162542
1783206462537389300,2.611389404296875,0.0159219744162634,0.0031708851210772,-0.0407552042365074,6.7027285695e-06,-0.002643565647304,0.0018159376922994
1783206462547326200,2.621326171875,-0.0065016735116019,0.0068361113640479,-0.0455406849473714,0.000304645858705,0.0008557150140404,4.25269827246e-05
1783206462557262000,2.631261962890625,-0.0239120233220979,-0.0083035718344151,-0.0409071799278259,-2.23899260163e-05,0.0014682416804134,-0.0001542805694043
1783206462567199200,2.64119921875,-0.0137561564181931,-0.0147203983404673,-0.0344692558348178,-0.002407549880445,-0.0030888123437762,0.0008843601681292
1783206462577136400,2.651136474609375,0.0026076617477461,-0.0088319613563828,-0.0416390013337135,-0.0005875453352928,0.0001016543246805,0.0030050352215766
1783206462587072300,2.661072265625,0.0224319956311024,0.001095174825564,-0.0432844304531812,0.0002366211265325,-0.0005661384202539,0.0031274086795747
1783206462597009200,2.671009033203125,0.0236896492756903,0.0058880716579034,-0.0515127450942993,0.0012571448460221,-0.0017352662980556,-0.0001570675522089
1783206462606946300,2.6809462890625,0.0265944856054149,0.0066776876656338,-0.0423795905679464,-0.000367403961718,-0.0018092058598995,-0.0012611125130206
1783206462616882200,2.690882080078125,0.0208702992723323,-0.0015965667427517,-0.0363940864175558,-0.0005170740187168,0.0013532978482544,0.001746661728248
1783206462626819000,2.700819091796875,0.0031446912338957,-0.0001212152268737,-0.0387900416433811,-0.0012733442708849,0.0010277424007654,0.0014591328799724
1783206462636756200,2.710756103515625,-0.0033653482472524,-0.0100608272979035,-0.0402823260277509,0.0016209790483117,-0.0036474373191595,0.00138243380934
1783206462646693000,2.720693115234375,-0.0052829453716054,-0.0084216635224409,-0.0462625694811344,-0.0006436137482523,-0.0024938597343862,0.0001120544038712
1783206462656629000,2.73062890625,-0.0067934412661008,0.0054423554507084,-0.0416179585456848,-0.0007717125117778,0.0019216607324779,0.0012436315882951
1783206462666566100,2.740566162109375,0.0037187099958769,-0.0039805392698384,-0.0510486347138881,-0.0006545148789882,0.0005603153258562,0.0024050285574048
1783206462676503300,2.75050341796875,0.0081962024698033,0.0075624894098378,-0.0474585012674331,-0.0002414593473076,0.0015627294778823,0.0002643798943608
1783206462686439200,2.760439208984375,0.0113857557587325,-0.0056080126075074,-0.0483551578462123,-0.0028314283117651,-0.0014242152683436,0.0016968850977718
1783206462696376000,2.7703759765625,0.0064496875960379,-0.0051775487683713,-0.0441559525907039,0.0010879468172788,0.0006493218243122,-0.0035807010717689
1783206462706313200,2.780313232421875,0.0137152764185331,-0.0018855214856564,-0.0414642292886972,9.12705436348e-05,0.0025032637640833,0.0006499297451227
1783206462716249300,2.790249267578125,0.002378182107117,-0.0009301569895818,-0.0529874938219785,-0.0036768354475498,7.95209780335e-05,-0.0006214631721377
1783206462726186200,2.800186279296875,0.0053479916981421,-0.008094532193616,-0.0395125106990337,-0.0010162256658077,-0.0009245229884982,0.0002089140471071
1783206462736123100,2.810123046875,0.0083508633085526,0.0057464164311997,-0.0396598102152347,-0.0007341969758272,-0.0032521253451704,0.0020978942047804
1783206462746060000,2.82006005859375,0.0077462667452171,0.0050531369374133,-0.0412947179406881,-0.0017325077205896,-0.0004818905144929,0.0016734686214476
1783206462755996200,2.82999609375,0.0089223247872665,-0.0063033927268348,-0.0408382063448429,-0.0004195692017674,-0.0010217134840786,-0.0002956727985292
1783206462765933300,2.839933349609375,0.0090217483074404,-0.002830455919262,-0.0481640191882848,0.0015598125755786,-0.0012495978735387,-0.0005286745727062
1783206462775870200,2.8498701171875,0.0038634339625015,0.0153611804620362,-0.0469675028800964,-0.0006788410246372,0.0029046672862023,0.0005752057768404
1783206462785806000,2.85980615234375,0.0026490714703686,0.0128190582311712,-0.0361982715845108,0.0011499524116516,0.0005224049091339,0.0008230698294937
1783206462795743200,2.8697431640625,0.0103859858653508,-0.00285228415858,-0.0394926369547843,0.0011350391432642,0.001178874168545,-0.000946067739278
1783206462805680400,2.879680419921875,0.0083600512620061,0.0004369666451588,-0.0475754056453704,-0.0006500482559204,0.0009146444499492,-0.0005700893234461
1783206462815616300,2.8896162109375,0.0151964000880718,0.0058933871538378,-0.0525169537007808,0.0010810066014528,0.0011007995344698,0.0030107970815151
1783206462825553200,2.89955322265625,0.0073567194383591,0.0026655842137522,-0.0444400302290916,-0.0006574057042598,0.0007614218629896,0.0006937652360647
1783206462835490300,2.909490234375,0.0049907209593802,0.0037453605407848,-0.0447393054366111,-0.0001596603542566,-0.0004684259183704,0.0016644874121993
1783206462845427200,2.91942724609375,0.010320555946324,-0.0051244668742641,-0.0432435139209032,0.0001800488680601,-0.0010369173251092,-0.0011398787610232
1783206462855363000,2.929363037109375,0.0169850918694399,-0.0033400494092144,-0.0435398665189743,0.0015278747305274,0.0005330159328877,0.0012098280712962
1783206462865300200,2.93930029296875,0.0132807209261693,-0.0226410170055925,-0.049674423751235,0.000925307162106,0.0006448221392929,0.0014191211666911
1783206462875237000,2.949237060546875,0.0117356469086371,-0.014689436946623,-0.044588498789072,0.0019146716222167,0.0030627062078565,-0.00060541392304
1783206462885173000,2.959173095703125,0.0039555692253634,0.0054031742177903,-0.0414472781538963,0.0005961889401078,9.74033027887e-05,-0.0007506133988499
1783206462895110100,2.969110107421875,0.0018644786976277,0.0077520206325687,-0.0475812508642673,-0.0013591041788458,0.0008593336679041,-0.0018036273540928
1783206462905047300,2.97904736328125,0.0080116396831348,0.0078345843494869,-0.0432394222676753,0.0015981057658791,0.001993388403207,0.0012043926399201
1783206462914983200,2.988983154296875,0.0038996012544259,-0.0064583458265289,-0.0441325717151164,0.0008391048759222,-0.0006173085421323,0.0034611553419381
1783206462924920000,2.998920166015625,0.006345039911475,-0.0049551747219637,-0.0451788658976554,0.000418591313064,-0.0015801140107214,0.0001134139019995
1783206462934857200,3.008857177734375,-0.000197568398714,-0.0025268515964969,-0.0417366164892911,0.0019464464858174,-0.0029801377095282,1.62085052579e-05
1783206462944794000,3.018794189453125,0.0033387707675807,-0.0044446679165586,-0.0417389545768499,0.0004319762811064,-0.0004141796380281,0.0019781314767897
1783206462954730200,3.028730224609375,0.006235515122395,0.0070709430332295,-0.0335071328043937,0.0003110691905021,0.0002532084472477,0.0001083260867744
1783206462964667100,3.038667236328125,0.015705591719225,-0.0034261750563979,-0.0420347226530313,0.0008480558171868,0.0012988140806555,-0.0011990803759545
1783206462974604000,3.04860400390625,0.0180017580986954,-0.0056545003640465,-0.0430810168355703,-0.0006976425647735,-0.0015723397955298,0.000916534801945
1783206462984540200,3.0585400390625,0.0094318634782917,-0.0044830636981874,-0.0347018955469131,-0.0017487527802586,0.0008920817635953,-0.0016970947617664
1783206462994477300,3.068477294921875,0.0095640567569062,-0.0023450104898773,-0.0385942268103361,0.0015333266928792,-0.0029431362636387,-0.001187632093206
1783206463004414200,3.078414306640625,0.0105619452204555,-0.005271382797975,-0.0311111775785684,0.0004771500825881,-0.0008916854858398,0.001759715611115
1783206463014351000,3.08835107421875,-0.0017430625413544,0.0060805437563918,-0.0384434201627969,0.0035528345033526,-0.0007308307103812,-0.0004411204718053
1783206463024287200,3.098287353515625,0.012270393106155,-0.0046251390499994,-0.0448772526025772,0.0009773960337042,-0.0025762259028851,-0.0006396514363586
1783206463034224400,3.108224365234375,0.016068104888685,-0.0041854872574098,-0.0435281760811805,-0.0005571171641349,0.0005319495685398,-0.0024889505002647
1783206463044161000,3.1181611328125,0.0175971228205598,0.0087324647709727,-0.0402367333203554,-0.0003904169425368,-0.0018198853358626,0.0012814691290259
1783206463054097200,3.12809716796875,0.0196349487910978,0.0105781109039671,-0.0466699812382459,0.0005667228251695,-0.0003151991404592,0.0007754685357213
1783206463064034300,3.138034423828125,0.016555742275156,0.0084756039330735,-0.050263621816039,0.0019011525437235,0.0012444504536688,-0.0009211786091327
1783206463073971200,3.14797119140625,0.0141052073178812,0.0118931938242167,-0.0435351903438568,0.0023554880172014,-0.0009289551526308,-0.0003984000068157
1783206463083908000,3.157908203125,0.0066404974604025,0.0120878030808642,-0.0448825132995843,-0.0014861514791846,0.0006159362383186,0.0027958070859313
1783206463093844200,3.16784423828125,0.0112299989414401,-0.0042729463451541,-0.0382984587341546,0.0010222801938652,-0.0003814175724983,0.0005398432258516
1783206463103781000,3.177781005859375,0.0131214935101568,0.0030746216723695,-0.0270733003646135,0.0007502781227231,-0.0017055002972483,4.5551918447e-05
1783206463113718300,3.18771826171875,0.011604257347621,0.0099090890686027,-0.0426350266337394,0.0003886204212903,0.0009448775090277,0.0012479692231863
1783206463123654100,3.197654052734375,0.0199363063578493,0.0065529470411129,-0.0516167899906635,0.0008871713653206,-0.0001366958022117,0.0001151745673269
1783206463133591300,3.20759130859375,0.0186359460826963,-0.0031387912160716,-0.0408469741731882,0.0005643963813781,0.0016697263345122,3.18174716085e-05
1783206463143528200,3.217528076171875,0.0038748869382776,0.0067374732951633,-0.0462368505179882,-0.0010154526680707,0.0019434415735304,-0.0007028700783848
1783206463153465300,3.22746533203125,0.0141760440643876,0.0018239274915307,-0.0441436776310205,0.0010301209986209,0.0001332908868789,-0.0003723718691617
1783206463163401200,3.237401123046875,0.0092692567951045,0.0061386123528704,-0.0419014516621828,0.0011537782847881,-0.0001864312216639,0.0005185313057154
1783206463173338000,3.247338134765625,0.0081552311385981,0.0043605150307528,-0.044892450171709,0.0012635001912713,0.000696406699717,0.0003600732889026
1783206463183275300,3.257275146484375,0.0023124599271453,-0.0028643216562457,-0.0421978042602539,0.0008931085467338,-0.0014173248782753,-0.0003714971244335
1783206463193212200,3.267212158203125,0.0042038814306259,-0.006512779427506,-0.0448912811279296,0.0013234755024313,-0.0013776440173387,-0.0019539473578333
1783206463203148000,3.27714794921875,0.0062163354978896,0.0011788710536435,-0.0418979445308446,-0.0006318558007478,0.0002919086255133,-0.0002438516821712
1783206463213085200,3.287085205078125,0.0063642378022894,-0.0025901078247465,-0.0380155501395463,0.001319708302617,0.0028802347369492,0.0010195516515523
1783206463223022300,3.297022216796875,0.0085785711172036,-0.0012205182382836,-0.0478968926846981,0.0017533395439386,0.00072354497388,0.0003180992789566
1783206463232958000,3.3069580078125,0.0091548001025803,-0.0006495499499142,-0.0523901124507188,0.0005280189216136,-0.000588328577578,-0.0017783411312848
1783206463242895000,3.31689501953125,0.0145390504241921,-0.0008940627628937,-0.0478980617284774,0.0012529399245977,0.0008541434071958,0.0022050088737159
1783206463252833000,3.3268330078125,0.0173637707224115,-0.0010812741643749,-0.0504459926456212,-0.0018328642472624,0.0021255365572869,-0.0003284565173089
1783206463262770000,3.33677001953125,0.0077456091580912,0.0028144728988409,-0.0417728568464517,0.0014486750587821,-0.0019442881457507,0.0013737913686782
1783206463272706000,3.3467060546875,0.0057650480664335,-0.0015190810597501,-0.0420686249226331,-0.0023338124155998,-0.0004992564208805,0.0024278701748698
1783206463282643200,3.356643310546875,0.0103961419331841,-0.0008048866420984,-0.0426624991625547,-0.0009070429950952,0.0007423898205161,0.0010145457927137
1783206463292580000,3.366580078125,0.009133921711333,-0.0010191321809776,-0.0461041640490293,-0.0014146417379379,0.0002220082096755,0.001994588645175
1783206463302516000,3.376515869140625,0.0144028568238951,0.0003614719898439,-0.0410211616963148,-0.0007206825539469,0.0029028849676251,-0.0016114659374579
1783206463312453000,3.386453125,0.0096736363449133,0.0061211314951069,-0.0437146385639905,-0.0008929893374443,0.0007832748815417,0.0017779392655938
1783206463322390000,3.39639013671875,0.0051983540943823,0.0070839669115841,-0.0395224475711584,-0.0008238684386014,0.0013377564027905,0.0019665178842842
1783206463332327200,3.4063271484375,0.001519738646876,0.0069011942232027,-0.0437093778669834,0.0016877586022019,-0.0028974688611924,0.0004735495895147
1783206463342263000,3.416262939453125,0.0077296809365972,0.0143415368244051,-0.0414613066792488,0.0020271781831979,-0.0004736827686429,-0.0016975969774648
1783206463352200000,3.426199951171875,0.0130960485416464,0.0010361015820875,-0.0413169297724962,0.001055390574038,0.0008874591439962,0.0016976669430732
1783206463362137000,3.43613720703125,0.0131368372097611,0.0045862866106443,-0.0467056370735168,0.0009312555193901,0.0002335524186491,-0.0004302556626498
1783206463372074200,3.44607421875,0.0104663941578008,-0.0010531805810518,-0.0435638319164514,6.75925984978e-05,0.0010578008368611,-0.0004188038874417
1783206463382009900,3.456009765625,0.0104345559811219,-0.0033582061204127,-0.0422206006139516,0.0007003154605627,0.0011115008965134,-0.0010485278908163
1783206463391947000,3.465947021484375,0.0050459400116465,0.0025303039289079,-0.0435685080915689,-5.155801773e-06,-0.0008131652139127,0.0012628296390175
1783206463401884200,3.47588427734375,0.0042823169616982,0.0030168636031448,-0.0497054034113884,-0.0013682842254638,0.0008246265351772,-0.0003778778482228
1783206463411820000,3.485820068359375,0.0091655954912304,0.0025342859842814,-0.0486544330537319,-0.001248175278306,-0.0002022883854806,0.0008623560424894
1783206463421757000,3.4957568359375,0.0123349097097292,0.0089481716145761,-0.0402729736775159,0.0004138452932238,0.0001762476749718,0.0006364425644278
1783206463431694000,3.505694091796875,0.0136856484652496,0.0118268140571191,-0.0464046083003282,0.000264442525804,-0.0010972758755087,-0.0012408196926116
1783206463441631000,3.515630859375,0.0115124691446311,0.0144425129808485,-0.0489443559110164,0.0002508927136659,-0.0019543473608791,0.0021411858033388
1783206463451566800,3.52556689453125,0.0084293901711702,0.0102430519970133,-0.0414648138105869,0.0012312019243836,-0.0007812245748937,0.0002785706892609
1783206463461504000,3.53550390625,0.0114107806021347,0.0055991351813077,-0.0440086530745029,-0.0006882930174469,0.0002778484486043,0.0017629934009164
1783206463471441200,3.545441162109375,0.0102376086369156,0.0170732816095463,-0.0393722254455089,0.0011279825121164,0.0031239688396453,-0.001977149862796
1783206463481378000,3.5553779296875,0.0138024980442598,-0.0007066504320129,-0.0470142646312713,-0.0003902642056345,0.0045199883170425,0.0024682753719389
1783206463491314000,3.56531396484375,0.0017745901907794,0.0083881265790201,-0.0422305374860763,0.0007149474695324,0.0011193980462849,-0.0019738774280995
1783206463501251000,3.5752509765625,0.011657631502673,-0.0024934059846214,-0.0371440280020236,-0.0007298905402421,-0.0026380619965493,0.00086663919501
1783206463511188000,3.58518798828125,0.0139018850318156,0.013676752772741,-0.048217795202136,0.0010059578344225,0.0019763968884944,0.00437215808779
1783206463521124000,3.5951240234375,0.0122551042054779,0.0187378355545923,-0.0434282228380441,0.0007400615140795,-0.0015774080529808,0.0014100056141614
1783206463531061000,3.60506103515625,0.0068144292552024,0.0080582187712192,-0.0372977572590112,0.0007477849721908,0.0032959103118628,-0.0026752837002277
1783206463540998000,3.614997802734375,0.0116185416013002,0.0076112787213176,-0.0447790529251098,0.0009975377470254,-0.000158910639584,-0.0022463162895292
1783206463550935000,3.62493505859375,0.0057111441884189,0.0145746514605358,-0.0441805025100708,0.0004148380830883,0.0005697305314242,0.0014536133967339
1783206463560871200,3.63487109375,0.0071298701462335,0.0045734088627621,-0.0456798011571168,-0.0007694447413086,0.0018312246538698,0.0012229981366544
1783206463570807800,3.644807861328125,0.0034827640818431,-0.0010089578468352,-0.0456803856790065,-0.002820611000061,-0.0027768434956669,-0.0025349885690957
1783206463580745000,3.654744873046875,0.0057131352161057,0.0049319034442305,-0.0392360318452119,-2.63834372162e-05,0.0020776293240487,0.000615770695731
1783206463590682000,3.66468212890625,0.0074328716807998,0.009508216650132,-0.047171501019597,0.0007424717769026,-0.0018627843819558,0.001245075603947
1783206463600618200,3.6746181640625,0.0177874029619619,-0.0034076164864003,-0.052111880031228,-0.0012054089456796,-0.0007153810001909,0.00140309962444
1783206463610555000,3.684554931640625,0.0106027886874973,6.84986589476e-05,-0.0435837056607007,-0.001653085462749,0.0028937349561601,-0.0001236905809491
1783206463620492000,3.694491943359375,0.0040264607707969,0.0045195597836747,-0.0432826768875122,0.0012008501216769,-0.0002370849251747,0.0006938525475561
1783206463630429000,3.704428955078125,-0.0019742774813435,0.0096435517339035,-0.0407405911892652,0.0011885995045304,0.0022332633379846,0.0008011776953935
1783206463640365000,3.714364990234375,0.0091046225516125,0.0069219812829047,-0.0349082317739725,0.0010447297245264,0.0014923512935638,-0.0007385578937828
1783206463650302000,3.724302001953125,0.0077389236889779,0.0077759129648096,-0.0376052157729864,-0.0008261417970061,-0.0002192626707255,-0.001332442741841
1783206463660239000,3.734239013671875,0.008887837995775,0.0008557400465011,-0.0479348866075277,0.0018393965438008,0.0019201040267944,0.0003556034062057
1783206463670175000,3.744175048828125,0.0098327541630715,0.0025397110780701,-0.040901334708929,-0.0002258848398923,-0.0024786391295492,-4.30718064308e-05
1783206463680112000,3.754112060546875,0.0113773532565683,0.0129301356565207,-0.039405543193221,2.64905393123e-05,-0.0010386803187429,0.0004128413274884
1783206463690049000,3.764049072265625,0.0118052232798188,0.0093102646589279,-0.0431418071120977,-0.0008470267057418,-0.0025470950640738,1.1769356206e-05
1783206463699986000,3.77398583984375,0.0053073126278817,0.0042057080615311,-0.0465805493891239,0.0008278042078018,0.001454075332731,0.0006434402894228
1783206463709922000,3.783922119140625,0.0076854399360716,0.0031910145936533,-0.0455342552065849,0.0023964066058397,3.1947158277e-05,0.0007038943003863
1783206463719859200,3.793859130859375,0.0105864586072042,-0.0102285485476255,-0.0426952323883771,-0.0023563941940665,0.0002669454552233,-0.0001497205812484
1783206463729795800,3.8037958984375,0.006069182112161,0.0070909081090241,-0.0504763877838849,-0.0007454482838511,-0.0005173552781343,0.0003352409694343
1783206463739733000,3.81373291015625,0.0103775833631865,0.0022212197134271,-0.0415010541677474,0.0009720278903841,-0.0006644106470048,0.002113820053637
1783206463749669000,3.823669189453125,0.0121908250639215,0.0095155414400622,-0.0413584308266639,-0.0006764680147171,0.0012639844790101,-0.0001780961174517
1783206463759606000,3.83360595703125,0.0160988653531298,0.0076267502850852,-0.0470458288133144,5.55962324142e-05,-0.0013741627335548,0.00137195806019
1783206463769543000,3.84354296875,0.0165041947510093,0.011499244336877,-0.0398638083547353,0.0009698588401079,-0.0007627010345458,0.0005887225270271
1783206463779480000,3.85347998046875,0.0096974556119181,0.0070438540969043,-0.0442021298199892,-0.0027583800256252,0.0005488535389304,0.0021891414653509
1783206463789416200,3.863416259765625,0.0076618763973936,-0.0002222644485533,-0.0486918424546718,-6.13965094089e-05,0.0020258431322872,0.000875404337421
1783206463799353000,3.87335302734375,0.0073780179547145,0.0105570681159384,-0.0467506452590227,0.0010268539190292,-0.0008465703576803,-0.0001706974580883
1783206463809290000,3.8832900390625,0.0044625506331212,0.003248772662878,-0.046155017453432,-0.0008733114227652,0.000316432211548,0.0010967007838189
1783206463819227000,3.893226806640625,0.0092314638016745,0.0084326050415635,-0.0440630136102438,-0.0008835326880216,-0.0008330806158483,0.0004132990725338
1783206463829163000,3.9031630859375,0.0157444441585801,0.0058658232934772,-0.0383785382330417,-0.0002989694476127,0.0010319310240447,-7.35267531126e-05
1783206463839100200,3.91310009765625,0.0092062928277999,0.0110238088448531,-0.0467629202187061,-0.000281011685729,-0.0023657474666833,-0.0016255906084552
1783206463849037000,3.923037109375,0.0116335747736506,0.006343304612115,-0.0350847573846578,-3.7332996726e-05,-9.3272421509e-05,0.000344083411619
1783206463858974000,3.932973876953125,0.0097058033151552,0.0031786483024246,-0.044814124238491,0.0019955458119511,0.0008971090428531,0.0009470556396991
1783206463868910000,3.94291015625,0.0072451122900471,0.0110837771374732,-0.0437725062310695,0.0007925955578684,0.0007138838991522,-0.0007608295418322
1783206463878847200,3.95284716796875,0.0037847061704844,-3.75920640304e-05,-0.0344938057541847,0.0014173490926623,-0.0010574916377663,-0.0020080548711121
1783206463888784000,3.962783935546875,0.0039128260621801,0.0010608341645449,-0.0506523288726806,-0.0010468736290931,-5.50779514014e-05,0.001250056317076
1783206463898721000,3.972720947265625,0.0013577712845057,0.0104715087243355,-0.0388356343507766,0.0010673478245735,-0.0003962134942412,-0.0010537409689277
1783206463908657200,3.9826572265625,0.0076703884974122,0.0009363492683507,-0.0479682043552398,0.0016646953299641,0.0002245693467557,-0.0017434997716918
1783206463918594000,3.992593994140625,0.0077425769507884,0.0068698857694864,-0.0554506690651178,-0.001382689923048,0.0018548355437815,-0.0002010304015129
1783206463928531000,4.002531005859375,0.0067835774592123,0.0019030754086561,-0.041535540959239,-0.0015731053426861,3.72282229363e-05,0.0022381586022675
1783206463938467000,4.012467041015625,0.0096036946475505,0.0038533509599044,-0.0508095652610063,-0.0005766041576862,-0.0022227489389479,0.0008407337591052
1783206463948404000,4.022404052734375,0.0078749163598753,0.0083286332104355,-0.0446720854192972,0.0011352756991982,0.0002148426137864,-0.0003449055366218
1783206463958341000,4.032341064453125,0.0062202992869541,0.002514028647542,-0.0367418769419193,0.0008511375635862,-0.000556269660592,-0.0010022139176726
1783206463968278000,4.042278076171875,0.0061345754985697,0.0081787764109671,-0.0491635516196489,-0.001624003984034,-0.0008018133230507,0.0001059274654835
1783206463978214100,4.052214111328125,-0.0003222907569259,0.006796637870185,-0.0488642764121294,0.0001674871891736,0.00271423952654,0.0007932188455015
1783206463988151000,4.062151123046875,0.0049447629258036,-0.0022205986589193,-0.0346510421425104,-2.4527311325e-05,0.0020532431080937,-0.0020955116488039
1783206463998088200,4.072088134765625,0.010399247205723,0.0055740920715965,-0.0373427654445171,-0.0003303783014416,-0.0007585268467664,0.002013103570789
1783206464008024800,4.08202490234375,0.0088253306861966,0.009271485284809,-0.0454196889162063,0.0004472648724913,-0.0005449415184557,0.0009435783140361
1783206464017961000,4.0919609375,0.0061623220220208,0.0102476551068946,-0.0327016616404056,0.0005908971652388,9.52957198023e-05,0.0024312275927513
1783206464027898000,4.101898193359375,0.0106028982853516,0.0061113590197637,-0.0442184964329004,-0.0008101910352706,-0.0014823609963059,-0.0003464494366198
1783206464037835000,4.1118349609375,0.0010824614744633,0.0013088541088625,-0.033446927049756,0.0004724645987153,0.0021669149864465,-8.9847017079e-06
1783206464047772000,4.12177197265625,0.0038221886366605,0.0110160091308876,-0.0294131414890289,0.0003454321995377,-0.0018057222478091,-0.0004899515770375
1783206464057708000,4.1317080078125,0.0034632191311568,0.0094482848901301,-0.0437777669280767,-3.79923731088e-05,-0.0001343209296464,-0.0004812069237232
1783206464067645200,4.141645263671875,0.008595668382477,0.0095731168461963,-0.0469184030413627,-0.0001072343438863,-0.0001431093551218,-4.73777763545e-05
1783206464077582000,4.15158203125,0.010296298287902,0.0051932943267747,-0.0449660999298095,0.0001605646684765,-0.0003850986249744,0.0003951806575059
1783206464087519000,4.16151904296875,0.0130415236091241,0.0070322732569649,-0.0362865343898534,-0.0003840522840619,-0.0030810162425041,0.0003523037303239
1783206464097455000,4.171455078125,0.0120118152352049,0.0068280741880647,-0.039422494328022,0.0009496193379163,0.0001331851817667,-0.0022566076368093
1783206464107392000,4.18139208984375,0.0077537924645468,0.0178148572244681,-0.0440653516978025,-0.0016040857881307,0.0007417174056172,-0.0008757587056607
1783206464117329200,4.1913291015625,0.0030751696616411,0.0076114796507172,-0.027156302472949,0.001969433389604,0.0001964005641639,0.0004441153723746
1783206464127266000,4.20126611328125,0.0105542003054171,0.0040529834515415,-0.0328437004595994,0.0004586223512887,0.0016869721002876,0.0001000349875539
1783206464137202000,4.211201904296875,0.0127129857745021,0.0008931129148229,-0.0442138202577829,0.0006964653730392,0.0011541047133505,0.0004986559506505
1783206464147139000,4.22113916015625,0.013986585906893,0.0043280557995662,-0.035382863548398,-0.0012175478041172,-0.0011058538220822,-0.0012843303848057
1783206464157076200,4.231076171875,0.0136373706104233,0.0091699063401669,-0.0332908597052097,0.0008948538452386,0.0005454402416944,0.0028430356178432
1783206464167012900,4.241012939453125,0.0134148686998523,0.0053010290175676,-0.0389800112575292,-0.0002529686316847,-0.0004135640338063,0.0018605955410748
1783206464176949000,4.250948974609375,0.0096582013137638,0.0085204294554889,-0.0385334365338087,0.0006475998088717,-0.0033718990162014,-0.0017366321990266
1783206464186886100,4.26088623046875,0.0064534139230847,0.0172773528142832,-0.0304489142775535,-0.0016315337270498,0.0002196403220295,-6.642891094e-06
1783206464196823000,4.270822998046875,0.0008079553820192,0.0023557876122184,-0.0285036254286766,0.0010946588590741,0.0009692469611763,0.0002915284130722
1783206464206760000,4.280760009765625,0.003971369582694,0.0087573069512844,-0.0343377384096384,-0.000399375334382,-0.0003048093058168,0.0009828850161284
1783206464216696000,4.290696044921875,0.0075524612061679,0.0196732349748723,-0.0383738620579242,-0.0007381197065114,-0.0038427668623626,-0.0032186063472181
1783206464226633000,4.300633056640625,0.0208296932673081,0.0136513626031577,-0.0314864406317472,0.0002523101866245,0.0008995244279503,-0.0014350874116644
1783206464236570000,4.310570068359375,0.010554857892543,0.0049330907543189,-0.0425567007005214,0.0017124526202678,-0.0018232474103569,0.0008582107257097
1783206464246506500,4.320506591796875,0.0104784316554665,0.0076982628850266,-0.0400128614366054,0.0003068363294005,0.0015046391636133,0.0009474263060837
1783206464256443100,4.330443115234375,0.0092514471437782,0.0119198443691246,-0.0470475823789834,0.0009752148762345,0.0007182271219789,-0.0022467006929218
1783206464266379300,4.340379150390625,0.0065995991944335,0.0026432993167079,-0.0430149658620357,0.001910250633955,0.0012892088852822,-0.0009566654916852
1783206464276316400,4.35031640625,0.0088361078085377,0.0002743599619716,-0.0385270067930221,0.001672594808042,0.0005152178928256,0.0010512145236134
1783206464286253600,4.360253662109375,0.003779025348369,0.0066155456822365,-0.0301478855043649,0.0014052130281925,0.0011636978015303,-0.0001176467631012
1783206464296189200,4.370189208984375,0.0078692903366871,0.0035823885314166,-0.0445148490309715,0.0010946402326226,-0.0008702911436557,-0.0024462291039526
1783206464306126300,4.380126220703125,0.0057526087099686,0.008242525829561,-0.0397276147544383,0.0011074235662817,-0.000908640678972,0.0029637161642313
1783206464316063500,4.3900634765625,0.0059038172163069,0.0063003787858411,-0.0353834480702877,0.0009456006810069,-0.0020233415998518,-0.0003624067176133
1783206464326000400,4.40000048828125,0.0055411213837563,0.0041106136566028,-0.0436170234084129,0.0021821055561304,0.0014669969677925,-0.0007328526116907
1783206464335937300,4.409937255859375,0.0019935301710851,0.0052245114489458,-0.0403255806475877,-0.0008758632466197,0.0034131733700633,2.00676731765e-05
1783206464345873400,4.419873291015625,0.0138759286066517,0.0168588168749585,-0.0317979907989501,0.0006927391514182,0.0008605336770415,0.0002597521524876
1783206464355810300,4.429810302734375,0.0089926135445013,0.0074650751836597,-0.0386807360500097,-0.0013751089572906,-0.0014483928680419,0.0019780592992901
1783206464365747500,4.43974755859375,0.0068599123647436,0.0081193561076186,-0.0316460151076316,-0.0006850846111774,-0.0017043226398527,0.0012187920510768
1783206464375684400,4.449684326171875,0.0090100761359557,0.0137128652657382,-0.0331382994920015,0.0001480309292674,-0.0010297712869942,0.0007439681794494
1783206464385620500,4.459620361328125,0.0118327871401794,0.0101092512832023,-0.0480979682147502,0.0011483142152428,-0.0017466940917074,0.0001535452902317
1783206464395557400,4.469557373046875,0.0015188070651143,0.0046891624632291,-0.0364244815558195,0.000978666357696,0.0008236356079578,0.0011838844511657
1783206464405494500,4.47949462890625,0.0154434701843187,-3.07604644447e-05,-0.0473544563710689,0.0027635172009468,0.0028428444638848,0.0001300715375691
1783206464415431200,4.48943115234375,0.013254636636842,0.0104556535680778,-0.0404828170359134,0.0013591358438134,0.0019806642085313,-0.0014889287995174
1783206464425367300,4.4993671875,0.017180943235103,0.0112625860367901,-0.0346475350111722,-0.0003748480230569,-0.0017195316031575,2.18825880438e-05
1783206464435304400,4.509304443359375,0.0130323173893615,0.008644183699321,-0.0446697473317384,-0.0004031136631965,-0.0019295671954751,0.0006152680143713
1783206464445241300,4.519241455078125,0.0140599799366667,0.0021346556748263,-0.0502086767584085,-0.0005061775445938,0.002103257458657,-0.0015437568072229
1783206464455178200,4.52917822265625,0.0083114628799259,0.0028797566873952,-0.0389922862172126,0.0009011263027787,0.0008034738712012,0.0012881415896117
1783206464465114400,4.5391142578125,0.0081117755893617,0.0072740095909684,-0.0427361489206552,0.0004683621227741,0.0003693788312375,-0.0005268023815006
1783206464475051500,4.549051513671875,0.0003438632679171,0.0020110840940847,-0.0433335302919149,-3.41674312949e-05,0.0010192794725298,0.001158749917522
1783206464484988400,4.558988525390625,0.0070317800666205,0.0032730668539181,-0.0331616803675889,0.0009682467207312,-0.0015610572881996,-0.0024727364070713
1783206464494925300,4.56892529296875,0.0038905594314448,0.015315715618804,-0.0394482132911682,-0.0010633328929543,0.0005007926374673,0.0014199861325323
1783206464504861400,4.578861328125,0.0130531409816816,0.0218757499878294,-0.0460305142909288,0.0021178126335144,-0.0002315766178071,0.0039760884828865
1783206464514798300,4.58879833984375,0.0128165192142128,0.0110861882902681,-0.0436380661964416,0.0017229784280061,0.0004936805926263,-0.0001515611074864
1783206464524735500,4.598735595703125,0.0093136987250298,-0.003353456880059,-0.0455874466985464,0.0004981905221939,-0.0023742779158055,-0.0017979273106902
1783206464534672400,4.60867236328125,0.0138294773827306,0.0112883597988635,-0.0529179357171058,0.0002782400697469,-0.000433400273323,-0.0006551777478307
1783206464544608300,4.618608154296875,0.0057404616144485,0.0066378671118989,-0.0394458752036094,-0.0008480101823806,-0.0035679410211741,-0.0014195048715919
1783206464554545400,4.62854541015625,0.0145984341949224,-0.003850757144019,-0.0434808298081159,-0.0016385484486818,0.0006580189801752,0.0020444479305297
1783206464564482600,4.638482666015625,0.0183160299459472,0.0056739905158057,-0.0418336471229791,-0.0006177583709359,-0.0005081794224679,-0.0016219259705394
1783206464574419200,4.648419189453125,0.0110540761189535,0.0122814259568229,-0.037193712362647,0.0008858917281031,0.0028238354716449,0.0008218248840421
1783206464584355300,4.658355224609375,0.0070848436944186,0.0121472051179036,-0.0334597865313291,0.0029844623059034,0.0008080890402197,-7.08664301782e-05
1783206464594292500,4.66829248046875,0.001176295504067,0.0131458790327422,-0.0464829342335462,0.0005227923393249,-0.0003109984099864,-3.00530809909e-05
1783206464604229400,4.6782294921875,0.0060671180192381,0.0114667668393813,-0.0437947180628776,0.0004908349364995,0.00214683287777,-3.83090227842e-05
1783206464614166300,4.688166259765625,0.0102673096554353,0.0040750308865681,-0.0354214419931173,0.0010997597128152,-0.000408970285207,-0.0011515442747622
1783206464624103400,4.698103515625,0.0141929951991885,0.0113079778147861,-0.0430488681316375,3.12998890876e-05,-0.003980269189924,-7.4295559898e-05
1783206464634039300,4.708039306640625,0.0099856614361517,0.0131813887375406,-0.0439408485352992,-0.0014818711206316,0.000796549487859,0.0005240887403488
1783206464643976400,4.7179765625,0.0140415674971416,0.0052461752914823,-0.0437906264096498,0.0007543852552771,0.0016239937394857,-0.0012154881842434
1783206464653913300,4.727913330078125,0.0082336666696704,0.0059833669922314,-0.0339133755177259,0.0003196913748979,0.0002208994701504,0.0019462869968265
1783206464663850200,4.737850341796875,0.0100271624903194,0.0048255387266166,-0.0421446127682924,0.0003865370526909,0.0002320846542716,-0.0002297817263752
1783206464673786400,4.747786376953125,0.0009889197058044,0.0024694588534533,-0.0472393055588006,0.0012233173474669,0.0020188018679618,-0.0017723658820614
1783206464683723500,4.7577236328125,0.0076525605797767,0.0064411754960194,-0.0457476056963205,0.0014875028282403,7.97542743384e-05,0.0009967891965061
1783206464693660200,4.76766015625,0.0107100849868729,0.0007021203873679,-0.0369154799431562,-0.0041766092181205,0.0004407572560012,0.0012312086764723
1783206464703597300,4.777597412109375,0.0040781544254161,0.0067105487556196,-0.0384095178931951,0.0006895186379551,0.0008253175765275,0.0006173502188175
1783206464713533400,4.787533447265625,0.0157057378496974,0.0069588426945731,-0.0458954897344112,0.0020855078473687,-0.0006918730214238,-0.0014454333577305
1783206464723470300,4.79747021484375,0.0148740545322187,0.0090161405505612,-0.0514332501173019,-0.0007923040539026,-0.0020247856155037,-0.0007178578525781
1783206464733407200,4.8074072265625,0.0049357028365135,0.0101976602190174,-0.0382622183769941,-0.0006045857444405,-0.0009318045340478,-0.0010461201891303
1783206464743344400,4.817344482421875,0.007812080256734,0.0121645763778127,-0.0439437711447477,0.0032948153093457,-0.0008154241368174,-0.0004698121920228
1783206464753280500,4.827280517578125,0.0126808370705693,0.0125821259364485,-0.0364671516537666,0.0004331544041633,-0.0006874902173876,-0.001902321120724
1783206464763217400,4.837217529296875,0.0102328411302529,0.0047015835533849,-0.0418570279985666,-0.0003716526553034,0.0010041496716439,0.0037454445846378
1783206464773154300,4.847154296875,0.0058922363763675,0.0109009313838556,-0.0466471848845481,-0.0001453608274459,0.001379114575684,-0.0006166105158627
1783206464783091200,4.85709130859375,0.0139500898214057,0.0077003269779495,-0.0409603714197874,0.0008397419005632,-0.0029154988005757,0.0015091246459633
1783206464793028400,4.8670283203125,0.0062316791974939,0.0046981129546649,-0.0526250902503728,-0.0007957024499773,-0.0039434004575014,-0.0011737185996025
1783206464802964500,4.876964599609375,0.0102115243475884,0.0078894198092632,-0.0469376922637224,-0.0007837181910872,-0.0002195024862885,-4.37393318861e-05
1783206464812901400,4.8869013671875,0.0162003346999175,0.0067635210518725,-0.0422965884596109,0.0012447228655219,0.0018161884509027,0.0009109396487474
1783206464822838300,4.89683837890625,0.0085005557112395,0.0058944283334538,-0.0490332032382488,0.0014724228531122,1.82883813977e-05,-0.0003700407687574
1783206464832775400,4.906775390625,0.0109943635546602,0.008777984413132,-0.0355687415093183,0.000266920775175,-0.0003502951003611,-0.0005209324881434
1783206464842711600,4.916711669921875,0.0098972342340275,0.0072799461414106,-0.0439496163636446,-0.0002273619174957,0.000290194991976,0.0003557801246643
1783206464852648200,4.926648193359375,0.0122317050635814,0.009962919881381,-0.0418564434766769,0.0014682412147521,-7.05174170434e-05,0.0024184717331081
1783206464862585300,4.93658544921875,0.0125156731041148,0.0053457997410558,-0.0427548536211252,0.00331327971071,0.0020706644281744,-0.0005120704881846
1783206464872522200,4.946522216796875,0.0118381574350409,0.0135621864823624,-0.0382721552491188,0.002145193517208,0.0013921805657446,-0.0015035745454952
1783206464882458400,4.956458251953125,0.0023605368525721,0.008860475064814,-0.0382803385555744,0.0009803269058465,-0.0016797757707536,-0.0004305869806557
1783206464892395300,4.966395263671875,0.0057560427760705,0.0064568845218047,-0.0438221905916929,0.0010420503094792,0.0012339833192527,0.0019521173089742
1783206464902332400,4.97633251953125,0.0054589229930192,0.0075297927166335,-0.0436778136849403,0.0007983706891536,0.0011258590966463,-5.124602466821671e-07
1783206464912269300,4.986269287109375,0.0075157093923538,0.0101608536062762,-0.0335106399357318,-0.0010746903717517,0.0004948349669575,0.0007986172568053
1783206464922205400,4.996205322265625,0.0051903534510172,0.0032154366488568,-0.033211949250102,-0.0013655070215463,0.0009110867977142,0.0010548133868724
1783206464932142300,5.006142333984375,0.0090551391203887,0.0078493617935106,-0.0567097292155027,-0.0008420655503869,0.0010427176021039,0.0007493968587368
1783206464942079200,5.016079345703125,0.0055071277826093,0.0099267708557657,-0.0535614943176507,-0.0022937543690204,-0.0014470717869699,0.001054861349985
1783206464952016400,5.026016357421875,0.0102616836322471,0.0070155778504908,-0.038896424627304,0.0007487963885068,-2.81301327049e-05,-0.0004679858684539
1783206464961953300,5.035953369140625,0.0089177947426214,0.0198030171006917,-0.0381499901741743,0.0011011324822902,0.0017010602168738,0.0026788054965436
1783206464971889200,5.04588916015625,0.0119530890516005,0.01618351142928,-0.0368055898278951,-0.0037407213822007,-0.0011112461797893,-4.03888989239e-05
1783206464981826300,5.055826416015625,0.0088686949038878,-0.0018785620219074,-0.0281219326347112,0.0005102166905999,0.0002831849269568,-0.0003783439751714
1783206464991763500,5.065763427734375,0.0126978795369155,0.0124801999319344,-0.040090018326044,0.0011471165344119,0.0010567721910774,0.0002226850483566
1783206465001700400,5.075700439453125,0.0078701488532125,0.0049310997266322,-0.0465279424190521,0.001166557893157,0.0001592868939042,-0.001412762212567
1783206465011636200,5.08563623046875,0.0077693918924778,0.0010273154874332,-0.0420458285689353,0.0016115270555019,0.0020458549261093,0.0022595727350562
1783206465021573400,5.095573486328125,0.0059080367336981,0.0101450897815637,-0.0423462728202342,3.01422551274e-05,0.0009843190200626,-0.0032675517722964
1783206465031510300,5.10551025390625,0.0067100190326571,0.0144318454563617,-0.050427872467041,-0.0002031996846199,-0.0009407820180058,0.0001233366783708
1783206465041447400,5.115447509765625,0.0100153624546714,0.0075815229038707,-0.0389063614994287,0.0015347795560956,0.0002714889124035,0.0021263000089675
1783206465051384600,5.125384521484375,0.0065547919383272,0.0003340542599558,-0.037417584246397,0.0008576968684792,0.0002974960952997,-0.0015336694195866
1783206465061320200,5.1353203125,0.0046791890584863,0.0059587805402465,-0.0443055901944637,0.0011479817330837,-0.0011424752883613,-0.0017158297123387
1783206465071257300,5.14525732421875,0.0112230577440001,5.49633239395e-05,-0.0336848274588584,0.0004637707024812,0.0003278548829257,-0.0024899272248148
1783206465081194500,5.155194580078125,0.0074827387045137,0.0043919330823235,-0.0422141708731651,-0.004064667969942,0.0026381472125649,-0.0017072241753339
1783206465091131400,5.16513134765625,0.0084658131914213,0.0165762736065313,-0.0477501776903867,-0.0005810409784317,-0.0008244486525654,-0.0015238920459523
1783206465101067300,5.1750673828125,0.0046901488439179,0.0087542930102907,-0.0396650709122419,0.0007995413616299,0.0008512125350534,-0.0005715456791222
1783206465111004400,5.18500439453125,0.0110260190682485,0.0083532561950385,-0.0422089101761579,-0.0007396042346954,-0.0018912530504167,-0.0003007461782544
1783206465120941300,5.19494140625,0.0106132187499664,0.0097493136633187,-0.0344283393025398,0.000955231487751,-0.0019439836032688,0.001070515718311
1783206465130878500,5.20487841796875,0.0065575866836123,0.0037815643653273,-0.0386187767297029,0.0007743872702121,0.0012604282237589,0.0002206270582973
1783206465140814300,5.214814453125,0.0078504943046718,0.0052357269627042,-0.0335275910705328,-0.001708211377263,-0.0007555847987532,0.0008952058851718
1783206465150751200,5.224751220703125,0.0116204595637507,0.0139713883377611,-0.0395095880895853,0.0010327640920877,-0.0028800889849662,-0.0008436746429651
1783206465160688400,5.2346884765625,0.0135252520054578,0.0137004989745095,-0.041606268107891,0.0002820193767547,-0.0017399895004928,0.0005219944287091
1783206465170625500,5.24462548828125,0.0094432433888316,0.0085684515819884,-0.048040685069561,-0.0015243757516145,0.0004801251925528,6.52077142149e-05
1783206465180562200,5.254562255859375,0.0124783367684111,0.0088905231432057,-0.0404085827559232,0.0020418632775545,-0.0006988565437495,-0.0001526388805359
1783206465190498300,5.264498291015625,0.0103485216654837,0.0038834173046052,-0.0413093309879303,-0.0026682587340474,0.0008804374374449,-0.0011604493483901
1783206465200435500,5.274435546875,0.00669299483262,-0.0033400128765963,-0.0378641589701175,-0.0002447823062539,0.0011547426693141,-0.0002608336508274
1783206465210372400,5.284372314453125,0.0026955957595258,0.0020176599653437,-0.0484866752713918,-0.0008827252313494,-0.0035152789205312,-0.0001790318638086
1783206465220309200,5.294309326171875,0.0075254270687699,0.0112076044465415,-0.0389104531526565,3.0206516385e-05,6.82706013321e-05,-0.0001867548562586
1783206465230245400,5.304245361328125,0.0067348612129688,0.0056162689791992,-0.0477343955993652,0.0021097417920827,0.0014181546866893,0.0019765195902436
1783206465240182300,5.314182373046875,0.0069794836238026,0.0041765732985921,-0.0417471378833055,0.0001014517620205,-0.0003355368971824,0.0003402733709663
1783206465250119700,5.32411962890625,0.0078472611679695,0.008171469887346,-0.0345598567277193,-0.0014661019667983,-0.0016092215664684,-0.0002491052728146
1783206465260056800,5.334056884765625,0.0170258257386274,0.0016918620770797,-0.0466775800228118,0.000405834056437,0.0001708352938294,0.0013048492837697
1783206465269993700,5.34399365234375,0.0046663661095313,0.0063599086870439,-0.0354582668721675,-0.0002296417951583,0.0013001421466469,0.0013188952580094
1783206465279929600,5.3539296875,0.0039425636133179,0.0037987529621459,-0.0392027140974998,-0.0006488235667347,-0.0006871088407933,0.0020382152870297
1783206465289866800,5.36386669921875,0.0047453861624933,0.0010887085521593,-0.043689504122734,-0.0001200400292873,5.00329770147e-05,-0.0012264375109225
1783206465299803600,5.3738037109375,0.0056394671916961,0.0117807464256882,-0.0426443789839744,0.0013803848996758,-0.0021026004105806,0.0014401855878531
1783206465309740800,5.38374072265625,0.0115565457483753,0.0095066274812445,-0.047279637569189,-0.0010512638837099,-0.0007112817838788,-0.0001044585369527
1783206465319676700,5.3936767578125,0.0108837062544189,0.0108425887927412,-0.0450327354252338,-0.0006105108186602,-0.0003389716148376,-6.63753598928e-05
1783206465329613600,5.403613525390625,0.0068829461804591,0.0123271465283818,-0.0547574261039495,0.0022031441330909,-9.98661853373e-05,-0.0012789657339453
1783206465339550700,5.41355078125,0.0092396288418211,0.000283858442679,-0.0435381129533052,0.0019671879708766,0.0001802984625101,-0.0018171906704083
1783206465349487900,5.42348779296875,0.0067653659490868,0.0158995981876738,-0.0347135859847068,-0.0003986004739999,0.0001692920923233,-1.03048514574e-05
1783206465359424800,5.4334248046875,0.0081688760714605,0.0154389218733645,-0.0520738861083984,-0.0002763615921139,0.0009956709109246,0.0002312436699867
1783206465369360600,5.443360595703125,0.0100196002383716,0.0008893500551581,-0.0415963312357664,-3.83621081709e-05,0.0004584402777254,0.0010871367994695
1783206465379297800,5.4532978515625,0.0136422477149404,0.0088362904716283,-0.0433919824808835,0.0020713945850729,-0.0002574175596237,-0.0007568357978016
1783206465389234700,5.463234619140625,0.0029807511101476,0.0078110938760451,-0.0374076473742723,-0.0017729457467794,-0.0009787855669856,-0.0006113271228969
1783206465399171800,5.473171875,0.0041114904394373,0.0141729205255396,-0.0462321743428707,-0.0015838611871004,0.0002638455480337,-0.0007234460208564
1783206465409107700,5.483107666015625,0.0091472926495596,0.013746420475468,-0.0368026672184467,0.0003490317612886,-0.0026974254287779,0.0003018698189407
1783206465419044600,5.493044677734375,0.0010506415640935,0.0129884965139441,-0.0403898780554533,0.0028457455337047,-0.0006427969783544,0.0008033432532101
1783206465428981800,5.502981689453125,0.0039499249358661,0.010283493605256,-0.0288660290002822,-0.0011374102905392,-0.0002910634502768,-0.0007305825129151
1783206465438919000,5.5129189453125,0.0064457420732825,0.0110121732059866,-0.0427829106718301,-0.0029584793373942,0.0002650045789778,0.0017647997010499
1783206465448855600,5.52285546875,0.0007823825493454,0.0028063443913124,-0.0385889661133289,-0.0026802383363246,0.0020300298929214,-0.0006511083338409
1783206465458791700,5.532791748046875,0.0126962903680279,0.0073247351312078,-0.0411263756364583,-0.0001377183943986,-0.0005726772360503,0.0001779338344931
1783206465468728800,5.542728759765625,0.0153165924016386,0.0114398605661466,-0.0466629669755697,-0.0008378103375434,-0.0019028461538255,-0.000271548051387
1783206465478665700,5.552665771484375,0.0169975129595957,0.0102969010761007,-0.0369411989063024,2.71843746304e-05,0.0009744330309331,-0.0015594527358189
1783206465488602600,5.5626025390625,0.0079792717834934,0.0070247110050171,-0.0336509251892566,0.0003371573984622,0.0014134235680103,-0.000927006592974
1783206465498538800,5.572538818359375,0.009504746051412,0.0150979446822777,-0.0234743990898132,-0.0007494119927287,-0.0013666502200067,-0.0019741617143154
1783206465508476000,5.582475830078125,0.0027968276442959,0.0122903216493315,-0.0314057766109704,0.0024491548538208,-6.39702193439e-05,-0.0004173000343143
1783206465518412800,5.592412841796875,0.0080617076362483,0.0123510388606227,-0.0366436772644519,-0.000571135431528,0.0001216521486639,0.0013702134601771
1783206465528349700,5.602349609375,0.0131998194433748,0.012399316715449,-0.0472679471313953,-0.0008734753355383,-0.0004072044976055,-0.0004992666654288
1783206465538286600,5.61228662109375,0.0140155014741234,0.017509846395906,-0.0415846407979726,-0.0020537888631224,0.0012391619384288,0.0019172858446836
1783206465548222700,5.62222265625,0.0110922527048736,0.0128778574800118,-0.0366495224833488,0.0013885535299777,0.0009878873825073,0.0002682609483599
1783206465558160000,5.632159912109375,0.0097945410445332,0.0093528616916388,-0.041292964375019,-0.0014032386243343,0.000465374905616,-0.0018713227473199
1783206465568096500,5.642096435546875,0.0096327198126353,0.0120037963255308,-0.040539515659213,0.0015670768916606,-0.0010418929159641,-0.0013920310884714
1783206465578033700,5.65203369140625,0.0091901454105973,0.015474431578163,-0.0421907899975776,0.000676249153912,0.0015701353549957,0.0022764732129871
1783206465587970800,5.661970703125,0.0089507471641525,0.0067833582635037,-0.045330841588974,0.0022705141454935,0.0012089079245924,-0.0022181370295584
1783206465597907000,5.671906982421875,0.0048904389226809,0.0040445444167591,-0.0381517437398433,0.0001551648601889,-0.0039674779400229,-0.0004631138872355
1783206465607843600,5.681843505859375,0.0051591363288462,0.001104874235671,-0.0460807831734418,0.0016801469027996,-0.001523875631392,-0.001353507163003
1783206465617780700,5.69178076171875,0.0075671838512644,0.0130033287568949,-0.0477285503804683,0.0008883886039257,-0.0008924403227865,0.0021666588727384
1783206465627717600,5.701717529296875,0.008516666595824,0.0031598705367185,-0.03905307649374,0.0012553548440337,-0.0008283359929919,0.0001138928346335
1783206465637653800,5.71165380859375,0.0050032151147723,0.0012178513571619,-0.0409966117769479,-0.0017657354474067,-0.0002789259888231,0.0006603733636438
1783206465647590700,5.721590576171875,0.0095176968645304,0.0070703585113398,-0.0586491728454828,-0.0004321420565247,-0.0008708955720067,0.0022842071484774
1783206465657527800,5.73152783203125,0.010738543896377,0.0139251380432397,-0.0442822093188762,0.0017620362341403,0.0008537671528756,0.0002716563176363
1783206465667464700,5.741464599609375,0.0123569571447558,0.0161051489634439,-0.0348585474133491,0.0021480238065123,-0.0004838411696255,-0.0021165679208934
1783206465677401900,5.75140185546875,0.003514236932341,0.0068425228385254,-0.0397971728593111,-0.0017859982326626,-0.0028119767084717,0.0004872048739343
1783206465687337700,5.761337646484375,0.0126299653998576,0.0148120952119119,-0.0472720387846231,-0.0009133070707321,0.0004066792316734,-0.0005322825163602
1783206465697274600,5.771274658203125,0.0130922308830544,0.0021374686864204,-0.0432329925268888,-0.0012288922443985,4.15598042309e-05,-0.0004558498039841
1783206465707211800,5.781211669921875,0.0177793475196696,0.0048983665008097,-0.0427846642374992,0.0006027380004525,0.0005121459253132,-0.0001606144942343
1783206465717148700,5.791148681640625,0.0109109961201436,0.0100527535893023,-0.0342564898669719,0.0020192731171846,-0.0001405947841703,8.83911270648e-05
1783206465727084500,5.80108447265625,0.0106859369263052,0.0140892608300782,-0.0348614700227975,0.0002538096159696,0.0029945827554911,0.0003590921405702
1783206465737021700,5.811021728515625,0.011687113325484,0.0161997319117188,-0.0347135859847068,0.0010370453819632,0.0006970735266804,-0.0001280000433325
1783206465746958800,5.820958740234375,0.0108141664158552,0.010343078305386,-0.032322306933999,0.0004309779033064,0.0015468024648725,-0.0021868182811886
1783206465756895700,5.830895751953125,0.0111234880933538,0.0060410154636017,-0.037564883762598,-0.0018606726080179,0.0020155189558863,-0.0004349909722805
1783206465766833000,5.8408330078125,0.017124445541203,0.0153187843587249,-0.0345674555122852,0.0001398855820298,-0.0035221870057284,-0.0003574772272258
1783206465776768800,5.850768798828125,0.0093884809942916,0.0105870431290939,-0.0410018724739551,0.0020752046257257,-0.000210013706237,-0.0009228661656379
1783206465786705700,5.86070556640625,0.0151450900259427,0.0080075297635979,-0.035774493214488,0.0013977568596601,0.0016365661285817,-0.001975760795176
1783206465796642800,5.870642822265625,0.0183245785785838,0.0136259541672654,-0.0363788888484239,0.0027434518560767,0.0019529499113559,-0.0012718874495476
1783206465806579700,5.880579833984375,0.0049800169022753,0.0113754535604268,-0.0169353527098894,0.0002820389345288,0.0031827385537326,0.0031359288841485
1783206465816515600,5.890515625,0.0071032196013256,0.0158121025673113,-0.01574058996737,0.0005459580570459,0.0001938729546964,-0.0006308462470769
1783206465826452700,5.90045263671875,0.0088635438047349,0.0052409328607842,-0.0336906726777553,-0.0028066122904419,-0.0030571990646421,-0.0016708978218957
1783206465836390000,5.910389892578125,0.0152487147971987,0.0071507485374808,-0.0314426014900207,-0.0008606417104601,0.0009106444194912,0.0012942655012011
1783206465846326800,5.920326904296875,0.0176272074315696,0.0112686869840137,-0.0224625916987657,-0.000107979401946,-0.0012103863991796,0.0017703617922961
1783206465856263700,5.930263671875,0.010190244097542,0.0157748758294619,-0.0278483763903379,0.0007961643859744,0.0006255968473851,7.81891867518e-05
1783206465866199800,5.94019970703125,0.0074106050500646,0.0121829888173379,-0.0262052853584289,-0.0014385432004928,-0.0001330100931227,-0.0007926919497549
1783206465876136700,5.95013671875,0.0132124597292393,0.013361366680637,-0.0227682966470718,0.001887478865683,0.000908285845071,0.0018204017542302
1783206465886073900,5.960073974609375,0.0082396214864216,0.0146502374473959,-0.013793547552824,0.001918613910675,-8.69580544531e-05,0.0011154513340443
1783206465896010800,5.9700107421875,0.0036960597726516,0.0065007601961493,-0.0217284322053194,6.4643099904e-06,0.0011088014580309,-0.0024414665531367
1783206465905947600,5.97994775390625,0.0049837614956311,0.0083443422362208,-0.0242751940786838,-8.24080780148e-05,0.0009218859486281,-0.0026631413493305
1783206465915883800,5.9898837890625,0.0117741157555021,0.0136080166517756,-0.0244283388137817,-0.0011516669765114,-0.0009822738356888,0.0009547630324959
1783206465925821000,5.999821044921875,0.0103066187525168,0.0074864284989424,-0.0262239900588989,0.0008694669231772,-0.0012017739936709,4.75142151117e-05
1783206465935757600,6.009757568359375,0.0131433400157839,0.006983429146558,-0.022930209210515,0.0007831808179616,0.0010501951910555,-0.0011668873485177
1783206465945694700,6.01969482421875,0.011117679407075,0.0067706631787121,-0.0238245277017354,0.0013499408960342,-0.0016199182718992,-0.0015045359032228
1783206465955630800,6.029630859375,0.0131542267359793,0.0003796287010423,-0.0236731365323066,-0.0008026920258998,0.0003952956758439,-0.0002227565273642
1783206465965567700,6.039567626953125,0.0123079486375674,0.0088874178706668,-0.0100584526777267,0.0009498978033661,0.0004075900651514,0.0010389981325715
1783206465975504600,6.049504638671875,0.0118614835117012,0.0174615320084616,-0.0161947634756565,-0.0008594533428549,0.0004747016355395,-0.0010332076344639
1783206465985441800,6.05944189453125,0.0107869678816758,0.0099002664413303,-0.0144061264932155,-0.002242106013,0.0021336236968636,-6.34852331131e-05
1783206465995378700,6.069378662109375,0.0068919149382039,0.0029786504846066,-0.0144055419713258,0.0015571601688861,-0.001969242002815,0.0012238868512213
1783206466005314800,6.079314697265625,0.0104174221832305,0.004785115384683,-0.0046767596393823,-0.0002473713830113,-0.000381336081773,0.0002218594308942
1783206466015251700,6.089251708984375,0.0093158358831889,0.0044256709551438,-0.0075198741108179,0.0015984652563929,0.0008463808335363,-0.0033635543659329
1783206466025188600,6.099188720703125,0.0049535307541489,0.0128639568188227,-0.0087152213752269,0.0002678604796528,-0.0012742234393954,-0.0014715252909809
1783206466035125800,6.109125732421875,0.0137983698584139,0.0025357472890056,-0.0132037649661302,0.0009525595232844,0.0004509724676609,0.0005436886567622
1783206466045062700,6.119062744140625,0.0090408731330186,0.0216074179078452,-0.0156032273232936,0.0002283211797475,0.0009637959301471,-0.0001970452722162
1783206466054998500,6.12899853515625,0.0186992936424911,0.003966181950923,-0.0060287587702274,-0.001882767304778,-0.0014325161464512,-0.001698269159533
1783206466064935700,6.138935791015625,0.0121291214719414,0.0167905922106467,-0.0066302317947149,0.0001716651022434,0.00130504835397,0.0023795471061021
1783206466074872800,6.148872802734375,-0.001296524350252,0.0088437065931037,-0.0054313773989677,0.0008068289607763,-0.0018667764961719,0.0008279897738248
1783206466084809700,6.158809814453125,0.0075466342535801,0.0143778502468019,-0.0123223059564828,0.0011766348034143,0.00209107901901,0.0010865668300539
1783206466094745600,6.16874560546875,0.0045724042157642,0.0015319588076323,-0.005285246926546,0.0020706579089164,-0.0018858197145164,-0.0027779464144259
1783206466104682800,6.178682861328125,0.0012436068529263,0.0074182586335577,-0.004539396995306,0.0020638164132833,0.000462173949927,0.0018642353825271
1783206466114619600,6.18861962890625,0.0100952227578498,0.0189360980730503,9.58615899085e-05,-0.000457664951682,-0.0020161638967692,-0.0009573837742209
1783206466124556800,6.198556884765625,0.0127762785353697,0.0210841246861033,-0.0037964696735143,0.0015755649656057,0.0004574540071189,0.0001793219707906
1783206466134492700,6.20849267578125,0.0105090825220569,0.0014650310512632,-0.012629764470458,0.0029084766283631,0.0009077945724129,-0.0014486683066934
1783206466144429600,6.2184296875,0.0154054397288709,0.005581562991999,-0.0039542905837297,0.0030985753983259,0.0007005743682384,0.0014031364116817
1783206466154366700,6.22836669921875,0.0090431746879592,0.0142560322317294,-0.0090483988523483,-0.0007534213364124,0.0001865844242274,0.0011733055580407
1783206466164304000,6.238303955078125,-0.0035656200597062,0.0294478840088471,-0.0109971948325634,0.0015753358602523,-0.0004313234239816,-0.0025735916569828
1783206466174240800,6.24824072265625,-0.0036012758949771,0.0079164356803521,-0.0145943425416946,0.001209151931107,-0.0005176099948585,-0.0004473240114748
1783206466184176600,6.2581767578125,0.0026472996383905,0.0071494150969199,-0.0041243864536285,0.0017052041366696,0.0003728340379893,0.0009615526068955
1783206466194113800,6.26811376953125,0.0106934078467078,-0.0040622444702312,-0.0057715691387653,-0.0002540834248065,-0.0003747153095901,0.0007053564768284
1783206466204050700,6.27805078125,0.0039839368033222,-0.002634294026345,-0.0036783962517976,0.0004150718450546,-0.0003440086729824,-0.0044392584823071
1783206466213987800,6.28798779296875,0.0081329462415538,0.0074606364705599,-0.0051776948988437,7.6051801443e-05,-0.0007160520181059,0.0003994388971477
1783206466223923700,6.297923828125,0.0010407412245869,0.0043694655221886,-0.0048819268226623,0.0003821114078164,0.000463867560029,0.0028483874630182
1783206466233860600,6.307860595703125,0.0049031888063997,0.0136732639077119,-9.06008929014e-05,0.0010316567495465,0.0002153944224119,-0.000305593945086
1783206466243797800,6.3177978515625,0.0073706931647844,0.000794712307956,0.000206920748949,-0.0008107367902994,0.0007385783828794,-0.0026328179519623
1783206466253734000,6.32773388671875,0.009097864017263,0.0015392287986353,-0.000538929182291,-0.0021114246919751,-0.0002182954922318,0.000973634654656
1783206466263669800,6.337669677734375,0.0191537776780314,-0.0086184830024838,-0.0047241059124469,-0.0003593983128666,0.0020299111492931,0.0012194977607578
1783206466273606700,6.347606689453125,0.0048509288961999,-0.002153250777442,-0.0063695350319147,4.62010502815e-05,0.0008788928389549,-0.0011901303660124
1783206466283543800,6.357543701171875,0.0088358338139019,-0.0015428272615186,0.0041121114939451,-0.0006225099787116,-0.001198605634272,-0.0009819159749895
1783206466293481000,6.36748095703125,0.0064398237891495,0.012454407903552,-0.0039665655434131,-0.0016744583845138,-0.0025885091163218,0.0011022738181054
1783206466303416800,6.377416748046875,0.0048619617468677,0.0159545432453043,0.0029214404046535,-8.33813101053e-05,0.0005697575397789,0.0016208926681429
1783206466313353700,6.387353759765625,0.0090039751887321,0.0087107826621271,0.0026180735439062,0.0009347451850771,-0.0017043156549334,0.0006416484247893
1783206466323291000,6.397290771484375,0.0091048782799392,0.0037273499600589,0.0068038347959518,0.0017367964610457,-0.0002060127444565,-0.0014420732622966
1783206466333227800,6.407227783203125,0.0164390936255455,0.004412226951681,0.005458849927783,0.0002438286319375,0.0008102492429316,0.0016764882020652
1783206466343163600,6.41716357421875,0.0134800246242433,0.0110930929550901,-0.0063642743349075,-0.0010853372514247,0.0008234204724431,0.0004403525963425
1783206466353100800,6.427100830078125,0.0086621212148107,0.0139926320551894,-0.001868716481328,-0.0009242156520485,-0.0009606308303773,0.001408944139257
1783206466363038000,6.437037841796875,0.0058101110508665,0.0080986238468438,-0.0012689970225095,-0.0021384181454777,0.0015084887854754,-0.0016120610525831
1783206466372974800,6.446974853515625,0.0110301107214763,0.0071291029612533,0.0036707974672317,0.0016166381537914,1.23251229524e-05,0.0022852087859064
1783206466382910700,6.45691064453125,0.0111604225702583,-0.0049559419069439,0.0020230302602052,0.0004048999398946,0.0019837180152535,0.0024265327956527
1783206466392848000,6.466847900390625,0.0089279142778366,0.0122480351438745,0.0021685762107372,-5.07673248648e-05,0.0014345743693411,0.0006640527863055
1783206466402784800,6.47678466796875,0.009383439492993,0.0083368713158182,-0.0011269582033157,-0.0001677116379141,0.0007074857130646,-0.0014257654547691
1783206466412722000,6.486721923828125,0.014802779394295,0.0062815096885897,-0.0048678982973098,-0.0012622708454728,-0.0002943957224488,0.0017649678047746
1783206466422657800,6.49665771484375,0.0144942797007039,0.0196652708641253,0.0076993223309516,0.0028101531788706,-0.0014914693310856,0.0012194945011287
1783206466432594700,6.5065947265625,0.0056344439567066,0.0188550687260925,-0.0009784896433353,-0.0006322488188743,0.0001050955615937,0.0012099074665457
1783206466442531800,6.51653173828125,0.0123354759653098,0.0251389530348591,-0.0027706337571144,-0.0022021401673555,0.0002876725047826,0.0029110461473464
1783206466452469000,6.526468994140625,0.0212728704575449,0.0112491055007092,-0.001575871014595,-0.0025334376841783,-0.0003512199036777,0.0003464221954345
1783206466462404600,6.536404541015625,0.0133178745987825,0.0120536268166266,-0.0015735329270362,-0.0008092494681477,0.0003911051899194,0.0014565733727067
1783206466472341800,6.546341796875,0.005194426837936,0.0152789820712991,0.0026169045001268,5.09517267346e-05,0.0004435693845152,-0.0006806135643273
1783206466482279000,6.55627880859375,0.0134122200850397,0.0127355811988003,-0.0003723404437303,-0.0018897177651524,0.0008615576662123,0.0018137800507247
1783206466492215800,6.5662158203125,0.0049639060176908,0.0147865771781653,0.0030687399208545,-0.000319518148899,-0.0009177005849778,0.0004928519483655
1783206466502151700,6.576151611328125,0.0084497936383821,0.0116297571150586,0.0069610711842775,-0.0024544410407543,-0.0005290624685585,0.0013075852766633
1783206466512088800,6.5860888671875,0.0119733281220309,0.0120067006686702,0.0027758944541215,0.0006659841164946,-0.0040769260376691,-0.0016024510841816
1783206466522025700,6.596025634765625,0.0150934694365598,0.0060391157674603,0.0047200142592191,0.0028003854677081,0.0009288727305829,-0.0014998238766565
1783206466531963000,6.605962890625,0.0034825083535164,0.0090190083610825,0.0098012630462646,-0.0002049915492534,0.0001389794051647,0.0002517371904104
1783206466541898800,6.615898681640625,0.0009563326104544,0.0154821216942742,-0.0095025723606348,0.0027117813006043,0.0007331636734306,0.0014575659297406
1783206466551835600,6.625835693359375,-0.0004562376012094,0.0260624245553277,6.95581048727e-05,3.34400683641e-05,0.0013217222876846,-0.0033302649389952
1783206466561772800,6.635772705078125,0.0012734357356093,0.0132146151537075,0.0088952541172504,0.0001321276649832,0.0006887251511216,0.0014543666038662
1783206466571710000,6.6457099609375,0.0076269329481758,0.0105346005558036,-0.000833528214693,-0.0003725411370396,0.0024344273842871,0.0006492929533123
1783206466581645800,6.655645751953125,0.0146889437562786,0.0090532759568653,0.0075420859426259,0.0006845369935035,0.0009284908883273,0.0002049324102699
1783206466591582700,6.665582763671875,0.0130070002850145,0.0105645755689591,0.0100841716408729,0.0003215484321117,0.0005170325748622,-0.0020944408606737
1783206466601519900,6.675519775390625,0.0100238014894537,0.0155177044643089,0.0035001170754432,0.000926493667066,0.0007330519147217,0.0013825492933392
1783206466611455700,6.685455810546875,0.0078366484424099,0.0140144237618893,0.003493102812767,0.0026799188926815,0.001950382720679,0.0015641767531633
1783206466621392600,6.695392578125,0.0091286610143259,0.0213258792864158,-0.0018944354444742,-0.0001037353649735,0.000486709177494,-0.0007597347721457
1783206466631329800,6.705329833984375,0.0105086623969487,0.0131134198015555,0.015309797334671,0.0008225115016102,0.0020992532372474,-0.0003453467506915
1783206466641267000,6.715266845703125,0.0074179846389219,0.0012765775407664,0.0124596686005592,0.001342125236988,0.0031138525810092,0.0016356911510229
1783206466651202600,6.72520263671875,0.0113293128637596,0.0008703896263614,0.0018260463833808,-0.0002424549311399,-0.0009844857268035,0.000183735974133
1783206466661139700,6.7351396484375,0.0083582428974099,0.0058949945890344,0.0097550858169794,0.0014933738857507,0.002555115846917,-0.0010143655817955
1783206466671076900,6.745076904296875,0.0030485191167332,0.0068815762072801,-0.0017675941944122,0.0022984482347965,-0.0016904957592487,-0.0017616485711187
1783206466681013800,6.755013671875,-0.001839271191135,0.0163704853687435,0.0128968909740447,0.000246662646532,-0.0023222374729812,0.0004412995185703
1783206466690949600,6.76494970703125,0.0021223989814519,0.0091004943657666,0.0021229835033416,0.0014621289446949,0.0005526449531316,0.0010993664618581
1783206466700886800,6.77488671875,0.0148025419322773,0.0039698717453517,0.0019692542463541,0.0030516693368554,0.0011194758117198,-0.0008913178462535
1783206466710823700,6.78482373046875,0.006481233511772,0.0146123713887296,0.0193242936730384,-0.0008288221433758,-4.05968166887e-05,-0.0001171368639916
1783206466720760800,6.7947607421875,0.004530391704943,0.0078827526064589,0.0136333885550498,0.0001209145411849,0.0031587344128638,-0.0003198678605258
1783206466730696700,6.80469677734375,0.0088300068613141,0.0107050069529563,0.0015074819535017,0.0011683357879519,0.0001882445067167,-0.0007190757896751
1783206466740633600,6.814633544921875,0.0115859545059502,0.00560198472552,0.0070464113801717,0.0009047072380781,0.000422635115683,-0.0006686900742352
1783206466750570800,6.82457080078125,0.0093535740776918,0.0035099443497136,0.0086883333683013,-0.0009845392778515,0.0010016062296926,0.0001931090373545
1783206466760507000,6.8345068359375,0.009609393735975,0.005110566213075,0.0113818102359771,-0.0009528649970889,-6.94766640663147e-07,0.000738161150366
1783206466770443800,6.84444384765625,0.005827628441248,0.0082675141403451,0.0052449149161577,0.0007321173325181,-0.001734412740916,-7.03744590282e-05
1783206466780380700,6.854380615234375,0.003548906386923,0.0150487169793806,0.0068932666450738,0.000650661997497,-0.0025609252043068,0.0015760713722556
1783206466790317800,6.86431787109375,0.0031986316445283,0.0080538896559737,0.0143769003987312,-0.0007086154073476,0.0007200893014669,-0.0015009450726211
1783206466800254000,6.87425390625,0.0109138091317377,0.0006246529706753,0.0121329208642244,0.0005244985222816,-0.0017914082854986,7.45060387998e-05
1783206466810190600,6.884190673828125,0.015087660750281,0.0018318916022777,0.0103407767504453,-0.0030393442139029,0.0001724069006741,-0.0029164899606257
1783206466820127700,6.894127685546875,0.0092992683408781,0.005240183942113,0.0121387660831212,0.000699752010405,-0.0009651356376707,-0.0021972234826534
1783206466830063900,6.90406396484375,0.0057793505864217,0.0100552560736425,0.0143804075300693,0.0008142683655023,0.0022447726223617,0.001674479804933
1783206466840000800,6.914000732421875,0.0161854841906577,0.0026696758669801,0.0076461308389902,0.0007064323872327,-0.0050436980091035,0.001104446593672
1783206466849937700,6.923937744140625,0.0131497697565704,-0.0002753463426604,0.0030091186881065,-0.0003665555268526,0.0001507974229753,0.0002165487967431
1783206466859874800,6.933874755859375,0.0109841526878997,-0.0023506730456836,0.0075000003665685,0.0009268326684832,-0.0007252232171595,-0.0009796121157705
1783206466869811000,6.94381103515625,0.0071064344717189,-0.0048489378685131,0.0034592005431652,-0.000830321572721,-0.0015856907702982,-0.0012158345198258
1783206466879747800,6.953747802734375,0.0170071027718484,-0.0004449672885239,0.0068996963858604,-0.000403075478971,-0.0009360220283269,0.0026664012111723
1783206466889684700,6.963684814453125,0.0134949664650484,0.0011542480690404,0.0107896895617246,0.0006938809528946,0.0009894431568682,0.0014727725647389
1783206466899620900,6.973620849609375,0.0137202631209045,0.0010547514836303,0.0137830261588096,-0.0013206843286752,0.0022910288535058,0.0020309595856815
1783206466909557800,6.983557861328125,0.0170995668282732,0.0092145126668736,0.0012093757897615,-0.0005989680066704,0.0007879408076405,-0.0004553673788905
1783206466919495000,6.993494873046875,0.018514219399169,0.0060877589484676,0.019615970095992,0.000284724868834,-0.000968855805695,-0.0015240332577377
1783206466929431600,7.003431640625,0.0196273500065319,0.004931373721268,0.0115408001899719,-0.0017464682459831,-0.0026525063440203,-0.0025229849852621
1783206466939367700,7.01336767578125,0.0200959173663519,0.0118658491595648,0.0136439099490642,0.0009457804262638,-0.0012216735631227,-0.0015763193368911
1783206466949304800,7.023304931640625,0.0120140802575275,0.0098776162181049,0.0109516021251678,-0.0048399362713098,-0.0003785165026783,0.0033356149215251
1783206466959242000,7.033241943359375,-0.0033969306956045,-0.0077544500516727,-0.0007166238367557,-0.0001241089776158,-4.63030301034e-05,0.0005593579262495
1783206466969177600,7.043177490234375,-0.0046618177985772,0.0024413104712031,0.0114057756334543,0.0011544749140739,-0.0020234333351254,0.0010629617609083
1783206466979114800,7.05311474609375,-0.0056720542870461,0.0119894755392335,0.0109504330813884,0.0029431851580739,0.0003307103179395,0.0013748675119131
1783206466989052000,7.063052001953125,0.0069910096648149,0.017118563789688,0.0220206931501626,-2.65063717961e-05,1.05979852378e-05,0.000382041092962
1783206466998988800,7.07298876953125,0.0194401751376688,0.0161094415460713,0.0096048636913299,0.0004021851345896,-0.0025496953167021,0.0012118031736463
1783206467008924700,7.082924560546875,0.0264813440871424,0.0228301829021424,0.0085626611620187,0.0005089780315756,-0.0036277431063354,-0.0001852912828326
1783206467018861800,7.09286181640625,0.010397146580182,0.0060053778946399,0.0143979431867599,-0.0004418492317199,-0.0009725508280098,-0.0022352407686412
1783206467028798700,7.102798828125,0.0094008290192112,0.0014066153949126,0.0054243631362915,-0.0030203210189938,-0.0010788110084831,3.00440005958e-05
1783206467038734600,7.112734619140625,0.0059054063851945,-0.0039730683494359,0.0082657240420579,-0.000162717886269,-0.0003853058442473,0.0013410123065114
1783206467048671700,7.122671630859375,0.0092626261249184,-0.0080737634002231,0.0117108960598707,-0.0022205431014299,-0.00057412404567,0.0017814990133047
1783206467058609000,7.13260888671875,0.0036697928202338,6.25438421964e-05,0.0124649292975664,-0.0001983232796192,-0.0012314487248659,0.0007177384104579
1783206467068544800,7.142544677734375,0.0062576356226578,0.0031533859970048,0.0138099141657352,0.0014424500986933,0.0002905479632318,0.0021734223701059
1783206467078481700,7.152481689453125,0.0082558602351695,0.0058336015243083,0.0153039521157741,-0.0006041908636689,-0.0001771566458046,-0.0002585432957857
1783206467088418800,7.162418701171875,0.0090730583695694,0.0046969439108856,0.0031833062112331,0.0004962272942066,-0.0008906172588467,-0.0005043530836701
1783206467098355000,7.17235498046875,0.0158803089653141,0.0185651276024989,0.0112631522923707,0.0007794387638568,-0.0019108289852738,-0.0004627639427781
1783206467108291800,7.182291748046875,0.0105493414672091,0.0174733503104187,0.0174012166559696,-0.0008317744359374,0.001022377051413,0.0002823886461555
1783206467118228700,7.192228759765625,0.0065879087566398,0.0063075574452988,0.0096253219574689,-0.0004748664796352,-0.0022106589749455,-0.0001105018891394
1783206467128165600,7.20216552734375,0.007351824067533,0.0118529896779917,0.0052899231016635,-0.000340643338859,-0.0009440593421459,-0.0008916070219129
1783206467138101800,7.212101806640625,0.0054811896237544,0.0103190581089816,0.016063246050477,-0.001081352122128,0.0020489650778472,0.0008760774508118
1783206467148039000,7.222038818359375,0.010635942038428,0.0056166708379983,0.0181570034593343,0.0007471749559044,-0.0004522753879427,0.0014819465577602
1783206467157975600,7.2319755859375,0.0199975532921031,0.009971559845563,0.0154611885040998,-0.0001317895948886,0.0008645602501928,-0.0034089391119778
1783206467167911700,7.24191162109375,0.0154405475748702,0.0124410004327073,0.0051321021914482,0.0012751584872603,0.0007167547009885,0.0009583786595612
1783206467177848800,7.251848876953125,0.0171848887578584,0.0059404228996485,0.008873626807332,0.0001023625954985,0.0001934804022312,0.0021445457823574
1783206467187786000,7.261785888671875,0.0169417641843669,0.0121896742864511,0.0069306760460138,-0.0009855385869741,-0.0015050838701426,0.0004651562776416
1783206467197721600,7.2717216796875,0.0135149498071521,0.0114491033185273,0.0093254622280597,0.0005815783515572,0.0009872689843177,-0.0021386283915489
1783206467207658800,7.28165869140625,0.0134870388869196,0.0158979724861681,0.0076841247618198,0.0006175311282277,0.0013257567770779,-0.0027636722661554
1783206467217596000,7.291595947265625,0.0226910484260879,0.0185244850648567,0.0130710784971714,-1.79866328835e-05,-0.0017463401891291,0.0015651793219149
1783206467227531800,7.30153173828125,0.0126189142828807,0.0152923164769075,0.0048375031590461,0.0012613963335752,0.0012268130667507,0.0011278884485363
1783206467237468700,7.31146875,0.018635836484842,0.0150608275422826,0.0063286184996366,0.0007903957739472,0.001593776512891,-0.0016769160283729
1783206467247405800,7.32140576171875,0.0086964070769026,0.0167163031317293,0.0111146837323904,0.0009933281689882,0.0009831134229898,-0.000331753399223
1783206467257342200,7.33134228515625,0.0085542221272364,0.0060193698873743,0.020240823996067,-0.0009859958663582,-0.0020103780552744,-0.0013015494914725
1783206467267279000,7.341279052734375,0.0125014984482899,0.0068048577092587,0.0163595986485481,-0.0012648291885852,-0.0014860015362501,-0.0013273821678012
1783206467277216300,7.35121630859375,0.0092823902713134,0.0114260695028118,0.0142670102834701,0.0011771330609917,-0.0011164522729814,-0.0010713816154748
1783206467287152000,7.361152099609375,0.0005684658040292,0.0052570620116777,0.0233954886347055,0.0018583694472908,-0.0030211447738111,0.0019880579784512
1783206467297089000,7.371089111328125,-0.001794555266574,0.0132732500057667,0.0139665660321712,9.50722023844e-05,0.0001155016943812,0.0003383031580597
1783206467307026200,7.381026123046875,0.0037641748391091,0.0116069607613608,0.0087350951194763,-0.0015552891418337,-0.0017670867964625,-0.0005658399313688
1783206467316962300,7.39096240234375,0.0042920894370414,0.0112798476988449,0.0036462475478649,0.0018766298890113,-0.0003509866073727,0.0007293743547052
1783206467326899000,7.40089892578125,0.0033059096775949,0.0052270504659041,0.00693769030869,0.0007423898205161,-0.001715057529509,0.000234825303778
1783206467336836000,7.410836181640625,0.0057048605781048,0.0120621571829542,0.0072340429067611,0.0007608979940414,-3.84328886866e-05,0.0026257399003952
1783206467346773200,7.420773193359375,0.0079762943751178,-0.0017025844004936,0.0124766197353601,-0.0014031864702701,-0.0014549680054187,0.0004696450196206
1783206467356709000,7.430709228515625,0.0004662292722612,0.0005714249460957,0.0177121823012828,0.0023845313116908,-0.0012084059417247,-0.0033502886071801
1783206467366646000,7.44064599609375,0.007078742747195,-0.0014940562163479,0.0222013104140758,0.0006329705938696,0.0008723218925297,0.0006218161433935
1783206467376583200,7.450583251953125,-0.0010013225296512,-0.0040923838801681,0.0175683899164199,0.0004973104223608,0.0005350960418581,0.0001152507029473
1783206467386519300,7.460519287109375,0.0062022339073009,-0.0074772770781069,0.0138262807786464,-0.0009224200621247,0.0008392287418246,-0.0028584348037838
1783206467396456200,7.470456298828125,0.0048283700045198,0.0045316155476495,0.0115840548098087,-0.002185620367527,0.0028282264247536,-0.0008068254683166
1783206467406393000,7.48039306640625,0.0098469288188964,0.0060356999676674,0.0091921912372112,-0.0006143553182482,0.0027693705633282,0.0004137011710554
1783206467416329200,7.4903291015625,0.0127193789826706,0.009383439492993,0.0078442837595939,-0.0008687507361173,-0.0002019731327891,0.0009624508675187
1783206467426266000,7.50026611328125,0.0186676015962846,0.0083820804307237,0.0142810388088226,0.0009339433163404,-0.0016398136503994,-0.0013931152643635
1783206467436203300,7.510203369140625,0.0204217152546159,0.0179055859815329,0.0120411509275436,-0.000814976170659,0.0021303780376911,0.0001734055113047
1783206467446139100,7.52013916015625,0.0075708371130749,-0.0045964061458595,0.0042617490977048,0.0003464287146925,-0.0008627488277852,0.0021412151399999
1783206467456076000,7.530075927734375,0.0094753007612191,0.0033523243688978,0.0130886141538619,-0.0008530551567673,-0.0017467276193201,-0.0005468085873872
1783206467466013200,7.54001318359375,0.0039209363033995,-9.87111341208e-05,0.0038198505491018,-0.0013926122337579,-3.03201377391e-05,-0.0007388226222246
1783206467475949000,7.549948974609375,0.0065682176754809,0.003929083077237,0.0141436761647462,0.0009861374273896,-0.0004680692218244,-0.002063067164272
1783206467485886200,7.55988623046875,0.0168743980365805,0.0058559046876616,0.0084533555686473,0.0008335383608937,-0.0008630156517028,0.0020712239202111
1783206467495823000,7.569822998046875,0.0137731988845393,0.0078560472626239,0.0084527710467576,-0.0009921547025442,0.0006237677298486,0.0015307168941944
1783206467505759200,7.57975927734375,0.0192688554250635,0.001171783725731,0.0151882167816162,-0.001094153150916,-0.0009640087373554,-0.0011755872983485
1783206467515696000,7.589696044921875,0.0182587468007579,0.0015936989322304,0.0124964934796094,0.0005057165399193,0.0017383741214871,0.0012554803397506
1783206467525633000,7.599633056640625,0.0008547719321213,-0.0006622633010149,0.0059112698704004,0.0007888106629252,0.000859797000885,-0.0004010056145489
1783206467535569200,7.609569091796875,0.0020279986962676,0.018530841740407,0.0127969377309083,-0.0012283287942409,0.0001159533858299,9.77364834398e-05
1783206467545506300,7.61950634765625,0.0082628379652276,-0.012313337198738,0.0056178398817777,0.0012729121372103,-0.0003690086305141,-0.000101467827335
1783206467555443000,7.62944287109375,0.0047956733113154,0.0111597649831324,0.0104062432020902,0.0029276339337229,2.53547914326e-05,-0.0004552339669317
1783206467565379000,7.639379150390625,0.0121116040815599,0.0008378390636295,0.0114443540781736,0.0017787460237741,0.0011321646161377,0.0019157782662659
1783206467575316200,7.649316162109375,0.0180334866775199,0.014379275018908,0.0094949735760688,0.0016565956175327,-0.0003345934674143,-0.0015034730313345
1783206467585253000,7.659253173828125,0.01838250104459,0.0174656236616894,0.0094897128790616,-0.0005383817479014,0.0004736762493848,-0.0001079766079783
1783206467595189000,7.66918896484375,0.0197141697734594,0.0038544469384476,0.0036573534637689,-0.0012306654825806,-0.0002601947635412,0.0020194209646433
1783206467605126100,7.679126220703125,0.0212013578576035,0.0180722112527117,0.011143325304985,0.0002481881529092,0.0010892292484641,0.0006817153189331
1783206467615062300,7.689062255859375,0.0053800673368386,0.0121692160203121,0.01473345875144,0.0004554698243737,-0.0012966291978955,-0.0006084656342864
1783206467624999200,7.698999267578125,0.0074128518060781,0.0091739249281585,0.0077028294622898,-0.0020343195647001,-0.002634601201862,0.0012751882895827
1783206467634936000,7.70893603515625,0.003647672319971,0.0121405561814084,0.0069634092718362,0.0010126931592822,-0.0010932791046798,0.0016564989928156
1783206467644872200,7.7188720703125,0.0083913231831043,0.0120491515709087,0.0072644380450248,-0.0005710888653993,-0.0007350840605795,-0.0001706955954432
1783206467654809300,7.728809326171875,0.0144477554115466,0.0091359310053288,0.0101116441696882,0.0004544192925095,-0.0001382268965244,-0.0003915366251021
1783206467664746000,7.73874609375,0.0118858507679775,0.0152188311155885,0.0159480952382087,-0.0004310812801122,0.0021227970719337,0.0013744053430855
1783206467674682000,7.74868212890625,0.0162207929660566,0.0127558020029217,0.018793547797203,-0.0008210064843297,-0.0011997702531516,0.0015080766752362
1783206467684619300,7.758619384765625,0.016907843648456,0.0075989672290161,0.0159545249789953,-3.69725748896e-05,-0.0026669059880077,0.0010572033934295
1783206467694556200,7.76855615234375,0.0043029396246187,0.0047227724718861,0.0018932664006948,-0.0005980189889669,0.0012625786475837,-0.0036814962513744
1783206467704492000,7.778491943359375,0.0063725124402903,0.0033313729124143,0.0107224695444107,0.0004523321986198,0.0008639036677777,-0.0013986346311867
1783206467714429200,7.78842919921875,0.0039722280992195,0.0080506747855804,0.0110147304892539,0.0005866447463631,-0.0002295984886586,-0.0003035271074622
1783206467724366000,7.798365966796875,0.0004212210867553,0.0104603480095043,0.0138584294825792,-0.0019643977284431,-0.0016386774368584,0.0020797355100512
1783206467734302000,7.808302001953125,0.0106359785710461,0.0127362387859262,0.0183569099456071,0.0005465075373649,-0.0015858435072004,-0.0023697291035205
1783206467744239000,7.818239013671875,0.0186999146969988,0.0117375831373967,0.0084831661850214,5.11594116687e-05,8.8573433458e-06,-0.000397125724703
1783206467754176300,7.82817626953125,0.0134292442850768,0.0175319303635507,0.0065337856829166,0.0007642796263098,-0.0004308405332267,0.0004280286375433
1783206467764112100,7.838112060546875,0.0184820706952363,0.0135327046595513,0.0059328971803188,0.0005613462999463,0.0030970489606261,-0.0014340535271912
1783206467774049000,7.848049072265625,0.0230147639551199,0.0133800165821798,0.0087730890423059,-0.0003077872097492,0.0027596424333751,-0.0015095609705895
1783206467783986200,7.857986083984375,0.0018654650783166,0.0172178046467714,0.0110129769235849,0.0004866337403655,-0.0005333563312888,-0.0005295176524668
1783206467793922300,7.86792236328125,0.0015043036157265,0.0195403110438957,0.0065244333326816,-0.0014147404581308,0.0017872639000415,-0.0016149699222296
1783206467803859200,7.877859130859375,0.0032157106434926,0.0292488908380269,0.0096644849240779,0.0030508479103446,-0.0005480623804032,-0.0014253527624532
