time,seconds_elapsed,ax,ay,az,gx,gy,gz
1783206447264815900,0.09681591796875,-0.0006889321122318,0.0246260350766591,-0.0788204387366771,0.0083134332671761,-0.0173288732767105,-0.000211265636608
1783206447274752800,0.106752685546875,0.0109561321698129,0.0266762638710439,-0.1082984621554613,-0.010165175423026,0.0096694566309452,0.0005048583261668
1783206447284689700,0.116689697265625,-0.0223286265881732,0.0303237352616153,0.0218967745095491,-0.0103068388998508,0.0059141716919839,0.0019527776166796
1783206447294625800,0.126625732421875,-0.0032696510541252,0.0282693965476937,0.0215980838239192,0.0029557021334767,-0.0004558432847261,0.000957288313657
1783206447304562700,0.136562744140625,0.0012543109100311,0.0397390129312872,-0.1100806693971157,0.0057385074906051,-0.0124104488641023,0.0016857553273439
1783206447314499800,0.146499755859375,0.0024857524011284,0.0222619728264398,-0.0852408271729946,-0.0012781228870153,0.0061967917717993,7.42764677852e-05
1783206447324435700,0.156435791015625,0.0030375593313015,0.0290300604555755,0.0141167881578207,-0.0079781711101531,0.0034874994307756,0.0014331950806081
1783206447334372900,0.166372802734375,-0.0077912018654868,0.0370977959738113,-0.013862521135807,0.0023783296346664,-0.0016095242463052,0.0014172159135341
1783206447344309800,0.176309814453125,-0.0057928493888117,0.0345656106150709,-0.0840460644304752,0.0039786305278539,-0.0045745181851089,-0.0006976078730076
1783206447354245600,0.18624560546875,-0.0039498153380118,0.0295421929624862,-0.0651829585283994,-0.0027112308889627,0.0006058625876903,-0.0019311840878799
1783206447364182800,0.196182861328125,0.0014795527669601,0.0115971700197085,-0.0367459685951471,-0.006397046148777,0.0049180532805621,0.0008254540152847
1783206447374119700,0.20611962890625,-0.0001729271478019,0.0155022329005412,-0.0288157601177692,0.0005111945793032,-0.000810139812529,0.0005908294115215
1783206447384055800,0.216055908203125,0.0026475371004082,0.0168740875093266,-0.057099020794034,0.0060486034490168,-0.0045954310335218,0.0001134427729994
1783206447393992700,0.22599267578125,-0.0003469137415289,0.0283916529541835,-0.069219666698575,-0.0018215700984001,0.0005271593108773,-0.0002354311291128
1783206447403929600,0.2359296875,0.0003369951357133,0.0230656904247589,-0.0463239442795515,-0.0023738052695989,0.0035520489327609,0.0026605173479765
1783206447413865700,0.24586572265625,-0.0035988647421821,0.0121219976114109,-0.0279150118857622,0.0015285247936844,-0.0011652084067463,-0.0016652554040774
1783206447423803000,0.255802978515625,0.0049643444091081,0.0031759083560667,-0.0509592028647661,0.0034127151593565,-0.0029729926027357,-0.0007589380256831
1783206447433739800,0.26573974609375,0.0027695560448803,0.0021630415190942,-0.0581412233233451,-0.0018973620608448,0.0009170868434011,-0.0007783791515976
1783206447443675600,0.275675537109375,-0.0101809465462341,0.0214653973549604,-0.0446674092441797,-0.0029586711898446,0.0008337167091667,-0.00027517369017
1783206447453612800,0.28561279296875,-0.0102324575377628,0.0234636767663992,-0.0329939225852489,-0.0014614416286349,-0.0002704299986362,0.0027144907508045
1783206447463550000,0.295550048828125,-0.0003247019097208,0.0200484066965058,-0.0599286912620067,0.000532517209649,-0.0004324638284742,0.0010123662650585
1783206447473486600,0.305486572265625,0.0141139568799175,0.0175523338307626,-0.0518517677903175,0.000661414116621,0.0004058992490172,0.0002272664569318
1783206447483422700,0.315422607421875,0.0084958247371949,0.0235161741386167,-0.0377875866025686,-0.0038676774129271,0.0022187666036188,0.0002791346050798
1783206447493359900,0.32535986328125,0.0057739437589421,0.016160970803909,-0.0371896207094192,0.0001286631450057,0.0024081172887235,0.001198458019644
1783206447503296800,0.335296875,-0.0097717446908354,0.0071902220313437,-0.0599386281341314,0.0008337963372468,0.0010462175123393,-0.0025122084189206
1783206447513232600,0.345232666015625,-0.0021204810190014,0.0248156758972443,-0.0636778146624565,-0.0016189748421311,-0.0019008363597095,0.0024529893416911
1783206447523169800,0.355169677734375,0.002588920514658,0.0153144004445523,-0.0379313789874315,-0.0006118807941675,0.0010681441053748,0.0053152488544583
1783206447533106700,0.365106689453125,0.0011025178818032,0.0157328085197135,-0.0337356808632612,-0.0013740779832005,0.0002383030951023,0.0006461946759372
1783206447543042600,0.37504248046875,0.0039236945160664,0.0232771777509711,-0.0458539886802434,-0.0006431210786104,0.0008677449077367,-0.0009190214332193
1783206447552979700,0.384979736328125,-0.0038571868848055,0.0296633168578147,-0.0584223783522844,0.0011803451925516,0.0019591082818806,-0.0003938460722565
1783206447562916900,0.394916748046875,0.0037988442936912,0.0281761105073615,-0.056326867377758,-0.0031642029061913,0.0023232100065797,0.0029550141189247
1783206447572852700,0.404852783203125,0.0148982391254045,0.0353223290001973,-0.0439005165249109,-0.0010342076420783,-0.0020196069963276,-0.0004631532356142
1783206447582789600,0.41478955078125,0.0106821923329494,0.0253717206111177,-0.0506324551284313,0.0019699726253747,0.0003992947749793,0.0015289559960365
1783206447592726800,0.424726806640625,0.0031488924849778,0.02810209542308,-0.0474929880589246,-0.0001949109137058,2.48542055487e-05,0.0013926024548709
1783206447602663000,0.434662841796875,0.0050264315935783,0.0252748726405203,-0.0458405446767807,-0.0016291197389364,-0.0015732105821371,0.0039686430245637
1783206447612599800,0.444599853515625,0.0055268371300771,0.0073281509310007,-0.0630383477151393,-0.0005569318309426,-0.0005819820798933,0.0003507388755679
1783206447622536700,0.45453662109375,0.0104548863830976,0.0116442240318283,-0.0458294387608766,-0.000442074611783,0.0006972285918891,-0.0013751365477219
1783206447632472800,0.464472900390625,-0.0004273220339789,0.0154885697013698,-0.0416372477680444,-0.002975539304316,0.0015523699112236,0.0020126705057919
1783206447642409700,0.47440966796875,0.006278495747596,0.0165204517660662,-0.0473193850576877,-0.0021430924534797,3.40789556503e-05,0.0023445631377398
1783206447652347000,0.484346923828125,-0.0028472791898995,0.0203546413677744,-0.046115854486823,-0.0024498887360095,0.0009057316929101,0.0007988645229488
1783206447662283800,0.49428369140625,0.007490118293371,0.0211909460614435,-0.0452156907767057,-7.22976401448e-05,0.0020947367884218,-0.0008814434986561
1783206447672219600,0.5042197265625,0.0069287398172542,0.0224245977759361,-0.0410211616963148,-0.000903470441699,-0.0004520439542829,0.0014392349403351
1783206447682156800,0.51415673828125,0.0126733661501668,0.0260717769055627,-0.0416103597611188,-0.0022769961506128,-0.0022081495262682,0.0020658003631979
1783206447692094000,0.524093994140625,0.0087711893461644,0.0232238949274644,-0.0483399602770805,-0.0010309033095836,0.0023341381456702,0.0018199908081442
1783206447702029800,0.53402978515625,0.0039000031132251,0.0254576818615198,-0.0555202271699905,-0.0022494960576295,8.99527221918e-05,-0.0003190762363374
1783206447711966700,0.543966796875,-0.0021989165500737,0.0238494246809743,-0.0550713143587112,-0.000641212798655,0.0005088681355118,-0.0001435740850865
1783206447721903900,0.55390380859375,0.0109796774421818,0.0145802409511059,-0.0525227989196777,-0.000361118465662,-0.0002440679818391,0.0013400479219853
1783206447731839700,0.56383984375,0.0168584332824684,0.0071865505032241,-0.047581835386157,-0.0021491646766662,-0.0017575421370565,0.000522990245372
1783206447741776600,0.573776611328125,-0.0006864296278916,0.013720427517686,-0.0442804557532072,-0.0016799159348011,0.0007487908005714,-0.0002698109019547
1783206447751713800,0.5837138671875,-0.0027315621220506,0.0206052185953594,-0.0418798243522644,-0.004760661162436,0.002022314351052,0.0012684308458119
1783206447761650000,0.59364990234375,0.0137352049617096,0.0179876199754886,-0.0486065022587776,-0.0008666943758726,0.0009194579906761,0.002392255468294
1783206447771586600,0.603586669921875,0.0071737275542691,0.0095734091071411,-0.0493488450586795,-0.002381500788033,-0.0011439593508839,0.0002787709236145
1783206447781523700,0.613523681640625,-0.0040228075089864,0.0186583405775949,-0.0566740733802318,-0.0028286557644605,0.0022151139564812,0.0004465817473828
1783206447791460900,0.6234609375,0.0004702843928709,0.0193402584271505,-0.0514303275078535,-0.0016688490286469,0.000839325133711,0.002585100242868
1783206447801396700,0.633396728515625,0.0039591859545558,0.0202112691080197,-0.0391623820871114,-0.0004583513364195,0.0007632281631231,1.52853317558e-05
1783206447811333600,0.643333740234375,0.0105127723164856,0.0092938432470895,-0.0381114117294549,-0.0018602395430207,0.0004875906743109,-0.0004883185029029
1783206447821270800,0.653270751953125,0.0086522756742313,0.0111340825526043,-0.0402004929631948,-0.0016568806022405,0.0021919696591794,-0.0028673503547906
1783206447831207000,0.66320703125,0.0069617653040215,0.0045451691489666,-0.043639235240221,-0.0008675195276737,-0.00073031662032,0.002193454420194
1783206447841143800,0.673143798828125,-0.0013418795956298,0.0134526068943552,-0.0523135400831699,-0.0022603366523981,-0.0007561747916042,-0.0024174493737518
1783206447851080700,0.683080810546875,-0.0003747698628343,0.0136020070360973,-0.048570261901617,-0.0006347438320517,-0.0003617606125771,-0.0020174426026642
1783206447861016800,0.693016845703125,0.0016148513181135,0.022708766745869,-0.0318090967148542,0.0014038225635886,-0.0021123550832271,0.0009239646606147
1783206447870953700,0.70295361328125,-0.002438497459609,0.0013415508020669,-0.0400403339654207,-0.0004135183990001,0.000524440780282,-0.002053981879726
1783206447880891000,0.712890869140625,0.0048613224260509,0.000449186805915,-0.0558989973545074,-0.0003517623990774,0.000726896803826,0.0002258736640214
1783206447890827800,0.722827880859375,0.0054822673359885,-0.0079456252422183,-0.0481119967401027,-0.0023781610652804,-8.74977558851e-05,-0.0008985127788037
1783206447900763600,0.732763671875,0.0035722141972742,0.0124337304417043,-0.0428700044333934,0.0004745116457343,0.0007551531307399,0.0007733674719929
1783206447910700800,0.74270068359375,-0.0112252679673954,0.0055008259059861,-0.0410720151007175,-0.0033085094764828,-0.0010560629889369,0.0017584708984941
1783206447920638000,0.752637939453125,-0.0029036124870181,0.0113710513799451,-0.0371755921840667,-0.0017764940857887,0.0033031278289854,-0.0023820106871426
1783206447930573800,0.76257373046875,0.006266385184694,0.0047687670380808,-0.0422656087994575,-0.0028891628608107,0.0021529085934162,-0.0017662878381088
1783206447940510700,0.7725107421875,0.0063586848443374,-0.0031804749333299,-0.0442126512140035,-0.0019781021401286,-0.0006370078772306,0.0001405677758157
1783206447950447900,0.78244775390625,0.0095019147735089,-0.0012017404725775,-0.0448076944977045,-0.0015208376571536,-0.0005981256254017,0.0026564560830593
1783206447960383700,0.7923837890625,-0.0014839914800599,0.0072421896805986,-0.044049569606781,-0.0029516480863094,-0.0006233626045286,-0.0007326465565711
1783206447970320600,0.802320556640625,-0.0079020235625095,0.0151592281491495,-0.0383621716201305,-0.0018605506047606,-0.0003498559817671,-9.42868646234e-05
1783206447980257800,0.8122578125,-0.0012407207760959,0.0084979253627359,-0.0416501072496175,-0.0020843269303441,0.0019099512137472,-0.000249464996159
1783206447990194700,0.822194580078125,0.0088125442698597,0.0069249404249712,-0.0379056600242853,-1.26538798213e-05,-0.0012325788848102,0.0011878432705998
1783206448000130600,0.832130615234375,0.0045130935102701,0.0113867421394214,-0.0343126039683818,-0.002062396146357,0.0019530644640326,-0.0001729989890009
1783206448010067700,0.842067626953125,0.0070332231050357,0.0093490805656649,-0.0462771825283765,-0.0017382893711328,-0.0007463158108294,0.0012392755597829
1783206448020004900,0.8520048828125,0.0004597812651656,0.0269018710541538,-0.0500146154910325,0.0010631326586008,0.0019230828620493,-0.0006992672570049
1783206448029940700,0.861940673828125,-0.0041610652022063,0.0183138379888609,-0.0586865822464227,-0.0003259722143411,0.0018162899650633,-0.0015898282872512
1783206448039877600,0.871877685546875,-0.0045148653422482,0.0262964159742929,-0.042973464807868,-0.000398239120841,0.0017538699321448,-0.0024225185625255
1783206448049814800,0.881814697265625,-0.0333286892312578,0.0936280587028711,-0.0404319636315107,0.0003985790535807,0.0017061992548406,-0.0011015904601663
1783206448059751700,0.891751708984375,0.01046891490845,0.037162184713222,-0.0565881486624479,-0.0003453362733125,-0.002552943304181,3.54340299963e-05
1783206448069687800,0.901687744140625,0.0432493774061091,-0.007659574842453,-0.0633282705724239,-0.0004699723795056,-0.0006700884550809,-0.0007419427856802
1783206448079624700,0.911624755859375,0.0132659434821456,-0.0184440585060976,-0.037292496562004,0.0002973480150103,0.0012963148765265,-0.0003760382533073
1783206448089561600,0.9215615234375,0.0208490190222859,-0.0232087704235687,-0.034895956814289,-0.0006597926840186,0.0008654152043163,0.0008450208697468
1783206448099497700,0.931497802734375,0.0294816401479765,-0.0098585461914539,-0.0471644867569208,-0.000609727576375,-0.0012387805618345,-0.0001949565485119
1783206448109435000,0.941434814453125,0.0089486100059933,0.0090131266095675,-0.0404272874563932,0.0022417185828089,0.0011410200968384,0.0023936359211802
1783206448119371800,0.951371826171875,-0.0087955566024407,0.0104074122458696,-0.0517997453421354,-0.0016780495643615,-0.0038329367525875,-0.0034670406021177
1783206448129307600,0.9613076171875,-0.0451641067199409,-0.0463874379698187,-0.0559738161563873,-0.0039260229095816,0.0015620947815477,-0.0014981655403971
1783206448139244800,0.971244873046875,-0.0792417694212868,-0.0445681135881692,-0.0302308876127004,-0.0033108396455645,0.0016218153759837,0.0028725874144583
1783206448149182000,0.981181884765625,-0.0520096617657691,0.0053231495178304,-0.0365133288830518,-0.0020341202616691,0.0018846695311367,0.0025636607315391
1783206448159118600,0.99111865234375,0.0293330985227599,0.0467791589674539,-0.0493845008939504,0.0005678618326783,-0.002289445605129,0.000290940515697
1783206448169054700,1.0010546875,0.0706792909223586,0.0524512680534273,-0.0549146624922752,-0.0025584222748875,-0.0038769557140767,-0.0022182897664606
1783206448178991900,1.010991943359375,0.0440715987754985,0.0624408202134072,-0.0668792410522699,-0.0016769580543041,0.0032353159040212,-8.95962584763e-05
1783206448188928800,1.0209287109375,-0.0003115136345848,0.0647304837868548,-0.0558054738521575,-0.0003485735505819,-0.0009572985582053,-0.0014062630943953
1783206448198864600,1.03086474609375,-0.0077841145375743,0.0296188018626533,-0.0403939697086811,0.0020265541970729,-0.0008139116689562,0.0014859724324196
1783206448208801800,1.0408017578125,-0.0182703276406973,-0.0010766893208026,-0.0474316132605075,-0.0003093043342232,-0.0022741230204701,-0.0010658684186637
1783206448218738700,1.05073876953125,-0.0399952161820605,-0.0253604685647413,-0.0330704949527978,-0.0021012807264924,0.0025557703338563,0.0018730368465185
1783206448228675300,1.06067529296875,-0.017603424697183,0.002388246843405,-0.0327747268766164,7.525086402893066e-07,0.0014311172999441,-0.0002809278666973
1783206448238611200,1.070611083984375,0.0163896649932488,0.0038033743383362,-0.0465472316414117,0.0032999739050865,0.0022306437604129,0.0019649181049317
1783206448248548400,1.08054833984375,0.0376460227074101,0.0259640239484608,-0.0499888965278863,0.000369431450963,-0.000776597764343,-0.0002289940603077
1783206448258485200,1.0904853515625,0.019406619927939,0.0358048700864426,-0.0528308419555425,0.0011316137388348,-0.0001873816363513,-0.00043844175525
1783206448268421400,1.10042138671875,0.0036973384142853,0.0360577306026592,-0.0453518843770027,0.0002306662499904,0.0016936091706156,0.0007498608902096
1783206448278358300,1.110358154296875,-0.0069032400498166,0.0092323953834362,-0.0375730670690536,8.2086771726e-06,0.0018872176297008,-0.0029129167087376
1783206448288295200,1.120295166015625,-0.011646196793206,0.0121649234376847,-0.0362280822008848,0.0009155478328466,0.0021609906107187,0.0022855733986943
1783206448298232300,1.130232421875,-0.0073436772936955,0.0052406771324574,-0.0535901358902454,-0.0014722375199198,0.0019024973735213,0.000827279407531
1783206448308168400,1.14016845703125,-0.0008031696090474,0.0239743662348948,-0.0389233126342296,0.0003512287512421,0.0003615920431911,0.0024291709996759
1783206448318105300,1.150105224609375,0.007400357650686,0.0068963171186856,-0.0446101260989904,0.001957144588232,-0.0007129744626581,-0.0014434865443035
1783206448328042200,1.160042236328125,0.012962467023544,0.0211493171431124,-0.0516430934756994,0.0036716880276799,0.0016346019692718,-0.0002842126414179
1783206448337978400,1.169978271484375,0.0097512864246964,0.0234206413422711,-0.0435655854821205,-0.0019262935966253,-0.001642731949687,0.002241805428639
1783206448347915500,1.17991552734375,0.0086334065769799,0.0218422313107177,-0.0378746803641319,-0.0012210886925458,0.0019077947363257,0.001481206389144
1783206448357852200,1.18985205078125,0.0024438129555433,0.0209691200043074,-0.0525368274450302,-0.0005211913958191,0.0018230746500194,0.0002087387256324
1783206448367789300,1.199789306640625,-0.0106140224675647,0.0080890157682821,-0.0447474887430667,-0.0002828389406204,-0.0026486394926905,0.0008319185581058
1783206448377725400,1.209725341796875,-0.0025333544025197,0.023709669150412,-0.0308288535058498,-0.0005373852327466,-0.0006047086790204,0.0019728681072592
1783206448387662300,1.219662353515625,-0.004147073209472,0.0127949101706035,-0.046389995253086,-0.002325166016817,0.0005114218220114,3.35539225488e-05
1783206448397599200,1.22959912109375,0.0012191665314137,0.0190332748372107,-0.0468336473673582,5.85503876209e-05,-0.0009746584109961,-0.0008628945797681
1783206448407535400,1.239535400390625,0.0099111531615257,0.0228635371824726,-0.043240006789565,0.0021203700453042,-0.0013578869402408,0.0002268711104989
1783206448417472300,1.24947216796875,0.0098139398647472,0.0219299461267888,-0.0412964715063571,-8.99415463209e-05,0.0001367828808724,-0.0008630629163235
1783206448427409400,1.259409423828125,0.0053240993659012,0.0148212466327473,-0.0398024335563182,0.0013787914067506,0.0003588907420635,0.0001225729938596
1783206448437346300,1.26934619140625,0.0049191718268208,0.0041482605195604,-0.0436947648197412,-0.0014377897605299,0.0003783144056797,-0.0014940807595849
1783206448447282400,1.279282470703125,0.004828443069756,0.0122837457780726,-0.0462386040836572,0.0003915354609489,-0.0002701650373637,0.0023102450650185
1783206448457219300,1.28921923828125,-0.0096585849062539,0.0077333341984078,-0.0341150355696678,-0.0006096707656979,-0.0006377371028065,0.0012405132874846
1783206448467156500,1.299156494140625,-0.0031391565422527,0.0213797648981213,-0.0489279892981052,0.0021839849650859,0.001275211572647,-0.0002852119505405
1783206448477093000,1.309093017578125,-0.0019294154263101,0.0124903012008406,-0.0505763410270214,-0.0006711380556225,0.001952898222953,-0.0023382790386676
1783206448487029200,1.319029296875,0.0046283904530107,0.0177547062687575,-0.0390554145812988,-0.0011409195140004,-0.0003723073750734,-5.22215850651e-05
1783206448496966400,1.32896630859375,0.0032966303925961,0.0146914279743097,-0.0393570278763771,-0.0003053816035389,0.0002303952351212,-0.002678015269339
1783206448506903300,1.3389033203125,-0.0011127470148727,0.0107697975511662,-0.0433978276997804,0.0021497868001461,-0.0005107624456286,0.0011452184990048
1783206448516839200,1.348839111328125,-0.0043742695614695,0.0119345304816029,-0.0335293446362018,0.0009732693433761,0.0010224669240415,-0.0005143661983311
1783206448526776300,1.3587763671875,-0.0037861126762814,0.0154820851616561,-0.0435585712194442,-0.0012435456737875,0.0008834502659738,0.0004813896957784
1783206448536713500,1.36871337890625,-0.001219933716394,0.0213168374634347,-0.0499918191373348,-0.0006706612184643,-0.0005838233046233,-0.0004655381198972
1783206448546650400,1.378650390625,-0.0013893354665488,0.006201905113738,-0.0472948351383209,-0.0020363302901387,-0.0033513801172375,-0.0006016255356371
1783206448556586200,1.388586181640625,-0.0011256247627548,0.006464629436843,-0.0378629899263381,0.0001567937433719,-0.0011410522274672,0.0004792290274053
1783206448566523400,1.3985234375,1.46313135512e-05,0.0128388771764934,-0.0420481666564941,-1.97738409042e-05,-0.0008664801716804,-0.0011452992912381
1783206448576460300,1.408460205078125,-0.0009840060686692,0.0182890140748582,-0.0501291817814111,0.0006406353786587,0.0012517138384282,-0.0010959287174046
1783206448586397400,1.4183974609375,0.0045153585325926,0.011923461098317,-0.0439928709834814,-0.000556455925107,-0.0005158260464668,-0.0005824712570756
1783206448596333300,1.428333251953125,0.0066430364773608,0.0218828373157419,-0.043844402423501,0.0012862477451562,-0.0018470515497028,-0.0004118080250918
1783206448606270200,1.438270263671875,0.0046044433218427,0.0175513291837647,-0.0425005865991115,0.0004207203164696,0.0010432773269712,0.0018042083829641
1783206448616207400,1.448207275390625,-0.0028072029078379,0.0173096659149974,-0.0413034857690334,-0.0016947966068983,-0.0002925209701061,-0.0002682863269001
1783206448626143200,1.458143310546875,0.0002236892206594,0.0149148432003334,-0.0429524220198392,0.000521220266819,0.0005319938063621,-0.000880547100678
1783206448636080400,1.468080322265625,0.0062121890457347,0.0180917927360162,-0.0439963781148195,0.0008193543180823,0.0002693743444979,0.0024273430462926
1783206448646017300,1.478017333984375,0.0110158995330333,0.0182757892671041,-0.0417570747554302,0.0003093583509325,-0.0013671382330358,0.000680575845763
1783206448655954400,1.487954345703125,0.0093935224955901,0.0183678697310388,-0.0513356349617242,-0.000230492092669,0.0004590977914631,-0.0001198721583932
1783206448665890300,1.497890380859375,0.005786036055535,0.0138388662655837,-0.0447463196992874,0.0019066948443651,-0.0006658216007053,0.0031603435054421
1783206448675827200,1.5078271484375,-0.0004229015871882,0.0201387153284624,-0.0445949285298585,-0.0001817606389522,-0.0001802672632038,0.0012102145701646
1783206448685764400,1.517764404296875,-0.0022025332792662,0.0138371674988418,-0.0493827473282814,-0.0012318454682826,0.0033289799466729,9.6617732197e-06
1783206448695701200,1.527701171875,-0.0049852958655916,0.0172949250035919,-0.0528273348242044,0.0003037918359041,-0.0012634736485779,-0.0003508888185024
1783206448705637000,1.53763720703125,0.002765994114615,0.0228934208640828,-0.0477332265555858,0.0016146004199981,-0.0019542975351214,0.0008073202334344
1783206448715574300,1.54757421875,0.0016302132840268,0.023448351333104,-0.0516208816438913,0.0012883907184004,-0.0020981044508516,0.0011032761540263
1783206448725511400,1.557511474609375,-0.0007815970980562,0.0187318990041501,-0.0442868854939937,0.0023046527057886,-0.0010288450866937,0.0001527937129139
1783206448735447300,1.567447265625,-0.0015468093168921,0.0177927184578962,-0.0459317300915718,0.0021714828908443,-0.0007115826010704,-0.0006803807336837
1783206448745384200,1.57738427734375,-0.0058856057061813,0.0202694290360435,-0.0516202971220016,0.0006169956177473,0.0013829935342073,0.0016533473972231
1783206448755321300,1.5873212890625,-0.0028660569556057,0.0260728546177968,-0.0435427891284227,0.001252950169146,-0.0009550098329782,7.03996047377e-05
1783206448765258200,1.59725830078125,0.0015920549644157,0.0220728617288172,-0.0429372244507074,0.0023919846862554,-0.0003097257576882,-0.0003091008402407
1783206448775194400,1.6071943359375,0.0031563816716894,0.0232576510665938,-0.0468254640609025,-1.24014914035e-05,-0.0014936388470232,-0.0027921628206968
1783206448785131300,1.61713134765625,0.0015287074046209,0.0216826020359061,-0.0474257680416107,0.0005047842860221,-0.0016648797318339,0.0023831583093851
1783206448795068200,1.627068115234375,0.0097710505710914,0.0169834479016251,-0.0323147081494331,0.0026356866583228,0.0040695625357329,-0.000320395687595
1783206448805005300,1.63700537109375,0.0035110403282567,0.020686521936953,-0.0492307716369628,0.0007981052622199,-0.0003970912657678,-0.0025697015225887
1783206448814941400,1.64694140625,-0.0042163390533998,0.0210683791276998,-0.0559609566748142,0.0003786850720643,0.0001966375857591,-2.96824146062e-05
1783206448824878300,1.65687841796875,-0.0052290414935909,0.023522494281549,-0.0457908603161573,0.0042322790250182,0.0013236873783171,0.0013333233073353
1783206448834815200,1.666815185546875,-0.0003518639112822,0.0273496330879628,-0.0471370142281055,-0.0002400465309619,0.0002420637756586,-0.0008169242646545
1783206448844752400,1.67675244140625,0.002665492882207,0.0119185109285637,-0.05102642288208,0.0008691605180501,0.0008758963085711,-0.0001772330142557
1783206448854688500,1.6866884765625,-0.0017489442928694,0.0155843399597331,-0.0468365699768066,0.0001479173079133,0.0030403779819607,0.0011248472146689
1783206448864625200,1.696625244140625,-0.000680328680668,0.012428067885898,-0.0567114827811717,-0.0014742147177457,-0.0013205483555793,-0.0004528095014393
1783206448874562300,1.706562255859375,0.0011436536097899,0.0181709771857596,-0.0481833084106445,0.0016004350036382,0.0018763844855129,0.0004223971627652
1783206448884499200,1.716499267578125,0.0120332598820328,0.0165310279590077,-0.0510363597542047,-0.000426230020821,-0.0001385631039738,-0.0026375749148428
1783206448894435300,1.726435302734375,0.0049453291813842,0.0232446454545483,-0.047591187736392,0.0002032173797488,0.0002618674188852,0.0002075401134788
1783206448904372200,1.736372314453125,0.0039588206283748,0.0167679967863485,-0.0428086296349763,0.0016945879906415,0.0008719977922737,-0.0002505234442651
1783206448914309400,1.746309326171875,0.0005587298613041,0.0261298455020412,-0.0456534976720809,0.0008245753124356,0.0003282884135842,-0.0020935630891472
1783206448924246300,1.756246337890625,0.0042977702591568,0.0325048238940536,-0.0523895279288291,0.0017777206376194,-0.0015132874250411,-0.0024466982576996
1783206448934182400,1.766182373046875,-0.0005121873058378,0.0363368032723665,-0.0516495232164859,0.0043877204880118,0.0017288164235651,-0.0016754885436967
1783206448944119300,1.776119384765625,-0.0011801496952772,0.022157361674495,-0.0570440757364034,0.0007759416475892,0.0020172367803752,-0.0010328677017241
1783206448954056200,1.78605615234375,0.0048750952230766,0.0172998021081089,-0.0452320573896169,0.0011258190497756,0.0031916715670377,-0.0011582963634282
1783206448963993300,1.795993408203125,0.006685030721873,0.0073980743620544,-0.0512251603245735,0.0010922634974122,-0.0010898923501372,-0.0012248754501342
1783206448973929500,1.805929443359375,0.0037535255809314,0.0341501982145942,-0.047943654435873,0.0022970493882894,0.0023995377123355,0.0005465510766953
1783206448983866000,1.8158662109375,-0.0042664252728223,0.0389624390682205,-0.0455623122572898,0.0010003559291362,-0.0034325188025832,-0.0002369508147239
1783206448993803300,1.82580322265625,0.0390876728830859,-0.0024678696845658,-0.0481079050868749,0.0008543962612748,0.000844289548695,-0.0003098086453974
1783206449003739400,1.835739501953125,0.0296253960002213,-0.0106355219133198,-0.0448188004136085,0.002986523322761,-0.0015935678966343,0.0009946075733751
1783206449013676300,1.84567626953125,0.0071952087337151,0.0108648371571674,-0.0425812506198883,0.0024971310049295,0.0031465785577893,-0.0001815962605178
1783206449023613200,1.85561328125,-0.0036520379678346,0.0265051816204562,-0.0535135635226964,0.0025378772988915,-0.0005999561399221,-0.0004399227909743
1783206449033550300,1.86555029296875,-0.0100040190767496,0.0150057546204887,-0.0532259787529706,-0.0004399716854095,-7.24964775145e-05,-0.0021941266022622
1783206449043486500,1.875486572265625,0.0033974969511851,0.0055326092837378,-0.0521837762236595,-0.0004421025514602,0.0018737418577075,0.0009904815815389
1783206449053423400,1.88542333984375,0.0036115050280466,0.0009911299291998,-0.0529331332862377,-0.0002861563116312,-0.0006596995517611,0.00063052540645
1783206449063360300,1.8953603515625,0.0026766353307291,0.0020937208762392,-0.0466512765377759,0.0010470226407051,0.0023081270046532,0.0012507755309343
1783206449073297200,1.905297119140625,0.0064405179088935,0.0081230093694292,-0.0489005167692899,-0.0008646259084343,0.0005249814130365,-0.0010716707911342
1783206449083233300,1.9152333984375,0.0054692251913249,0.0129258248075842,-0.0468085129261016,-0.0005074953660368,-0.0025485730729997,0.0032586292363703
1783206449093170400,1.92517041015625,-0.0138481455505825,0.0039705841314047,-0.0406698640406131,0.0007295068353414,0.0012485752813518,-0.0008529757615178
1783206449103107300,1.935107421875,-0.0128171585350297,0.0107491018230095,-0.043963644888997,-0.0008745146915316,-0.000718702096492,-0.0008359316270798
1783206449113044200,1.945044189453125,-0.0083765640053898,0.0101578396652825,-0.0501005402088165,-0.0018511852249503,0.0030135842971503,0.0011888993903994
1783206449122980400,1.95498046875,-0.0010080079987645,0.0136728255162946,-0.0421709162533283,6.70896843075e-05,0.000871071126312,0.001219792291522
1783206449132917500,1.96491748046875,0.0032785467466339,0.0134958797805011,-0.0378325947880744,-0.0007002744823694,0.0018281308002769,0.0007053054869174
1783206449142854100,1.974854248046875,0.004908869628515,0.0156109539720229,-0.0466664741069078,-0.0013740547001361,-0.0003647161647677,0.0012419326230883
1783206449152791300,1.984791259765625,0.0074532934143207,0.0255870986611582,-0.0554939236849546,0.0016526021063327,-9.23578627407e-05,0.0017182209994643
1783206449162727400,1.9947275390625,0.0038927696548402,0.0229417717841453,-0.0571405218482017,0.0011351499706506,-0.0018487130291759,0.0011413802858442
1783206449172664300,2.004664306640625,-0.0014667663506232,0.0230973642046563,-0.0481610965788364,0.0015692031010985,0.0012548938393592,0.001467052148655
1783206449182601200,2.014601318359375,-0.0059504693696275,0.0261060627676546,-0.0493675497591495,0.0034954668954014,0.0017025712877511,-0.0002988898195326
1783206449192538400,2.024538330078125,0.0032488822607323,0.0229374061362817,-0.041742461708188,-9.27988439798e-05,0.0007879342883825,0.0035629526246339
1783206449202474200,2.03447412109375,-0.0001767265400849,0.0194417460402473,-0.049666824966669,-0.0003852136433124,-0.0019865469075739,0.0044750850647687
1783206449212411400,2.044411376953125,-0.0053436808492057,0.0163312310705892,-0.0495154337972402,0.0009437520056962,0.0010183486156165,-0.0003986863885074
1783206449222348300,2.054348388671875,-0.0010403393657878,0.0275481696010567,-0.0450274747282266,0.0011046063154935,-0.0005872710607945,-0.0017158858245238
1783206449232286000,2.064285888671875,-0.0050399303959682,0.0204596361122094,-0.038445173728466,0.0008915262296795,-0.0023673195391893,0.000521893845871
1783206449242222000,2.07422216796875,0.0094572171152569,0.0149102766230702,-0.0448795906901359,-0.000701842829585,-0.000284994021058,-0.0014824012760072
1783206449252159200,2.0841591796875,0.0065783920096233,0.0388353420898318,-0.0534141948014497,0.0007179491221904,0.001114668790251,0.0004047772381454
1783206449262096000,2.094095947265625,-0.0063764031641185,0.0299074278119951,-0.0481762941479682,0.0012788111343979,-0.0015540849417448,0.000221285270527
1783206449272033000,2.104032958984375,-0.0108030970325693,0.0498474970295093,-0.0522206011027097,0.0038407798856496,0.0021421075798571,-0.0008690999820828
1783206449281969200,2.11396923828125,-0.0074572389370761,0.0417439595455303,-0.0499777906119823,0.0008356692269444,0.0003937426954507,0.0011937844101339
1783206449291906000,2.123906005859375,-0.0025496479501947,0.0409733587655238,-0.037712183278799,0.0011328272521495,-0.0007864525541663,0.0002604643814265
1783206449301843000,2.133843017578125,0.0017540953920222,0.0278240091340616,-0.0454904160648584,-3.86964529752e-05,-0.0023518581874668,-0.0013997502392157
1783206449311780000,2.143780029296875,0.0039767946764826,0.0299488375346176,-0.0498269839644432,4.244968295e-06,-0.0001136590726673,0.0010110954754054
1783206449321717000,2.153717041015625,-0.0065547554057091,0.0339182160896249,-0.0483346995800733,0.0005262242630124,0.0016323095187544,-0.0027631362900137
1783206449331653000,2.163653076171875,-0.0042958888293243,0.0263639647851698,-0.0468447532832622,0.0026202900335192,0.0015737321227788,-0.0021855449303984
1783206449341590000,2.173590087890625,-0.0070893189401365,0.0209906925152987,-0.0446130487084388,0.0025220187380909,0.0003657219931483,-0.0007407800294458
1783206449351527000,2.18352685546875,-0.0070439088958315,0.010650153226871,-0.0410240843057632,-0.0012178840115666,0.0003362735733389,-0.0009143000934273
1783206449361464000,2.193464111328125,-0.0022751418577507,0.0198362800494767,-0.0444680872797966,0.0007432680577039,0.0003256206400692,-0.0016104504466056
1783206449371400200,2.203400146484375,-0.0079837835618294,0.0255677546398714,-0.0492675965160131,-0.0002048965543508,0.0001468281261622,-0.0012862673029303
1783206449381336800,2.2133369140625,-0.0097291293918155,0.0273553869753144,-0.0432803387999534,0.0012973928824067,-0.0018161879852414,-0.0005030317697674
1783206449391274000,2.22327392578125,-0.0025543606579303,0.0291492298558354,-0.0449269369632005,0.0010648127645254,0.0009759026579558,0.000400046352297
1783206449401211100,2.233211181640625,-0.0005246266623027,0.0216802822146564,-0.0437321742206811,0.0014887880533933,0.0001716283150017,-0.0003491006791591
1783206449411147000,2.24314697265625,0.0051868828522972,0.0157820727552287,-0.0337035321593284,0.0018622009083628,-0.0016600186936557,-0.0015259718056768
1783206449421084000,2.253083984375,0.0075729012059979,0.0101691830432042,-0.0509141946792602,0.0010179793462157,-0.0006285761483013,0.0006484992336481
1783206449431021000,2.26302099609375,0.0068381206580437,0.018925229619164,-0.0467266798615455,0.0017516370862722,-0.0012106266804039,0.0014568443875759
1783206449440958000,2.2729580078125,0.0011047646378166,0.0150862907771021,-0.0471785152822732,0.0009739939123392,0.0012136488221585,-0.0004515768960118
1783206449450894000,2.28289404296875,-0.0036590704968199,0.0143969020071439,-0.0534732315123081,0.0017832163721323,0.0003205928951501,-0.0005009279120713
1783206449460831000,2.2928310546875,-0.0052504313414916,0.0184408253693953,-0.0533311926931142,0.0013645673170685,0.0006779888644814,0.0015979094896465
1783206449470767900,2.302767822265625,0.0136266300207003,0.013974475343991,-0.0304366393178701,-5.28087839484e-05,-0.0023332913406193,-0.0005085058510303
1783206449480705000,2.312705078125,0.0250630565207451,0.0074356664260849,-0.0461480031907558,0.0017842389643192,-0.000864025671035,0.0006520997267216
1783206449490641200,2.32264111328125,0.0167282492978498,-0.001239697862789,-0.0510801988959312,0.0001807827502489,-0.0036092312075197,0.0001176074147224
1783206449500578000,2.332578125,0.0065698799096047,0.0066227608743123,-0.0446434438467025,0.0023161051794886,-0.0007679047994315,0.000393777154386
1783206449510515000,2.342514892578125,-0.000225625449419,0.0222844403865747,-0.0446527961969375,0.002651329152286,-6.16475008428e-05,0.0021716919727623
1783206449520452000,2.3524521484375,-0.0132844837858341,0.010951309864223,-0.0528852024912834,1.24024227261e-05,0.0010289172641932,-0.0007833517156541
1783206449530389000,2.362388916015625,-0.0003832271639257,0.0185311705339699,-0.0518441690057516,0.0012730145826935,0.001371594145894,-0.0011206665076315
1783206449540324900,2.372324951171875,-0.0015086875298991,0.0128418363185599,-0.0442196654766798,0.001937473192811,0.0018930411897599,-0.0012421065475791
1783206449550262000,2.382261962890625,0.0085514821808785,0.0156983399945311,-0.036587563163042,0.0003516860306262,-0.001537790056318,-0.0008759447373449
1783206449560199000,2.392198974609375,0.0101943540170788,0.0113344456966035,-0.0467664273500442,0.0010036276653409,0.0010992716997861,0.0010188946034759
1783206449570136000,2.402135986328125,-0.0030596980978734,0.0327848281455226,-0.0590454786866903,-0.0001279879361391,0.0012057763524353,0.001274206675589
1783206449580072000,2.412072021484375,-0.004591401177179,0.0271025447254069,-0.048277416434884,0.0014304937794804,8.85804183781e-05,-0.0016648579621687
1783206449590009000,2.422009033203125,-9.50944049283e-05,0.012394110817369,-0.0476817886292934,0.0008331472054123,-0.0026795677840709,-0.0003469833172857
1783206449599946000,2.431946044921875,-0.0008092157573439,0.0151244856293313,-0.0479857400119304,0.0009588487446308,-0.0002632816322147,-0.002200277056545
1783206449609883100,2.441883056640625,-0.0004340988346375,0.0164032733934931,-0.0391571213901042,-0.0003008302301168,0.000902775209397,-0.0008970787748694
1783206449619819000,2.451819091796875,-0.005100154416915,0.027911833547987,-0.0577127687782049,-0.0004094876348972,-0.0012282864190638,0.0008984245359897
1783206449629756000,2.461755859375,-0.0101914314076304,0.0211447505658492,-0.047844870236516,0.0023073907941579,0.0033178874291479,-0.0002793851308524
1783206449639693000,2.471693115234375,-0.0059224488515406,0.0133087779768742,-0.0462041172921657,0.0016325460746884,0.0030435817316174,0.0009821543935686
1783206449649630000,2.4816298828125,-0.0006036101826466,0.0140464080690406,-0.0471083726555109,0.0008791331201791,-0.000330857001245,-0.001433577039279
1783206449659567000,2.491567138671875,-0.0005540171535685,0.026642343335133,-0.0405278252214193,0.0002074837684631,0.0009914021939039,-0.0015938993310555
1783206449669503000,2.5015029296875,0.0025501411405391,0.021969182158634,-0.0474111549943685,0.0008226772770285,-0.00092762010172,0.0019781466107815
1783206449679440100,2.511440185546875,-0.0020349216273985,0.0232548563213087,-0.0477115992456674,0.0018876753747463,-0.0017215083353221,-0.0018480168655514
1783206449689377000,2.521376953125,-0.00029251667317,0.0143410253677517,-0.0403740959644317,-0.0017897654324769,-0.0018749185837805,0.0001368068624287
1783206449699314200,2.531314208984375,0.0018016608607955,0.0111733185844495,-0.0468032522290945,-0.0027322582900524,0.0013080914504826,0.0001533185131847
1783206449709250000,2.54125,-0.0018276172859594,0.0010014869264326,-0.0572837297111749,0.0005078762769699,0.0003134864382445,-8.34928359836e-05
1783206449719187000,2.55118701171875,-0.0089008801404386,0.0257487737625837,-0.0412754287183284,0.0018391907215118,-0.0014141062274575,0.0011386317200958
1783206449729124000,2.5611240234375,0.0039089170720428,-0.0048680626940913,-0.0542927312016487,0.0021975440904498,0.0028415240813046,-0.0010310735087841
1783206449739061000,2.57106103515625,-0.0098527923041023,0.0245550339333713,-0.0423287371635437,-0.0008746786043047,-0.0001574615016579,0.0023601960856467
1783206449748996900,2.580996826171875,0.0063289107605814,-0.0143308145009912,-0.0450181223779916,-0.0014049727469682,0.0043326127342879,-0.0007599559612572
1783206449758934000,2.59093408203125,-0.0027384119879454,0.040946397693362,-0.050409167766571,-0.0016012471169233,-0.001153765246272,-0.0022731642238795
1783206449768871200,2.60087109375,-0.0191792226465418,0.0188439445438794,-0.0483060580074787,-0.000453557819128,0.0018126768991351,0.0026496471837162
1783206449778808000,2.61080810546875,-0.0244230963830836,0.031006730823405,-0.0499625930428504,0.0003144973888993,-0.0004089321009814,9.70072578638e-05
1783206449788745000,2.620744873046875,-0.01407842890881,0.0329985804940573,-0.044127895539999,-0.0020219907164573,0.0003974591381847,-4.14373353123e-05
1783206449798681000,2.63068115234375,-0.0027406039450317,0.0222787595644593,-0.0474134930819273,0.0012222724035382,-0.0024451990611851,-3.95732931792e-05
1783206449808618000,2.640617919921875,0.006285436945036,-0.003435929265432,-0.0435129785120487,-0.0031954068690538,-0.003919955343008,0.0007446086965501
1783206449818555100,2.65055517578125,0.0200073988326825,0.0107695966217666,-0.0478442857146263,-0.0002819085493683,0.0030527333728969,0.0022769914939999
1783206449828492000,2.660491943359375,0.0159194719319231,0.0228795750018209,-0.0342237566411495,-0.0025086933746933,0.0004472909495234,0.0019961763173341
1783206449838428000,2.670427978515625,0.0053872277299873,0.0265711595287546,-0.0460410356849431,-0.0031662276014685,0.0018742126412689,-0.0026406534016132
1783206449848365000,2.680364990234375,-0.0101846363406628,0.0754546338316984,-0.0524789597779512,-0.0021933401003479,0.0022506702225655,-0.0009697405621409
1783206449858302200,2.69030224609375,-0.0123829318362288,0.0426744453286752,-0.0611602788835763,0.001438146457076,0.0001816605217754,5.50439581274e-05
1783206449868238800,2.70023876953125,0.0088910711324773,0.043602867018897,-0.0505365935385227,-0.0040026009082794,0.0010490976274013,-0.0046743326820433
1783206449878175000,2.710175048828125,0.0056098940373398,0.0375380140219815,-0.0382633874207735,-0.001858489587903,0.001327930483967,-0.001579207018949
1783206449888112000,2.720112060546875,0.0100164036342874,0.0178142179036512,-0.0481429764002561,0.0018568998202681,-0.0027664485387504,0.000196048989892
1783206449898049000,2.730049072265625,0.0149278488123789,0.0187337073687464,-0.0412567240178585,0.0010321186855435,-0.0040181339718401,0.000122279394418
1783206449907986000,2.73998583984375,0.0088578995152376,0.0103293603072874,-0.0475473485946655,0.0019133826717734,0.002288174116984,-0.00189133384265
1783206449917923000,2.749923095703125,0.0099982834557071,0.0247631785250268,-0.0372264455884695,-0.0020669782534241,-0.000434641726315,0.0002610329538583
1783206449927859000,2.75985888671875,0.0096351674980483,0.0163384827952832,-0.0418611196517944,-0.0006062118336558,0.0006934097036719,0.0019572179298847
1783206449937796000,2.769796142578125,0.0002420651275664,0.0232126246147789,-0.0441045146644115,0.0002862131223082,-0.0018270057626068,0.0012666604015976
1783206449947733000,2.77973291015625,0.0020620105637237,0.0100468353051692,-0.0449970795899629,-0.000108802691102,-9.27355140447e-05,-0.0001777356956154
1783206449957670000,2.789669921875,0.0104207466514781,0.0086120715280063,-0.0436480030685663,0.0009436784312129,-6.79683871567e-05,-0.0005641602911055
1783206449967606000,2.79960595703125,0.0129005990347824,0.0228401745731942,-0.0472463198214769,0.0027298554778099,0.0011704452335834,0.0014389713760465
1783206449977543200,2.809543212890625,0.0117140378650277,0.0238376794442534,-0.0460568177759647,0.0018408922478556,0.0003318162634968,-0.0002547989133745
1783206449987479800,2.819479736328125,-0.0007158749180845,0.0323707126529887,-0.0391734880030155,0.0006386907771229,0.0008068718016147,9.16917342692e-05
1783206449997417000,2.8294169921875,0.0006986680549569,0.0320658662212081,-0.0381283628642559,0.0017742626368999,0.0013959631323814,0.0012528297957032
1783206450007354000,2.83935400390625,-0.012032985887397,0.0257143965689465,-0.035138533398509,0.0029577622190117,0.0007845479995012,0.0006065228953957
1783206450017290200,2.849290283203125,-0.0088932630895636,0.0220652081453241,-0.0445733012199401,-0.0016207443550229,0.0007754932157695,-0.0003748519811779
1783206450027227000,2.859226806640625,0.001213376111444,0.0219078621591441,-0.0397866514652967,0.0004376517608761,0.0010250764898955,-0.0020864272955805
1783206450037164000,2.8691640625,5.95481675118e-05,0.016479827494733,-0.0385965648978948,0.0008983789011836,0.001927088946104,0.0002030923496931
1783206450047101000,2.879100830078125,0.0096301259967498,0.0104854641844518,-0.0439922864615917,0.002006103284657,0.0007068323902785,0.0010204485151916
1783206450057037000,2.889037109375,0.0065578058793209,0.0086609339047223,-0.0384527725130319,9.39536839723e-05,0.0020141783170402,-0.0026403325609862
1783206450066974000,2.898973876953125,0.0106229364263825,0.0125150155169889,-0.0502723896443843,0.0001149950549006,-0.0013139876537024,0.0014944621361792
1783206450076910800,2.908910888671875,0.0022494959598407,0.019256562199071,-0.0543079287707805,0.0005746567621827,-0.0025172033347189,0.0014459928497672
1783206450086848000,2.918847900390625,-0.0017078268311917,0.0264095209599472,-0.0441337407588958,0.0016693780198693,0.0020954767242074,1.05863437056e-05
1783206450096785200,2.92878515625,-0.0019664047021418,0.0210777680105529,-0.0501198294311761,0.0010861456394195,-0.0010023121722042,0.0003245731350034
1783206450106721000,2.938720947265625,-0.0079841671543195,0.0134164213361218,-0.0522100797086954,-0.0004785377532243,-0.0012295069172978,0.0001891644205898
1783206450116658000,2.948657958984375,-0.0046614707387052,0.0086808989805169,-0.0399357045471668,0.0018514618277549,-0.0018268534913659,-0.0001447959803044
1783206450126595000,2.958594970703125,-0.002961827213969,0.0155694529178552,-0.0397889895528554,-0.0001415899023413,0.0032065669074654,-0.0001324932090938
1783206450136532000,2.968531982421875,0.004394526898209,0.0268075073015876,-0.0495154337972402,-0.0006875386461615,-0.0015900526195764,-0.001749830902554
1783206450146467800,2.9784677734375,0.0087177603921853,0.0028928901636041,-0.0534071805387735,0.0013475120067596,0.0003904658369719,-0.0003587971441447
1783206450156405000,2.988405029296875,-0.0050403687873855,0.0308397219597361,-0.0486222843497991,0.001782938838005,-0.0010287328623235,0.0013200596440583
1783206450166342100,2.998342041015625,-0.0017461678138934,0.0169304390727542,-0.0438292048543691,-0.0004375595599412,-0.0021634818986058,-0.0010279992129653
1783206450176279000,3.008279052734375,0.0034945641174912,0.0253812008255161,-0.0484703086584806,0.0016863113269209,-0.0010902280919253,0.0013587258290499
1783206450186216200,3.01821630859375,-0.0014246077093295,0.015017993047554,-0.0436754755973815,-0.0012632012367248,-0.0026887543499469,0.0006808128673583
1783206450196152000,3.028152099609375,0.0057897258499637,0.0053804691956378,-0.0438221905916929,0.0008643986657261,-0.0005699438042938,0.0032531602773815
1783206450206089000,3.0380888671875,0.0045902503997087,0.0093897961685433,-0.0572843142330646,0.0007075434550642,-0.0022165859118103,-0.0013249148614704
1783206450216026000,3.048026123046875,-0.0023919183715246,0.018736355983559,-0.0643131899565458,-0.0005931444466114,0.0006417846307158,0.0003137281164526
1783206450225963000,3.057962890625,-0.0055560814908705,0.0203459100720472,-0.0399216760218143,0.0003312472254037,-0.001267107669264,6.09830021858e-05
1783206450235899400,3.0678994140625,-0.0013344086752273,0.0209450267426669,-0.0450040938526392,-0.0014109928160905,0.0012860647402703,0.0007680521812289
1783206450245835300,3.077835205078125,-0.0088855912397615,0.0074379497147165,-0.0526361961662769,-0.0017938911914825,-1.25719234347e-05,-0.0008546384051442
1783206450255772400,3.0877724609375,-0.00855029487079,0.017042320215702,-0.0451496398031711,-0.0014293044805526,-0.0023465664125978,-0.0008517089299857
1783206450265709300,3.097709228515625,-0.0105635526556521,0.0210869011650793,-0.0381096581637859,0.0010785805061459,-0.0003861244767904,-0.0015972905093804
1783206450275646500,3.107646484375,-0.0025353819628246,0.0241337763139978,-0.0520247862696647,0.0014618095010519,-0.0012836097739636,-0.0010707834735512
1783206450285582300,3.117582275390625,0.0049969680370762,0.021105879860185,-0.0403963077962398,0.0086258202791213,0.0489670261740684,-0.001628681900911
1783206450295519200,3.127519287109375,-0.0173925584254786,0.0125709469553083,-0.0026321020692586,-0.0133833410218358,0.0950136184692382,0.0039000404067337
1783206450305456400,3.137456298828125,-0.0420604050835594,-0.0147794533176347,0.7256915248304605,-0.0349269695580005,0.0066781425848603,0.0012363567948341
1783206450315393500,3.1473935546875,0.049932965089567,0.010214867082145,-0.7303034025400876,0.0160941369831562,0.0745565220713615,0.0024989615194499
1783206450325330400,3.157330322265625,-0.0486660504262894,0.0295287672253325,-0.1789642360091209,0.0056821969337761,-0.0232326425611972,0.0016750192735344
1783206450335266300,3.167266357421875,0.0324324162449687,0.0290247449596412,0.2022463273972272,0.003368442878127,0.0447525344789028,0.0026244360487908
1783206450345203500,3.177203369140625,-0.0319783523345366,0.023563757873699,-0.2193038451820611,-0.0141487251967191,-0.0221067108213901,0.0031271073967218
1783206450355140400,3.187140380859375,0.0011377718582749,0.0074409453894011,-0.2243389167398214,0.0082026524469256,0.0067563643679022,0.001447185408324
1783206450365077500,3.197077392578125,0.0112455435704439,0.0265194658741354,0.0119464583814144,0.0073802722617983,-0.0385036207735538,6.7573506385e-05
1783206450375014400,3.207014404296875,0.0009667261403053,0.0195006000880152,-0.1535404564172029,-0.0016262717545032,-0.0499525479972362,0.0001115158665925
1783206450384950300,3.2169501953125,0.0326902999961748,0.0189832799493335,-0.2011386584162712,-0.0009598433971405,-0.0454456470906734,-0.0007610991597175
1783206450394887400,3.226887451171875,0.006904062033724,0.0155386193881742,-0.0261795663952827,0.005903922021389,-0.0714128017425537,0.0009523786138743
1783206450404824600,3.236824462890625,0.0287236979201436,0.0133080655908212,-0.0347206002473831,0.0175106320530176,-0.0319849476218223,0.003249192610383
1783206450414761200,3.24676123046875,-0.0026873028552159,0.0311517653172835,-0.0507511130720376,0.0039066728204488,0.0069107846356928,0.0004512753803282
1783206450424697300,3.256697265625,-0.0238426844129338,0.0250820169495418,0.2482441084623336,-0.0161230731755495,-0.001270386390388,0.0019712341018021
1783206450434634500,3.266634521484375,-0.0009881342545151,0.0085543682577088,0.0269441210269927,-0.0049540419131517,0.0098019717261195,-0.0010999233927577
1783206450444571400,3.2765712890625,-0.0089901110601611,0.028218908469472,-0.1997510034501552,0.0094473045319318,-0.0165998600423336,-0.0024768039584159
1783206450454508300,3.28650830078125,0.0098918274065479,0.0315672325166873,-0.0203413617610931,0.0061292718164622,0.0011122915893793,0.0033696333412081
1783206450464445400,3.296445556640625,-0.0093416279115714,0.0311473448704928,-0.0191430918872356,-0.0087792593985795,0.000546671450138,0.0002983619924634
1783206450474381600,3.306381591796875,-0.0066743449310772,0.0205772711425088,-0.0866179607450962,-0.0020369356498122,0.0078312158584594,0.0017055764328688
1783206450484318500,3.316318359375,0.0052778125387616,0.0122616618104279,0.0209592013984918,0.0039292443543672,-0.0042733610607683,-0.0009315921925008
1783206450494255400,3.32625537109375,0.0023349640198983,0.0142468077456578,-0.0755471161544323,0.0024565169587731,-0.0018632006831467,0.0002918639220297
1783206450504192300,3.336192138671875,0.0075140106256119,0.0096728508936241,-0.1056324578166008,-0.0034619504585862,0.0044166310690343,0.0009480833541601
1783206450514129400,3.34612939453125,0.0004028817124664,0.0127737212521024,0.020220365729928,-0.0059496099129319,0.0004115030169486,0.0003089245874434
1783206450524065500,3.3560654296875,0.011967117576953,0.0205692522328346,-0.0376835417062044,0.0028918962925672,-0.0012413579970598,-0.0015736725181341
1783206450534002400,3.36600244140625,-0.0005214848571456,0.0250608280310407,-0.0963391442924737,0.0025789747014641,-0.0038009220734238,0.0022370447404682
1783206450543939300,3.375939208984375,0.0031310645673424,0.0287722863022238,-0.0318517668128013,-0.0027123475447297,0.0034835627302527,0.0004568598233163
1783206450553876500,3.38587646484375,-0.0032561887843534,0.0194257447535172,-0.0252642051160335,-0.0040497863665223,4.70196828246e-05,-0.0002784389071166
1783206450563812600,3.3958125,-0.0050055166697129,0.0187829168053343,-0.0466553681910038,0.0003241756930947,0.0011401693336665,-0.0023304703645408
1783206450573749200,3.405749267578125,0.0006824475725181,0.0170605317258276,-0.0418733946114778,0.0002253726124763,0.0010589431039988,-0.0012763910926878
1783206450583686400,3.415686279296875,0.0019453436478041,0.027990524807386,-0.0508498972713947,-0.0020073363557457,0.0009735249914228,-0.002256775740534
1783206450593623300,3.425623291015625,0.0062312225397676,0.0237573807496577,-0.0448649776428937,-0.0029221316799521,0.0024798091035336,-0.0014546315651386
1783206450603560400,3.435560546875,0.0069701312735676,0.0223235850868746,-0.0414162984937429,0.0005602594465017,-0.001326261088252,-0.0015298111829906
1783206450613496300,3.445496337890625,0.0110666616058908,0.0057249900506809,-0.0602647913485765,0.0015325797721743,0.0002609826624393,0.0005029796157032
1783206450623433500,3.45543359375,0.0016496486368589,0.0133780803534202,-0.0607137041598558,0.0008662864565849,-0.0010930970311164,0.000145842321217
1783206450633370400,3.465370361328125,-0.0081488013978116,0.0227300652622245,-0.0484387444764375,-0.0009278850629925,-0.0007548755966126,0.0001439780462533
1783206450643307500,3.4753076171875,-0.0165428827935829,0.0322547763894312,-0.0482838461756706,-0.0044688638299703,0.0004137712530791,-0.0017437548376619
1783206450653244400,3.485244384765625,-0.0156902480196207,0.0223639536298811,-0.0484293921262025,-0.000273585319519,-0.0018576388247311,0.001109556062147
1783206450663180300,3.49518017578125,-0.0175562610872089,0.0126331985365599,-0.0448451038986444,0.0012261485680937,0.000425161793828,0.0002916438970714
1783206450673117400,3.505117431640625,-0.0116589466769248,0.0120742677458561,-0.0454424852699041,-0.0001634890213608,-0.0010491642169654,-0.0004828032106161
1783206450683054300,3.515054443359375,-0.0045368579783476,0.023735296782013,-0.0423018491566181,-0.0001477012410759,0.0011632423847913,-0.0006202296353876
1783206450692991500,3.524991455078125,0.0051177448725327,0.0245243100015446,-0.0512789363384246,-0.0019746301695704,0.0002910573966801,0.0017601039726287
1783206450702928400,3.534928466796875,0.003780431854166,0.0280147276668809,-0.0472398900806903,0.0001597944647073,0.0017142621800303,-0.0016870875842869
1783206450712864500,3.544864501953125,0.0059116717291995,0.0241350184230133,-0.0382657255083322,0.0008479552343487,0.0008913450874388,0.000494573963806
1783206450722801400,3.554801513671875,0.0052467050144448,0.0157892514146864,-0.0385679233253002,0.0006324602290987,-0.0018926211632788,0.001367470016703
1783206450732738600,3.564738525390625,-4.42957994528e-05,0.010338255999796,-0.0420002358615398,0.0015336740761995,-0.0013663806021213,-0.0002946087624877
1783206450742675200,3.57467529296875,-0.0052053500907495,0.0184389439395628,-0.0493307248800992,0.0002843858674168,-0.0026286756619811,0.0003047422505915
1783206450752612400,3.5846123046875,-0.0006691862321458,0.0112342915240675,-0.0409445893287658,-0.0008141687139868,-0.0017053578048944,-0.0007251021452248
1783206450762548500,3.594548583984375,-7.06906160339e-05,0.0364441543706692,-0.041839492341876,-0.0010983385145664,-0.0007292167283594,-0.0009246165864169
1783206450772485400,3.6044853515625,0.0010295622434467,0.0310394823155365,-0.0413841497898101,-0.00237319432199,-0.0025279154069721,-0.0009738851804286
1783206450782422300,3.61442236328125,-0.0005923946688883,0.0143650090315379,-0.0431722022503614,0.0026586623862385,-0.0039440207183361,-0.0026145337615162
1783206450792359400,3.624359375,7.16587304137e-05,0.0146848703693598,-0.0561895047336816,-0.0009227562695741,0.0005242312327027,0.0003330528270453
1783206450802296300,3.63429638671875,0.0057297575573436,0.0162414156289771,-0.0455634813010692,0.0003909533843398,-0.0019933395087718,-0.0037043918855488
1783206450812232400,3.644232421875,0.0114504184927791,0.0031633594017475,-0.0448170468479394,0.002299640327692,0.0024203173816204,0.0012565446086227
1783206450822169300,3.65416943359375,0.0107677699908614,0.0050802624063566,-0.0537970566391944,-0.0008344585075974,-0.0009539360180497,-0.0013216878287494
1783206450832106200,3.664106201171875,0.0061824697609059,0.0127398007161915,-0.0449672689735889,-0.0009636217728257,-0.0022447700612246,0.0015782283153384
1783206450842043400,3.67404345703125,0.0103492340515367,0.0150759520461782,-0.0365863941192626,0.0011623399332165,-0.0005797105841338,0.0008655530400574
1783206450851980500,3.68398046875,0.0015182956084609,0.0041483883837237,-0.0367272638946771,-0.0007103942334651,-0.0003922241739928,0.0011497125960886
1783206450861916400,3.69391650390625,0.0087410499362275,0.0144120265110395,-0.0445049121588468,0.0019385917112231,-0.0031438856385648,0.0010155695490539
1783206450871853300,3.703853271484375,0.0051693289292976,0.007005257385876,-0.0440624290883541,0.0005590738728642,-0.0018655681051313,0.0009226254187524
1783206450881790500,3.71379052734375,0.007087072184123,0.0147547024688683,-0.0494447066485881,0.0007511274889111,-0.000683176331222,0.0019847352523356
1783206450891727400,3.723727294921875,0.0080641370553523,0.0117280663903802,-0.0485480500698089,-0.000748498365283,0.0005288287065923,0.0009543581400066
1783206450901664500,3.73366455078125,0.005950304972846,-0.0013585019368678,-0.0332832609206438,-0.0013743601739406,-0.0003077508881688,-0.0027454029768705
1783206450911600400,3.743600341796875,0.0039330285999923,0.0040744463646784,-0.0380710797190666,-0.0004952512681484,0.0011884132400155,0.0019071393180638
1783206450921537300,3.753537353515625,-0.0024360132415778,0.004142597963754,-0.0442015452980995,-0.0011533768847584,-0.0024948213249444,0.0013149322476238
1783206450931474400,3.763474365234375,-0.0007478774915449,0.0099108791668899,-0.0437491253554821,0.0011515887454152,-0.0006188903935253,0.0004592586774379
1783206450941411600,3.77341162109375,-0.0029863588670268,0.0144570164302363,-0.0380693261533975,-0.000317633152008,0.0004979455843567,0.0001204770524054
1783206450951348200,3.78334814453125,-0.003800159467943,0.005260276882071,-0.0319295082241296,-2.92127951979e-05,-0.0026464485563337,-0.0007967154961079
1783206450961284400,3.793284423828125,0.0039042408969253,0.0078116601316258,-0.0497299533307552,-0.0014005554839968,-0.0026641897857189,0.0013137755449861
1783206450971221500,3.803221435546875,-0.00213246371774,0.0195361097928136,-0.0452349799990653,-0.0012008184567093,3.73208895325e-05,0.0006202880758792
1783206450981158400,3.813158447265625,-0.0073701451755128,0.0281380435192957,-0.0402946009874343,-0.0012600440531969,8.38497653603e-05,0.0011642647441476
1783206450991095300,3.82309521484375,-0.0172217136369086,0.0347702846080064,-0.0495727169424295,-0.0020933467894792,-0.0014740992337465,0.0008827687706798
1783206451001032400,3.833032470703125,-0.0201398478396236,0.0367854786216281,-0.0452285502582788,0.0009066024795174,0.0008104238659143,0.0022453195415437
1783206451010968300,3.84296826171875,-0.0182698527166619,0.0437685789746232,-0.0507750784695148,-0.0010982248932123,0.002217904664576,0.0002021421678364
1783206451020905500,3.852905517578125,-0.0174087606416083,0.0349705016215331,-0.0512257448464632,-0.0006586899980902,0.0001707165502011,0.0008149778004735
1783206451030842400,3.86284228515625,-0.0099819899080321,0.033296503994707,-0.0555617282241582,0.0001897932961583,-0.0024809925816953,-0.001112351892516
1783206451040779300,3.872779296875,-0.0048568106477148,0.0265644557933323,-0.0488221908360719,-0.0037993937730789,-0.0009184293448925,0.0006251209415495
1783206451050716400,3.88271630859375,-0.0057406808101572,0.0195080710084177,-0.0428355176419019,0.000206533819437,-0.0023237797431647,-0.000893413554877
1783206451060652500,3.892652587890625,-0.010298051853571,0.0164975275482051,-0.0474713607490062,-0.0010987427085638,0.0002963007427752,0.0019002321641892
1783206451070589200,3.902589111328125,-0.0043327319746837,0.0133587728647515,-0.0471685784101486,-9.28668305277e-05,0.0008784681558609,0.0018517624121159
1783206451080526300,3.9125263671875,-0.0086038699552416,0.0191736148896627,-0.0473152934044599,-0.0010027503594756,0.0024340462405234,0.0011101474519819
1783206451090463500,3.92246337890625,-0.0132520062883384,0.0284346335793845,-0.0368453373163938,0.0019781254231929,0.0023725272621959,0.0003556739538908
1783206451100400400,3.932400390625,-0.010089761131443,0.0394195351859554,-0.049116789868474,-0.0021924562752246,-0.0008550430648028,0.0002169217914342
1783206451110336300,3.942336181640625,1.12885789945e-05,0.0323076025552116,-0.052249827197194,-0.0019857948645949,-0.0014593144878745,0.0032183043658733
1783206451120273400,3.9522734375,0.0102292061347514,0.0317893508347682,-0.0438666142553091,0.0007805684581398,-0.0009333565831184,-0.0004266288597136
1783206451130210300,3.962210205078125,0.0166637509605847,0.0390250194430351,-0.0389209745466709,0.0014689955860376,-0.001440156251192,-0.002569142030552
1783206451140147500,3.9721474609375,0.0288337889648042,0.0233500237914733,-0.0432557888805866,8.93156975507e-05,-0.0021005528979003,-8.06858297437e-05
1783206451150084600,3.982084716796875,0.0279492246826179,0.0189717173757031,-0.0489355880826711,-0.0004651546478271,-0.000442468561232,0.0004242493305355
1783206451160020200,3.992020263671875,0.0155931808533146,0.0105253578034229,-0.0397995109468698,-0.0011780960485339,-0.0013591856695711,-0.0015670919092372
1783206451169957400,4.001957275390625,0.0183767106246203,0.0057861456533893,-0.042641456374526,-6.72917813062e-05,0.0032733830157667,-0.0005724013317376
1783206451179894500,4.01189453125,0.0201477388851344,0.0066459408205002,-0.04024667019248,-0.0028035389259457,-8.654454723e-05,0.0010954986792057
1783206451189831400,4.02183154296875,0.0156348280379548,0.0012811075854115,-0.0456260251432657,-0.0022442759945988,0.0008066799491643,0.0019620915409177
1783206451199768300,4.031768310546875,0.0185173612043261,0.0148194930670782,-0.0436684613347053,0.0006170133128762,-0.0017130430787801,-0.0004200772382318
1783206451209704400,4.041704345703125,0.0128208848620764,0.0273219413634389,-0.0438204370260238,0.0001147417351603,0.00046595511958,-0.0014198280405253
1783206451219641300,4.051641357421875,0.0067522324728779,0.037355551860854,-0.0562386045724153,0.0005142940208315,-0.0002697515301406,-0.0007605429273098
1783206451229578500,4.06157861328125,0.0128397539593279,0.0361887000385671,-0.0551893877804279,-0.0017384737730026,-0.0033070868812501,0.0012187182437628
1783206451239516000,4.071515869140625,0.0129208563715219,0.0187524303355254,-0.0553296730339527,-0.0003425814211368,-0.0034042932093143,-0.0023017670027911
1783206451249452800,4.081452880859375,0.008701740839146,-0.0026097989059053,-0.0441039301425218,-0.0009359344840049,-0.0019078627228736,-0.0009470169898122
1783206451259390000,4.091389892578125,-0.0010881970955058,0.0054220433150418,-0.0458954897344112,0.0009526684880256,-0.0014030556194484,0.0031361891888082
1783206451269325800,4.101325927734375,-0.0021569405718706,0.0179697189926169,-0.0460498035132884,-0.0005741221830248,0.0009961863979697,0.0003238909412175
1783206451279262700,4.1112626953125,-0.0012433693909086,0.0261095881653018,-0.0484451742172241,-0.0007928274571895,0.0018923948518931,0.000939801800996
1783206451289199900,4.121199951171875,-0.0088394505430944,0.0319641411460936,-0.0456014752238988,-0.0002439497038722,-4.66522760689e-05,-0.0027252407744526
1783206451299136800,4.13113671875,0.0022888415895402,0.0248188542350195,-0.0452975238412618,-0.0004751691594719,-0.0016513331793248,-0.0004372433759272
1783206451309073700,4.14107373046875,0.0051613282859325,0.0176876871808432,-0.0419967287302017,-0.0004488034173846,-0.0016710408963263,-0.000360810663551
1783206451319009800,4.151009765625,0.0179809345063753,0.0115902105559594,-0.0488736287623643,0.0008188560605049,0.000110984314233,0.0014944951981306
1783206451328947000,4.160947021484375,-0.0001025105264037,0.0108936796591617,-0.0506657728761434,-0.0005998099222779,-0.0026381965726614,0.000296871876344
1783206451338883800,4.1708837890625,-0.004011920788791,0.0154092208548448,-0.0460147321999073,-0.0036801379173994,-0.0032897032797336,0.0010476135648787
1783206451348820700,4.18082080078125,-0.0078969089959748,0.0179997488046996,-0.0394184026747942,-0.0013874229043722,-0.0023125894367694,0.0013829059898853
1783206451358757600,4.190757568359375,-0.0149010704033076,0.0122260790403932,-0.045849312505126,-3.2958574593e-05,0.002097058109939,-0.0032835402525961
1783206451368693800,4.20069384765625,-0.0076019811700098,0.0125803175718523,-0.0436029948830604,-0.0039483373984694,0.0003313822671771,-0.0011016123462468
1783206451378631000,4.210630859375,-0.0050014067501761,0.0182232553622685,-0.0639461102098226,0.0009461045265197,-0.0011992664076387,0.003235074924305
1783206451388567800,4.22056787109375,-0.0077955127144232,0.0213077591078355,-0.0443406615078449,-0.0009444737806916,-0.0002330713905394,0.0008872321341186
1783206451398504700,4.230504638671875,0.0107371921895071,0.0142983918024227,-0.0419435372382402,-0.0003504650667309,-0.0010995385237038,-0.0001555576454848
1783206451408441900,4.24044189453125,0.0109195447527803,0.0078816566279158,-0.0503226585268974,-0.0006050625815987,0.001424073241651,-0.0017358774784952
1783206451418378800,4.250378662109375,0.0032961737348698,0.0071666219600476,-0.0476250900059938,-0.0001011341810226,-0.0020882384851574,0.0020649810321629
1783206451428314600,4.260314697265625,-0.0046261619633063,0.0081596698516979,-0.0524029719322919,-0.0032098414376378,5.13447448611e-05,0.0005461804103106
1783206451438251800,4.270251708984375,0.0083367617179639,0.0094530706631019,-0.0495598574608564,-0.0007915198802947,-0.0001241872087121,-0.0004745654296129
1783206451448188700,4.280188720703125,0.0032059199018403,0.0144911744281649,-0.0485077180594205,-0.0009723482653498,0.0022798483259975,-0.0007251687347888
1783206451458125800,4.290125732421875,-0.0034982539119198,0.0202452627091668,-0.0437298361331224,-0.0008439384400844,0.0031195434276014,0.0019671502523124
1783206451468063000,4.30006298828125,0.0039074740336276,0.0189238048470579,-0.0431342083275318,-0.0029105506837368,0.0015791710466146,-0.0017000223742797
1783206451477998800,4.309998779296875,0.0049246334532275,0.0190286717273294,-0.0473147088825702,-0.004842466674745,-0.0026035429909825,-0.0005768330302089
1783206451487935700,4.319935791015625,0.0057836249027401,0.0148372661857865,-0.0504489152550697,-9.64468345046e-05,0.0008298042230308,0.0020506414584815
1783206451497873000,4.329872802734375,0.0160357369890436,0.0011119250309653,-0.0491056839525699,-0.0023098783567547,-0.0001535955816507,0.0015938323922455
1783206451507809800,4.339809814453125,0.013158281856589,0.0111120351175777,-0.0465624292105436,-0.0001737577840685,-8.75489786267e-05,-0.0011979592964053
1783206451517746700,4.34974658203125,6.6197104007e-05,0.0184650647615082,-0.0425204603433609,0.0012997696176171,-0.0015225582756102,0.002459759125486
1783206451527682800,4.359682861328125,-0.0030660365071147,0.0252686620954424,-0.0489566308706998,0.0001982860267162,-0.0007944498211145,0.0020214028190821
1783206451537619700,4.36961962890625,0.0100248061364516,0.0201386422632262,-0.0480599742919206,0.0023670764639973,-0.0009038127027451,0.0010468407999724
1783206451547556900,4.379556884765625,0.0108908483812585,0.0050284591538831,-0.0464104535192251,-0.0016146153211593,-0.0015749293379485,0.0022045166697353
1783206451557493800,4.38949365234375,0.010029445778951,0.0111504308992065,-0.0477513467341661,-0.0020982716232538,-0.0029711420647799,-6.8987719714e-06
1783206451567430700,4.3994306640625,0.00234630739782,0.0169465316910296,-0.0537321747094392,0.0006021736189723,-0.0005303551442921,0.0021009934134781
1783206451577367800,4.409367919921875,-0.0078189301226288,0.0183999636360444,-0.0471469511002302,-0.0006611291319131,0.0017518773674964,0.0020693074911832
1783206451587304000,4.419303955078125,-0.0038819377335719,0.0203649252997711,-0.0474409656107425,-0.0016235951334238,-0.0014689494855701,-0.0016255620867013
1783206451597240600,4.429240478515625,-0.0019327216282486,0.0218195080222561,-0.0430956298828125,0.0002808216959238,0.0006987084634602,0.0009333624038845
1783206451607177700,4.439177734375,-0.0055065615270286,0.0271260534651577,-0.0504290415108203,0.001318123191595,0.001945334021002,0.0022803891915827
1783206451617115000,4.449114990234375,-0.0015591208091937,0.018374902260024,-0.0472872363537549,-0.002706485800445,-0.002564966212958,0.0004636119119822
1783206451627051800,4.4590517578125,0.005256806283351,0.0064048986062407,-0.0421972197383642,-0.0008079186081886,0.0042191697284579,-0.0011814227327704
1783206451636987600,4.468987548828125,0.0087473700791597,0.00366118938867,-0.0502794039070606,0.0006125727668404,0.0011000214144587,-0.0005006233695894
1783206451646924800,4.4789248046875,0.0125753856684081,0.0125302313524298,-0.0535743537992238,0.0006647706031799,0.0015173386782407,0.0001356056891381
1783206451656861700,4.48886181640625,6.07537439092e-05,0.0229807338213548,-0.0474368739575147,0.0011025937274098,-0.0026070964522659,0.00100758834742
1783206451666798800,4.498798828125,-0.0019344021286815,0.0248916089439764,-0.0480360088944435,-0.0008684117347002,-0.0005271672271192,-0.0019573087338358
1783206451676736000,4.508736083984375,0.0013624657259322,0.0135335997086949,-0.0511783985733985,-0.0015347637236118,0.0007722279988229,-0.0001058534253388
1783206451686672600,4.518672607421875,-0.0012540186490863,0.0216876618035137,-0.044590252354741,-0.0024460982531309,-0.0023050550371408,-0.0008488753810524
1783206451696608800,4.52860888671875,0.0041810120116919,0.0122952718190848,-0.0477320575118064,9.14176926016e-05,0.0010473555885255,-0.0002596033737063
1783206451706546000,4.5385458984375,0.0095277433345094,0.014111363064032,-0.0585077185481786,0.000518855638802,-0.0004093935713171,-0.001593847060576
1783206451716482800,4.54848291015625,0.0040837073833681,0.0237743501507677,-0.0375584540218114,-0.0002176510170102,-7.69370235502e-05,-0.0001323341857641
1783206451726419700,4.558419677734375,0.0040993433439172,0.0169095241488888,-0.0372545026391744,-0.0027844058349728,0.0026975439395755,0.0016269499901682
1783206451736356600,4.568356689453125,0.0030999570430256,0.0181801651392132,-0.0445879142671823,0.0015112413093447,0.0001169526949524,-0.0017327901441603
1783206451746292700,4.578292724609375,-0.0104205639883875,0.0242817699499428,-0.0486240379154682,0.0003090901300311,-0.0001174053177237,-0.0010502219665795
1783206451756230000,4.58822998046875,-0.0040617695461958,0.0155174852686002,-0.0462251600801944,-0.0037381136789917,-0.0002368339337408,0.0020389519631862
1783206451766166800,4.598166748046875,0.0066555123664438,0.0098468922862783,-0.042622751674056,-0.0023420853540301,-0.0014184787869453,-0.000223669456318
1783206451776103700,4.608103759765625,0.019650603017956,0.0093916227994486,-0.0462099625110626,-0.0019038813188672,-0.0004237154498696,0.0002404823899269
1783206451786040800,4.618040771484375,0.008589110777527,0.0083651658285409,-0.0593733954668045,-0.0007520634680986,-0.000418122857809,-0.0006868303753435
1783206451795977700,4.627977783203125,0.005249170966167,0.0331889337006956,-0.0472492424309253,0.0005021225661039,0.0007912945002317,0.0010212848428636
1783206451805913600,4.63791357421875,0.0096065989906899,0.0333898996328935,-0.0348304903626441,-0.0028071207925677,0.0004629269242286,-0.000492988852784
1783206451815850800,4.647850830078125,0.0067739511143416,0.0228770542511716,-0.0488905798971653,-0.001259570941329,0.0026544730644673,-0.0009645335376262
1783206451825788000,4.657787841796875,0.0016011515863239,0.0147623925849795,-0.0451513933688402,-0.000902441330254,-0.0027517438866198,0.0034315465018153
1783206451835724800,4.667724853515625,-0.0039048071525059,0.016474968656525,-0.0476958171546459,-0.0007462706416845,0.0008570915088057,0.0020411482546478
1783206451845662000,4.677661865234375,-0.0079657547147944,0.0263290213359519,-0.0472469043433666,0.0011184746399521,0.0005755955353379,0.0012752229813486
1783206451855597800,4.687597900390625,-0.0171153306529857,0.0209602791107259,-0.0451531469345092,0.0010252241045236,0.0012456001713871,-0.0015352532500401
1783206451865534700,4.69753466796875,-0.0063025342103093,0.0049810763482004,-0.0345335532426834,4.46485355496e-05,-0.0018055834807455,0.0014770480338484
1783206451875472000,4.707471923828125,-0.0035656200597062,-0.0152521305969916,-0.0376736048340797,-0.0008832570165395,-0.000911951996386,0.0027732150629162
1783206451885408800,4.71740869140625,0.0050432000652886,-0.0030442813330329,-0.0388707056641578,0.0010922765359282,0.0003341413103044,0.0004631888587027
1783206451895345700,4.727345703125,0.000808576436527,0.0115662999574095,-0.045754035437107,-0.0009618494659662,0.0001989738084375,0.0001640203408896
1783206451905282800,4.73728271484375,0.0012773629920557,0.0287924340411089,-0.0583235941529273,0.0003723949193954,-0.0005187485367059,0.0003978458698838
1783206451915219000,4.747218994140625,0.0061659752838313,0.0374306994562968,-0.0556213494569063,-0.0039941081777215,-9.79076139628e-05,0.000967534026131
1783206451925155800,4.75715576171875,0.0058874323370866,0.0330145087155513,-0.0467851320505142,-0.0010364009067416,-0.0024422886781394,0.0009960297029465
1783206451935092700,4.7670927734375,0.0104555622365325,0.0305265095584094,-0.0388449867010116,0.0012677321210503,-0.0007089367136359,-0.000832999125123
1783206451945029600,4.777029541015625,0.0108749201597645,0.0200814504495821,-0.0530623126238584,0.0011827768757939,0.0009858990088105,-0.0012114343699067
1783206451954966800,4.786966796875,-0.0126079727637581,0.00110315720262,-0.0511129321217536,-0.001587999984622,-0.0012247092090547,0.0007945722900331
1783206451964904000,4.796904052734375,-0.0066574485952034,0.0203436085171066,-0.0403337639540433,-0.0019928002730011,0.0006421664729714,-8.4270723164e-05
1783206451974839800,4.80683984375,-0.0097456238688901,0.0067620780134573,-0.0449766213238239,-0.001428285613656,0.0008539785631,0.0011895231436938
1783206451984776700,4.816776611328125,-0.011555394970905,0.0140396495346911,-0.0346457814455032,-0.0010088374838232,-0.0008762772195041,0.0001618093810975
1783206451994713900,4.8267138671875,-0.0013128726968541,0.0165721819533035,-0.04227963732481,0.0019212681800127,-0.0003139311447739,-0.0007877345196902
1783206452004650800,4.836650634765625,-0.0046284269856289,0.0204355428505688,-0.0551484712481498,-0.0004159221425652,-0.001091840211302,-0.0005160921718925
1783206452014588000,4.846587890625,0.0048483168140053,0.0283970597816631,-0.0484141945570707,0.0008033392950892,-0.0004172585904598,0.0010873277205973
1783206452024523800,4.856523681640625,0.0035307862083427,0.0262589700407348,-0.0530506221860647,0.0016363756731152,0.0017753220163285,0.0011176879052072
1783206452034460700,4.866460693359375,0.0031863384185358,0.0257524818233214,-0.0588864887326955,-0.0006217071786522,0.0015337490476667,0.0011170648504048
1783206452044397800,4.876397705078125,-0.0006723463036119,0.0175595490228384,-0.0476636684507131,0.0004267795011401,0.0008109672926366,0.0015644759405404
1783206452054335000,4.8863349609375,-0.0019285021108575,0.0171022519757039,-0.0394347692877054,-0.0005767624825239,0.0012400285340845,-5.37694431841e-05
1783206452064271600,4.896271728515625,0.005494213502109,0.0110803978702984,-0.0460199928969144,-0.0005948720499873,0.000116707291454,0.0010834003333002
1783206452074208800,4.906208740234375,0.006342957552243,0.0107717155136168,-0.061882747939229,-0.0006771795451641,0.0008519198745489,0.0012593164574354
1783206452084145000,4.916144775390625,0.0004019501307047,0.0215169814117252,-0.0434796607643365,0.0005707778036594,-0.0008564977906644,0.0011860795784741
1783206452094081800,4.926081787109375,0.008199198144488,0.0192688736913725,-0.0439279890537261,-0.0006419261917471,0.0022261384874582,-0.0004105339758098
1783206452104018700,4.936018798828125,0.0097456421351991,0.0214120962651446,-0.0437783514499664,-0.0006879987195134,-0.0006399555131793,0.001375381834805
1783206452113955800,4.945955810546875,0.0103750991451553,0.0081512856158427,-0.05065349791646,-0.0012731133028864,-0.0025526266545057,0.000714749796316
1783206452123892700,4.955892822265625,0.0151922901685349,0.0091939813354983,-0.0467617511749267,0.0001407591626048,0.0001970869489014,0.0004636135417968
1783206452133828900,4.965828857421875,0.0087310217325575,0.0093108857134357,-0.0503530536651611,9.9204480648e-05,0.0023393635638058,7.72608909755e-05
1783206452143765800,4.975765869140625,0.0050966107529588,0.0137426576158031,-0.0511006571620702,0.0005391584709286,-0.0018729586154222,0.0013606382999569
1783206452153702700,4.98570263671875,0.0043216808577068,0.0216979092028923,-0.0419651645481586,-0.0016353325918316,0.0008995882235467,0.0008152178488671
1783206452163639800,4.995639892578125,0.0081202328904531,0.0002244198730215,-0.0516881016612052,0.0002712244167923,0.0003126272931694,0.000206951983273
1783206452173576700,5.00557666015625,0.008179433998093,0.0067855136879719,-0.0433013815879821,-0.0023096725344657,0.0001850058324635,-0.0024197320453822
1783206452183513900,5.015513916015625,-0.0008918160068802,0.0108245051467791,-0.0443424150735139,-0.0025128722190856,-0.0015175533480942,0.0022570451255887
1783206452193449700,5.02544970703125,0.0067462411235086,0.0199508463398553,-0.0437391884833574,0.0002030935138463,0.0008663893677294,0.0009659361094236
1783206452203387000,5.035386962890625,-0.0141282046009786,0.0347385012302547,-0.0518254643052816,0.0007165512070059,0.0034174313768744,-0.0001344820484519
1783206452213323800,5.04532373046875,-0.0093195804765447,0.0289533784901723,-0.0407487744957208,-0.0012399991974234,-0.000560468994081,0.0029143132269382
1783206452223261000,5.055260986328125,0.0021774901695549,0.0205400626709684,-0.0543657964378595,-0.0013140346854925,0.0043496009893715,0.0003861743025481
1783206452233198300,5.0651982421875,0.0036106465115211,0.0087731803738512,-0.0420990200608968,0.0006970316171646,-0.0001775748096406,0.0011149924248456
1783206452243135500,5.075135498046875,-0.0033399580776691,0.0202993492502719,-0.04405132317245,0.0030462061986327,0.0015494851395487,-0.0003050048835575
1783206452253071600,5.085071533203125,-0.0044757571745663,0.0218168228748254,-0.0555763412714004,-0.000211956910789,0.0007795640267431,-0.0016545365797355
1783206452263008300,5.09500830078125,-0.0024025128307752,0.0367347165487706,-0.0462935491412878,-0.0013240929692983,-0.00245351344347,0.0006557556334882
1783206452272945400,5.1049453125,-0.0058028045272454,0.0319662052390165,-0.0450917721360921,-0.0022514127194881,-0.0012882957234978,-0.0002202442847192
1783206452282882600,5.114882568359375,-0.0019920688663609,0.0215376771398819,-0.0389554613381624,0.0010636895895004,0.0001799049787223,0.0002223730552941
1783206452292819500,5.1248193359375,-0.001897485918086,0.0197361441432498,-0.0371615636587142,0.0010195262730121,-0.0024498174898326,-0.0027208789251744
1783206452302756400,5.13475634765625,0.0105550222893245,0.0094769812616519,-0.0524251837641,0.0016259280964732,0.0004900456406176,0.0012616119347512
1783206452312692500,5.1446923828125,0.0073484265340492,0.0174884930806234,-0.0482400070339441,-0.0001211045309901,-0.0007047792896628,-0.0012470970395952
1783206452322629400,5.15462939453125,-0.0046130467534065,0.0179229207088239,-0.0459948584556579,0.0014344481751322,5.7523138821e-06,-0.0003179202321916
1783206452332566500,5.16456640625,-0.0056041584162972,0.0145890087794512,-0.0470434907257556,0.0010430589318275,-0.0010470682755112,0.0004302375018596
1783206452342503400,5.17450341796875,7.79606070369e-05,0.015419322123751,-0.0454003996938467,0.0001128166913986,-0.0004454599693417,0.0003490110393613
1783206452352440300,5.1844404296875,0.0093341569911688,0.0078117149305529,-0.0449438880980014,-0.0031395098194479,-0.0035359715111553,0.0011425712145864
1783206452362377500,5.19437744140625,0.0066107599092647,0.0097061869076453,-0.0537672460228204,-0.0007120380178093,-0.0019838814623653,-0.0011815694160759
1783206452372313600,5.204313720703125,0.0126164848637767,0.0152279277374967,-0.0408925668805837,0.0016013970598578,0.0001989989541471,0.00128034199588
1783206452382250500,5.21425048828125,0.0067070050916634,0.0211732277416624,-0.0340104061514139,-0.0004915809258818,-6.27897679805e-05,-0.0007287468761205
1783206452392187400,5.2241875,0.011914784601517,0.0188158144279383,-0.0473304909735918,9.48514789342e-05,0.0013820123858749,0.0002468570601195
1783206452402124300,5.234124267578125,0.0013422631881199,0.0087188929033465,-0.0404477457225322,-0.0016993200406432,-0.001414040569216,0.0007539230864495
1783206452412061400,5.2440615234375,-0.0036609153940342,0.0136544313430786,-0.0510696775019168,0.000998587347567,-0.0006678607314825,0.0016193739138543
1783206452421998600,5.25399853515625,0.0045276517585851,0.0102046562153846,-0.053314826080203,-0.0011042449623346,0.0016552149318158,-0.0005260687321424
1783206452431934500,5.2639345703125,0.0032325887130573,0.0112409039279446,-0.0474818821430206,0.0042390450835227,0.0026007189881056,-0.0002611705567687
1783206452441871400,5.273871337890625,0.0016385609872639,0.01695809426466,-0.0452455013930797,0.0008421828970313,-0.0018211933784186,-0.001748546026647
1783206452451808500,5.28380859375,0.0050665078756399,0.0205495428853668,-0.0431464832872152,0.0023600459098815,-0.0035901353694498,0.0012056336272507
1783206452461745400,5.293745361328125,0.0078773823115974,0.0121464561992324,-0.0361094242572784,0.0001224586740136,-0.0003546606749296,0.0001739249564707
1783206452471682300,5.303682373046875,0.006202270439919,0.0237294332968071,-0.0512251603245735,-3.59257683157e-05,0.0020637139678001,0.0005265590734779
1783206452481619500,5.313619384765625,0.0054715815451927,0.0232302881356328,-0.0394067122370004,-0.0016631167382001,0.0032735881395637,0.0010658490937203
1783206452491555300,5.323555419921875,-0.0085153148889541,0.020672639542073,-0.0449491487950086,0.0006725927814841,0.002517114393413,0.0001795999705791
1783206452501492500,5.333492431640625,-0.0085335629316978,0.0189683746411465,-0.0447983421474695,-0.0014006784185767,0.0011719516478478,-0.0019855499267578
1783206452511429400,5.343429443359375,-9.34504371136e-05,0.0161174239231273,-0.0456990903794765,1.92569568753e-05,-8.231960237e-06,-0.0006727867294102
1783206452521366300,5.3533662109375,0.0007193820494227,0.0141423975231125,-0.040009938827157,0.0023971935734152,0.0015880670398473,0.002843118738383
1783206452531303400,5.363303466796875,-0.0041949857381172,0.0214910615191794,-0.0557213027000427,0.001321799121797,0.0021019708365201,0.000320152612403
1783206452541240600,5.373240478515625,0.0065466268981806,0.0236717300265096,-0.0494400304734706,0.0007135337218642,-0.0009657246991991,0.0007505195681005
1783206452551176200,5.38317626953125,-0.0001886727062053,0.0230056125342845,-0.0483954898566007,-0.0014914823696017,0.0014798892661929,-0.0013556908816099
1783206452561113300,5.39311328125,0.0067244128841906,0.0136865983133204,-0.05123159006536,0.0007844548672437,-0.0004200097173452,-0.0005511499475687
1783206452571050500,5.403050537109375,0.0004763305411674,0.0081749952849932,-0.0382131185382604,0.0003078086301684,5.51473349332e-05,0.0003790287300944
1783206452580987400,5.4129873046875,0.0025103936520405,0.015193020820897,-0.0413520010858774,-0.0014679869636893,-0.0016103936359286,0.0021777278743684
1783206452590924500,5.422924560546875,0.0120382100517861,0.0274953251689672,-0.0361129313886165,0.0016050292178988,0.0032450351864099,0.0009970860555768
1783206452600861200,5.432861083984375,0.0056159219193272,0.0155944777612574,-0.0441992072105407,0.0010100789368152,0.0018077273853123,0.0004572633188217
1783206452610797300,5.44279736328125,0.0029580278216861,0.0230106723018921,-0.0455430230349302,-9.62577760219e-05,0.0010697892867028,0.0007917273323982
1783206452620734500,5.452734375,0.0021138138161972,0.0155861665906384,-0.0410538949221372,0.0034625241532921,-0.0003571324050426,-0.0014538499526679
1783206452630671600,5.462671630859375,0.0082666738901287,0.0175988215873017,-0.041205286091566,-0.0022457828745245,-0.0007023764774203,0.0008903094567358
1783206452640608300,5.472608154296875,-0.0044147659686394,0.0286024096280336,-0.0477905097007751,-0.0002116598188877,0.0001144148409366,-0.0007400775793939
1783206452650545400,5.48254541015625,-0.0045642026429995,0.0243380667144432,-0.0440519076943397,-0.0007689595222473,-0.0006506079807877,-0.0017512753838673
1783206452660482300,5.492482421875,0.0050475657131522,0.0123737438827753,-0.0429991837710142,-0.0031069479882717,-0.0011440920643508,-0.0037246777210384
1783206452670418400,5.50241845703125,0.0004936470021493,0.0161987820636481,-0.0488303741425275,-0.0002117725089192,0.0019799880683422,0.0010449509136378
1783206452680355300,5.512355224609375,0.0013102423483505,0.0194721594448201,-0.0464379260480403,0.0003450941294431,-0.0004408257082104,-0.000589963980019
1783206452690292500,5.52229248046875,-0.0013997107300907,0.025886812260095,-0.0431418071120977,-0.000148044899106,9.63844358921e-05,0.0017388714477419
1783206452700229400,5.5322294921875,-0.0024793043940328,0.0280254682566039,-0.0407493590176105,-0.0001765405759215,0.0026146697346121,-0.0009405352175235
1783206452710166500,5.54216650390625,-0.0005862937216646,0.0176013788705691,-0.0479395627826452,0.0001903381198644,0.0005921805277466,-0.0018403278663754
1783206452720103400,5.552103515625,0.0029618637465871,0.0183422420994378,-0.0461450805813074,0.0018066111952066,0.0018076472915709,-0.0007532255258411
1783206452730039300,5.562039306640625,0.0039526831485331,0.0188136042045429,-0.0512397733718156,0.002246705815196,-0.0001066802069544,-0.0009782637935131
1783206452739976400,5.5719765625,0.0044768531531095,0.0159295914671383,-0.043758477705717,0.0010807737708091,0.0021346365101635,-0.0005244612693786
1783206452749913300,5.581913330078125,-0.0005045337223447,0.0166757336593233,-0.046906712603569,-0.0005616834387183,-8.93580727279e-05,0.0005861509125679
1783206452759850500,5.5918505859375,-0.0052022265519015,0.0129013479534536,-0.0406184261143207,-0.001609637401998,0.0006560604088008,0.0016130658332258
1783206452769787400,5.601787353515625,0.0034677126431837,0.0129582109735347,-0.0397182624042034,-0.000659616664052,0.0019494956359267,-0.0002442791592329
1783206452779724300,5.611724365234375,0.0003038052521646,0.0145115413627587,-0.0500455951511859,0.0013739736750721,-0.0020308648236095,-0.0005625267513096
1783206452789660400,5.621660400390625,0.0053206470334902,0.0167382957678288,-0.0466010076552629,-0.0002731401473283,-0.0004658852703869,0.0013018460012972
1783206452799597600,5.63159765625,-0.0043438196242786,0.0087416344581171,-0.0394143110215663,-0.0024755746126174,0.0006846003234386,0.002775639295578
1783206452809534200,5.6415341796875,-0.0011715462637133,0.0217710657706484,-0.0441974536448717,-0.0014092689380049,-0.0028886352665722,-0.0008504616562277
1783206452819471400,5.651471435546875,0.010570457320474,0.0177275807998143,-0.0479366401731967,0.0010909065604209,0.000101295299828,-0.0007322172168642
1783206452829408500,5.661408447265625,-0.0014133739292621,0.0245701401709578,-0.0453875402122735,0.0012529902160167,0.0017400933429598,0.0008590116631239
1783206452839345400,5.671345458984375,-0.004994118492864,0.0169410152656957,-0.0450923566579818,0.0001981118693947,0.0032868573907762,0.0018739423248916
1783206452849281300,5.68128125,0.0035463856362737,0.0183019648879766,-0.0400093543052673,-0.0013851644471287,-0.0003472371026873,-0.0011335166636854
1783206452859218400,5.691218505859375,0.003093180242367,0.0164496150195598,-0.0564724133282899,-0.0003294870257377,-0.0003014309331774,-0.002145784208551
1783206452869155300,5.7011552734375,0.0041173173920251,0.0177911475553177,-0.0491407552659511,0.0007629869505763,0.0007625664584338,0.0005231746472418
1783206452879092500,5.711092529296875,-0.005156652110815,0.0202703423514962,-0.0383691858828067,0.0001922715455293,-0.0013477224856615,-0.0003324991557747
1783206452889029400,5.721029296875,-0.0041860717792995,0.0133958169395104,-0.0407610494554042,0.0002666590735316,-0.0020548142492771,-0.0004462138749659
1783206452898966300,5.73096630859375,-0.0013041962000541,0.0172268099371343,-0.0501812042295932,-0.0004396112635731,-0.001489957794547,0.0013189290184527
1783206452908902400,5.74090234375,0.0023199856464751,0.0206772609182633,-0.0473369207143783,0.0006653061136603,0.00067107565701,0.0002977002877742
1783206452918839600,5.750839599609375,-0.0005884308798238,0.0248425456378608,-0.041057986575365,-0.0020915977656841,0.0020905407145619,-0.0003398605622351
1783206452928776400,5.7607763671875,-0.0039142143016681,0.0236020805900916,-0.0440507386505603,0.0003406470641493,0.0005791350267827,-0.0006825590971857
1783206452938713300,5.77071337890625,-0.0006774791364558,0.0198929786727763,-0.0462976407945156,0.0009824689477682,-0.000233928207308,-0.0011534059885889
1783206452948650200,5.780650146484375,0.0014964308365248,0.0231934997892007,-0.0440554148256778,-0.0006920583546161,0.0019524157978594,0.0016368357464671
1783206452958587400,5.79058740234375,-0.0018451894752681,0.0170010200909338,-0.0513876574099063,-0.0015320191159844,0.0011113896034657,-0.0006127364467829
1783206452968523500,5.8005234375,-0.0038123248297721,0.011816365728341,-0.0581143353164195,0.0013802917674183,-0.0025769649073481,-0.0003949264064431
1783206452978460400,5.81046044921875,0.0002316167987883,0.0182783282840624,-0.0455459456443786,0.0021832343190908,-0.0005114166997373,0.0014067019801586
1783206452988397300,5.820397216796875,0.0063120509573258,0.0168893216110765,-0.0464437712669372,0.000255131162703,-0.0015544611960649,0.0001376036088913
1783206452998334500,5.83033447265625,0.004534556423407,0.014467282095924,-0.052581835630536,0.0015752604231238,-0.0001368606463074,-0.0014895877102389
1783206453008271400,5.840271240234375,0.0060567427556961,0.0188819202004,-0.0470469978570938,0.0005380380898714,0.0009996159933507,0.0002364185638725
1783206453018208500,5.85020849609375,0.0008901720390655,0.0289780380073934,-0.0445072502464055,-0.0001621069386601,0.0005748416297137,0.0025831961538642
1783206453028144400,5.860144287109375,-0.0008384783844463,0.0208491286201402,-0.0458551577240228,-0.0011123465374112,-0.000371060334146,0.0006633307784795
1783206453038081300,5.870081298828125,-0.0011089110899716,0.0102177348926663,-0.0461579400628805,0.0006677098572254,0.0012550656683743,-0.0011702554766088
1783206453048018400,5.880018310546875,0.0025195450728759,0.0224075187769718,-0.0551373653322458,0.0006073424592614,8.86563211679e-05,-0.0017811399884521
1783206453057955600,5.88995556640625,-0.0008952866056002,0.0159805544693954,-0.041819034075737,-0.0004536611959338,-0.0004903147928416,-0.001280199503526
1783206453067892200,5.899892333984375,-0.0020575170516967,0.0187286476011388,-0.0455605586916208,0.0017327098175883,-0.0006777863018214,-4.07947227358e-05
1783206453077829400,5.909829345703125,0.0071938752931542,0.0228035506235435,-0.0482552046030759,0.0016634678468108,-0.0023995195515453,0.0006050218362361
1783206453087766500,5.9197666015625,-0.0012023249944671,0.0233744641129858,-0.0509440052956342,-0.0005934368818998,-0.0005793664604425,0.0012739710509777
1783206453097702400,5.929702392578125,0.001534991014935,0.0123177028466016,-0.0519908840000629,0.0003309464082121,0.0005346336401998,2.04211100935e-05
1783206453107639300,5.939639404296875,0.0040719804129563,0.0174183687201701,-0.0585842909157276,0.0029774392023682,0.0034451207611709,0.0001348427031189
1783206453117576400,5.949576416015625,0.0009953311802819,0.0257447551745921,-0.0548532876938581,3.11844050884e-05,0.0009348252788186,-0.0017530721379444
1783206453127513300,5.959513427734375,-0.005362166353967,0.0247318152723833,-0.0464724128395318,-0.0003897650167346,-0.0010100565850734,0.0008921532426029
1783206453137450500,5.969450439453125,0.0001078625549562,0.0175201668605208,-0.0416805023878812,0.0003047874197363,-6.41020014882e-05,-0.0011299848556518
1783206453147387400,5.979387451171875,0.0037574711036868,0.0200509457134641,-0.0291086055845022,-0.0008874246850609,-0.0005452372133731,0.0015787547454237
1783206453157323300,5.9893232421875,-0.0033778241363354,0.0214648493656888,-0.0367366162449121,-0.0002040574327111,0.0008151056244969,0.0016229632310569
1783206453167260400,5.999260498046875,-0.0042086854699067,0.0194109673094935,-0.0307499430507421,-9.55741852521e-05,-0.0006800359115004,0.0002373210154473
1783206453177197600,6.009197509765625,0.002045132494159,0.0173922478982247,-0.0316512758046388,2.40020453929e-05,0.0004989453591406,-0.0030719228088855
1783206453187134500,6.019134521484375,0.0069472070557065,0.0237309128678403,-0.0458691862493753,-0.0002562506124377,0.0014600404538214,0.0007567866705358
1783206453197071400,6.0290712890625,-0.0071928341135382,0.0173087891321629,-0.0403355175197124,-0.0013998122885823,0.0012688254937529,-0.0002368385903537
1783206453207008300,6.03900830078125,0.0007750760257244,0.0190883112263865,-0.0361485872238874,0.0006172321736812,-0.0012006489560008,-0.0004767931532114
1783206453216944400,6.0489443359375,0.0090129256801679,0.0230885598436929,-0.0389905326515436,0.0011442713439464,-0.00118307210505,-0.0003194003365933
1783206453226881500,6.058881591796875,0.0052922611892223,0.018829587224964,-0.0439303271412849,5.00194728374e-05,-0.0005910494364798,-0.0002782419323921
1783206453236818200,6.068818115234375,-0.0035988830084912,0.0216603354051709,-0.0466202968776226,-0.0011649150401353,0.0018518683500587,-0.0018796008080244
1783206453246755000,6.078755126953125,0.0055567390779964,0.0269905357182957,-0.0268657950937747,-0.0012745568528771,-0.0001530400477349,-0.0026533086784183
1783206453256692200,6.088692138671875,0.0028267661248333,0.0218920800681225,-0.0160924721449613,0.0001145480200648,-0.0005924617871642,0.0004559319932013
1783206453266628900,6.09862890625,-0.0045650794258341,0.0180654709846712,-0.0333048882305622,-4.57968562841e-05,0.0024002499412745,-0.0016619679518043
1783206453276565000,6.10856494140625,0.0004356332045979,0.0175931407651863,-0.0187871180564165,0.0002362318336963,-0.0017159320414066,-0.0027269660495221
1783206453286502100,6.118502197265625,0.0032666919120587,0.0196785322044976,-0.0198345812827348,0.0003357762470841,0.0005489969626069,-0.0023410914000123
1783206453296439300,6.128439208984375,0.0018989472228102,0.0105468572491779,-0.0219300922572612,0.0010963752865791,0.0013338304124772,0.000791585072875
1783206453306376000,6.1383759765625,-0.0020133125837892,0.0132714416411705,-0.0213332954078912,0.0006349645555019,0.001144666224718,3.82105354219e-05
1783206453316313000,6.14831298828125,-0.0067783898274414,0.0168691556058824,-0.0186392340183258,-0.001090764068067,-0.0012258132919669,-0.0011189328506588
1783206453326250000,6.15825,0.0012155863348394,0.0160449614751152,-0.0310638313055038,-0.000938699580729,0.0002025016583502,0.0001848160754889
1783206453336186000,6.16818603515625,-0.0023919914367608,0.0193033970154821,-0.0286690451234579,0.0012727892026305,-0.0012888684868812,0.0004103858955204
1783206453346123000,6.178123046875,0.002062120161578,0.0060814936044625,-0.0232774152129888,0.000557123683393,-0.0013941247016191,-0.0004559874068945
1783206453356060000,6.188059814453125,-0.0024069880764931,0.0188303361436352,-0.0220849905580282,0.0017118705436587,0.0017944779247045,-9.37976874411e-05
1783206453365997000,6.1979970703125,0.0044887262539938,0.0193872941729612,-0.0187999775379896,-0.0002541868016123,0.0003065015189349,-0.0016799540026113
1783206453375934200,6.207934326171875,0.0064867134044878,0.0200685727017,-0.0164116210967302,0.0015490399673581,0.0028215909842401,0.0017232997342944
1783206453385871000,6.21787109375,0.0006033179217018,0.0184199835107661,-0.0237538005530834,0.000933694653213,0.0015409071929752,-0.0006093252450227
1783206453395807000,6.227806884765625,-0.0093472174021415,0.0279270493834279,-0.0237497088998556,-0.0002327701076865,-0.0014900364913046,-0.0015861726133152
1783206453405744000,6.237744140625,-0.0018810827725566,0.0187936391287483,-0.0325783275216817,0.0009456640109419,0.0013653500936925,0.0023833427112549
1783206453415681000,6.247680908203125,0.0044635552801191,0.0158585720575414,-0.0242032978862524,-0.0003273272886872,-0.0005955351516604,-0.000673966249451
1783206453425618200,6.2576181640625,0.0060758675812743,0.0237485581223852,-0.0087947163522243,-0.0007898434996604,0.0022614211775362,0.0003017811104655
1783206453435555000,6.26755517578125,0.0096836097496561,0.022682061402034,-0.0194230778723955,-0.0003312472254037,0.0032100388780236,-0.0005469683092087
1783206453445492000,6.277491943359375,0.0033969489619135,0.0256673790894448,-0.0110381113648414,-0.0007721725851297,0.0008925907313823,0.0021261374931782
1783206453455428000,6.287427978515625,0.0013432861014269,0.0265805666779167,-0.0140349550932645,0.0006872396916151,0.0012228228151798,-0.0007053352892398
1783206453465365200,6.297365234375,-0.0016614304061979,0.0197511407829821,-0.0132891051620244,0.0021216357126832,0.0012760637328028,-0.0039056572131812
1783206453475302000,6.307302001953125,0.0055492316249758,0.0192174540313892,-0.0098480247974395,0.0014417311176657,-0.002825204282999,0.0008363672532141
1783206453485239000,6.317239013671875,0.0032622714652679,0.0147315590552985,-0.0180704942196607,0.0020365342497825,-0.002455482725054,0.0012356147635728
1783206453495176200,6.32717626953125,0.0037480456882156,0.0204859213309362,-0.0075964464783668,0.0024535851553082,-0.0012405486777424,-0.0001596154179424
1783206453505113000,6.337113037109375,-0.0064950063087977,0.0262969639635644,-0.0022106617867946,-0.0002010194584727,-0.0013796435669064,-0.0018973138649016
1783206453515049000,6.347049072265625,-0.0024531470394693,0.0161412614564411,0.00138005618155,0.0010557267814874,0.0014124144800007,0.0016390976961702
1783206453524986000,6.356986083984375,0.0099027141267433,0.0169014869729056,-0.0013163432955741,0.0005291281268,0.0005964883603155,-0.001347838435322
1783206453534923000,6.366923095703125,-0.0002219721876084,0.0178654001016169,-0.015233224967122,-0.0017201779410243,0.0014223349280655,4.55274712294e-05
1783206453544860200,6.376860107421875,0.0022128172112628,0.0237844514196738,-0.0128401923507452,0.0008242251351475,0.0023166248574852,0.000408059451729
1783206453554797000,6.386797119140625,-0.000685534578748,0.0241419413541443,-0.0126940618783235,0.000533940270543,0.0006343056447803,-0.0019690780900418
1783206453564733000,6.39673291015625,0.0022632322242483,0.0180680465342476,-0.003864274212718,0.0009863153100013,-0.0011883587576448,0.0020367889665067
1783206453574670000,6.406670166015625,0.0027242007995024,0.0159857969000935,-0.0083574939787387,0.0005554156377911,0.0021299398504197,-0.0003150487318634
1783206453584607200,6.416607177734375,0.0027981245522387,0.0210668995566666,0.0007680617630481,0.0017879027873277,0.0004934635944664,-0.0003784368745982
1783206453594544000,6.426544189453125,-0.0034323490688577,0.0199063313446938,-0.007915010908246,0.0017871037125587,-0.0003385078161954,-0.001688978401944
1783206453604481000,6.43648095703125,-0.0007369907713495,0.0280822399451397,-0.0025350714355707,0.0003340952098369,-0.0003992756828665,-0.0005115780513733
1783206453614418000,6.44641796875,-0.0015257117299363,0.0146292129256762,-0.0076291797041893,-0.000578835606575,0.0021131504327058,-0.003594985930249
1783206453624354000,6.45635400390625,0.0015638152506202,0.0145811725328676,-0.0112251583695411,0.0016622589901089,9.0822577476e-06,-0.0006454235408455
1783206453634291200,6.466291259765625,-0.0003858575124293,0.0185738406319171,-0.0049479777961969,0.0010846192017197,0.0018256246112287,-0.0007836415898054
1783206453644228000,6.47622802734375,0.0031112273557111,0.022670626692567,-0.0070475804239511,5.74784353375e-05,-0.001021004281938,-0.000258021755144
1783206453654165000,6.4861650390625,0.0041784729947336,0.0224714143260382,0.0016290625065565,0.0004548225551843,-0.00176482507959,-0.0010199521202594
1783206453664102100,6.49610205078125,-0.0055809054048731,0.0192501324582844,0.0061240358382463,0.0003944244235754,-0.002329112496227,-0.0004100305959582
1783206453674038300,6.506038330078125,-0.0045776466464623,0.0198250645357184,-0.0046504561543464,-0.0001408709213137,-0.0019868961535394,0.0004597576335072
1783206453683975000,6.515974853515625,-0.0004404007112607,0.016613244616054,0.0038794717818498,0.0011393763124942,-0.0004748511128127,0.0017880655359476
1783206453693912000,6.525912109375,-0.0034311069598421,0.0194571262724697,0.0068681322038173,-0.0023898454383015,-0.0006016176193952,-0.0001363344490528
1783206453703849000,6.535848876953125,-0.0003253777631558,0.019351181679964,-0.0107920276492834,0.0013697296380996,0.0012975363060832,0.0002325002569705
1783206453713786000,6.5457861328125,-0.0029776823702268,0.0162576178451068,-0.0001724339574575,-0.0013610757887363,0.0006005871109664,0.0009912347886711
1783206453723723000,6.555722900390625,-0.0018761143364943,0.0221394424253143,-0.0058627545535564,0.0008567525073885,0.0012297169305384,-0.002472662134096
1783206453733659100,6.5656591796875,-0.0028278255707584,0.0205692157002165,-0.0024251813203096,0.0009872475638985,5.04693016409e-05,-0.0029746680520474
1783206453743596000,6.575595947265625,0.0016642068851739,0.0199679801377467,-0.0009282207608222,0.0019861496984958,0.0017143548466265,0.0008829978760331
1783206453753533200,6.585533203125,-0.0001278641633689,0.0231056205763481,0.0032528643161058,0.0017169043421745,0.0001377635635435,0.0011948540341109
1783206453763469800,6.5954697265625,0.0049940088950097,0.0196416342602111,-0.0009352350234985,-0.0002845274284482,0.0011663171462714,0.000123118283227
1783206453773407000,6.605406982421875,-0.0020710706530138,0.0163579729470424,-0.0073708210289478,0.000733864493668,-5.52744604647e-05,-0.0011394864413887
1783206453783343000,6.615343017578125,-0.0026563779939897,0.0222093841226771,-0.0016845920860767,0.0008009122684597,0.0008791666477918,0.0002519169356673
1783206453793280000,6.625280029296875,0.0101002459928393,0.0193779235564172,0.0016033435434103,0.0008850684389472,0.0017931633628904,0.0007975986227393
1783206453803217000,6.635216796875,0.0047728038923814,0.0247945417776703,-0.0018418284744024,-0.0010905554518103,-0.0004461025819182,0.0002581134904175
1783206453813154000,6.645154052734375,0.0062122073120437,0.0171201164259575,0.0009966098219156,0.0022924579679965,0.0012399447150528,-0.0010638798121362
1783206453823091000,6.655091064453125,0.0050317105568945,0.0190146249356679,-0.0105324999302625,0.0017435410991311,0.0013687745667994,0.0001821394544094
1783206453833027000,6.665027099609375,-0.000665423372481,0.0152307224827818,-0.0035030396848917,-0.0006967140361666,-0.0001066168770194,-0.001360097201541
1783206453842964200,6.674964111328125,-0.0025251893623732,0.0219381659658625,0.0086164371758699,0.0016747573390603,-0.0017737662419676,-0.0023217378184199
1783206453852900900,6.68490087890625,0.0082455945694819,0.0176417291472665,0.0009878419935703,-0.000245114788413,-0.0017053224146366,-0.0004735041875392
1783206453862838000,6.694838134765625,0.0006382979035377,0.0241071440353989,-0.0012479542344808,-0.0017383806407451,-0.000893569085747,0.0020464181434363
1783206453872775200,6.704775146484375,-0.0002725333310663,0.0306592142936773,0.0084790745317935,0.0008568698540329,-0.0006925007328391,-0.0007541617378592
1783206453882711300,6.714711181640625,-0.0011502660136669,0.0247173666219227,0.0081792148023843,0.0002619000151753,0.0005273222923278,-0.0008184921462088
1783206453892648000,6.72464794921875,-6.8315995857e-06,0.0181250556848011,0.0071346741855144,-0.0012856628745794,0.0011009671725332,0.0008853981271386
1783206453902585000,6.734585205078125,0.005601290605776,0.0129574072559364,0.0023421792119741,8.76244157552e-05,0.0002688318490982,-0.000757839763537
1783206453912522000,6.74452197265625,-0.0008446341305971,0.0189313488326966,-0.0010994856745004,-0.0022655446082353,-0.0014489074237644,-0.0022747763432562
1783206453922459100,6.754459228515625,-0.0046812348851002,0.0195814650381915,0.0069856211036443,-0.0008458802476525,0.0020664199255406,-0.0046813399530947
1783206453932395000,6.76439501953125,-0.0005807955626398,0.0252058625249192,0.0077373162537813,0.0006918292492628,-0.002848710399121,0.0017163720913231
1783206453942332000,6.774331787109375,0.0006354483593255,0.0209113436687737,0.0023538696497678,-0.0016191825270652,-2.2379681468e-05,0.0011230162344872
1783206453952269000,6.78426904296875,0.001111468373239,0.0258469003748148,-0.0013905775755643,-0.0005137044936418,0.0002628448419272,-0.0003941867034882
1783206453962206200,6.794206298828125,-0.0008214724507182,0.0154831811401993,0.0104278705120086,0.0004362547770142,0.0033022982534021,-0.0013484461233019
1783206453972142000,6.80414208984375,0.0019155512977391,0.0196835006405599,0.0044300914019346,-0.0013765590265393,0.0010846839286386,0.0011831547599285
1783206453982079000,6.814078857421875,0.0082489555703476,0.0232772142835892,0.0102577746421098,-2.72467732429e-05,1.4831777662e-05,0.0013658939860761
1783206453992016100,6.82401611328125,0.0068942895583808,0.0117743532175198,0.0047205987811088,2.2554770112e-05,0.0001892689615488,-0.0009944657795131
1783206454001953000,6.833953125,0.0032164778284728,0.0247623382748104,0.002623918762803,-0.0008232370018959,0.00220583146438,-0.0026840243954211
1783206454011890000,6.843889892578125,0.0005944587618112,0.0265470114681869,0.0142938982903957,-0.000449595041573,-0.0005886233411729,0.0030042214784771
1783206454021826000,6.853825927734375,0.0021826047360897,0.0208713769845664,0.0006745382606983,0.0001515578478574,0.0012207622639834,-0.0009054115507751
1783206454031763200,6.86376318359375,0.0010387319305911,0.0294000993443652,-0.0005254851788282,-0.0008830800652503,0.000848984811455,0.0001566570717841
1783206454041700000,6.8737001953125,-0.0010392068546265,0.0288856104835867,0.0083007953554391,0.0014736987650394,0.0015836637467145,2.39540822803e-05
1783206454051637000,6.883636962890625,0.0016344693340361,0.0271824963601306,0.0109954412668943,0.0016478691250085,-0.0019524819217622,-0.0024964613839983
1783206454061573000,6.893572998046875,0.0068773018909618,0.0215372570147737,0.0018663783937692,0.0019290260970592,-0.0004490162245929,0.0010851994156837
1783206454071510000,6.903510009765625,-0.0030414135225117,0.0229496628296561,0.0011199439406394,0.0010512480512261,-0.0017885859124362,-0.0010024525690823
1783206454081447200,6.913447265625,0.0028805969376116,0.023740502680093,-0.0011234510719776,-0.0028056744486093,-0.000452356878668,-0.0009391386993229
1783206454091384000,6.923384033203125,0.0003912643399089,0.0240143146527931,0.0042705169260501,-0.0006383946165442,0.001266713719815,0.0001825846266001
1783206454101321000,6.933321044921875,-0.0011476721977815,0.0195480924915522,0.0056149172723293,0.0003251256421208,-0.0008322107605636,0.0010556748602539
1783206454111257000,6.943257080078125,-0.0014658347688615,0.0232057199499569,0.0051683425486087,0.0005807895213365,0.0003696735948324,-0.0023025711998343
1783206454121194200,6.9531943359375,-0.0031058205282315,0.0142079370399937,0.0089051909893751,0.0001995898783206,0.0028573703020811,0.0019029793329536
1783206454131131100,6.963131103515625,-0.0018960428796708,0.0213267195366323,0.0032125323057174,0.0002909367904067,-0.000831906683743,0.000825464259833
1783206454141068000,6.973068115234375,-0.005735767173022,0.0193308695442974,0.0026122283250093,0.0017168512567877,-0.0014215190894901,-0.0003350542392581
1783206454151004200,6.983004150390625,0.0013941760384477,0.030820962460339,0.0085930563002824,-0.0002131415531039,0.0015846574679017,-0.0016682327259331
1783206454160941000,6.992941162109375,0.0004300619803369,0.0192798700094223,0.0039572131931781,0.0009559635072946,-0.0029055634513497,0.0006653042510151
1783206454170878200,7.002878173828125,0.009661032591667,0.020310126372613,0.0027636194944381,0.001677680760622,-0.0009089917875826,0.0002059091348201
1783206454180815000,7.012815185546875,-0.0040256753195077,0.0226386789180338,-0.0053214872837066,0.0006552403792738,-0.0001890147104859,-4.5096967369e-06
1783206454190752000,7.022751953125,0.0014135017934255,0.0264164073584601,0.007094342175126,0.0013830820098519,0.0002903542481362,0.0002634043339639
1783206454200688000,7.032688232421875,-0.0027875666256062,0.0308248349178582,0.0063484922438859,-0.0006897216662764,-0.0007389318197965,-0.0013002380728721
1783206454210625300,7.042625244140625,0.0028196239979937,0.0240604918820783,0.0057528644382953,0.0014807553961873,-0.0027432269416749,-0.0008903776761144
1783206454220562000,7.05256201171875,-0.0013958748051896,0.0302860518660396,0.0036637832045555,-0.0025426726788282,0.0008045420981943,-0.0024485166650265
1783206454230499000,7.0624990234375,0.0009559490179643,0.0159119279462844,0.0094984807074069,-0.0021551838144659,0.0025268085300922,-0.0009592769201844
1783206454240435700,7.072435791015625,0.001163454288803,0.0261360925797373,0.0018581950873136,0.0022316854447126,0.0025260101538151,0.0006566154770553
1783206454250372600,7.08237255859375,-0.0012564298018813,0.0209941813803277,0.0045481648236513,-0.0002687564119696,0.0005187857896089,0.0006563491187989
1783206454260309800,7.092309814453125,-0.0041691206444986,0.0180591873743571,0.0103892920672893,-8.4852799773e-06,-0.0017327722162008,-0.0019791019149124
1783206454270246700,7.10224658203125,-0.0006340235872194,0.017876871343702,0.0108417120099067,0.0006522443145513,-0.002998306415975,-0.0013372800312936
1783206454280182500,7.1121826171875,0.001622303972207,0.0231596888511441,0.0183224231541156,-0.0006170077249407,0.0009343540295958,-7.9714227467e-06
1783206454290119700,7.12211962890625,0.0073553311988711,0.0229943604879081,0.0129378075063228,0.0005015200003981,-0.0002835094928741,0.0023388061672449
1783206454300056600,7.132056640625,0.0034850291041657,0.0239487203369848,-0.0032288989186286,0.0005992902442812,-0.000577247235924,-0.0028933912981301
1783206454309993700,7.14199365234375,-0.0010256897859275,0.0179550146138295,0.0084381579995155,-0.0020928988233208,0.0029639583081007,-0.000184956472367
1783206454319929600,7.1519296875,-0.0028284831578843,0.0243519673756323,0.0051420390635728,0.0019458662718534,0.0032657850533723,-0.000701347598806
1783206454329866800,7.16186669921875,-0.0013054565753787,0.0210592459731735,0.0049935705035924,-0.0001473780721426,-0.0009691738523542,-0.000759138027206
1783206454339803600,7.1718037109375,-0.0003905519538559,0.0171755729402415,0.010380524238944,0.0031581930816173,2.55508348345e-05,-0.0024592662230134
1783206454349740800,7.18174072265625,-0.003610609978903,0.0256114476511254,0.008286182308197,-0.0002360064536333,-0.0001819096505641,-0.0003766741137951
1783206454359676700,7.1916767578125,0.0033865006331354,0.026955281741824,0.0066436757981777,-3.12607735395e-05,-0.0013563139364123,-0.0007612907793372
1783206454369613600,7.201613525390625,-0.0049128334175795,0.0184065577736124,0.0112853641241788,-0.0002760048955678,-0.0019725696183741,-0.0014606369659304
1783206454379550700,7.21155078125,-0.0074466810104437,0.0235858601076528,0.019662731847167,0.0008589774370193,0.0018817689269781,-0.0021288306452333
1783206454389487600,7.221487548828125,-0.0048662908621132,0.0306793802988715,0.0097907416522502,0.0026046792045235,0.002370725153014,-0.0007458510808646
1783206454399423500,7.231423583984375,-0.0034118908027186,0.0250231263691559,0.0058978258669376,0.0009247865527868,0.0003061490133404,-0.0005489306058734
1783206454409360600,7.241360595703125,0.0007223411914892,0.0204322731812484,0.0023036007672548,0.0009740553796291,0.0003828480839729,-0.0004495948087424
1783206454419297800,7.2512978515625,0.0060713192703202,0.0162535444581881,0.0121779290497303,0.0011703977361321,-0.0013414714485406,0.0001125710550695
1783206454429234700,7.261234619140625,0.002154310223367,0.0247162158444523,0.0040945758372545,0.000851085409522,-0.0014751623384654,0.0013626588042825
1783206454439170600,7.271170654296875,-0.0003759206403046,0.0222538443189114,0.0055932899624109,0.0005212454125285,-0.000645556487143,0.0012763587292283
1783206454449107700,7.281107666015625,-0.0039758448284119,0.0217713945642113,0.0112801034271717,-0.0002310974523425,-0.0002072001807391,-0.0012536440044641
1783206454459044600,7.291044677734375,0.0032164412958547,0.0209001646876335,0.0093389062315225,-0.0004336424171924,4.80446033179e-05,0.0007774834521114
1783206454468981800,7.300981689453125,-0.0012666589349508,0.0226169420102611,0.0047024786025285,-0.0011859852820634,0.0007295473478734,0.0021191840060055
1783206454478917600,7.310917724609375,-0.0008784633349627,0.0240114651085808,0.0114373398154973,-0.0017038322985172,0.0006199264898896,-7.73346982896e-05
1783206454488854500,7.3208544921875,-0.0040725101359188,0.0166309812021441,0.0005137947410345,0.0001446679234504,-0.000678364187479,0.002302199602127
1783206454498791700,7.330791748046875,0.0005595335789024,0.0206923123569227,0.0079991820603609,0.0006324499845504,-0.0013542198576033,0.0013451424892991
1783206454508728800,7.340728759765625,-0.0034196174514479,0.0276648182506673,0.0151812025189399,0.0013062292709946,-6.57821074128e-05,-0.000147292856127
1783206454518664700,7.350664794921875,0.0031420608853921,0.0245405670166015,0.0045510874330997,-0.0025581866502761,-0.0014570341445505,-0.002054511103779
1783206454528601600,7.3606015625,-0.00397588136103,0.0158907024951651,0.0045475803017616,0.0024280501529574,0.0010015964508056,-0.0004254553932696
1783206454538538800,7.370538818359375,-0.0054362179708667,0.0220922970816493,0.0114256493777036,0.0006623845547437,0.0015840791165828,-0.0005518128164112
1783206454548475600,7.3804755859375,-0.0001683057716116,0.021397665880993,0.0124766197353601,-0.0013094199821352,-0.0008772141300141,0.0003533957060426
1783206454558411500,7.39041162109375,-0.0025393274855799,0.0282542903101071,0.0144236621499061,-1.12084671854e-05,0.0026357469614595,0.0019644182175397
1783206454568348700,7.4003486328125,0.0042030959793366,0.0195460101323202,0.0085842884719371,0.0008529871702194,-0.0015443507581949,-0.0031861355528235
1783206454578285600,7.41028564453125,0.0076108951288275,0.0151306048428639,0.008580781340599,-0.0014608306810259,-0.0008204849436879,0.0013534324243664
1783206454588221400,7.420221435546875,0.0012176321614533,0.0194651269158348,0.010087678772211,-0.0025151763111352,-0.0028562056832015,-0.0004428697284311
1783206454598158600,7.43015869140625,0.0016224501026794,0.0289483004562556,0.0081482351422309,0.0006745206192135,-0.0017760978080332,-0.0023405943065881
1783206454608095700,7.440095703125,-0.0023377039662562,0.0275639516920782,-7.77414113283e-05,-0.0001928703859448,-0.0016123130917549,-3.64275183528e-05
1783206454618032600,7.45003271484375,0.0005068535435944,0.0291618336090818,0.0090472298085689,0.001553501933813,0.0009590904228389,-0.000212637707591
1783206454627968500,7.459968505859375,0.0039426549448631,0.0165549020249396,0.0087485391229391,5.38760796189e-05,0.0001058136112987,0.0005444989074021
1783206454637905700,7.46990576171875,0.0115296760077588,0.0267293640314601,0.0029115035325288,0.0020237294957041,0.000527259428054,-0.000132611952722
1783206454647842600,7.479842529296875,-0.0025116540273651,0.020918723257631,0.0084434186965227,0.0022010961547493,-0.0006272210739552,0.000883650034666
1783206454657779700,7.48977978515625,-0.0029713439609855,0.0251567809524945,0.014576806885004,-0.0012285718694329,-0.0002085529267787,0.0019868249073624
1783206454667715600,7.499715576171875,-0.0013248188629746,0.023661153833568,-0.0012847791135311,-0.0019127381965517,1.75493769347e-05,-0.0002976346295326
1783206454677652500,7.509652587890625,-0.0010905717156827,0.0199657699143514,0.0055997197031974,9.00188460946e-05,0.0011667245998978,-0.0005056699737906
1783206454687589600,7.519589599609375,0.0035084830449894,0.0226285959154367,0.0177244572609663,0.001103350892663,-0.000670057721436,-0.0011735907755792
1783206454697526800,7.52952685546875,0.0043426505804993,0.0175810119359754,0.0030570494830608,-0.0012343665584921,-0.0013259504921734,-5.34786377102e-05
1783206454707462700,7.539462646484375,0.0028289215493015,0.0188545024705119,0.007103694525361,-0.0004050573334097,-0.000621810555458,-0.0018031754298135
1783206454717399600,7.549399658203125,0.0062887431469745,0.0179365291090682,0.0127910925120115,-0.0005658511072397,0.0001640589907765,-0.0012968319933861
1783206454727336700,7.559336669921875,0.0025157274142839,0.0170859036291018,0.0135369424432516,-0.000387686304748,0.0015244018286466,0.0011364985257387
1783206454737272800,7.56927294921875,0.0012470957179553,0.0209774129086174,0.0106914898842573,-0.001711974851787,-0.0003316211514174,0.0013198647648096
1783206454747209500,7.57920947265625,0.0026742424442432,0.0154506123111583,0.015028057783842,0.0012894077226519,0.0002175229601562,-0.0021283959504216
1783206454757146600,7.589146728515625,-0.0003714271282777,0.0199760903789661,0.0100830025970935,0.0020771119743585,-0.0019437712617218,-0.0012958229053765
1783206454767083500,7.59908349609375,0.003445975735411,0.0194292701511643,0.0002121814459562,0.0012773647904396,-0.0017970311455428,-0.0002545267343521
1783206454777019600,7.60901953125,-0.0007625453377142,0.0170037417709827,0.0082978727459907,-0.0003532171249389,-0.0025216047652065,0.000599619699642
1783206454786956500,7.61895654296875,-0.0025111425707116,0.0141014809908345,0.007398293557763,0.0003623748198151,0.0006960262544453,-0.0018350423779338
1783206454796893700,7.628893798828125,-0.0004690057512372,0.0295493533556349,0.0117354459792375,0.0019116271287202,0.0025678453966975,6.0873571783e-06
1783206454806829600,7.63882958984375,-0.0026735300581902,0.0201375645509921,0.009636427873373,-0.0011627255007624,0.0003699385561048,0.0040495647117495
1783206454816766700,7.6487666015625,-0.004121098517999,0.0182606099642813,0.0120300450116395,-9.57688316702e-05,0.002273499732837,0.0005750160198658
1783206454826703600,7.65870361328125,0.0035189496400766,0.0199924021929502,0.0117331078916788,-0.0008025718852877,-0.0008562472648918,2.00131908059e-05
1783206454836640500,7.668640625,0.0037077867430634,0.0255157321916893,0.0037993922829627,-0.0008837534114718,-0.0006408495828509,-0.0014086083974689
1783206454846576600,7.67857666015625,-0.0096539817963726,0.0161421199729666,0.0157721541494131,-0.0008145114406943,-0.0032363664358854,-0.0006243074312806
1783206454856513800,7.688513671875,-0.0002981792289763,0.0167721980374306,0.0103863694578409,0.0002887202426791,-0.0008650422096252,0.0001397714950144
1783206454866450400,7.698450439453125,-0.001802190583758,0.0127048755332827,0.0111398181736469,-0.0033073471859097,-0.0006194985471665,0.0013195518404245
1783206454876386600,7.708386474609375,-0.0066208977107889,0.0250337573610246,0.0150368256121873,-0.0018385089933872,0.000934213399887,-0.0006298571825027
1783206454886323700,7.71832373046875,-0.000466503266897,0.0253002445437945,0.0068085109710693,-8.00238922238e-05,-0.0009393203072249,-0.0010341252200305
1783206454896260900,7.7282607421875,-0.0006049253568984,0.0316612309430725,0.0086065003037452,0.000137316994369,0.0013723904266953,0.0003022574819624
1783206454906197500,7.738197509765625,0.0044168848604895,0.0193660321892239,0.0165361242592334,0.0009003123268485,-9.82070341706e-05,-0.0004242528229951
1783206454916133600,7.748133544921875,0.0012139423670247,0.0149596321901306,0.0127905079901218,0.0010373257100582,0.0009097452275454,-0.0013977547641843
1783206454926070800,7.75807080078125,-0.0006317220322787,0.0163814634204842,0.0114443540781736,-0.0007086433470249,0.0027787517756223,0.0010113408789038
1783206454936007700,7.768007568359375,-0.0028170667147263,0.0203783145043067,0.0193786542087793,0.0003635734319686,-0.0013256985694169,-0.0001324266195297
1783206454945943600,7.777943603515625,0.0013534604355692,0.0207303976112976,0.0189361711382865,-2.95089557766e-05,-0.0018599284812808,0.0004031350836157
1783206454955880700,7.787880615234375,0.00423928153757,0.0111971013188362,0.0078723408102989,-0.0001109214499592,-0.00201161717996,-0.0014935446670278
1783206454965817600,7.797817626953125,-0.0031448373643681,0.0276588817002251,0.0168535196453332,0.0005221124738454,0.0016515608876943,0.0025728358887135
1783206454975754800,7.807754638671875,-0.0067761065388098,0.0144222921767272,0.0056271922320127,0.0021393885836005,0.0003512282855808,5.33740967512e-05
1783206454985690600,7.817690673828125,-0.0045639469146728,0.0172834720278158,0.0150572838783264,0.001390241086483,-4.21209260821e-05,-0.0032763760536909
1783206454995627500,7.82762744140625,0.0069459101477637,0.0193701603750698,0.0077250412940979,0.0021794326603412,-0.0026280833408236,0.001899222144857
1783206455005564700,7.837564697265625,0.0085138535842299,0.011564400261268,0.0156540807276964,0.0029331073164939,0.0009019365534186,4.6493951231e-06
1783206455015500500,7.84750048828125,0.0078535630445927,0.01736187102627,0.0083212536215782,0.0005445489659905,-0.0030694263987243,0.0012450327631086
1783206455025437700,7.857437744140625,-0.0032846476938575,0.023306933568418,0.0170037417709827,-0.000625112093985,-0.0001300950534641,0.0001177168451249
1783206455035374600,7.86737451171875,-0.0066573755299672,0.0256805490982718,0.0096744217962026,0.0004162639379501,0.0011910912580788,0.0001862852368503
1783206455045310700,7.877310791015625,-0.0041057548183947,0.0199501704864203,0.0053366848528385,0.0016543678939342,-0.0027735563926398,0.0032334742136299
