time,seconds_elapsed,ax,ay,az,gx,gy,gz
1783206401084517400,0.102517333984375,-0.0018759499397128,-0.0071533766026957,0.0017985738545656,-0.0008962359279394,0.000189843121916,-0.0009469820652157
1783206401094453200,0.112453369140625,-0.003618921149522,-0.0035272973433136,-0.0673439359545707,0.0036652265116572,0.0016716262325644,-0.0005493722856044
1783206401104389400,0.122389404296875,0.0005339607462286,-0.0004444558318704,-0.0682318247050046,-0.0010786382481455,-0.0041406350210309,0.0009481129236519
1783206401114326500,0.132326416015625,0.0058263680659234,-0.0053993748255074,-0.037251580029726,0.0028668353334069,0.0003441283479332,-0.0015134466812014
1783206401124262400,0.142262451171875,0.023555428436771,-0.0031939714524312,-0.0558007976770401,0.0043680677190423,0.0019901031628251,-0.0001868240069597
1783206401134199300,0.15219921875,0.0106917821452021,-0.0100222123205661,-0.0653916328430175,-0.0040842723101377,-0.0004586735740303,0.0005202451720833
1783206401144135400,0.162135498046875,0.0063108636472374,-0.0158079172992496,-0.0335077173262834,0.000227072276175,-0.0016210526227951,-0.0005066487938165
1783206401154071300,0.1720712890625,0.0100352909978479,-0.0149819148038863,-0.0610427899837493,0.0008249515667557,-0.001765928696841,-0.001146872760728
1783206401164008400,0.182008544921875,0.0043981618937104,-0.0159253719497472,-0.0611737228870391,-0.0001033702865242,-0.0021552317775785,-0.0012170984409749
1783206401173944600,0.191944580078125,-0.0033553748425096,-0.012124116503261,-0.037663667961955,0.0001232642680406,-0.0016774609684944,-0.0034259241074323
1783206401183880000,0.2018798828125,0.0034647535011172,-0.0106629213768988,-0.0575572859555482,-0.0006886674091219,-0.0007487530820071,0.0003336810041218
1783206401193816800,0.21181689453125,0.0017594108879566,-0.0044506227333098,-0.0467746106564998,0.0012266784906387,-0.000501079019159,0.000165901845321
1783206401203753000,0.2217529296875,0.0045080520089715,-0.0103218528542667,-0.0401712668687105,-0.0003169430419802,-0.0023459685035049,0.0005910752806812
1783206401213688800,0.231688720703125,0.0143340841703116,-0.0175939992817118,-0.0618593670636415,0.0018359562382102,-0.0002929372712969,-0.0004574111662805
1783206401223626000,0.2416259765625,0.0128889268632978,-0.0222483644261956,-0.0447960040599107,0.0009691780433058,0.0014286772347986,0.0006648553535342
1783206401233562000,0.25156201171875,0.0074233549337834,-0.0281903924777521,-0.0376204133421182,-0.000312334857881,-0.000404642894864,0.001071254024282
1783206401243498800,0.261498779296875,0.005270341618359,-0.0225301405096426,-0.0480868622988462,0.0014596926048398,-0.0023726932704448,0.0011154313106089
1783206401253435000,0.271434814453125,0.0015063129097223,-0.0125193628985434,-0.0437210683047771,-0.0022671353071928,-0.0038558077067136,-0.0021554629784077
1783206401263371000,0.28137109375,0.0039024873312562,-0.0062990636115893,-0.0430938763171434,0.0008439663797616,-0.0027623842470347,0.0005462628323584
1783206401273308000,0.291307861328125,-0.0001295446638017,-0.0022688947800546,-0.055349546778202,-0.0008977409452199,-0.0023637092672288,0.0022735891398042
1783206401283243800,0.301243896484375,0.0052259910199791,-0.0071168439845903,-0.0550385811328887,-0.0003053657710552,0.0006975545547902,5.809124559164047e-07
1783206401293180000,0.311179931640625,0.0071672612808644,-0.0116565720567479,-0.0504003999382257,-0.0008872663602232,0.0005007470026612,0.000329747563228
1783206401303116800,0.32111669921875,0.0137633716102689,4.9574762769e-05,-0.0527934325546026,0.0008234828710556,-0.0002000010572373,-0.0001812719274312
1783206401313053000,0.331052978515625,0.0222569130588322,0.0078480831518769,-0.0497901590853929,-0.0010319408029317,-0.0009952210821211,0.0015580388717353
1783206401322989800,0.34098974609375,0.0127184656672179,-0.0057289721060544,-0.0443996982187032,0.0014355210587382,-0.0002973591908812,0.0011176848784089
1783206401332925700,0.35092578125,0.0121930535536259,-0.0024314649306237,-0.0423117860287427,-0.0004433384165167,-0.0001817778684198,1.11416447907e-05
1783206401342861800,0.36086181640625,0.0161587423142045,-0.0003222907569259,-0.0532283168405294,-0.0021557053551077,-0.0029743160121142,0.0036548988427966
1783206401352799000,0.370799072265625,0.0075687547538429,0.0032036571628064,-0.0466354944467544,0.0008528670296072,-0.0020001321099698,0.0001365966163575
1783206401362734800,0.38073486328125,0.0111831458587199,-0.003113490094745,-0.0430278253436088,0.0010176924988627,-0.0011738487519323,0.0003001864533871
1783206401372671700,0.390671630859375,0.0152362937070429,0.0081570760358124,-0.0382388375014066,0.0003412496298551,0.0004834365099668,-0.0003027531784027
1783206401382608000,0.40060791015625,0.0103659842569381,-0.0033679785957559,-0.0419873763799667,-0.0008621960878372,0.0005395398475229,0.0035443669185042
1783206401392543700,0.410543701171875,0.0079228288885205,-0.0005766673767939,-0.0448205539792776,-0.0011604707688093,0.0002740225754678,0.0004798674490302
1783206401402481000,0.42048095703125,0.0207674782186746,0.0001176350302994,-0.0428489616453647,0.001463271677494,-0.008136112242937,0.0054127387702465
1783206401412417000,0.4304169921875,-0.0445238360550254,0.0309116021691472,-0.0823322462499141,0.079612135887146,-0.1096012145280838,0.0019698038231581
1783206401422354000,0.44035400390625,0.1717821424853056,-0.0212980779640376,0.084020345467329,-0.0431260280311107,0.2007632404565811,-0.003278866643086
1783206401432289800,0.450289794921875,-0.2686002294011413,-0.0367620064144954,-0.0943330651670694,-0.0716535449028015,-0.1665902584791183,0.0039699915796518
1783206401442226000,0.460225830078125,0.2124626740504056,-0.0422018959134817,-0.4273603201627731,0.0404527559876441,0.0813027024269104,0.0016435049474239
1783206401452163000,0.4701630859375,-0.1494393777739256,0.0263395792625844,0.6858996126681566,0.0458765476942062,-0.0132736042141914,5.9456564486e-05
1783206401462099000,0.480098876953125,0.1243399347655475,-0.0295964256340637,-0.5914151563316583,-0.0141449710354208,-0.0098246717825531,0.0026707891374826
1783206401472035800,0.490035888671875,-0.0023397680591791,-0.0357548363826586,0.1005097079753875,0.0288562923669815,0.003228013170883,0.002035092562437
1783206401481972000,0.499971923828125,-0.0232709854722023,-9.06374255195e-05,0.1594265918463468,0.0414330437779426,0.0193976946175098,0.0020806016400456
1783206401491907800,0.509907958984375,-0.0065228989627212,-0.0158546448010951,-0.2959866873681545,0.0058550778776407,-0.0221944898366928,0.0010126740671694
1783206401501845000,0.519844970703125,-0.0232375215940177,0.0108527471438632,-0.0562163927406072,-0.0003788685426115,-0.0047187823802232,0.0080220224335789
1783206401511780900,0.52978076171875,-0.0167322313532233,-0.0378119173262268,0.1393067638814449,0.0180938821285963,0.003088540630415,0.0232339985668659
1783206401521718000,0.539718017578125,-0.0151733114734292,-0.1596846582606434,-0.1621095473200082,0.017019335180521,0.0125063266605138,0.1075800582766532
1783206401531654000,0.54965380859375,-0.1000927977375686,-0.4608642380967735,-0.0898380918353796,0.0044960873201489,-0.0154920183122158,0.2504772841930389
1783206401541590000,0.559590087890625,-0.1202494505815207,-0.7127957298349589,0.0269897137343883,0.0097569217905402,-0.0127437300980091,0.4779300689697265
1783206401551527000,0.56952685546875,0.0021734715815633,-1.1084754750333723,-0.0809632959842681,0.006525442469865,-0.0359292067587375,0.7070719599723816
1783206401561462800,0.579462890625,0.0795216458085924,-1.1195185548342763,-0.1280178926259279,0.0127649391070008,-0.0118471458554267,0.8269425630569458
1783206401571400000,0.58939990234375,0.103726404999569,-0.6698452805764973,0.0289274037986993,0.022168293595314,-0.02616030536592,0.8722516894340515
1783206401581336000,0.599336181640625,-0.0607835545256733,-0.2236676664147525,-0.0566653055518865,0.0242530480027198,-0.0458049997687339,0.9798445105552672
1783206401591272000,0.60927197265625,-0.3345988882265985,-0.3148877871930599,-0.1154173542499542,0.0131950695067644,-0.0743911042809486,1.219488501548767
1783206401601208800,0.619208740234375,-0.5677100172258913,-0.7402912741996347,-0.1123790094673633,0.0071049481630325,-0.10977753251791,1.554151177406311
1783206401611145000,0.62914501953125,-0.6683803225904703,-1.0274476624455302,-0.1140998419106006,0.0055816196836531,-0.146547257900238,1.8889011144638064
1783206401621081900,0.639081787109375,-0.619614538116753,-0.992387381915003,-0.1202121873110532,0.001420977525413,-0.1728635877370834,2.1421680450439453
1783206401631018000,0.64901806640625,-0.4331543933942913,-0.6640299453612417,-0.1076677630364894,-0.0035029416903853,-0.17636539041996,2.2932937145233154
1783206401640954000,0.6589541015625,-0.1764556872542947,-0.2800769513789564,-0.0443242948949337,-0.0162853263318538,-0.1605334430932998,2.350156307220459
1783206401650890800,0.668890869140625,0.005717062472552,0.0559738161563873,-0.0002501753687858,-0.016278401017189,-0.1490592062473297,2.350180149078369
1783206401660827000,0.678826904296875,0.124841966003552,0.2601652680057101,-0.0082177932471036,0.0023746602237224,-0.1478841304779052,2.319075345993042
1783206401670764000,0.688763916015625,0.1749340306449681,0.2979571471909061,-0.0753729286313057,0.0273487195372581,-0.1493640542030334,2.260746479034424
1783206401680700000,0.698699951171875,0.1554264893595129,0.2703713489932008,-0.1026063879936933,0.0356511175632476,-0.1553968489170074,2.199647188186645
1783206401690636800,0.70863671875,0.07734642066136,0.1951160553921945,-0.0740302818506956,0.0369233079254627,-0.1599180996417999,2.1580700874328613
1783206401700573000,0.718572998046875,-0.0666376143161207,0.0466920652058906,-0.0299193374454975,0.0401460155844688,-0.1562772542238235,2.1226627826690674
1783206401710508800,0.7285087890625,-0.1921106447648257,-0.0947265945293009,-0.04405132317245,0.054763838648796,-0.17813141644001,2.076779365539551
1783206401720446000,0.738446044921875,-0.2210840065971016,-0.1315540673954412,-0.1209755728989839,0.0734424516558647,-0.2012718319892883,2.001471519470215
1783206401730382000,0.748382080078125,-0.2049097013875842,-0.1190786897690966,-0.129203887540102,0.0927018970251083,-0.2197206169366836,1.8865888118743896
1783206401740319000,0.758319091796875,-0.1548010874701663,-0.0663049482956528,-0.0659662178605794,0.082201063632965,-0.2147189974784851,1.714244723320007
1783206401750254800,0.7682548828125,-0.0583199043584987,-0.0013448752703145,0.0314507847964763,0.0692591592669487,-0.200826346874237,1.4981385469436646
1783206401760192000,0.77819189453125,-0.0375949501072987,0.02189502094388,0.0650970338106155,0.0380871146917343,-0.1318356543779373,1.235060214996338
1783206401770128100,0.788128173828125,0.059227338059619,0.0872563317138701,0.0723830991655588,0.0006212349981069,-0.1264978796243667,0.9789063930511476
1783206401780063700,0.798063720703125,-0.2248665208104997,0.096777645307593,-0.0405500370532274,0.0202287584543228,-0.1801485866308212,0.7812052369117737
1783206401790001000,0.8080009765625,-0.3821228924782947,0.0980577482460066,-0.0400496863156557,0.0339134112000465,-0.1335328817367553,0.6411698460578918
1783206401799937000,0.81793701171875,-0.2864879509324208,0.1649644618270918,-0.0577636221826076,0.0169607978314161,-0.1470135599374771,0.5865924954414368
1783206401809874000,0.8278740234375,-0.1177700548559427,0.1772898730561137,-0.1201484744250774,0.0042987987399101,-0.1338160037994384,0.5964983701705933
1783206401819809800,0.837809814453125,-0.0007331731127575,0.0885281052153557,0.0522130023181438,-0.0077693322673439,-0.1192448213696479,0.6160301566123962
1783206401829747000,0.847746826171875,0.0576093814689666,0.0548406839406117,0.0768564451873302,-0.0170286111533641,-0.1097863391041755,0.6226044297218323
1783206401839682800,0.857682861328125,0.0358495677446946,0.0184491182737052,-0.0445861607015132,-0.0155811822041869,-0.1003446355462074,0.6169217824935913
1783206401849619000,0.867618896484375,-0.0995659243192523,-0.0663480567850172,-0.1208668518275022,-0.0192225240170955,-0.1029084622859954,0.6080390810966492
1783206401859555800,0.877555908203125,-0.2678457212394103,-0.1516280834572389,-0.0763631087124347,-0.0312306955456733,-0.0978907197713851,0.6093814373016357
1783206401869491700,0.88749169921875,-0.4200232918055728,-0.299857025995478,0.0205026898026466,-0.0337588340044021,-0.0941223427653312,0.6109985113143921
1783206401879428900,0.897428955078125,-0.4597460477218031,-0.374681088572368,0.0130646487563848,-0.035669669508934,-0.0904339477419853,0.6087129712104797
1783206401889365000,0.907364990234375,-0.4545767187925055,-0.3853668793682008,-0.0626011253416538,-0.0379581227898597,-0.0972899869084358,0.6004137396812439
1783206401899302000,0.917302001953125,-0.4418900730356573,-0.3504010356554761,-0.0869429549157619,-0.0394710525870323,-0.0979868844151496,0.5908175110816956
1783206401909237800,0.92723779296875,-0.3995925347279757,-0.3443459734002128,-0.0243365688771009,-0.0438847094774246,-0.1024894937872886,0.6020209193229675
1783206401919175000,0.9371748046875,-0.3214577401679009,-0.3012395298624411,0.0222667768657207,-0.0497916489839553,-0.093842513859272,0.6392313838005066
1783206401929111000,0.947111083984375,-0.2317752955519594,-0.2574933636490255,0.0067225862532854,-0.0465894602239131,-0.0869675576686859,0.6883320808410645
1783206401939047000,0.957046875,-0.1947840104262344,-0.2390959755625575,-0.0909820011734962,-0.0407339222729206,-0.0969802290201187,0.7303707599639893
1783206401948983800,0.96698388671875,-0.1682492921840399,-0.2654650731805711,-0.1053583170503377,-0.0305718295276165,-0.1028889864683151,0.7734750509262085
1783206401958920000,0.976919921875,-0.1365661599364131,-0.3318715821545571,-0.0434790762424468,-0.0453188642859458,-0.0612631253898143,0.809735119342804
1783206401968856800,0.98685693359375,-0.0413235787089914,-0.2973340468565001,0.0318435835063457,-0.0615375153720378,-0.049884770065546,0.8323373794555664
1783206401978793000,0.99679296875,0.0864617655363865,-0.2410692118642851,-0.0420031584709882,-0.0583086684346199,-0.0489288419485092,0.8387258052825928
1783206401988729900,1.006729736328125,0.283595901019033,-0.1612101507948711,-0.0614560469597578,-0.0197335816919803,-0.0704357400536537,0.8165616989135742
1783206401998665700,1.016665771484375,0.6080780487757176,-0.1684421113424003,-0.1485007086843252,0.0199296455830335,-0.0911513864994049,0.7644611597061157
1783206402008603000,1.026602783203125,1.054471497645229,-0.3592503317391499,-0.1173076980412006,-0.0194896683096885,0.0362896621227264,0.9145883917808532
1783206402018539000,1.0365390625,1.2519934268690645,-0.6654880352150648,0.0726952338546514,-0.0189311727881431,0.0665821731090545,1.1914994716644287
1783206402028475000,1.046474853515625,1.2717092040777205,-0.6588455284606665,-0.0120727151095867,-0.0030464818701148,0.0351789705455303,1.3915222883224487
1783206402038411800,1.056411865234375,1.3125890576072037,-0.3005959347292781,-0.1251186640530824,-0.0177878960967063,0.0599724799394607,1.5097732543945312
1783206402048348000,1.066347900390625,1.2994820310138164,0.1422472012475132,-0.1072083288311958,-0.0185245275497436,0.0553092882037162,1.5811563730239868
1783206402058285000,1.07628515625,1.1457422526322305,0.2367997178515419,-0.0227606978625059,0.0024587512016296,0.0283205583691597,1.6116905212402344
1783206402068221000,1.086220947265625,0.9428142265811562,-0.2858160064876079,-0.0340484000742435,-0.003320307470858,0.0334125235676765,1.7235376834869385
1783206402078157800,1.09615771484375,0.8065996565613895,-0.5292168031046167,-0.0865975024789571,-0.0247435569763183,0.0384990237653255,1.871708631515503
1783206402088094000,1.106093994140625,0.7722119415301829,-0.1755699904609471,-0.1078314291656017,0.0109569132328033,-0.0106954211369156,1.9266445636749268
1783206402098030800,1.11603076171875,0.677098904966563,0.1483248771933838,-0.1114075340867042,0.0439420342445373,0.0239260718226432,1.8835663795471191
1783206402107967000,1.125967041015625,0.549579024990648,0.3570142067175358,-0.0516097757279872,-0.0056699961423873,0.0747620910406112,1.8258579969406128
1783206402117904000,1.13590380859375,0.269710857524164,0.3344934550907462,0.0280137960851192,-0.0588221997022628,0.059275347739458,1.808143973350525
1783206402127839700,1.14583984375,-0.0189291751419194,0.2358444994859397,0.1110620816498994,-0.0696777701377868,0.0824096947908401,1.8431954383850095
1783206402137777000,1.15577685546875,-0.1411433316588401,0.3052504094716161,0.0854986013263463,-0.1038027554750442,0.1081493496894836,1.9024347066879272
1783206402147713000,1.165713134765625,-0.1618399913973175,0.4416589311609044,-0.0735556500762701,-0.1461038738489151,0.1208590194582939,1.938439130783081
1783206402157649000,1.17564892578125,-0.1861811085853725,0.4283507559722289,0.0067050505965948,-0.1430737078189849,0.1272889524698257,1.9581774473190308
1783206402167585800,1.185585693359375,-0.1648266059926711,0.387785996273905,0.0816600460767745,-0.1227580457925796,0.1193692460656166,1.911676287651062
1783206402177522000,1.19552197265625,-0.022376758312527,0.2819284609971568,-0.0819639974594116,-0.0987110286951065,0.0834205672144889,1.7746965885162354
1783206402187459600,1.20545947265625,0.198721623869799,0.2093384410826489,-0.2300578789085149,-0.0590514987707138,0.0290758349001407,1.6895036697387695
1783206402197395200,1.215395263671875,0.3462337233755737,0.3137397496690973,-0.1814408552557229,-0.046056967228651,0.0391612946987152,1.6937944889068604
1783206402207332400,1.225332275390625,0.228863280562777,0.2910056110199541,-0.0525070168286561,-0.044128306210041,0.0407216399908065,1.7186803817749023
1783206402217268500,1.2352685546875,0.0381946878324262,0.1929614529078826,-0.0102320556789636,-0.0381652005016803,0.0412795059382915,1.7144289016723633
1783206402227205600,1.24520556640625,-0.0805636839411221,0.1269557798197493,-0.0457867686629295,-0.0508522354066371,0.065051682293415,1.6760796308517456
1783206402237141200,1.255141357421875,-0.1551524764574132,0.0890124546661973,-0.0328185660183429,-0.0689251646399498,0.0644072592258453,1.670729637145996
1783206402247078400,1.265078369140625,-0.1923366355404257,0.1168230563294142,0.0331850612431764,-0.0943900421261787,0.0887690633535385,1.6959244012832642
1783206402257014500,1.2750146484375,-0.2027532357397489,0.1786886339381337,0.0668991147965192,-0.1027404442429542,0.087751068174839,1.7123221158981323
1783206402266951400,1.284951416015625,-0.2075929856548085,0.1715786923350766,-0.0107224695444107,-0.1030120849609375,0.1046964973211288,1.6796579360961914
1783206402276887300,1.29488720703125,-0.065594900330156,0.1771291295364499,-0.0532131192713975,-0.1345277577638626,0.1556168645620346,1.5933091640472412
1783206402286824400,1.304824462890625,0.1491800509843044,0.2748210401447489,0.0184609548419713,-0.1621668338775634,0.1961118280887603,1.4685485363006592
1783206402296760300,1.31476025390625,0.4369735132910311,0.4681145380185916,0.0875350755900144,-0.1700471043586731,0.2103565484285354,1.296761989593506
1783206402306697500,1.324697509765625,0.7207691198669374,0.6826390765022486,-0.0110293435364961,-0.1416239738464355,0.1756683439016342,1.0708686113357544
1783206402316633300,1.33463330078125,0.945083852013573,0.8165313410542905,-0.2106786401778459,-0.1049738526344299,0.1452292054891586,0.786016583442688
1783206402326570500,1.344570556640625,1.013976113388687,0.8976348492268472,-0.2567728673547506,-0.0531998723745346,0.0415779091417789,0.4726458489894867
1783206402336506400,1.35450634765625,0.7299279202912002,0.8837836532026528,-0.1783294452369213,0.0212353020906448,-0.0224402826279401,0.1880253106355667
1783206402346443500,1.364443603515625,0.5102467662293464,0.7662596820622682,-0.214712425738573,0.0564838387072086,-0.0663211867213249,-0.0082555217668414
1783206402356379400,1.37437939453125,0.2797573640357703,0.3942340399021282,-0.2848451156288385,0.0426738485693931,-0.060683287680149,-0.0018644998781383
1783206402366315300,1.384315185546875,-0.0429200358538888,-0.0547803685881197,0.0568880083918571,-0.0045586433261632,0.0302905552089214,-0.0009891188237816
1783206402376252400,1.39425244140625,-0.0287910092690028,0.0241631850715726,0.3068003423273563,-0.0546968914568424,0.0346056818962097,-0.0007823943160474
1783206402386188500,1.4041884765625,-0.0081625193959102,0.0109801340999081,-0.0018675474375486,-0.0302456095814704,0.0467992275953292,-0.0004612170159816
1783206402396125400,1.41412548828125,-0.0157137932919897,0.0176822986196726,-0.1868406684726476,0.009543927386403,-0.0100654466077685,-0.0031296296510845
1783206402406061300,1.424061279296875,0.0173535963882692,0.0228474993631243,-0.1896779377251863,0.0279394462704658,-0.0256614498794078,-0.0036694523878395
1783206402415998500,1.43399853515625,0.0011140621891245,0.0139717901965603,-0.0435129785120487,0.0113920578733086,-0.0015005352906882,3.33073548972e-05
1783206402425934300,1.443934326171875,-0.0013031915530562,0.0117576212784275,0.0223339968830347,-0.0212694816291332,0.0172995179891586,0.0002452949993312
1783206402435871500,1.45387158203125,-0.0016226327657699,0.0172423362998291,0.0453805259495973,-0.019580241292715,0.0270209200680255,0.0006394935771822
1783206402445807400,1.463807373046875,-0.0148249729597941,0.0219658576903864,-0.0473982955127954,-0.0001333085820078,-0.0039098309352993,0.0003175174351781
1783206402455744500,1.47374462890625,0.0026473544373176,0.0211135151773691,-0.159627667376399,0.0108592333272099,-0.0096096489578485,0.001204970292747
1783206402465680400,1.483680419921875,-0.007417674111668,0.0283917625520378,-0.0683610040426254,0.0056591448374092,-0.0050015817396342,0.0006968390662223
1783206402475617500,1.493617431640625,-0.0064189453979022,0.0235022004121914,0.020671616628766,-0.0107306083664298,0.0098334029316902,-0.0020158039405941
1783206402485553400,1.503553466796875,-0.0064973443963564,0.0204421552544459,-0.0058095630615949,-0.0105548398569226,0.0104525871574878,-0.0008573289960622
1783206402495490300,1.513490234375,-0.0006330372065305,0.0128463298305869,-0.0617722733020782,0.0006653852760791,0.0008054310455918,-0.0006706167478114
1783206402505426400,1.523426513671875,-0.0002933934560045,0.0164333214718848,-0.0789852739095687,0.0090799089521169,-0.0052311564795672,-0.0008370643481612
1783206402515363300,1.53336328125,-0.0119353159328922,0.0246246285708621,-0.0548971268355846,-0.0003676377236843,-0.001517841592431,-0.0005282901693135
1783206402525299200,1.54329931640625,-0.0151690188908018,0.024309242478758,-0.0112041155815124,-0.0048422813415527,0.0100852847099304,0.0018334009218961
1783206402535236400,1.553236328125,-0.0242518497357144,0.0305639554919675,-0.0222808053910732,-0.0050446493551135,0.0065894913859665,0.0017827623523771
1783206402545172500,1.56317236328125,-0.0111424485221505,0.0352043651763349,-0.0619353549093008,6.75553455948e-05,0.0008775438182055,0.000290859490633
1783206402555109400,1.573109375,-0.0226939345029182,0.0321134134236723,-0.079600190937519,0.0034512691199779,-0.0007112482562661,-0.0003490331582725
1783206402565045200,1.583045166015625,-0.0163307561465539,0.0306987243201583,-0.0520674563676118,-0.0016087368130683,0.0015393891371786,0.0025370342191308
1783206402574982400,1.592982421875,-0.0169902429685927,0.021689488434419,-0.0237853647351264,-0.0027634352445602,0.0034789782948791,0.0012436634860932
1783206402584918500,1.60291845703125,-0.0168054609862156,0.0272691151976585,-0.0417453843176364,-0.0019298652186989,0.0030427523888647,-0.0014740925980731
1783206402594855400,1.61285546875,-0.0166984204151667,0.0263081612110137,-0.0522229391902685,0.0015337988734245,0.0003643375821411,-0.0001938217319548
1783206402604791300,1.622791259765625,-0.0143805353942327,0.0203501295894384,-0.0544715948998928,0.0025143753737211,-0.0005278214812278,0.0036097050178796
1783206402614728400,1.632728515625,-0.0158811126829124,0.029067652519606,-0.0451858801603317,-0.0038940757513046,0.0005334969609975,0.0010899489279836
1783206402624664300,1.642664306640625,-0.0135156256605871,0.0280561739221215,-0.0359089332491159,-0.0026477146893739,0.0034046510700136,-0.0009636143222451
1783206402634601500,1.6526015625,-0.0166433657596819,0.0253819132115691,-0.0495206944942474,-0.0035648876801133,-0.0013098721392452,-0.0011129034683108
1783206402644537300,1.662537353515625,-0.0006802190828137,0.0198738903798162,-0.0638794747143983,-0.0018309028819203,0.0014507607556879,0.0003829940687865
1783206402654474500,1.672474609375,0.0019925255240872,0.0271716827051714,-0.0411339744210243,0.0003552306443452,-0.0003143935464322,-0.0002834552433341
1783206402664410400,1.682410400390625,-0.0040747386256232,0.028012700106576,-0.048766076734662,0.0001000994816422,0.0028576974291354,-0.0008656224235892
1783206402674347500,1.692347412109375,-0.0045133675049059,0.0432575059136375,-0.0330617271244525,-0.000452633947134,0.0035831036511808,0.0024233802687376
1783206402684283400,1.702283447265625,-0.0105213940143585,0.040446613211371,-0.0400958635449409,0.0006642956286668,0.0023750937543809,0.0005953866057097
1783206402694220300,1.71222021484375,0.0052750908587127,0.0231313212731853,-0.055661096945405,0.0008921530097723,-0.0015021581202745,-0.0006035042461007
1783206402704156400,1.722156494140625,0.011768873324804,0.0187206652240827,-0.0517757799446582,-0.0016421116888523,0.0013253199867904,-0.0005811336450278
1783206402714093600,1.732093505859375,-0.0018318368033505,0.0141430185776203,-0.0474368739575147,0.0004095379263162,0.0013686525635421,-0.0012620146153494
1783206402724029200,1.742029296875,-0.0072347187601961,0.0120316159142181,-0.0430967989265918,-0.0012714499607682,0.0021758566144853,-0.0025395329575985
1783206402733966300,1.75196630859375,0.0014284984331578,0.0038159050263464,-0.0445937594860792,-0.0021817041561007,0.0026729388628154,-0.0003057753201574
1783206402743902500,1.76190234375,0.0095565675701946,0.0073899275882169,-0.0371188935607671,0.0028050644323229,0.0001969980075955,-0.0014091230696067
1783206402753839600,1.771839599609375,0.0054353229217231,0.0205220520902425,-0.0538794742256402,-0.0020624762400984,0.0024400923866778,0.0014013356994837
1783206402763775200,1.781775146484375,0.0041622707786038,0.0295943067422136,-0.0393687183141708,0.0007924316450953,-0.0004158816300332,0.0033734065946191
1783206402773712400,1.79171240234375,0.0029548129512928,0.0087870445024222,-0.0583680178165435,-0.0010533677414059,0.0004842095077037,-0.0011065497528761
1783206402783648500,1.8016484375,-0.0075931037438102,0.0349344621937721,-0.0511947651863098,-0.0008032964542508,0.0050810920074582,-0.0024815397337079
1783206402793585400,1.81158544921875,0.0105450488845817,0.0281325636265799,-0.0154629420697689,0.0074793631210923,0.0119334626942873,-0.0021430652122944
1783206402803521300,1.821521240234375,0.0178955029789358,-0.0302363675054162,0.0017360300123691,-0.0031378613784909,-0.0231164004653692,-0.0004365115892142
1783206402813458400,1.83145849609375,0.0111854839462786,-0.0147644018789753,-0.1870592796593904,-0.0026741074398159,0.0101823899894952,-0.000593764707446
1783206402823394300,1.841394287109375,-0.0251823903177864,0.0306716171175241,0.0011439093381166,-0.000600304454565,0.0081972703337669,0.0003625764511525
1783206402833331500,1.85133154296875,-0.0016400770909152,0.0127543406981974,0.0740267747193574,6.82780519127e-05,-0.0047397329472005,0.0023259725421667
1783206402843268400,1.861268310546875,6.94850396364e-05,0.0073733783122152,-0.1538788945913314,0.0026784418150782,0.0021948721259832,-0.0015720964875072
1783206402853204500,1.87120458984375,-0.0205537258701398,0.0222672517897561,-0.0856459008425474,0.0009544501081109,-0.0038806977681815,-0.0016024956712499
1783206402863141400,1.881141357421875,0.0001524140827357,0.010108794625476,0.0556067364096641,0.0011576488614082,0.0092545449733734,0.000220171874389
1783206402873077500,1.891077392578125,-2.71254689432e-05,0.0080169369127601,-0.0697895755410194,-0.0045381672680377,-0.0044168857857584,-0.000285408925265
1783206402883014400,1.901014404296875,-0.0042340025742538,0.0110790278971195,-0.1070388174831867,0.0019455645233392,0.0019757663831114,0.0009585537482053
1783206402892950300,1.9109501953125,-0.0101496198262088,0.0034181378804147,0.0120616091936826,0.0007849344983696,-0.0028198598884046,0.0014449986629188
1783206402902887400,1.920887451171875,-0.0192849297770299,0.0100056995771825,-0.0609486819595098,-0.0039160782471299,0.0010371962562203,0.0018679085187613
1783206402912823600,1.930823486328125,-0.0191057007526047,0.0293017170038074,-0.0637935499966144,-0.000370118767023,0.005645053461194,0.0019999886862933
1783206402922760400,1.940760498046875,-0.027363899075333,0.0190980106364935,-0.0236859960138797,-0.00178212672472,-0.0029151453636586,0.0013139583170413
1783206402932696300,1.9506962890625,-0.0215658255221322,0.0272828514620661,-0.0597486585199832,0.0002793576568365,0.0005623917095363,-0.0016566592967137
1783206402942633500,1.960633544921875,-0.018244919204805,0.0385782985888421,-0.0616945318907499,-0.0017611570656299,-0.0001353565603494,0.0006597582250833
1783206402952569600,1.970569580078125,-0.0043759683282114,-0.019266279875487,-0.0379050755023956,0.0006448933854699,0.0046065738424658,0.0023547473829239
1783206402962506200,1.98050634765625,-0.0149558145315386,0.0421816933756694,-0.0325280586391687,-0.0002227649092674,0.0007673609070479,0.0006133064161986
1783206402972442400,1.9904423828125,-0.0187712629001587,0.0121835916055366,-0.0633440526634454,-0.0023399069905281,0.0042003248818218,0.0006416358519345
1783206402982379500,2.000379638671875,-0.0181799459435045,0.039325829020515,-0.0395709628880023,0.0006329799070954,0.0042096460238099,-0.0022739928681403
1783206402992315400,2.0103154296875,-0.0112440274667926,0.0439370856756344,-0.0374818816542625,0.0002889353781938,0.0026144217699766,0.003156942082569
1783206403002252300,2.020252197265625,-0.0078735281203873,0.0220830543292686,-0.0552951862424612,-0.0013124234974384,0.0008330331183969,-0.0003704146947711
1783206403012188400,2.0301884765625,-0.0062460182501003,0.0217944831788539,-0.0421317532867193,-0.0035862484946846,0.0019293189980089,0.0003225756809115
1783206403022125600,2.04012548828125,-0.0075268883734941,0.0272028450284153,-0.0318050050616264,-0.0013838140293955,0.0012821708805859,0.0035378099419176
1783206403032062200,2.050062255859375,-0.0082547459903173,0.02029938578289,-0.0482721557378768,-0.0037053655833005,0.0040715453214943,0.0023680217564105
1783206403041998300,2.059998291015625,-0.0126948290633037,0.0264161516301333,-0.0395949282854795,0.0007061613723635,0.0039184135384857,-0.0005777005571871
1783206403051935500,2.069935546875,-0.0113831984754651,0.0172889519205316,-0.0360135626673698,0.0020712781697511,0.002878843108192,0.0016450744587928
1783206403061871400,2.079871337890625,-0.0160723792050033,0.0281141511870548,-0.040804304075241,-0.0039378786459565,0.0022455432917922,0.0001049682032316
1783206403071808300,2.089808349609375,-0.0012609050475992,0.0323539441812783,-0.0417079749166965,0.0005962820723652,0.0027242817450314,0.0015743256080895
1783206403081744400,2.099744384765625,0.0040041210748255,0.0281575884699821,-0.0517459693282842,0.0024682180956006,0.0031663666013628,0.0010251814965158
1783206403091681500,2.109681640625,0.0123349097097292,0.0168644794307649,-0.0501122306466102,0.0013267854228615,0.0035844077356159,-3.30747570842e-05
1783206403101617400,2.119617431640625,0.0006324161520227,0.0193301388919353,0.0109311438590288,0.0539678893983364,0.2254851162433624,0.0020636317785829
1783206403111554300,2.12955419921875,-0.0518470185499638,-0.0244231877146288,1.1531418613642457,-0.0371442511677742,-0.0015926575288176,0.0029870551079511
1783206403121490400,2.139490478515625,0.0701198121423833,0.0379940689601004,-1.0191238515406846,-0.0262386072427034,0.0246703717857599,-0.0023563113063573
1783206403131427600,2.149427490234375,-0.0525670399202033,0.0078715370927006,-0.6534013646453619,0.0130322184413671,0.020666467025876,0.0014439788646996
1783206403141363500,2.159363525390625,0.0183455483013764,0.0396942970067262,0.4399257872253656,0.0120692197233438,-0.060801763087511,0.0002636660356074
1783206403151300400,2.16930029296875,0.0195275611601769,0.0314308379869908,-0.1958428900957107,-0.0032803723588585,0.0089268069714307,0.0009749082382768
1783206403161236500,2.179236572265625,-0.0310951214929111,0.0287001161151565,-0.4321276806950569,-0.0375688374042511,-0.0605681128799915,0.0011586665641516
1783206403171173400,2.18917333984375,0.0410286508830264,0.029319252660498,0.0203086285352706,-0.0118725011125206,-0.0270010251551866,0.00057261926122
1783206403181109500,2.199109619140625,-0.0131567109540104,0.0343002559434622,0.1303431207031011,0.0163631327450275,-0.0306769851595163,-0.0003653459716588
1783206403191046100,2.209046142578125,0.0072195577236823,0.0271534346624277,-0.0565220976889133,0.0200820714235305,-0.0263271499425172,0.0002159986179322
1783206403200983000,2.218983154296875,0.0014760821682401,0.0185948834199458,0.0806926623493432,-0.0026860907673835,0.0015377700328826,-0.0012633872684091
1783206403210919200,2.228919189453125,-0.0039800095468759,0.0057245333929546,-0.0060661681711673,-0.0182687453925609,0.0089961532503366,-0.001794648473151
1783206403220856000,2.23885595703125,-0.0068004920613951,0.00392632486457,-0.0503466239243745,-0.0040061837062239,0.0081655140966176,0.0006693080067634
1783206403230792000,2.2487919921875,-0.0063943589459173,0.0214012278112582,-0.0398731607049703,0.0088778175413608,-0.01426912099123,0.002579943742603
1783206403240729000,2.25872900390625,-0.0125566809679381,0.0287406307886354,-0.1390723706036806,0.0080748740583658,-0.0101585313677787,-0.0013633989728987
1783206403250665200,2.268665283203125,-0.0243470720048062,0.0360189877611584,-0.0434562798887491,-0.0055288197472691,0.0043580932542681,-0.0003065664786845
1783206403260602000,2.27860205078125,-0.0168966281346976,0.0317953056515194,0.0430447764784097,-0.0101323602721095,0.0056244265288114,0.0026071981992572
1783206403270538000,2.2885380859375,-0.0060096704772673,0.0275259212366305,-0.0323661460757255,-0.0023087477311491,0.0013458048924803,-0.0004037069156765
1783206403280475100,2.29847509765625,0.005932276125811,0.0116239484287798,-0.0976040496617555,0.0031478032469749,-0.0079981628805398,-0.0005997156258672
1783206403290412300,2.308412353515625,0.0037300168411806,0.0175210071107372,-0.0419353539317846,0.0008231475949287,-0.0022150510922074,-0.0014248064253479
1783206403300348200,2.31834814453125,-0.0079959123910404,0.0319118081706576,-0.0248749135375022,-0.0031034173443913,-0.0001343237236142,0.0004993274342268
1783206403310285000,2.32828515625,-0.0074293462831526,0.019701200694032,-0.0374327818155288,-0.0054807048290967,0.0032709639053791,-0.0001526905689388
1783206403320221200,2.33822119140625,-0.0032110710009932,0.0175728468958288,-0.0526981554865837,0.0036523398011922,0.0004400238394737,-6.88009895384e-05
1783206403330158300,2.348158447265625,-0.0057429275661706,0.0154731529365293,-0.063322425353527,0.001640566624701,-0.002296766731888,0.0002407343126833
1783206403340094200,2.35809423828125,-0.0088686949038878,0.0105982586428523,-0.0425286436498165,-4.46811318397e-05,0.002685741521418,0.0016266433522105
1783206403350031000,2.368031005859375,-0.0010750270866788,0.0178972565446048,-0.0221808521479368,-0.0033743549138307,0.0030453449580818,0.0012350331526249
1783206403359967200,2.37796728515625,-0.008875362106692,0.0234622885269112,-0.0389320804625749,-0.0031266808509826,0.001079399138689,-0.0018220094498246
1783206403369904000,2.387904052734375,0.0011455167733132,0.0230007902286946,-0.0613777210265398,0.0008825482800602,-0.0029746470972895,-0.0001675845123827
1783206403379840300,2.39784033203125,0.002921604801435,0.0185933673162944,-0.0561392358511686,0.0015121195465326,-0.0008465154096484,0.0015815799124538
1783206403389777200,2.407777099609375,-0.000461297368817,0.0152786350114271,-0.0386287136018276,-0.0016760565340518,0.0025747641921043,0.0004843971692025
1783206403399714300,2.41771435546875,-0.0083099285099655,0.0186564408814534,-0.0312923793643713,-0.0030196215957403,1.57328322529e-05,0.0013736265245825
1783206403409650200,2.427650146484375,-0.0048686106833629,0.0169839410919696,-0.0498415970116853,-0.0010660625994205,-0.0023241629824042,0.001203677849844
1783206403419587000,2.437587158203125,0.0024243776027113,0.0033657866386696,-0.0549216767549514,-0.0004047993570566,-0.0014431891031563,0.0002478694077581
1783206403429523200,2.447523193359375,0.0049931503784842,0.0107689573009498,-0.0531225183784961,-0.0009546717628836,0.0010891482234001,-0.0022463400382548
1783206403439460000,2.457460205078125,0.005167063906975,0.0171978943699039,-0.0371101257324218,-0.0016761217266321,0.0029893135651946,-0.0005448462907224
1783206403449396200,2.467396240234375,-0.0127035603590309,0.0204530967735685,-0.0391921927034854,-0.0040539605543017,-0.0005881958641111,0.0025426575448364
1783206403459333000,2.4773330078125,-0.0055493412228301,0.0215384077922441,-0.0529524225085973,-0.000319143757224,-0.001597267575562,-0.0002997342962771
1783206403469269200,2.487269287109375,0.0007601341849192,0.0276920715837739,-0.0532511131942272,-0.0021159565076231,-0.001266895327717,-0.0014120583655312
1783206403479206100,2.4972060546875,0.0004387202108278,0.0159434190630912,-0.0324456410527229,-0.0006094062700867,0.0002031694166362,0.0012377870734781
1783206403489142300,2.507142333984375,0.0005966507188975,0.0079834913008846,-0.0444154803097248,-0.000797257758677,0.0003704517148435,0.0016608322039246
1783206403499079200,2.5170791015625,0.0034219372726976,0.0135936775991693,-0.052199558314681,0.0004781307652592,0.0002982802689075,-0.0007637096568942
1783206403509016300,2.527016357421875,0.0013150463876314,0.0099954156451858,-0.0575865120500326,0.002399387769401,0.0021039696875959,-0.0002753173466771
1783206403518952200,2.5369521484375,-0.0124735875280573,0.0214290473999455,-0.0435229153841733,-0.0020646024495363,-0.0003354856744408,0.0011550665367394
1783206403528889000,2.54688916015625,0.0017947561959736,0.0096255959521047,-0.0427601143181324,-0.0032211644574999,0.0002293861471116,0.0006740046665072
1783206403538825200,2.5568251953125,-0.0113519996196031,0.0325588191036134,-0.0541284805506467,-0.0042129261419177,0.0012070322409272,0.0011088987812399
1783206403548762000,2.56676220703125,0.0010336173640564,0.0258165783017873,-0.0434913512021303,0.0010732077062129,-0.0055684405378997,8.7430234998e-06
1783206403558698200,2.5766982421875,-0.00864593726499,0.0117008678562007,-0.0473790062904357,-0.0003710249438881,0.0010556397028267,0.0015597678720951
1783206403568635100,2.58663525390625,-0.0082100117994472,0.0151655665583908,-0.0449812974989414,5.82998618483e-05,0.000400376971811,0.0020426665432751
1783206403578572300,2.596572265625,-0.0077893569682724,0.0095663948444649,-0.037348610663414,0.0002814726904034,-0.0002536955289542,-0.0001224833540618
1783206403588508200,2.606508056640625,0.0026859876809641,0.0065477228767238,-0.0463216061919927,-0.0007607685402035,0.0005334876477718,0.0001885995734483
1783206403598445000,2.616445068359375,0.0002904708465561,-0.0063545018595643,-0.0606768792808055,-0.0005871299654245,-0.0022665597498416,0.0004823461640626
1783206403608381200,2.626381103515625,-0.0034832024732604,0.0034423955388367,-0.0455576360821723,-0.0027386741712689,-0.0006434880197048,0.0013631433248519
1783206403618318000,2.636318115234375,-0.0048136838920414,0.0057271454751491,-0.0407604649335145,-0.0014704763889312,-0.0005683870986104,0.0013293214142322
1783206403628254200,2.646254150390625,-0.0326031879683025,0.0417723271234892,-0.0280441912233829,0.0026399316266179,0.0010469141416251,-0.0004776364658027
1783206403638191000,2.656191162109375,-0.0282889597646892,0.0403126481007784,-0.0370195248395204,-0.0010549379512667,-0.0019808337092399,0.0032417341135442
1783206403648127000,2.666126953125,-0.0163338979517109,0.0363938672218471,-0.043005028989911,0.0002048043534159,0.0018343459814786,-0.0006262559909373
1783206403658064100,2.676064208984375,-0.0059523325331509,0.0121860027583315,-0.0350730669468641,-0.0011952193453907,0.0001805229112505,-0.0006057494319975
1783206403668001300,2.686001220703125,-0.0078762680667452,-0.0014357501578517,-0.0371668243557214,-0.0027499478310346,0.0026874982286244,-0.0002194447442889
1783206403677937200,2.695937255859375,-0.0104923140503466,0.0034301753780804,-0.0461450805813074,-0.0019067907705903,-1.96048058569e-05,0.0008364988025277
1783206403687874000,2.7058740234375,-0.0226872490338049,0.0139635338248685,-0.0495861609458923,-0.0001371325924992,-0.0003817323595285,0.0017849600408226
1783206403697810200,2.71581005859375,-0.0314297237421385,0.022551767819561,-0.046143911537528,-0.0005315467715263,0.0012486549094319,0.0019825666677206
1783206403707747300,2.725747314453125,-0.0270324934301897,0.0138669415825977,-0.0465863946080207,-0.0024941703304648,-0.0016665337607264,-0.0003715234342962
1783206403717683200,2.73568310546875,-0.0143250606136396,0.0122177678697742,-0.0368511825352907,-0.0023713987320661,0.0003066025674343,0.0016687242314219
1783206403727620000,2.7456201171875,0.0006553403698839,0.0049315563843585,-0.0426741896003484,-0.0019398014992475,-0.0025324486196041,0.0024343880359083
1783206403737557200,2.75555712890625,-0.0163923136080615,0.0373567209046334,-0.0571872835993766,-0.0032314350828528,0.0005056858062744,0.0009560675825923
1783206403747493400,2.765493408203125,-0.021116255123727,0.0564316429264843,-0.036977439263463,-0.0020212130621075,-0.0009908503852784,0.0018019899725914
1783206403757430000,2.775429931640625,-0.0323730142079293,0.0621890556757338,-0.0514952094376087,-0.000886439345777,0.0005154334940016,-0.0003791388589888
1783206403767366100,2.7853662109375,-0.0025571371369063,0.0611587262473069,-0.0493996984630823,0.0034495517611503,0.0013225814327597,9.22011677175e-05
1783206403777303300,2.79530322265625,3.65143517963e-05,0.0223984952202998,-0.0576326892793178,-0.0022107306867837,-0.0003530792891979,-0.0024620364420115
1783206403787239200,2.8052392578125,0.0011587233147583,0.022587807247322,-0.0281529122948646,0.0026066293939948,0.0054038884118199,-0.0047432342544198
1783206403797176000,2.815176025390625,0.0193965186590328,0.0065968044491484,-0.0413268666446208,-0.0007630679756402,-0.0024401866830885,-0.0017706138314679
1783206403807113200,2.82511328125,0.0155261434990912,0.015712532916665,-0.0654132601529359,-0.0031044883653521,0.0020259222947061,-0.0001562575343996
1783206403817049300,2.83504931640625,-0.0099606913916766,0.0246924879089929,-0.0453583141177892,-0.001549202017486,0.0003683706745505,-0.0005996737163513
1783206403826986000,2.844986083984375,-0.0291042399366386,0.0548496892309747,-0.0381733710497617,0.0003401581197977,-0.0007762177847325,-0.0004539068322628
1783206403836922000,2.854922119140625,-0.0118083650849759,0.0151599405352026,-0.0610644172936677,-0.0015379032120108,0.0003942414186894,0.0024769019801169
1783206403846859300,2.864859375,-0.0017105302449315,0.0169641221466474,-0.0372743763834238,-0.0002399254590272,0.0004351758398115,0.0014212152455002
1783206403856795100,2.874795166015625,0.0010074234768748,0.0280972913837991,-0.0408627562642097,0.0021217660978436,-0.0004569832235574,-0.0017087977612391
1783206403866732000,2.88473193359375,0.0073712959529832,0.0064535600535571,-0.052533320313692,-0.0002304911613464,0.0037809028290212,0.0004103020764887
1783206403876669200,2.894669189453125,0.0031330555950291,0.0307952252308838,-0.0456453143656253,-0.00296928640455,0.0015784688293933,-0.0014475190546363
1783206403886605300,2.904605224609375,-0.0013149550560861,0.0189714616473764,-0.0423521180391311,0.0001848014071583,-5.30881807208e-05,0.0030170243699103
1783206403896542000,2.9145419921875,-0.0100505616322159,0.0217932958687655,-0.0537163926184177,-0.0001262556761503,-0.0003987667150795,-0.0002512070350348
1783206403906478000,2.92447802734375,-0.0088731336169876,0.0099117924823425,-0.045489247021079,-0.0014208164066076,0.0009663123637437,0.0003576823510229
1783206403916415200,2.934415283203125,-0.015665405839309,-0.005351078704372,-0.051925417548418,-0.0034112622961401,0.0003330125473439,0.0011078950483351
1783206403926351000,2.94435107421875,-0.0120183728401549,-0.0038651327292434,-0.042495910423994,-0.0001534409821033,-0.0018455334939062,0.0013553607277572
1783206403936288000,2.9542880859375,-0.0060053048294037,-0.0003923603184521,-0.0465320340722799,8.5711479187e-05,0.0005321367643773,0.0001574708148837
1783206403946225200,2.96422509765625,-0.0106614600721746,0.0135862249450758,-0.0469786087960004,-0.0014332775026559,0.0010234634391963,-8.2604587078e-05
1783206403956161300,2.974161376953125,0.0033351357720792,0.0166583989320322,-0.0436865815132856,0.0005276082083582,-0.0007089227437973,0.0008132827933877
1783206403966098200,2.98409814453125,0.0013883490858599,0.0188698644364252,-0.0472767149597406,0.0009793825447559,0.0017765774391591,-0.0004464124795049
1783206403976034000,2.994033935546875,-0.0047753063767217,0.0171535255052149,-0.0394943905204534,-0.0010118624195456,0.0016484796069562,-2.00404319912e-05
1783206403985971200,3.00397119140625,-0.0020865239504724,0.018790771318227,-0.0411357279866933,-0.0010940609499812,0.0029608302284032,-0.0020020855590701
1783206403995908400,3.013908447265625,0.0024028233580291,0.017649163535051,-0.0376911404907703,-0.0028818417340517,0.0007051327265799,0.0023774830624461
1783206404005844200,3.02384423828125,0.00831427589152,0.0055234578629024,-0.0496592261821031,-0.0009114407002925,-0.0008747735992074,0.0001725782640278
1783206404015781000,3.033781005859375,0.0144721957330591,0.0027674554193392,-0.0427776499748229,-0.0009812153875827,0.0015771985054016,0.0003632605075836
1783206404025717200,3.04371728515625,0.0137790441034361,0.0073899093219079,-0.0505611434578895,-0.0026324447244405,0.0035774689167737,0.0010778494179248
1783206404035654100,3.053654052734375,0.002843644194398,0.0158233728799968,-0.037839024528861,-0.0039365943521261,-0.0014351326972246,-0.0017126108286902
1783206404045591000,3.063591064453125,-0.0072391574732959,0.0331978293932043,-0.0523427661776542,-0.0004475666210055,-0.0005643698386847,-0.0007583349943161
1783206404055527200,3.073527099609375,-7.52023943699e-05,0.0204787792040966,-0.0500941104680299,-0.0014425227418541,0.0006966367363929,-0.002636396093294
1783206404065464300,3.08346435546875,0.0011379362550564,0.0086446586233563,-0.0493494295805692,0.0021590199321508,0.0016400543972849,0.0018309033475816
1783206404075400200,3.093400146484375,0.0016916611476801,0.0063885685259476,-0.0483078115731477,0.0010061375796794,0.0031601865775883,0.0016261064447462
1783206404085337000,3.103337158203125,-0.0013258965752087,0.0039628026837483,-0.0465162519812583,-0.0027302857488393,0.0050064157694578,0.0002128244377672
1783206404095273200,3.113273193359375,0.0031310645673424,0.0081419880645349,-0.0511550176978111,0.0011291680857539,-0.0008964808657765,0.0012985952198505
1783206404105210000,3.123210205078125,-0.0025105580488219,0.0141255011872388,-0.0385842899382114,-0.0016387365758419,0.0015151095576584,0.0005380900111049
1783206404115147000,3.13314697265625,-0.0065900459147989,0.0274557968761771,-0.0466571217566728,-0.0029114605858922,0.000156897585839,0.0006819004192948
1783206404125083100,3.143083251953125,-0.00468046770012,0.0241679160456173,-0.0436702149003744,0.0019780797883868,0.0003756792284548,-0.0006776885129511
1783206404135020300,3.153020263671875,-0.0012662936087697,0.0155238967430777,-0.0435223308622837,-0.0021881693974137,0.0010822159238159,0.0020448612049221
1783206404144956200,3.1629560546875,0.0052376997240819,0.0156505370637401,-0.0403723423987627,-0.0011527789756655,-0.0004682862199842,0.0027396611403673
1783206404154893000,3.17289306640625,-0.0055103061203844,0.0195829080766066,-0.0492015455424785,-0.0004494376480579,-0.0007369993254542,-0.0005605281330645
1783206404164830200,3.182830322265625,-0.002607954008691,0.0160364676414057,-0.0500987866431474,-0.0013744970783591,0.0019333087839186,-0.0005989833734929
1783206404174766000,3.19276611328125,-0.0087217059149406,0.0188839112280868,-0.0432107806950807,0.0012527117505669,0.0002856110222637,-0.0011941997800022
1783206404184701700,3.20270166015625,-0.0080744027210399,0.020143793362379,-0.0481447299659252,-0.0010756142437458,0.0007405718788504,0.0004753218963742
1783206404194637800,3.212637939453125,-0.0026158815868198,0.0202850284639745,-0.049040217500925,0.0024296389892697,-0.0027449736371636,-0.0009987377561628
1783206404204574500,3.222574462890625,-0.002075271904096,0.0089346910784952,-0.0406540819495916,0.0003462499007582,-0.001776629127562,0.0012719670776277
1783206404214511600,3.23251171875,-0.0052344300547614,0.0166487177882343,-0.0422942503720521,-0.0017600441351532,0.0002020993269979,-0.0018231584690511
1783206404224447700,3.24244775390625,-0.0092700787790119,0.0276578222543001,-0.0493248796612024,0.0009348653256893,0.0009091054089367,0.0012913865502923
1783206404234385000,3.252385009765625,-0.0037133031683973,0.0190223698507063,-0.0446866984665393,-0.0016025947406888,0.0025056703016161,-8.97289719432e-05
1783206404244320500,3.262320556640625,-0.0057918630081228,-0.0012242445653304,-0.0476823731511831,0.0011961814016103,0.0007601520046591,-0.0012252612505108
1783206404254257700,3.272257568359375,-0.0109752204627729,-0.0039641543906182,-0.0478378559738397,0.0008329255506396,-0.0007306854240596,0.0012280428782105
1783206404264193800,3.28219384765625,-0.0054097135564312,-0.0030974180260673,-0.0485842904269695,-0.0030419882386922,0.0008260463364422,0.0033435302320867
1783206404274130700,3.292130615234375,-0.0121071653684601,0.0092940624427981,-0.0458884754717349,-0.0018560830503702,0.0020268657244741,-0.0006986155640333
1783206404284067600,3.302067626953125,-0.0085715385882183,0.0117720333962701,-0.0422971729815006,-0.0011237207800149,0.0024764179252088,0.0009001675061881
1783206404294003700,3.312003662109375,-0.0053899494100362,0.0294456920517608,-0.0451391184091568,-0.0037163086235523,0.0025360726285725,0.0021443963050842
1783206404303940900,3.32194091796875,-0.0076883990781381,0.0221193494853563,-0.0430418538689613,0.0010067718103528,0.0001503652893006,0.0004783691838383
1783206404313876700,3.331876708984375,0.0013225538406521,0.0131233749399892,-0.0458832147747278,0.0003212746232748,0.001948797609657,-0.0001581264659762
1783206404323813600,3.341813720703125,-0.0152461757802404,0.0349399968854151,-0.0469330160886049,0.0004690857604146,0.0017107846215367,-0.0002935910597443
1783206404333750800,3.351750732421875,-0.0326270255016162,0.0812927836669609,-0.0446925436854362,0.0006115650758147,0.002414924558252,0.0003602148499339
1783206404343687000,3.36168701171875,-0.0005907141684554,0.029561518717464,-0.0430471145659685,0.0005323141813278,-0.0009931293316185,-0.0001198882237076
1783206404353623600,3.37162353515625,0.0042276458987034,-0.0152710362268611,-0.0604062456458806,0.0030596535652875,0.000869751907885,0.0012817333918064
1783206404363559700,3.3815595703125,-0.0049268436766229,0.0130835178536362,-0.0363128378748893,0.0001005847007036,0.0012388271279633,0.0001024997327476
1783206404373496800,3.391496826171875,-0.0036333150010555,0.0102439105135388,-0.0460369440317153,-0.0034880246967077,-0.0036358227953314,-0.0017444023396819
1783206404383433700,3.401433837890625,-0.0143460668690502,0.0254114315669983,-0.0470797310829162,0.0023747878149151,0.0029742955230176,-0.0016460857586935
1783206404393369600,3.41136962890625,0.0069340918458066,0.0351992506098002,-0.0375081851392984,0.0014109900221228,-0.0006286953575909,-0.0006572538986802
1783206404403306800,3.421306640625,0.002160210241191,0.0060058528186753,-0.0496235703468322,-0.0023899050429463,-0.0017312597483396,-0.0015006564790382
1783206404413243000,3.431242919921875,-0.0006690218353644,0.0051521951314061,-0.0437841966688632,0.0004674000665545,-0.0003658570349216,0.0005931206978857
1783206404423179500,3.441179443359375,-0.0092259473763406,-0.0300405161397531,-0.0371913742750883,-0.001055440865457,-0.0041284272447228,0.0041837920434772
1783206404433116700,3.45111669921875,-0.0306063881278969,-0.0124823005574755,-0.0466191278338432,0.0021155849099159,-0.0005576610565185,0.0003951792605221
1783206404443052800,3.461052734375,-0.0335271344128064,0.0007829670712351,-0.057539165776968,-0.0007593715563416,0.0020779664628207,-8.21922440081e-05
1783206404452989700,3.47098974609375,-0.0163643296225927,0.0199243419254198,-0.0428758496522903,-9.62447375059e-05,0.0020369538106024,0.0020731040276587
1783206404462925600,3.480925537109375,0.0116585813507437,0.0222631966691464,-0.0478062917917966,-0.0039381263777613,0.0008661719039082,0.0019836963620036
1783206404472862700,3.49086279296875,0.0154899579408578,0.030171467309352,-0.0582774169236421,-0.0043759504333138,0.0018888260237872,-0.002742881886661
1783206404482799900,3.5007998046875,0.0034173341628164,0.0280420905978418,-0.0485486345916986,0.0017972560599446,0.0014314777217805,5.23698981851e-05
1783206404492735700,3.51073583984375,-0.0038915092795155,0.0328481026400811,-0.0350765740782022,-0.0016406187787652,-0.0020420830696821,0.0021583975758403
1783206404502672600,3.520672607421875,-0.0181826128246262,0.0261012769946828,-0.047494157102704,0.0014309110119938,-0.0028049699030816,0.0030320181977003
1783206404512609800,3.53060986328125,-0.0280493971214629,0.0128885432708077,-0.0401601609528064,-0.0017371848225593,-0.000575637910515,0.0005227879155427
1783206404522546000,3.5405458984375,-0.0194164472022093,0.0072617711639031,-0.0455412694692611,-0.0014619259163737,0.0006975675933063,0.0014184194151312
1783206404532482600,3.550482666015625,-0.0161629618315957,0.0163207279428839,-0.0540741200149059,-0.0005348799750208,0.0024115778505802,0.0022226937580853
1783206404542418700,3.560418701171875,-0.0029887334872037,0.0406163437550887,-0.0356704483181238,0.000586706213653,0.0001372639089822,0.0009807350579649
1783206404552355800,3.57035595703125,0.0121248471556231,0.0367737699175253,-0.0497334604620933,0.0018463814631104,-0.0020822142250835,0.001228409120813
1783206404562292700,3.580292724609375,-0.0023196385866031,0.031251408033166,-0.0492915619134902,0.0013982709497213,0.0012476644478738,0.0004930002614855
1783206404572228600,3.590228515625,0.0045020606596022,0.0377102835826575,-0.035531916630268,-0.0012555690482258,-0.000104954931885,0.0021335072815418
1783206404582165800,3.600165771484375,-0.003350315074902,0.0210840150882489,-0.0536398202508687,0.0006610844284296,0.0003773067146539,0.0020720455795526
1783206404592102000,3.610101806640625,-0.0209388709965161,0.0150632204287685,-0.0533370379120111,-0.001678236760199,-8.63494351506e-05,-0.0017461284296587
1783206404602038500,3.62003857421875,-0.0191600795546546,0.0304588511496782,-0.041361937958002,0.0011010766029357,-0.0020483550615608,0.0020722562912851
1783206404611975700,3.6299755859375,-0.0358908861357718,0.0165689305502921,-0.0623112024843692,0.0032622320577502,-0.0016174549236893,0.0009103191550821
1783206404621911800,3.639911865234375,-0.0227974131437018,0.0527294091413728,-0.0434574489325284,-0.002772020176053,-0.0004295990802347,-0.0012388932518661
1783206404631848700,3.6498486328125,-0.0109537210170179,0.0265256398865953,-0.0492968226104974,0.0019526928663253,0.0033923035953193,-0.0024895137175917
1783206404641784600,3.65978466796875,0.0083838705290108,0.0388193773357197,-0.0394248324155807,0.0009496379643678,0.0015535885468125,-0.0029141642153263
1783206404651721700,3.6697216796875,0.0019812369450926,0.0418181390265934,-0.0499029718101024,0.0002529555931687,-0.0021151821129024,-0.0009673936292529
1783206404661659000,3.679658935546875,-0.0059723524078726,-0.0002617014097981,-0.0398813440114259,0.0002996800467371,0.0034243618138134,-0.0013692788779735
1783206404671594500,3.689594482421875,-0.0085751553174108,0.0338291130340658,-0.0319558117091655,-0.003091056831181,-0.0023291315883398,0.001644087722525
1783206404681531600,3.69953173828125,-0.0216521703650243,-0.0127530985891818,-0.0506523288726806,0.0017312727868556,-0.0008987723849713,-7.7488599345e-05
1783206404691467800,3.7094677734375,-0.0339318975551053,0.0048431657148525,-0.0312023629933595,0.0014921212568879,-0.0012934529222548,0.0027755559422075
1783206404701405000,3.719405029296875,-0.0125718602707609,0.0001360657361336,-0.0448182158917188,0.0014563845470547,0.0035585686564445,-0.000274732010439
1783206404711341600,3.729341552734375,-0.0052344483210705,-0.0057681350726634,-0.0485614940732717,-0.0014139702543616,3.7811696529e-06,-0.0019450666150078
1783206404721277700,3.739277587890625,0.0174378223393112,-0.0022696436987258,-0.0349438876092433,-0.0030326526612043,0.0013857842423021,0.0022263568826019
1783206404731214800,3.74921484375,0.0213514521190896,0.0202885173290036,-0.0451174910992383,0.0003053527325391,-0.0004155775532126,0.0011051660403609
1783206404741151700,3.75915185546875,0.0288419722712598,0.0266321690009906,-0.0451186601430177,0.0014078458771109,0.0014349897392094,0.0007829361129552
1783206404751087600,3.769087646484375,0.0215790503298863,0.0467145510323345,-0.0370376450181007,0.0004320638254284,-0.0009597246535122,-0.0024661202915012
1783206404761024800,3.779024658203125,-0.0012699468705803,0.0429126562650315,-0.0497533342063426,0.0025577843189239,-0.0034201587550342,0.0015043909661471
1783206404770961000,3.7889609375,-0.0195655550830066,0.0145754734444431,-0.0434685548484325,0.002241401001811,0.0018936470150947,0.002644223626703
1783206404780897500,3.7988974609375,-0.0228154419907368,0.0355759749677032,-0.0386848277032375,0.0014953883364796,-0.0011171102523803,-0.0011364633683115
1783206404790834700,3.808834716796875,-0.0221548774564638,0.0303009571742266,-0.0485667547702789,0.0017569111660122,0.0008435086347162,0.0004840702749788
1783206404800770800,3.818770751953125,-0.0101222020963206,-0.0011208572560921,-0.0464788425803184,-1.98623165488e-05,0.0029815214220434,0.0016590964514762
1783206404810707700,3.828707763671875,0.0055825493726879,0.0272678000234067,-0.0403425317823886,-0.0002925703302025,-0.0015956535935401,-0.0002085783053189
1783206404820644600,3.83864453125,0.0202284394385293,0.0155314955276437,-0.0523123710393905,-5.4202973842e-06,0.0017613200470805,-0.0003678784705698
1783206404830580700,3.848580810546875,0.0244625150780193,0.0297182801817543,-0.0484282230824232,0.0022795721888542,-0.0014043794944882,0.0012262898962944
1783206404840517600,3.858517578125,0.0236854845572263,0.0075587813491001,-0.0505237340569496,7.04722478985e-05,0.0020174011588096,0.0016696781385689
1783206404850453500,3.86845361328125,0.0349683096644468,0.0311896861748769,-0.0330231486797332,0.0001005651429295,-0.0017043664120137,0.0011508942116051
1783206404860390700,3.878390625,0.0093216628357768,0.0007633307890035,-0.047678866019845,8.53827223181e-05,-0.0005562743172049,-0.0017650759546086
1783206404870327800,3.888327880859375,-0.0088516889701597,0.0214358972658403,-0.0478314262330532,0.000386320054531,0.0009950171224772,0.0003172496799379
1783206404880263700,3.898263671875,-0.0032795513936318,0.00611528627621,-0.0357119493722915,0.0007505305111408,-0.0006206654943525,0.0022677311208099
1783206404890200600,3.90820068359375,-0.0015038104253821,0.0209917154286056,-0.0632481910735368,-0.0021043792366981,-1.7466954886e-06,0.0011555950623005
1783206404900136700,3.91813671875,0.0021027992318384,0.0218111055200919,-0.0387047014474868,3.07196751236e-05,-0.0002019675448536,5.33366110175e-05
1783206404910073900,3.928073974609375,0.0145580473856069,0.0032317119302228,-0.0379500836879014,-0.0022492120042443,-0.0010970556177198,0.0032003943342715
1783206404920010800,3.9380107421875,-0.001728358162567,0.0174907215703278,-0.0563520018190145,-0.0002649975940585,0.000469144899398,0.0007860425394028
1783206404929946600,3.947946533203125,0.0039672779294662,-0.003323993323557,-0.0499164158135652,-0.0022732866927981,-0.0006174249574542,0.0001897606998682
1783206404939883800,3.9578837890625,-0.0095048556492663,0.0374277585805393,-0.0362964712619781,0.0011067548766732,0.0003172326833009,0.0011864616535604
1783206404949820700,3.967820556640625,-0.0085376363186165,0.0103247023984789,-0.0481155038714408,-0.0021004900336265,-0.0012676143087446,0.0029936828650534
1783206404959756500,3.977756591796875,0.0068221011050045,0.031035847320035,-0.0532020133554935,0.0014707101508975,0.0026544684078544,-0.0006552867125719
1783206404969693700,3.987693603515625,0.0024219664499163,0.0039679355165921,-0.0407803386777639,-0.0002267882227897,-0.0029205926693975,5.23151829838e-05
1783206404979629800,3.9976298828125,0.0125090972328558,0.0219136891117319,-0.0475070165842771,-0.0025400444865226,-0.0014671003445982,0.0012780129909515
1783206404989566700,4.007566650390625,-0.008762713778764,0.0195661396048963,-0.0397235231012105,-0.000923772342503,-0.0008058375678956,0.000365880317986
1783206404999503600,4.017503662109375,-0.0138683663547039,0.0097236677654087,-0.0425637149631977,-0.0017307549715042,0.0012691528536379,0.0021986830979585
1783206405009439700,4.027439697265625,-0.011537731450051,0.0213137321908958,-0.0528881251007318,-0.0010697580873966,-8.98581929504e-05,0.0022138627246022
1783206405019376600,4.037376708984375,-0.019742811346054,0.0111656650009565,-0.043601825839281,-0.0021130610257387,0.0004395209252834,0.0007012570276856
1783206405029313800,4.047313720703125,-0.0115546095196157,0.0245800587767735,-0.040459436160326,-0.0026046819984912,0.0028890965040773,0.0025007552467286
1783206405039249700,4.057249755859375,-0.0133755048038437,0.0197545017838478,-0.0504798949152231,-0.0014814212918281,0.0009585469961166,0.0021451720967888
1783206405049186800,4.067186767578125,-0.0089537793714553,0.0156860467685386,-0.0453892937779426,0.000410221517086,-0.0003815554082393,0.000366446794942
1783206405059122700,4.077122802734375,-0.0101911026140674,0.0096508947901427,-0.0498737457156181,0.000407931394875,0.0011118561960756,-0.0020406472031027
1783206405069059600,4.0870595703125,-0.0081716525504365,0.0077783606502227,-0.0441828405976295,-0.0012882351875305,-0.0002117352560162,-0.001892309053801
1783206405078996700,4.096996826171875,-0.0122130734283477,0.0203128297863528,-0.043728667089343,-0.0010132072493433,-0.0005186349153518,0.0029286982025951
1783206405088932900,4.106932861328125,-0.0073650306089781,0.0224045231022872,-0.0471679938882589,0.0005127843469381,0.0001261164434254,0.0019358715508133
1783206405098869800,4.116869873046875,-0.0194304026623256,0.0247529311256483,-0.0464256510883569,0.0008379388600587,0.0017474615015089,-0.0011941983830183
1783206405108806700,4.126806640625,-0.0141932143948972,0.0314019954849965,-0.0405874464541673,6.37583434581e-05,-0.0011101104319095,0.002536890329793
1783206405118742800,4.13674267578125,-0.0175922457160428,0.0289008811179548,-0.047475452402234,-5.83147630095e-05,-0.0028410297818481,0.000557588879019
1783206405128679700,4.1466796875,-0.0039429289394989,0.0273227998799644,-0.0491179589122533,0.0012820539996027,0.0009582359343767,0.0010188482701778
1783206405138616800,4.156616943359375,-0.0038806042930111,0.0192313546925783,-0.0554097525328397,-0.001513235270977,-0.0004066471010446,0.0012755636125802
1783206405148552700,4.166552734375,-0.0139828047809191,0.0286856674646958,-0.0504658663898706,-0.0018956642597913,-0.0020950906910002,0.001450000796467
1783206405158489600,4.176489501953125,-0.0052730815647169,0.0221436802090145,-0.0476186602652072,0.000755893997848,0.0026902437675744,-0.0014237610157579
1783206405168425700,4.18642578125,-0.0051638125039637,0.0289410852641798,-0.0510679239362478,-0.0006654346361756,0.0028801271691918,-0.0004823335912078
1783206405178362600,4.196362548828125,0.0084655209304764,0.0173813063791021,-0.0429904159426689,0.0009698551148176,-0.0001677116379141,-0.0007986619602888
1783206405188300800,4.20630078125,-0.0034886275670491,0.0301393368717283,-0.0367062211066484,-3.44226136803e-05,-0.0001237695105373,-0.0011557918041944
1783206405198237000,4.21623681640625,-0.0092862079299055,0.0317583894409239,-0.0530190580040216,0.0036696512252092,-0.0008875764906406,0.000480709830299
1783206405208174000,4.226174072265625,-0.0042830293477512,0.0193621962643228,-0.0456856463760137,0.0008621467277407,-0.0018796045333147,-0.0002761606592684
1783206405218110700,4.23611083984375,-0.0066250441629439,0.0228209401497617,-0.0455307480752468,0.000863391906023,-0.0009049801155924,0.0006816834211349
1783206405228046800,4.246046875,-0.0070033576897345,0.0154163629816845,-0.04343582162261,0.0008588647469878,0.0003786636516451,-0.0007617496885359
1783206405237984000,4.25598388671875,-0.0040198301006108,0.0286203288772143,-0.0393973598867654,-0.0006642490625381,-0.0009161960333585,-0.000979071483016
1783206405247919900,4.265919921875,-0.0126968018246814,0.0198489020690321,-0.0398474417418241,0.0021677566692233,8.0891419202e-05,-0.0026430145371705
1783206405257856800,4.275856689453125,0.0013159231704659,0.0200420500209555,-0.0395557653188705,0.0019940668717026,-0.0009500631131231,-0.0023228507488965
1783206405267794000,4.2857939453125,0.0043718218760564,0.0300405709386803,-0.0391086060732603,-0.0023908279836177,0.0018395977094769,-0.0004037767648696
1783206405277730000,4.29572998046875,-0.0023956994974985,0.0306857004418037,-0.0385077175706624,0.0019037360325455,-0.0017403475940227,-0.0010179022792726
1783206405287666700,4.305666748046875,-0.0005986965455114,0.0337804881193675,-0.0467366167336702,0.0018821647390723,-0.0035925759002566,-0.0027367062866687
1783206405297603800,4.315603759765625,0.0060080265094526,0.0343746546202339,-0.0437432801365852,0.0003961250185966,-0.0009694220498204,-0.0020142546854913
1783206405307540000,4.3255400390625,0.0027180267870426,0.025842114601843,-0.0497287842869758,0.0012158453464508,1.22189521789e-05,0.0020457343198359
1783206405317476900,4.335476806640625,-0.0061879861862398,0.0191822548538446,-0.0476379494875669,-0.0001669349148869,9.70284454524e-05,0.0012967810034751
1783206405327413800,4.345413818359375,0.0008908661588095,0.0226959985958412,-0.0453945544749498,0.0006290832534432,-0.0006095082499086,-0.0008918046951293
1783206405337350000,4.355349853515625,0.002243011420127,0.0213195408771745,-0.0386684610903263,0.000180504284799,0.0015167859382927,-0.0029005431570112
1783206405347287000,4.365287109375,0.0043003092761151,0.0300249715107493,-0.0455535444289445,0.0020345970988273,-0.0010190759785473,0.0017445422708988
1783206405357223000,4.375222900390625,0.0010528700537979,0.0266006048189476,-0.047348611152172,0.0009615123271942,0.0012579732574522,0.0008423852268606
1783206405367159800,4.385159912109375,-0.0030112558462657,0.0266255748634226,-0.0485468810260295,9.43867489695e-05,0.0002963058650493,-0.0003744128625839
1783206405377097000,4.395096923828125,-0.0020743768549524,0.0227398742701858,-0.0416629667311906,0.0013188105076551,-0.00091044139117,-0.0004993877373635
1783206405387033000,4.405033203125,-0.0039276035062037,0.0209591831321828,-0.0424129083156585,-0.0010833600535988,0.0015732222236692,-0.0008655723650008
1783206405396969700,4.4149697265625,0.0034584150918759,0.0260532731344923,-0.0364262351214885,0.002074846997857,-0.0020781718194484,0.0001626000739634
1783206405406907000,4.424906982421875,6.85717241838e-05,0.0139488477123901,-0.0449590856671333,0.0027584806084632,-0.000286663416773,-0.0002390046138316
1783206405416843000,4.434843017578125,-0.007219101065956,0.0254574626658111,-0.0422726230621337,0.0009202836081385,0.0026228784117847,-0.0007846558000892
1783206405426780000,4.44477978515625,-0.0010059073732234,0.0246917572566308,-0.0418254638165235,0.0001791259273886,0.0010654618963599,-0.002136742696166
1783206405436716800,4.454716796875,-0.0078694729997776,0.0230472962515428,-0.0508119033485651,0.002284581772983,0.0018798704259097,8.69059003889e-05
1783206405446653000,4.46465283203125,-0.0033813860666006,0.0174681078797206,-0.0461766447633504,0.0015679253265261,0.0013925121165812,-0.0025424328632652
1783206405456589800,4.47458984375,0.0030961759170517,0.0167053068136796,-0.0424339511036872,0.0015470311045646,-0.0017130458727478,0.0002130228094756
1783206405466525700,4.484525634765625,-0.0039066703160293,0.0239320249305106,-0.0458756159901618,0.0009667286649346,0.0013386704958975,0.0002031691838055
1783206405476462800,4.494462890625,-0.002492200408224,0.0181882571141235,-0.0472235234677791,0.0017660744488239,-0.0005889846943318,-0.0011221391614526
1783206405486400000,4.50439990234375,-0.0081831237925216,0.0081574778946116,-0.0427343953549861,-0.0020773997530341,0.0010070474818348,-0.0028254971839487
1783206405496336000,4.5143359375,-0.0033121567552909,-0.0013282163964584,-0.0427343953549861,0.0007915943861007,0.0020099678076803,0.0005848044529557
1783206405506272800,4.524272705078125,-0.0024283231254667,0.0163045805256813,-0.0464794271022081,-0.0013298792764544,0.0020118323154747,-0.0007310635410249
1783206405516210000,4.5342099609375,-0.0002694645911455,0.0298955547111108,-0.0475286438941955,-0.0013444917276501,-0.0022338218986988,-0.0018226205138489
1783206405526146000,4.54414599609375,0.0075640055134892,0.0242468082344159,-0.0445312156438827,0.0025314735248684,-0.001602919306606,0.0007646402809768
1783206405536083000,4.5540830078125,-0.0021866233240813,0.0240112276465632,-0.043337037423253,0.0020687421783804,-0.0017669326625764,-0.000388391315937
1783206405546019800,4.564019775390625,-0.0058847471896558,0.0181237953094765,-0.0535141480445861,0.0003475416451692,-0.0021717334166169,0.0011277461890131
1783206405555956000,4.5739560546875,-0.0060113875103183,0.0184366789172403,-0.0491740730136632,0.0020958576351404,-0.0026049548760056,-0.0007571855094283
1783206405565892900,4.583892822265625,-0.0072787953639402,0.0185795214540325,-0.0396036961138248,-0.0010165786370635,-0.000612377654761,-0.0013816966675221
1783206405575830000,4.593830078125,-0.007912599755451,0.0244772925220429,-0.0457417604774236,0.0026696538552641,0.0007552620954811,-0.0011600856669247
1783206405585766000,4.603765869140625,-0.0050709465887397,0.0262465306842699,-0.0405085359990596,-0.0003330605104565,0.0012396909296512,0.0014309037942439
1783206405595702800,4.613702880859375,0.0088845135275274,0.0184445151638239,-0.0432043509542942,0.001012491993606,0.0009816964156925,-0.0011974996887147
1783206405605639000,4.623638916015625,0.003281341491919,0.0198472946338355,-0.0423100324630737,-0.0006157644093036,0.0017388332635164,0.0017375701572746
1783206405615575800,4.633575927734375,-0.0134337560634128,0.0219630081461742,-0.0336392347514629,0.0033372370526194,0.0021277391351759,-0.0013256107922643
1783206405625513000,4.643512939453125,-0.0132491750104352,0.0298666939428076,-0.037682372662425,0.0008210819214582,-0.0014262492768466,-0.001464894041419
1783206405635448800,4.65344873046875,-0.0065385166569612,0.0237523757809773,-0.0411211149394512,0.0006729857996106,-0.0001538754440844,-3.81674617528e-05
1783206405645386000,4.663385986328125,-0.0028982787247747,0.0069182549558579,-0.0388771354049444,0.0004466166719794,0.0019233901984989,0.000982356024906
1783206405655323000,4.673322998046875,-0.0017225129436701,0.0142078822410665,-0.0333399595439434,0.0024011833593249,-0.0002803262323141,0.000292886281386
1783206405665259000,4.683259033203125,0.0024356113827787,0.026614286284428,-0.0426221671521663,0.0012112827971577,0.0018030647188425,-0.0010525425896048
1783206405675196000,4.69319580078125,-0.0100932865290902,0.0380717555725015,-0.0489127917289733,0.0003866981714963,-9.65814106166e-05,-0.0005854319315403
1783206405685133000,4.703133056640625,-0.0001897869510576,0.0285070046958513,-0.0326063845723867,2.6904977858e-05,0.0016983891837298,0.0003535985015332
1783206405695069000,4.71306884765625,-0.0050140470360405,0.024144955295138,-0.041136312508583,-8.51126387715e-05,-0.0012622829526662,0.0023015770129859
1783206405705005800,4.723005859375,-0.0065772960310801,0.0209342861529439,-0.0463689524650573,3.92571091651e-05,-0.0001746481284499,-0.000141340540722
1783206405714943000,4.73294287109375,-0.0043342663446441,0.0268299931280314,-0.0358960737675428,-0.0019401526078581,0.0012075519189238,-0.0018022030126303
1783206405724879000,4.742879150390625,0.0033800708923488,0.0265912159360945,-0.0451730206787586,-0.0010357433930039,-0.000720843207091,-0.0033830553293228
1783206405734815700,4.752815673828125,-0.0016756050620228,0.0246606862649321,-0.0378355173975229,0.000294049270451,-0.0008375826291739,-0.0006764936260879
1783206405744753000,4.7627529296875,0.000305010828562,0.0339847237208858,-0.0349883112728595,-0.0013033151626586,-0.0004468970000743,-3.7793070077e-06
1783206405754689000,4.77268896484375,0.0022466098830103,0.0317346432391554,-0.0393278017818927,-0.0004079574719071,-0.0005722818896174,-0.0001473864540457
1783206405764626000,4.7826259765625,-0.0018276903511956,0.0259080194449052,-0.0327495924353599,0.0015004631131887,-0.0017408770509064,-0.0009327526204288
1783206405774561800,4.792561767578125,-0.0035933300505392,0.0284435292718932,-0.0447194316923618,-0.0009917533025145,-0.0006588115356862,-0.0006854298990219
1783206405784499000,4.8024990234375,-0.0108941911158151,0.0283101852158084,-0.04606558560431,0.0012519601732492,-0.0001805080100893,-0.0007924889214336
1783206405794436000,4.81243603515625,-0.0027995310580357,0.0276205407175235,-0.0528010313391685,0.0011560218408703,0.0001702760346233,0.0009607225656509
1783206405804371700,4.822371826171875,-0.0010568155765533,0.0211380650967359,-0.0414332496285438,0.0015456425026059,-0.0010571749880909,0.0016709878109395
1783206405814308900,4.832308837890625,0.0052750177934765,0.025562420877628,-0.0406862306535244,-0.0013506738469004,0.0008257059380412,-0.0022127118427306
1783206405824246000,4.84224609375,0.0043150136549025,0.0216445350478403,-0.0505628970235586,0.0010901130735874,0.0013072052970528,-0.0001495608594268
1783206405834182100,4.85218212890625,-0.0012859298910014,0.0255883225038647,-0.0435334367781877,0.000401490367949,0.0020595700480043,0.0004458304028958
1783206405844118800,4.862118896484375,-0.0063401445406489,0.0304311228925362,-0.0471299999654293,0.0005503613501787,-0.0001039821654558,-0.0006274236366152
1783206405854056000,4.872055908203125,-0.0104507033983245,0.0236250230742618,-0.044735798305273,0.0008589727804064,7.22175464034e-05,0.0006444156169891
1783206405863992000,4.881991943359375,-0.0147506473482586,0.0324148075230419,-0.051770519247651,-0.0004587592557072,0.0015002046711742,-0.0016048901015892
1783206405873929000,4.891928955078125,-0.0031301329855807,0.0194948096680454,-0.0423433502107858,0.0005188742652535,0.0018149958923459,0.0022737109102308
1783206405883865900,4.901865966796875,-0.0038086533016525,0.0217679787644185,-0.0405465299218893,0.0010895896703004,0.0018125986680388,0.0016321553848683
1783206405893802000,4.911802001953125,-0.0018282383404672,0.0338441462064161,-0.0410024569958448,0.0010110475122928,-0.001182269770652,0.001012961147353
1783206405903739000,4.92173876953125,0.0043416824661195,0.0350096645881421,-0.0401069694608449,0.0024787159636616,0.0019248402677476,8.9909415692e-05
1783206405913676000,4.931676025390625,-0.000666464552097,0.0248530852981843,-0.0449023870438337,0.000694771297276,0.0004604635760188,-0.0003404407761991
1783206405923612000,4.94161181640625,-0.0111759306666441,0.0330635172227397,-0.0520943443745374,0.0030306298285722,0.0003789709880948,-0.0004901103675365
1783206405933548800,4.951548828125,-0.0042505335839465,0.0190557058647274,-0.0517915620356798,0.0015640622004866,-0.0002654260024428,0.0014945256989449
1783206405943486000,4.96148583984375,-0.0082991696539334,0.0188565482971258,-0.0489513701736927,0.0005552573129534,0.0027905513998121,-0.0019582626409828
1783206405953421800,4.971421875,-0.0048823834803886,0.0272010731964372,-0.0435731842666864,0.0027133747935295,0.0016406583599746,-0.0002743829973042
1783206405963359000,4.98135888671875,-0.0021229835033416,0.0286419379208236,-0.0473193850576877,0.0022742198780179,0.0021288159769028,-0.0008320487104356
1783206405973294800,4.991294921875,-0.0060435727468691,0.0305390219801105,-0.0477723895221948,-1.17728486657e-05,0.0002166214399039,-0.0015472829109057
1783206405983232000,5.00123193359375,0.0039383075633086,0.0207554224546998,-0.0563058245897293,-0.0004818206652998,5.76307065784e-05,-0.0001744234468787
1783206405993169000,5.0111689453125,0.0011532616883516,0.0197815541875548,-0.0566050997972488,-0.000209130346775,0.0020308743696659,-0.0005961351562291
1783206406003105000,5.02110498046875,0.000414517351333,0.0315282704794779,-0.0411988563507795,-9.72775742411e-05,0.0019480502232909,0.0004129365552216
1783206406013042000,5.0310419921875,-0.0123607930696569,0.0272638910332694,-0.0585609100401401,0.0020205937325954,-0.0005238438025116,-0.0014058207161724
1783206406022979000,5.04097900390625,-0.0040225335143506,0.0346598830360919,-0.0450923566579818,0.0021787863224744,0.0004415521398186,-0.001820208504796
1783206406032915000,5.0509150390625,-0.0063479077219963,0.0287646875176578,-0.0365682739406824,0.0023256391286849,0.0005084457807242,-0.000238373177126
1783206406042851800,5.060851806640625,-0.0055221792212687,0.01875716130957,-0.0491407552659511,0.0030383011326193,0.0004061800427734,-0.0004895094316452
1783206406052789000,5.0707890625,0.0020178608947433,0.0177969927742145,-0.048393151769042,0.0019237753003835,0.0015500439330935,-0.0006030777003616
1783206406062724900,5.080724853515625,-0.0106455866496078,0.0231617894766852,-0.055731824094057,0.0012041898444294,0.0007239314727485,-0.0012180015910416
1783206406072661800,5.090661865234375,-0.0013165807575918,0.0324520342608913,-0.0525888498932123,-0.0002525700256228,0.0001494544558227,-7.24345445632e-05
1783206406082599000,5.100598876953125,0.0037050650630146,0.0289318425117991,-0.0482534510374069,0.0008110972121357,0.0015920889563858,0.0005896270740777
1783206406092535000,5.11053515625,-0.0072628671424463,0.0254482564460486,-0.0503483774900436,-0.000944479368627,0.0005193268880248,-0.0004364168271422
1783206406102472000,5.120471923828125,-0.0010857128774747,0.0213161616099998,-0.0425678066164255,0.0004547452554106,0.0012032268568873,-0.0008084604050964
1783206406112408800,5.130408935546875,0.0045632893275469,0.0232270549989305,-0.0460094715029001,-0.0010188994929194,0.0015125190839171,0.0002590401563793
1783206406122345000,5.140344970703125,-0.0007398585818707,0.0270743232779204,-0.0466086064398288,0.0008929837495088,-0.0025029955431818,0.0008470662869513
1783206406132282000,5.1502822265625,-0.007590290732216,0.0359468358404003,-0.0472071568548679,0.0010788198560476,0.0020404246170073,-0.0005307924002408
1783206406142218800,5.16021875,-0.0127214613419026,0.0265783199219033,-0.0488566776275634,-0.0010069673880934,0.0005261511541903,0.0001688201446086
1783206406152155000,5.17015478515625,-0.0020950908494181,0.0136090212987735,-0.0494517209112644,-0.0006348304450511,0.0029524806886911,0.0006071128882467
1783206406162092000,5.180092041015625,0.0069705331323668,0.0114870972413569,-0.0308978270888328,-0.000131226144731,-0.0007682214491069,0.0002393303439021
1783206406172029000,5.19002880859375,-3.5034780763e-05,0.0243769008874893,-0.0570797315716743,-0.0011399509385228,-0.00046091619879,0.0011601739097386
1783206406181964800,5.19996484375,-0.0072311750962398,0.0389417068074457,-0.056328620943427,-0.0001750877127051,-8.64756293594e-05,-0.0028894289862364
1783206406191902200,5.209902099609375,-0.0020797106171958,0.0401343871907331,-0.0416664738625288,0.0001110378652811,0.0027464895974844,-0.0002183015458285
1783206406201839000,5.219839111328125,0.0088470493276603,0.0257451935660094,-0.0448170468479394,0.0034306682646274,-0.0002282611094415,-0.0009312299080193
1783206406211775000,5.22977490234375,0.0042945188561454,0.0167392638822086,-0.0410772757977247,-7.41388648748e-05,-0.0016270079649984,0.0003155895974487
1783206406221712100,5.239712158203125,0.0002242006773129,0.0262984618009068,-0.0315010536789894,0.0001349197700619,0.0017988821491599,-0.0015664662932977
1783206406231649300,5.249649169921875,-0.0056374761640094,0.0301767645389772,-0.0531990907460451,-0.0007908605039119,-0.0009576710872352,-0.0007251822389662
1783206406241585200,5.259585205078125,-0.006551613600552,0.024049988754373,-0.0461667078912258,-0.0006039068102836,0.0024146896321326,-0.0012072143144905
1783206406251522000,5.26952197265625,0.0035523952519521,0.0177214615862816,-0.047210663986206,-0.0003898357972502,-0.001282203476876,-0.0005850289016962
1783206406261459200,5.279459228515625,0.0003478453232906,0.0236265574442222,-0.0463163454949855,0.0008597187697887,0.0013854852877557,0.0013460291083902
1783206406271395300,5.289395263671875,-0.0015556684767827,0.032449148184061,-0.0469137268662452,0.0003837719559669,-0.0004301201552152,-0.0007407639641314
1783206406281332200,5.299332275390625,-0.0024344058063812,0.0277359107255004,-0.0499123241603374,0.0009725969284772,0.0007043867371976,-0.0012981635518372
1783206406291269000,5.30926904296875,-0.010787735066656,0.0209747460274957,-0.0484188707321882,0.0016297381371259,-0.002088772598654,-0.0042807618156075
1783206406301205200,5.319205322265625,-0.0058098553225398,0.0317005765727721,-0.0484165326446294,-0.0006256932392716,0.0007072803564369,0.0010548813734203
1783206406311142100,5.32914208984375,-0.0069047926860861,0.016286113287229,-0.0482639724314212,-0.0008546272292733,-0.001213458366692,0.0008697537705302
1783206406321079300,5.339079345703125,-0.0021354411261156,0.020354513503611,-0.0514034395009279,-0.0014740778133273,0.0008443663828074,-0.0011049800086766
1783206406331015200,5.34901513671875,-0.0034200558428652,0.0277948926374316,-0.0529009845823049,0.0003734501078724,0.0016960706561803,-2.4158507585e-06
1783206406340952000,5.3589521484375,9.41080242395e-05,0.0352602783483453,-0.0514063621103763,0.0006999531760811,-0.0003971741534769,0.0007738957647234
1783206406350889200,5.36888916015625,0.002072513691429,0.0305581650719977,-0.0494669184803962,0.0013687079772353,0.00118552101776,0.0008733470458537
1783206406360825000,5.3788251953125,-0.0098125881578773,0.0357616337329149,-0.0476812041074037,-3.42447310686e-05,0.001611094456166,-0.0011357415933161
1783206406370762000,5.388761962890625,-0.0004659735439345,0.0288946523065678,-0.0548579638689756,-0.0014732982963323,-0.0017720474861562,0.0008244432974606
1783206406380699100,5.39869921875,-0.0020427396076731,0.0275987855434417,-0.048422962385416,0.0024556638672947,-0.0022799125872552,0.0001266950275748
1783206406390635300,5.40863525390625,-0.0035834114447236,0.0338471236147917,-0.0505178888380527,0.0003980472683906,-9.12076793611e-05,-4.703644663e-06
1783206406400572200,5.418572265625,-0.0005877732926979,0.0319420571784488,-0.0452864179253578,0.0014252290129661,0.0019439803436398,-6.51574227958e-05
1783206406410509000,5.428509033203125,-0.0040957266147248,0.0335697131792083,-0.0515770425021648,-0.0012851729989051,0.0001625809818506,-0.0005855266936123
1783206406420445200,5.438445068359375,-0.008804324430786,0.0297961129246279,-0.0467898082256317,0.0015953024849295,-0.0004286407493054,0.0011114394292235
1783206406430382300,5.44838232421875,0.0002943798366934,0.0233508823079988,-0.0469447065263986,-0.0010589491575956,0.0008886381983757,0.0023793072905391
1783206406440319000,5.458319091796875,0.0004893178869038,0.025428638430126,-0.0541296495944261,-0.0001273760572075,0.001223930157721,-0.0033488858025521
1783206406450255000,5.468255126953125,-0.0050082200834527,0.0289438982757739,-0.0512877041667699,0.0028142714872956,-0.0022953301668167,-0.0004882907960563
1783206406460192300,5.478192138671875,-0.003738145348709,0.0273493956259451,-0.0526291819036006,0.0022733835503458,0.0009236326441168,-0.0001250356435775
1783206406470129200,5.488129150390625,-0.008501761287637,0.0289641008135862,-0.0482885223507881,0.0006314506754279,-0.0006566480733454,-0.0002747387625277
1783206406480065000,5.49806494140625,-0.0095742858899757,0.0281931164410896,-0.0455991371363401,0.0024059144780039,-6.38286583125e-05,0.0003870569635182
1783206406490002200,5.508002197265625,-0.0096647406524047,0.0238143716339021,-0.0424631771981716,-0.0012960704043507,0.0007983180694282,0.0005487890448421
1783206406499939300,5.517939208984375,-0.0118668355402536,0.0249532394707202,-0.0442599974870681,0.0003638779744505,0.0013069822452962,-0.0012267401907593
1783206406509875000,5.527875,-0.0060351337120868,0.0200627274828031,-0.0390244349211454,-0.0005327509716153,0.0007548504509031,0.0013214228674769
1783206406519812000,5.53781201171875,-0.0007662168658338,0.0343668914388865,-0.0409714773356914,-0.0003023874014616,0.0002248813398182,-0.0035782610066235
1783206406529749200,5.547749267578125,-0.005291128678061,0.0230242076369002,-0.042016602474451,0.0020567001774907,-0.0019533555023372,-0.0012216919567435
1783206406539685400,5.557685302734375,-0.007796133768931,0.0263358529355376,-0.0492032991081476,0.0021784072741866,-0.0022700051777064,-0.0011798802297562
1783206406549622000,5.5676220703125,-0.0085093052732758,0.024648867962975,-0.0520440754920244,0.0005587814375758,-0.0030966065824031,0.0003132608253508
1783206406559559200,5.57755908203125,-0.0063975372836925,0.0264939843730069,-0.0482996282666921,0.0003041829913854,3.8370490074157725e-07,-0.0002691724803298
1783206406569496000,5.58749609375,-0.0050188145427033,0.0319769640950486,-0.0578740968197584,0.0004122294485569,-0.0025016912259161,-0.0004189480096101
1783206406579432200,5.59743212890625,-0.0029838746489956,0.024636026747711,-0.0503939701974391,4.73763793706e-05,0.002194260712713,0.0010244853328913
1783206406589369000,5.607369140625,-0.0045994748857803,0.0295393068856559,-0.0524865585625171,0.000442175194621,-0.0010489993728697,-0.001972874160856
1783206406599306000,5.617305908203125,0.0022005970505066,0.0277667442551814,-0.0527799885511398,0.00024323631078,-0.0004822788760066,-0.0016112170414999
1783206406609242000,5.6272421875,-0.001725252890028,0.0316360051702708,-0.0521820226579904,0.0014615086838603,-0.0011860090307891,0.0005045370198786
1783206406619179300,5.63717919921875,-0.0066415386400185,0.0298504551940597,-0.0638531712293624,0.0011110370978713,-0.0032052178867161,0.0016441037878394
1783206406629116200,5.6471162109375,0.001936320091132,0.028451785643585,-0.0464922865837812,0.0013024779036641,-0.0009496905840933,0.0002789786085486
1783206406639052000,5.657052001953125,0.0034571181839331,0.029736199430935,-0.0446942972511053,-0.0001081982627511,-0.0006759176030755,0.0017272057011723
1783206406648989200,5.6669892578125,-0.0027294614965096,0.0285230607815086,-0.0497784686475992,0.0007914528250694,-0.0012342655099928,0.0016061582136899
1783206406658926300,5.67692626953125,-0.0068426872353069,0.0301433189271017,-0.0467874701380729,0.0001690723001956,-0.0005977698601782,0.0013329179491847
1783206406668862200,5.6868623046875,0.0053961782214231,0.0195091304543428,-0.0454366400510072,0.0008276216685771,-0.0011645425111055,-0.0011455509811639
1783206406678799000,5.696799072265625,0.0046846506848931,0.0274310642937198,-0.0454354710072279,-0.0012517739087343,-0.0014921110123395,0.0024257479235529
1783206406688736300,5.706736328125,-0.0020016952112317,0.0362645234874449,-0.0508212556988,-0.0015356857329607,-0.0010591126047074,0.0003999278414994
1783206406698672000,5.716672119140625,-0.0054402913577854,0.0306710508619435,-0.0503746809750795,0.0041360482573509,0.0004112184979021,-0.000928190536797
1783206406708609000,5.726609130859375,-0.0111494445185177,0.0304371690408326,-0.0541138675034046,0.0007835114374756,-0.0042894696816802,-0.0006443290039896
1783206406718546200,5.736546142578125,-0.0031915443166159,0.0284422140976414,-0.0472328758180141,-0.0001962650567293,0.0014794701710343,0.0001367761287838
1783206406728482300,5.746482421875,0.0009629267480224,0.0305086451081559,-0.0457411759555339,0.0012357421219348,-0.0009701424278318,-0.0006428703200072
1783206406738419000,5.7564189453125,0.0009349975614808,0.0362046647926792,-0.0550245526075363,-0.0004124883562326,0.0001236177049577,0.0007006945088505
1783206406748356000,5.766356201171875,0.0004387019445188,0.0314075849755667,-0.0497884055197238,0.0007806355133652,0.0024498098064213,0.0030906724277883
1783206406758293200,5.776293212890625,0.0031839455320499,0.0201232437646947,-0.0568178657650947,-0.0038348883390426,-0.0020892820321023,0.0018938474822789
1783206406768229000,5.78622900390625,-0.0115326351498253,0.0444492912477813,-0.0554617749810218,-3.04765999317e-05,-0.0001623416319489,0.001117241801694
1783206406778166000,5.796166015625,-0.0136145194577984,0.0280967433945275,-0.0503723428875207,7.8734010457e-06,-0.0016007148660719,-0.0001126059796661
1783206406788103200,5.806103271484375,-0.0037082799334079,0.0272323999164625,-0.0508218402206897,0.0024630911648273,0.0012861294671893,-0.0014494633069261
1783206406798039300,5.816039306640625,-0.0008978986877948,0.008075133373402,-0.0418441685169935,-0.0011739879846572,-0.0009197667241096,0.0007681506685912
1783206406807976200,5.82597607421875,-0.0005786036055535,0.0330399536840617,-0.0490256044536829,0.00223536696285,0.0008483096025884,0.0009729168377816
1783206406817913000,5.8359130859375,-0.010442903684359,0.0366574317951686,-0.0458832147747278,0.000795129686594,3.17841768264e-05,-8.59559513628e-05
1783206406827849200,5.84584912109375,0.0054372226178646,0.0397120701254345,-0.0517161587119102,0.0013841716572642,-0.0016225897707045,-0.0004962719976902
1783206406837786000,5.8557861328125,0.00024643077543,0.0286242743999697,-0.0490209282785654,-0.001623336225748,-0.0012476164847612,-0.0012488814536482
1783206406847723300,5.86572314453125,-0.0088614249128848,0.0256498069001361,-0.0503629905372858,0.0004600612446665,-0.0006185942329466,0.0025425385683774
1783206406857659100,5.8756591796875,-0.005998144436255,0.0275419225233607,-0.0467740261346101,-0.0001684445887804,0.0021369783207774,-0.000380813376978
1783206406867596000,5.885595947265625,-0.0016587817913852,0.0267317203853279,-0.0484270540386438,-0.001768241636455,0.0001982110552489,-0.0017457546200603
1783206406877533200,5.895533203125,0.0084695760510861,0.0350981648555025,-0.0472264460772275,0.0019900109618902,-0.0010580020025372,-0.0006035247351974
1783206406887469000,5.905468994140625,-0.0112692167069762,0.0283002483436837,-0.0422819754123687,-0.0017744628712534,-0.0001692809164524,0.0001001863274723
1783206406897406200,5.91540625,-0.0031643823150545,0.0352826728432439,-0.0451227517962455,0.0007499475032091,-0.0011740918271243,-0.0009118150919675
1783206406907343000,5.925343017578125,-0.0013987608820199,0.0184525523398071,-0.0437748443186283,0.0003905724734067,-0.0009765201248228,-0.0010217912495136
1783206406917279200,5.935279296875,0.0087107278632,0.0281265722772106,-0.0546989739149808,-3.89954075217e-05,-0.0009709275327622,0.0020791934803128
1783206406927216000,5.945216064453125,-0.0062370677586644,0.0331044702876359,-0.0482651414752006,-0.0026438254863023,0.001221768092364,0.0002145457547158
1783206406937153000,5.955153076171875,-0.0026574739725328,0.0276898430940695,-0.0466226349651813,-0.0005255471915006,0.0004870020784437,-0.0013897424796596
1783206406947090200,5.965090087890625,-0.0017313173046335,0.0276485247029922,-0.0494680875241756,0.0010865442454814,0.0008773081935942,-0.0018952392274513
1783206406957026300,5.9750263671875,0.0061096602530218,0.0259428167636506,-0.0400467637062072,-0.0008221436291933,0.0015790513716638,0.0007290395442396
1783206406966963000,5.984962890625,-0.0037138328913599,0.0296632255262695,-0.057248073875904,-0.0005531096830964,0.0007926193065941,-0.0004953669849783
1783206406976900000,5.994900146484375,-0.0012218334125354,0.0320534816636703,-0.0455734181731939,0.0009454507380723,-0.0014974330551922,-0.0011142855510115
1783206406986836200,6.004836181640625,0.0041122576244175,0.0351166686265729,-0.050506198400259,-3.9059668779e-06,0.000860471278429,0.0009408178739249
1783206406996773000,6.014773193359375,0.005852909012977,0.0342992147638462,-0.0539472787648439,-0.0007945979014039,-0.0004508690908551,-0.0001596000511199
1783206407006710000,6.0247099609375,0.0041193449523299,0.0192737873285077,-0.053794134029746,0.0002077789977192,-0.0017246059142053,-0.0005530039779841
1783206407016646100,6.034646240234375,0.0031144239597953,0.0211494267409667,-0.0466126980930566,-0.0001408290117979,-0.0003839703276753,0.0002581949811428
1783206407026583300,6.044583251953125,0.0013402721604332,0.0234047679197043,-0.0349362888246774,-0.0005449494346976,-0.0003111981786787,-8.41147266328e-05
1783206407036520200,6.054520263671875,-0.0056042132152244,0.0299321421281434,-0.0488525859743356,0.0003762375563383,0.0001186360605061,0.0019249741453677
1783206407046457000,6.06445703125,-0.0054382820637896,0.033091702137608,-0.0563344661623239,-8.71708616614e-05,-0.0007484257221221,-0.0007505402900278
1783206407056393200,6.074393310546875,-0.0019818214669823,0.0307470204412937,-0.0576823736399412,0.0023237885907292,0.0006265640258789,-0.0016269865445792
1783206407066330000,6.084330078125,0.0040387539967894,0.0301211801605299,-0.0533411295652389,0.0032706744968891,-0.0031129708513617,-0.0007881659548729
1783206407076267300,6.094267333984375,-0.0030836269627325,0.0297729695110581,-0.048708209067583,0.0020094010978937,-0.0004894905723631,0.0010398279409855
1783206407086203100,6.104203125,-0.0033730200970545,0.0363138059892691,-0.0437730907529592,0.0006944350898265,0.0013955989852547,0.001237615942955
1783206407096140000,6.11414013671875,-0.0165024777179583,0.0309463424056768,-0.0470692096889019,0.0010731369256973,0.0006472505629062,-0.0002817171625792
1783206407106077200,6.1240771484375,-0.0053304012425243,0.033324926371593,-0.0385316829681396,-0.0017495900392532,-0.0007528169080615,-0.0008995765820145
1783206407116013000,6.134012939453125,-0.0078891275483183,0.0236094236463308,-0.0382329922825098,0.0012227641418576,0.0010072658769786,0.0009337433148175
1783206407125950200,6.1439501953125,-0.0074646733248606,0.0360996517819352,-0.055897828310728,0.0017119292169809,0.0008684755302965,-0.0013727936893701
1783206407135887000,6.15388720703125,-0.0028440095205791,0.0199852235334925,-0.0496148025184869,0.0001172283664345,-0.0007424708455801,-0.0001703763846307
1783206407145823200,6.1638232421875,0.0135506604413501,0.0171634075784124,-0.051104748815298,-0.0026048924773931,-0.001021830830723,0.0010405513457953
1783206407155760000,6.173760009765625,-0.0067258741889148,0.0347040144387632,-0.0600771598219871,-0.0001760898157954,0.0021651738788932,0.0021449644118547
1783206407165697000,6.183697021484375,-0.0118963904283009,0.0509749301568605,-0.0507967057794332,-0.0001780902966856,-0.0010621841065585,-0.0007094747852534
1783206407175634200,6.19363427734375,-0.0045640930451452,0.0389060327058657,-0.0548386746466159,0.0018704133108258,5.7675410062e-05,-0.0009595456067472
1783206407185570300,6.2035703125,0.0057111441884189,0.0071611055347137,-0.0521457823008298,-0.0002629291266202,0.0007000528275966,0.0025300837587565
1783206407195506700,6.213506591796875,-0.0059725168046541,0.0170600385354831,-0.0558919830918312,0.0007362887263298,0.002654812997207,-0.0004313511308282
1783206407205443600,6.223443603515625,-0.0121924507654272,0.0141559693907387,-0.0485696773797273,0.0009995540603995,0.0018750983290374,0.0017316255252808
1783206407215379700,6.233379638671875,-0.0088596348145976,0.033328415236622,-0.0412368502736091,-0.0018798559904098,0.0002529667690396,-0.0013408632948994
1783206407225316900,6.24331689453125,0.0026636114523746,0.04109992602095,-0.0494663339585065,0.0002672187983989,-0.0021748109720647,0.0013471059501171
1783206407235253500,6.25325341796875,-0.0025345965115353,0.0291890321432612,-0.0502151064991951,0.0002879910171031,-0.0003675897605717,-0.0013109950814396
1783206407245189600,6.263189697265625,-0.0018088577865622,0.0259255733679048,-0.0535042111724615,0.0008613169193267,-0.0021564774215221,-0.0003577331081032
1783206407255126800,6.273126708984375,0.0059134435611777,0.0266673499122261,-0.0578366874188184,0.0002280166372656,-0.0002240878529846,0.0036998591385781
1783206407265063700,6.283063720703125,-0.0083088507977314,0.0296132306383922,-0.0496101263433694,0.0028510792180895,0.0009849723428487,-0.0003968935925513
1783206407275000600,6.29300048828125,-0.0115147706995718,0.0349300782795995,-0.0424316130161285,0.001056108623743,0.00216049188748,0.0013541348744183
1783206407284936700,6.302936767578125,-0.0116528822623193,0.0341077655786648,-0.0449818820208311,-0.0004453444853425,0.0018869726918637,-0.0006200505886226
1783206407294873600,6.31287353515625,-0.0030953174005262,0.0304038512931205,-0.0476706827133893,-0.0014964938163757,0.0029833961743861,-0.0002139185089617
1783206407304810800,6.322810791015625,0.00558675062377,0.0274677430422976,-0.0587409427821636,0.0022882828488945,-0.000668360851705,0.0013736127875745
1783206407314746600,6.33274658203125,-0.0016217742492444,0.0253940603070892,-0.0522989270359277,-0.0014553219079971,0.0006879870779812,-0.0030421745032072
1783206407324683800,6.342683837890625,-0.0015216566093266,0.0373467109672725,-0.046613867136836,0.0008149314671754,0.000610401853919,0.0023868277203291
1783206407334620700,6.35262060546875,-2.6668811216e-06,0.0238525847524404,-0.0419733478546142,-0.0008165212348103,0.0006162608042359,0.0009955924469977
1783206407344557800,6.362557861328125,0.0039170821121893,0.0288990727533586,-0.0445154335528612,0.0005492102354764,-0.002020020969212,0.0008137347176671
1783206407354493700,6.37249365234375,-0.001543996305298,0.0294466418998315,-0.0516945314019918,0.0007723830640316,-0.000613072887063,-0.0032976535148918
1783206407364430600,6.3824306640625,-0.0071361354902386,0.0237451788552105,-0.0469072971254587,-0.000794437713921,0.0008274428546428,0.0001172767952084
1783206407374367700,6.39236767578125,-0.0066227060753852,0.0285225675911642,-0.0458574958115816,0.0010226368904113,-0.0007691220380365,0.0013260853011161
1783206407384303600,6.4023037109375,-0.0046731611764989,0.0240380791208706,-0.0537882888108491,-0.0007864423096179,0.0007307478226721,-0.001136346720159
1783206407394240500,6.412240478515625,-0.0069385305589064,0.0274397590568289,-0.0436123472332954,-0.0018035033717751,-0.0019614417105913,-0.0010415383148938
1783206407404177700,6.422177734375,-0.0050667453376576,0.0327159093614667,-0.0500368273228406,-0.0011247508227825,0.0019422599580138,0.0022713544312864
1783206407414113800,6.43211376953125,0.0177024280922487,0.019604864180088,-0.047484804752469,-0.0011681606993079,-0.0021800473332405,4.41528391093e-05
1783206407424050700,6.44205078125,-0.0068097530800849,0.0664948996434919,-0.045390462821722,0.0030954787507653,0.0019284633453935,0.0006509111262857
1783206407433987600,6.451987548828125,-0.0008359941664151,0.0141509826883673,-0.0400093543052673,-0.0034524360671639,-0.0007309694774448,-0.0003858571872115
1783206407443924700,6.4619248046875,0.0048768670550547,0.0143810285845771,-0.0429991837710142,-7.50515609979e-05,0.0021944229956716,0.00220827315934
1783206407453860900,6.47186083984375,0.0018958419502712,0.0157809585103765,-0.0435942270547151,-0.001549644395709,0.000995201524347,-3.62386927008e-05
1783206407463797500,6.481797607421875,-0.0062587133348919,0.0468410634888336,-0.0458393756330013,0.0036253975704312,-0.0026640822179615,-0.0006822273135185
1783206407473734700,6.491734619140625,-0.0104104079205542,0.0507264170221984,-0.0539186371922493,0.0014959340915083,0.0003370335325598,-0.0017458938527852
1783206407483670800,6.5016708984375,-0.0067665897917933,0.0351356838542968,-0.0531681110858917,0.0014499863609671,-0.0003720675595104,-0.0008360752835869
1783206407493607700,6.511607666015625,0.0010253975249826,0.0165935352685861,-0.049127895784378,-0.0017402144148945,-0.0014415928162634,-0.0004073062445968
1783206407503544600,6.521544677734375,0.0080228917295113,0.0061777570531703,-0.052268531897664,0.0007698312401771,0.0013663093559443,8.94982367753e-05
1783206407513481700,6.531481689453125,-0.0086741221798583,0.0268395098750479,-0.0563116698086261,-0.0007604211568832,0.0011631101369857,-0.002618403872475
1783206407523417600,6.54141748046875,-0.0060775480817072,0.0416014823349192,-0.0456844773322343,-0.0001274291425943,0.0008404618129134,0.0028142135124653
1783206407533354800,6.551354736328125,-0.0016557495840825,0.0286010031222365,-0.0543657964378595,-2.88924202322e-05,0.0005155559629201,0.0011609231587499
1783206407543291600,6.561291748046875,0.008341638822481,0.0332006424047984,-0.0423947881370782,0.0017722658812999,0.0014298139140009,0.000315970275551
1783206407553227800,6.571227783203125,0.0009063377225771,0.0268269061218015,-0.0554132596641778,0.0004606591537594,0.0033289142884314,0.001345015829429
1783206407563164700,6.58116455078125,0.0010097250318154,0.0301845642529428,-0.0588584316819906,-0.0006495602428913,-0.0011873384937644,-0.0007098289206624
1783206407573101800,6.591101806640625,-0.0019406126737594,0.0271786969678476,-0.0557101967841386,0.0027198707684874,-0.0017367489635944,0.0001327951904386
1783206407583038500,6.60103857421875,0.0038148455804213,0.0202580673918128,-0.0500251368850469,0.0017196862027049,-0.0001494158059358,0.0002368558198213
1783206407592974600,6.610974609375,-0.0080205171093344,0.027821744111739,-0.046436757004261,-0.0007738312706351,-0.0001773792318999,-0.001939213136211
1783206407602911700,6.620911865234375,-0.0022373305980116,0.0264232206917367,-0.0522726235508918,-0.0004693660885095,8.0638565123e-05,0.0003732990007847
1783206407612848600,6.6308486328125,-0.0069035140444524,0.020427286478877,-0.0570657030463218,0.0023426655679941,0.0021030432544648,-0.0006994223222136
1783206407622784500,6.640784423828125,-0.007286339349579,0.034564971294254,-0.0495844073802232,0.0001637050881981,-0.0010934206657111,-0.0024602124467492
1783206407632721700,6.6507216796875,-0.002408358049672,0.0292541515350341,-0.0503273347020149,-0.0034110564738512,-0.0009626597166061,0.0011473055928945
1783206407642658800,6.660658935546875,-0.0031619346296414,0.0229415525884367,-0.0464314963072538,0.0003514708951115,0.0017308839596807,-0.0014160072896629
1783206407652595700,6.670595703125,0.0027651538643985,0.0173588205526582,-0.0471802688479423,0.001194360665977,0.000592915341258,0.001838109223172
1783206407662531600,6.680531494140625,0.0052867812965065,0.0315259689245373,-0.0396978041380643,0.0002752030268311,0.0003524865023791,-0.0028388067148625
1783206407672468700,6.69046875,0.0014167166638188,0.0340874899756163,-0.05526011492908,0.0007748119533061,1.42650678753e-05,0.0002725645899772
1783206407682405600,6.700405517578125,-0.0010249043346382,0.0357274757349863,-0.0604986001044511,0.0024674078449606,0.0001903921365737,0.0009349165484309
1783206407692341500,6.710341552734375,0.0036954204518347,0.0287452704311348,-0.0584030891299247,0.0011041359975934,3.77930700778e-05,-0.0004259587731212
1783206407702278700,6.720278564453125,-0.0038793987166136,0.0345827261466532,-0.0441857632070779,-0.0015695001929998,-0.0007759472355246,-0.0027465876191854
1783206407712215600,6.730215576171875,0.0085510255231522,0.0180705124859698,-0.0479290413886308,4.41083684563e-05,-0.0002441140823066,0.0024463101290166
1783206407722152700,6.740152587890625,0.0163452047970145,0.0249614045108668,-0.0353594826728105,-0.0016051046550273,0.0006994595751166,0.0012764504645019
1783206407732088600,6.750088623046875,-0.0107771588737145,0.0165360146613791,-0.0462830277472734,-0.0021521188318729,0.0018771092873066,0.0001227690372616
1783206407742025700,6.760025634765625,0.0120373880678787,0.0548233492133207,-0.053911622929573,0.0030380049720406,-0.0005553718656301,0.0011169386561959
1783206407751962600,6.769962646484375,-0.0013441446179524,0.0011862323761917,-0.0507692332506179,-0.0007077306509017,-0.0013290201313793,0.0008378394413739
1783206407761898800,6.779898681640625,-0.011444500208646,0.0401223131604492,-0.0500111083596944,0.0001829527318477,-0.0022639855742454,0.0001640706323087
1783206407771835600,6.789835693359375,-0.0028591888234019,0.0065358497758395,-0.0504606056928634,0.0015124026685953,0.0021139848977327,-0.0001858687028288
1783206407781772500,6.7997724609375,0.0065793601240031,0.0100680972889065,-0.0444733479768037,-0.0014843810349702,-0.0011288411915302,-0.0006057019345462
1783206407791709700,6.809709716796875,-0.0024900267174467,0.0300489917071536,-0.0503051228702068,-0.0006276415660977,-0.0021762624382972,0.0008483841083943
1783206407801645800,6.819645751953125,-0.0216925937069579,0.0455477174763567,-0.0485088871031999,0.0018891580402851,0.0011133542284369,0.0011244150809943
1783206407811582500,6.82958251953125,-0.0056412572899833,0.0491578159986063,-0.046418052303791,0.0020739817991852,0.0001500891521573,-0.0006899964064359
1783206407821519600,6.83951953125,0.0111119255197234,0.0274402887797914,-0.0396884517878294,0.0003083413466811,0.0008307583630084,-0.0020810230635106
1783206407831455700,6.849455810546875,0.0045576450380496,0.002109594298806,-0.0378904624551534,-0.0025881128385663,-0.0018025753088295,0.0012519231531769
1783206407841392600,6.859392578125,-0.0101480306573212,0.0337585137495771,-0.0423743298709392,-0.0001957695931196,0.0016430425457656,-0.0006479432340711
1783206407851329500,6.86932958984375,-0.0057723180574364,0.0306841843381524,-0.0470095884561538,-0.0005811285227537,-0.0005079926922917,-0.0007699159905314
1783206407861266700,6.8792666015625,-0.0077977229378186,0.0387623133862391,-0.0458148257136344,0.002181926742196,0.0022826991043984,-0.0012547643855214
1783206407871202800,6.889202880859375,-0.0007369907713495,0.0272099688889458,-0.0456722023725509,0.0014905696734786,0.0015932065434753,0.0011785656679421
1783206407881139700,6.8991396484375,0.019242716336809,0.0193812662909738,-0.0358054728746414,0.0011600451543927,-6.69425353407e-05,-0.0016814495902508
1783206407891076600,6.90907666015625,0.0101787363228388,0.0325599881473928,-0.0375999550759792,-0.0006847269833087,-0.0021868185140192,-0.0002388153225183
1783206407901012700,6.9190126953125,0.0059770103166811,0.0352008945776149,-0.0362520475983619,0.0011612838134169,-0.0013146335259079,-5.26567455381e-05
1783206407910949600,6.92894970703125,0.0010877952367067,0.0278893477215431,-0.0425403340876102,0.0012635486200451,-0.0001625497825443,0.0010653380304574
1783206407920886800,6.93888671875,-0.000603409253247,0.0251770200229249,-0.0292231718748807,0.0004234323278069,0.0021058095153421,-0.0003304802812635
1783206407930823700,6.94882373046875,-0.012359094302915,0.03348850116916,-0.0286298821568489,0.0016695261001586,-0.0006958357989788,-3.9767473936e-06
1783206407940759600,6.958759521484375,0.0050673115932382,0.0188130744815804,-0.0376058002948761,-0.0011097062379121,-0.0016395198181271,0.0009588848333805
1783206407950696700,6.96869677734375,0.0070540649636648,0.0364010824139229,-0.0346136327415704,-0.0001246025785803,0.0009543988853693,0.0010994996409863
1783206407960633900,6.9786337890625,-0.0030830789734609,0.0399271741808392,-0.0277273803591728,-0.0021099671721458,-0.0007595177739858,-0.001026912825182
1783206407970570500,6.988570556640625,0.0034527160034514,0.0294414177354425,-0.0416360787242651,-0.0018207486718893,0.0010218708775937,0.0015683379024267
1783206407980506600,6.998506591796875,0.0107866208218038,0.0266394024593755,-0.0206873987197875,-0.0004804721102118,-0.000549569260329,0.0012693882454186
1783206407990443800,7.00844384765625,0.0093341204585507,0.0268366968634538,-0.020828268495202,-0.0003004418686032,-0.003263596445322,0.0008621911983937
1783206408000380700,7.018380615234375,0.0038955096011981,0.0306727313623763,-0.0342868850052356,-0.00037058070302,-0.002258613705635,-0.0021230992861092
1783206408010316500,7.028316650390625,-0.0060624601104296,0.0368706544207409,-0.0284510184586048,0.0029386635869741,0.000874328892678,-0.0010168219450861
1783206408020253700,7.038253662109375,-0.0037969445975497,0.0262280451795086,-0.0260603239297866,0.0009280536323785,-0.0001343358308076,-0.0008002866525202
1783206408030190600,7.048190673828125,0.005158716203738,0.0144695836508646,-0.0318985285639762,0.0005663968622684,0.0007706061005592,-0.0012703344691544
1783206408040127700,7.058127685546875,0.0025665260197594,0.0185053602392785,-0.0223187993139028,-0.0028301607817411,0.0011864891275763,-0.0013354665134102
1783206408050063600,7.068063720703125,0.009361611253675,0.0330931817086413,-0.0275520237922668,0.0001762816682457,0.0004732948727905,-0.0001570177264511
1783206408060000800,7.078000732421875,0.0110263661281205,0.0401867932314053,-0.032790508967638,0.0006633168086409,-0.0021360469982028,-0.0012173906434327
1783206408069937700,7.087937744140625,0.002603131703101,0.0311774477478116,-0.0299479790180921,0.0012686531990766,0.0010040863417088,-0.0003249652218073
1783206408079873500,7.09787353515625,-0.0069863152233883,0.0265209271788597,-0.0227694656908512,0.0030788769945502,0.0016646357253193,-0.0008661483880132
1783206408089810700,7.107810791015625,-0.0108214546731673,0.0198635333825834,-0.0154378076285123,-0.0008096043020486,-0.0008664322085678,-0.0002150053624063
1783206408099747600,7.11774755859375,-0.0022180231093429,0.0269036976850591,-0.007650222492218,-0.0013708816841244,-0.0023406464606523,-0.0004486232064664
1783206408109684700,7.127684814453125,-0.0050335371877998,0.0388614811780862,-0.021257307562232,-0.0013319998979568,-0.0010980158112943,0.0009370194748044
1783206408119620600,7.13762060546875,0.0116700160602107,0.0297369300832971,-0.0185655842602252,-1.9134953618e-05,-0.0004546414129436,-0.0003935860004276
1783206408129557500,7.1475576171875,0.0085306220559403,0.0265482170445844,-0.0133265145629644,-0.0015842746943235,-0.0007931292057037,-0.000290521653369
1783206408139494700,7.15749462890625,0.005254723924119,0.0263977391906082,-0.0196112939208745,0.0015192702412605,0.0013268059119582,0.0002639864105731
1783206408149430800,7.1674306640625,0.0042657128867693,0.0261521303990855,-0.011534954971075,-0.0011084703728556,-0.0010545928962528,-9.58065502345e-05
1783206408159367700,7.17736767578125,-0.0070183908620849,0.0344920156558975,-0.0007569558471441,-0.0004094149917364,-0.0006219362840056,0.0002160493750125
1783206408169304600,7.1873046875,-0.0054431591683067,0.0303614551898092,-0.0073316580623388,-0.0001553492620587,-0.0005196710117161,-0.0007749127689749
1783206408179241700,7.19724169921875,-0.0005390387801453,0.0187620932130143,-0.0182540340930223,-0.0009054783731698,0.0006035417318344,-0.000130615895614
1783206408189178000,7.20717822265625,0.009211553524807,0.033532194180414,-0.0122621002018451,-0.0007717870175838,-0.0016654715873301,-4.43295575678e-05
1783206408199115300,7.217115234375,-0.0018842976429499,0.019443718801625,-0.0061222822725772,-0.0003869272768497,0.0001536407507956,0.0031512519344687
1783206408209052200,7.22705224609375,0.0037902225958183,0.0341372474014759,-0.011963994038105,-0.0002849278971552,0.0008780201897025,0.0005157876294106
1783206408218988300,7.23698828125,0.0203677748439833,0.0308446903957985,-0.0177963534533977,-0.0012991121038794,0.0020047682337462,0.0028701312839984
1783206408228925200,7.24692529296875,0.0038825222554616,0.0263348848211579,-0.0095750530749559,0.0003094375133514,-0.0011486806906759,-0.0016750856302678
1783206408238862300,7.2568623046875,0.0103447405395098,0.0413769711303524,-0.0106195936918258,0.0003906479105353,0.0001979707740247,0.000621051993221
1783206408248799000,7.266799072265625,0.0063960211800411,-0.0055271841899491,0.0004535889863967,0.0032894993200898,0.0010941242799162,0.0007366328500211
1783206408258735000,7.276735107421875,-0.0037314050806686,0.04461206232775,-0.0149625913321971,0.0014691604301333,-0.0018387893214821,0.0010259924456477
1783206408268672300,7.28667236328125,-0.0080708590570837,0.0308830313785001,-0.0073322425842285,-0.0007670959457755,0.0015484853647649,0.0002017440274357
1783206408278609200,7.296609130859375,-0.0082049702981486,0.0294146027937531,-0.0058311903715133,-9.5572322607e-05,-0.0005528754554688,0.0001339495647698
1783206408288545000,7.306544921875,0.0011290588288567,0.022267580583319,-0.006878069075942,-0.0006423192098736,0.0001384811475872,0.0022684731520712
1783206408298482200,7.316482177734375,0.0090154098981991,0.0077664327504113,-0.007025368592143,-0.0001370655372738,0.0001594419591128,0.0004806797951459
1783206408308419300,7.32641943359375,0.008018982739374,0.030533286359068,-0.0085205755859613,0.0012025041505694,-0.0022778832353651,0.0003909312654286
1783206408318355200,7.336355224609375,-0.0068115797109901,0.0388955295781604,-0.006126373925805,-0.0004776967689394,-0.0020609176717698,-0.0019884398207068
1783206408328292000,7.3462919921875,-0.007131751576066,0.0422832175213843,-0.0079214406490325,0.0006355037912726,-0.0017860792577266,0.0010321172885596
1783206408338229200,7.356229248046875,-0.0018675657038576,0.0247774079797789,-0.0017851298511028,-6.73700124025e-05,0.0002455837093293,0.0006989319808781
1783206408348166100,7.366166259765625,-0.0021033837537281,0.0198000762249343,0.0015098200410604,-0.0016953609883785,0.0003142934292554,0.0006145099177956
1783206408358102000,7.37610205078125,-0.0081215115320868,0.0203540203132666,-0.0028296704679727,0.0012749163433909,0.0015073139220476,0.0012897404376417
1783206408368039200,7.3860390625,0.0095562205103226,0.0139021042275242,-0.0142050509631633,0.0011998154222965,0.0015134392306208,-0.0012309413868933
1783206408377976000,7.39597607421875,0.0054312130021862,0.0323520262188278,-0.0088128365308046,-0.0015225866809487,0.000166127923876,-0.0008609222713857
1783206408387912200,7.405912109375,0.0039671500653028,0.0354688613314181,-0.0097135847628116,-0.0005971379578113,-0.0026203375309705,-0.0011775721795856
1783206408397849000,7.41584912109375,0.0108943189799785,0.033933523256611,-0.0142003747880458,0.0001138737425208,0.0015546735376119,-0.0022370393853634
1783206408407786200,7.4257861328125,0.0078048285320401,0.0268124574713408,-0.010613748472929,0.0012566354125738,-0.0011449726298451,-0.0012870898935943
1783206408417722000,7.43572216796875,0.0109573012135922,0.0154485482182353,-0.0110579851090908,-0.00077033508569,-0.0019776793196797,-0.000165149802342
1783206408427659300,7.4456591796875,0.013099025950022,0.0231922028812579,0.0003255786925554,-0.0027693035081028,-0.0040014158003032,-0.0021912828087806
1783206408437596200,7.45559619140625,-0.0181393764710985,0.0661955331044271,-0.0064040218234062,1.6494654119e-05,0.0030705207027494,0.0022934942971915
1783206408447533000,7.465532958984375,-0.0106278865961357,0.0262770902193151,-0.0035655835270881,-0.0004538195207715,-0.001725832466036,0.0007009238470345
1783206408457469200,7.47546923828125,0.0010871924485079,0.0290573320549912,-0.0038613516032695,-0.0011293441057205,0.0018196017481386,0.0015075737610459
1783206408467406300,7.48540625,0.017316095655784,0.0045955841619521,-0.0064057753890752,0.0009122351184487,0.0002256999723613,0.0021424712613224
1783206408477343000,7.495343017578125,0.0026465141871012,0.0447762033808976,0.0007744915038347,0.0022044526413083,-0.0022086049430072,-7.34908971935e-05
1783206408487279000,7.505279052734375,-0.0083505345149897,0.0532737816837616,0.0060106385916471,0.0014118961989879,-0.002619796898216,-0.0006181073840707
1783206408497216300,7.51521630859375,0.0070658102003857,0.0292335288721136,0.0049655134528875,0.0003117807209491,-0.0029520047828555,-5.30672259628e-05
1783206408507153200,7.525153076171875,0.0072888418339192,0.0174697153149172,-0.0002712181568145,0.001043084077537,-0.0019234921783208,-0.0024789408780634
1783206408517089000,7.535089111328125,0.0044960145113058,0.0111315618019551,0.0067646718293428,-0.0010626930743455,-0.000121486838907,-0.0022158087231218
1783206408527026200,7.545026123046875,0.0001965637517161,0.0348198959033936,0.003776595929265,0.0007732901722192,0.0006090183742344,-0.0005337563343346
1783206408536963300,7.55496337890625,-0.0101059998801909,0.0504116154519841,-0.004902969610691,0.0025749048218131,-0.002223873976618,-0.001836649607867
1783206408546899200,7.564899169921875,0.0091804094678722,0.0322316695084795,-0.0137298346668481,0.0016603749245405,3.07578593492e-05,0.000607599504292
1783206408556836000,7.574836181640625,0.0085546239860355,0.0229960957872681,0.0015314473509788,-0.0006920620799064,0.0025826641358435,0.0001000629272311
1783206408566773200,7.584773193359375,0.0062144540680572,0.0164480623832903,-0.0002677110254764,0.0007692147046327,0.0013869050890207,-0.0005931579507887
1783206408576710100,7.594710205078125,0.0006521437657997,0.0240373302021995,-0.0010158990442752,-0.0001466386020183,0.0006798007525503,0.00038284342736
1783206408586646300,7.604646240234375,-0.0086400920460931,0.0346466216957196,-0.0025075989067554,0.000437126494944,0.0007810005918145,0.0012441095896065
1783206408596583200,7.614583251953125,-0.0019777298137545,0.02986684007328,0.001829553514719,-0.0018243202939629,0.0017970888875424,0.0023732588160783
1783206408606520000,7.62452001953125,0.0064693421445786,0.0255261257215403,0.0001852934390306,0.0013826582580804,-0.0002740514464676,-0.0001399663742631
1783206408616456200,7.634456298828125,0.0052174606536515,0.0281699547612108,-0.0007078560084104,-0.0006824908778071,-0.0026332400739192,0.0007055352907627
1783206408626393300,7.644393310546875,0.0112346385839395,0.0379563855645246,-0.000853986480832,0.0021037077531218,-0.0002334658056497,-0.0023453822359442
1783206408636330200,7.654330322265625,0.001724211710412,0.0375880637087859,-0.0138818103581666,0.002273348160088,0.0020696041174232,-0.0002594897523522
1783206408646266000,7.66426611328125,0.00214981671134,0.0217016720625571,-0.0041641339421272,-0.0011557377874851,0.0009276405908167,-0.0001265979371964
1783206408656203300,7.674203369140625,-0.0038927513885311,0.0285669547221623,0.0049625908434391,0.0004872549325227,0.0003053680993616,-0.0013587430585175
1783206408666140400,7.684140380859375,-0.0057043491214513,0.0234822170700877,0.0016699790388345,0.0002052262425422,0.0016476013697683,0.002572348807007
1783206408676076300,7.694076171875,0.0084345595366321,0.0268298104649409,0.0027180267870426,0.0002394206821918,-0.0027243844233453,-0.0017166723264381
1783206408686013200,7.70401318359375,0.0016971227740868,0.031459698755294,-0.0022159224838018,0.0019417135044932,-0.0020633875392377,-0.0028562389779835
1783206408695950300,7.713950439453125,0.00671864073053,0.0318921353558078,0.0028746786534786,-0.0031662732362747,-0.0011459477245807,-0.0007135092746466
1783206408705886200,7.72388623046875,0.0010157711801119,0.0283633219088427,-0.0002653729379177,-0.0004628980532288,0.0005454258061945,0.0004577490035444
1783206408715823000,7.733822998046875,0.0048688846779987,0.0309596585449762,0.0102063367158174,0.0004710927605628,-0.0003276346251368,0.0026926640421152
1783206408725760300,7.74376025390625,0.0032204233512282,0.0247900117330253,0.0134907652139663,-0.0011241408064961,0.0023041008971631,-0.0008445465937256
1783206408735696400,7.7536962890625,-0.0043965727248229,0.0300200030746869,0.0082499419510364,0.0005477983504533,7.52490013837e-05,0.0011888879816979
1783206408745633000,7.763633056640625,-0.0044013402314856,0.029664796428848,0.0048047699332237,0.0021353084594011,0.0009980341419577,-0.0001695903483778
1783206408755570200,7.773570068359375,0.0220678932927548,0.0106573501526378,0.0018161095112562,0.0004791030660271,-0.0003604749217629,-0.0010513458400964
1783206408765506300,7.78350634765625,0.0174300774242728,0.0135535099855624,0.0079500822216272,-0.00116060487926,-7.0456881076e-05,-0.0007538706995546
1783206408775443200,7.793443115234375,-0.0053994478907436,0.0379481109265238,-0.002073883664608,0.0012592142447829,-0.0005210139788687,0.0008466192521154
1783206408785380000,7.803380126953125,-0.002129340178892,0.0184465244578197,0.0094528880000114,-0.0011155270040035,0.0004718122072517,-0.0004447477404028
1783206408795316200,7.813316162109375,-0.0018814846313558,0.0181557613503187,0.0088525840193033,0.0005306378006935,-0.00078782485798,0.0005434900522232
1783206408805253400,7.82325341796875,-0.0049401232833042,0.0275955706730484,0.0060118076354265,-0.001240630634129,0.001558952499181,-0.0021524280309677
1783206408815190300,7.833190185546875,-0.0085386957645416,0.0405851814318448,0.0154354695409536,7.96010717749e-05,0.0012916936539113,0.0014794070739299
1783206408825126100,7.843126220703125,0.0033317930375225,0.0471633542457595,0.0093020813524723,0.0011802855879068,-0.000411398243159,0.0009568950626999
1783206408835063300,7.853063232421875,0.0071322265001013,0.0270665783628821,1.87047004699e-05,-0.000125017017126,0.0006258790381252,0.0006800021510571
1783206408845000200,7.863000244140625,0.0123740361437201,0.0193762065233662,0.0106447281330823,-0.0014627231284976,0.0009832754731178,0.0013271502684801
