time,seconds_elapsed,ax,ay,az,gx,gy,gz
1783206487974904300,0.102904296875,0.0035617658684961,0.0189535971971228,-0.0434901821583509,0.00321810785681,-0.0036095827817916,-0.0003717609215527
1783206487984840200,0.112840087890625,-0.0025738690759986,0.0207407180759124,-0.0686292995899915,-0.0021787881851196,-0.0006699855439364,-0.000925431959331
1783206487994777000,0.122777099609375,0.0030306364001706,0.0016713124793954,-0.0312158069968223,-0.002991585060954,0.0013092756271362,0.0004479601047933
1783206488004714200,0.13271435546875,-0.0055459436893463,0.0156438515946269,-0.0199959093242883,0.0005213478580117,0.0004235501401126,0.0010470882989466
1783206488014650400,0.142650390625,-0.0061439826477318,0.0113626306114718,-0.0560603253960609,0.0028172591701149,0.0002379277721047,-0.0007646603044122
1783206488024587300,0.152587158203125,-0.0071345645876601,0.0054309024749323,-0.0642944852560758,0.0002490412443876,0.0013754805549979,0.00235401163809
1783206488034523100,0.162523193359375,-0.0071114394403994,0.0025740882717072,-0.0277905087232589,-0.0021731043234467,0.0002604150213301,0.0013361510355025
1783206488044460300,0.172460205078125,-0.0045669973882846,0.0090920918636024,-0.0309352364897727,0.0015443675220012,0.001717010512948,0.0005315786693245
1783206488054396200,0.182396240234375,0.0027326215679757,0.0046775816232897,-0.0578688361227512,-0.0011491542682051,-0.0040988009423017,0.0001446213573217
1783206488064333300,0.192333251953125,0.0066567544754594,0.0158770940949209,-0.0598036035776138,-0.0010106181725859,-0.0005485909059643,0.0005443759728223
1783206488074269200,0.202269287109375,-0.0033098917329683,0.0170919680437073,-0.0421411056369543,-0.0027424721047282,0.0005733990110456,-0.0003536418080329
1783206488084206300,0.212206298828125,0.004967413149029,0.0044869726883247,-0.0324164149582386,0.0013991259038448,0.0017053293995559,0.0027943882159888
1783206488094142200,0.22214208984375,0.0054309390075504,0.0002945807660929,-0.0424462260633707,-0.0008834693580865,-0.0003751320764422,0.0011517503298819
1783206488104079400,0.232079345703125,0.0025212986385449,-0.0059209692805074,-0.0461865816354751,-0.0016336264088749,0.0017625377513468,0.0021933272946625
1783206488114015200,0.24201513671875,0.0001199731178581,0.0082082582337781,-0.0535164861321449,-0.0021566711366176,-0.0002068700268864,-0.0015454847598448
1783206488123952000,0.2519521484375,0.0064300695801153,0.0135152786007151,-0.0410889662355184,0.0004273047670722,-0.0008087712340056,-0.0018995483405888
1783206488133889300,0.26188916015625,0.0029036307533271,0.0166999913177452,-0.0448293218076229,-0.0002621868625283,-0.0023938845843076,0.0003950311802327
1783206488143825400,0.271825439453125,0.0021376513495109,0.0120831634383648,-0.0427267965704202,-0.00052469689399,-0.0002760486677289,-0.0004130583256483
1783206488153762300,0.28176220703125,0.0041502880798652,0.0042879064522683,-0.0455628967791795,-0.0003830166533589,0.0003236951306462,0.0009704537224024
1783206488163698200,0.2916982421875,0.0091378307014703,-0.0042569998573511,-0.040772739893198,-0.0003257049247622,0.0021271375007927,0.0001946887932717
1783206488173635300,0.30163525390625,-0.0023516228937543,0.0121325920706614,-0.0525952796339988,-0.0012237224727869,0.0010616066865622,0.0002375657204538
1783206488183571500,0.311571533203125,0.0015452566806226,0.0098039664600044,-0.0528957238852977,-0.001158676110208,0.0031330846250057,2.35566403716e-05
1783206488193508000,0.321508056640625,0.0073950969536788,0.0042683980342,-0.0442161583453416,0.0008323034271597,0.0010121432133018,0.001896291738376
1783206488203444200,0.3314443359375,0.0125966841847635,0.0064319692762568,-0.0422697004526853,-0.0018522189930081,-0.0013683247379958,-0.0004434548318386
1783206488213381400,0.34138134765625,0.0030969065694138,0.004981642603781,-0.0476513934910297,-0.0019643381237983,-0.0016713924705982,0.0009057028219103
1783206488223318300,0.351318359375,-0.004613905269932,0.007417327051796,-0.0485439584165811,-0.0011821230873465,-0.001106338109821,0.0004009767435491
1783206488233254100,0.361254150390625,-0.0061381008962169,0.0197201976554468,-0.047788756135106,-0.0021182242780923,-0.0014839745126664,0.0012465303298085
1783206488243191300,0.37119140625,0.0021014292586594,0.014222257826291,-0.0618511837571859,-0.0024841669946908,9.30093228816e-05,0.000178970163688
1783206488253127400,0.38112744140625,0.0004043612834997,0.0021944595706649,-0.0528729275315999,-0.0022878916934132,0.001620864495635,-0.0002870829775929
1783206488263064000,0.39106396484375,0.0018921521558426,0.0062600467754527,-0.0407487744957208,-0.001051502302289,-0.0006880876608192,0.0001008508261293
1783206488273000700,0.401000732421875,0.0048143232128582,0.0120170028669759,-0.0537625698477029,-0.0011625560000538,-0.0009783725254237,0.002096623647958
1783206488282937600,0.4109375,-0.0005517155986279,0.0075999170770868,-0.0525625464081764,1.82082876563e-05,7.64341093599e-05,-0.0015094677219167
1783206488292873700,0.420873779296875,-0.0018746530317701,0.0090846392095088,-0.0486707996666431,0.0019418094307184,-0.0009827055037021,0.0007792529650032
1783206488302810600,0.430810546875,-0.0066999908289872,0.0081962572687305,-0.0459784918427467,-0.0005507078021764,0.0004980573430657,0.0013297135010361
1783206488312747800,0.440747802734375,0.001081328963302,0.0062875558368861,-0.0495709633767604,-0.002045540139079,0.0029830529820173,0.0012466232292354
1783206488322683600,0.45068359375,0.0026691644103266,0.0092740973670035,-0.0477723895221948,-0.0012064790353178,-0.0008508460596203,0.0003032097592949
1783206488332620500,0.46062060546875,0.007859554393962,0.0087807974247261,-0.052111880031228,-0.0012962277978658,-0.0019262302666902,0.0012022932060062
1783206488342556700,0.470556640625,0.0039781463833525,0.0198932709337212,-0.0467255108177661,0.0006710030138492,0.0003834264352917,-0.0004926677793264
1783206488352493600,0.48049365234375,0.0010243015464395,0.0085795026989653,-0.0443324782013893,0.0014454498887062,-0.0006128624081611,-0.0007957355119287
1783206488362429700,0.4904296875,-0.0015319953402504,0.0098808128221891,-0.0494189876854419,-0.0008450401946902,0.00074198609218,-0.0005343840457499
1783206488372366600,0.50036669921875,0.003781801827345,0.002723378815595,-0.0525596237987279,0.0004042480140924,-0.0015872148796916,0.002031305572018
1783206488382303700,0.5103037109375,0.0075399305181577,0.0055515697125345,-0.0477665443032979,-0.0003990577533841,-0.0019592703320086,0.0004355160053819
1783206488392239600,0.520239501953125,-0.0020584303671494,0.0105259971242398,-0.0509101030260324,-0.0032526357099413,0.0033036686945706,0.002809457713738
1783206488402176500,0.530176513671875,-0.0062044806633144,0.0168883717630058,-0.058538698208332,-0.0029562506824731,-5.7164579629e-06,0.0004915019962936
1783206488412112600,0.540112548828125,0.0028979133985936,0.0174928039295598,-0.052699324530363,-0.0019940501078963,0.0018393215723335,-0.0003569812979549
1783206488422049500,0.550049560546875,0.0088799469502642,0.0004483282893896,-0.0474625929206609,-0.0004780255258083,0.0005211974494159,0.0025439653545618
1783206488431985700,0.559985595703125,0.0053983884448185,0.005719126565475,-0.0521031122028827,-0.000674832612276,0.0001765843480825,0.0001561753451824
1783206488441922600,0.569922607421875,-0.0028611250521615,-0.0031488194197416,-0.0366904390156269,-0.0006614886224269,0.0025850238744169,-0.0014156869146972
1783206488451859700,0.579859619140625,0.0007324972593225,0.0103957948733121,-0.0425280591279268,-0.001380275003612,-0.0028033498674631,-0.0013331288937479
1783206488461795600,0.589795654296875,0.0119122455845586,0.0117102384727448,-0.055243163794279,0.000291152857244,0.0019784988835453,0.0019437735900282
1783206488471732700,0.599732666015625,-0.0026457652684301,0.011440335490182,-0.0521031122028827,0.0008943583816289,0.0006871316581964,0.0003413495142012
1783206488481668600,0.609668701171875,0.0037136684945784,-0.0010726342001929,-0.0405804321914911,0.0007911259308457,0.0011562136933207,-0.0024802600964903
1783206488491605500,0.61960546875,-0.0056241600247099,0.0108056908484548,-0.0381850614875555,-0.0017934720963239,0.0010361052118241,-0.0011542723514139
1783206488501541600,0.629541748046875,-0.0093533183493651,0.0024311178707517,-0.0456622655004262,-0.0010510236024856,0.0011779712513089,0.0015318132936954
1783206488511478800,0.639478759765625,-0.0071197140784002,0.0124772590561769,-0.0531494063854217,0.0011239796876907,0.0015396284870803,0.0008444511331617
1783206488521415700,0.649415771484375,0.006300342253223,0.0050555298238992,-0.0537467877566814,-0.0007176315411925,0.0022592016030102,-0.0010906695388257
1783206488531351600,0.6593515625,0.0156482355087995,0.0057791679233312,-0.0576432106733322,-0.0003216192126274,0.0017859577201306,0.0002765974495559
1783206488541288700,0.669288818359375,0.0025526436248794,0.0236571352455765,-0.0594341857433319,-0.0004879413172602,0.0009120078757405,0.0022223840933293
1783206488551224800,0.679224853515625,0.0003726509709842,0.0032197474977932,-0.0455178885936737,0.0013690805062651,-0.0017881710082292,7.98709224909e-05
1783206488561161500,0.689161376953125,0.0023313472907058,0.0081475227561779,-0.0486556020975112,-0.0010590748861432,-0.0005506328307092,-0.0013624172424897
1783206488571098600,0.6990986328125,0.001503426832892,0.0093772654805332,-0.0489537082612514,0.0016248589381575,-0.0003327862359583,-0.0014937110245227
1783206488581034800,0.70903466796875,-0.0007164959725923,0.0068594739733263,-0.0498474422305822,0.0008723959326744,-0.0037551582790911,0.0012602477800101
1783206488590971600,0.7189716796875,-0.0038900297084823,0.0025124577449634,-0.0543289715588092,-0.0002541206777095,-0.0033868425525724,0.0001571662724018
1783206488600907500,0.728907470703125,0.0001780965132638,0.0049310631940141,-0.0471375987499952,-0.0021421229466795,-0.0036694132722914,0.0007258234545588
1783206488610844700,0.7388447265625,-0.0012995200249366,0.0105831341389566,-0.0348614700227975,-0.0029370766133069,-0.0024784472770988,0.0006302159745246
1783206488620780800,0.74878076171875,-0.0022753245208412,-0.000836998813413,-0.0493728104561567,0.0011359779164195,-0.0015703872777521,-0.0010955943726003
1783206488630717400,0.758717529296875,0.0060877224158495,0.0085464954785071,-0.0547591796696186,-5.52544370293e-05,-6.46356493234e-05,-0.0013515240279957
1783206488640654600,0.768654541015625,-0.0015450740175321,0.0095263550950214,-0.0481686953634023,-0.0004303101450204,0.0010889344848692,-0.0027432697825133
1783206488650590700,0.7785908203125,-0.0095220077134668,0.0154551058231852,-0.0528115527331829,0.0004408098757266,0.0035813869908452,0.0011313632130622
1783206488660527600,0.788527587890625,0.0037153672613203,0.0174102036800235,-0.0574567481905221,0.0018603159114718,0.0004469496197998,0.0013338169082999
1783206488670463500,0.79846337890625,0.0148714241837151,0.0041426527626812,-0.0433943205684423,-0.0018808925524353,0.0012083472684025,-0.0004084231331944
1783206488680400600,0.808400634765625,0.0128001160686835,-0.0002208944753743,-0.0429436541914939,0.0010551810264587,0.0015980126336216,0.0015510306693613
1783206488690337500,0.818337646484375,0.0137566496085375,-0.0007299947749823,-0.0496826070576906,0.0007824730128049,2.99434177577e-05,0.0010903035290539
1783206488700273700,0.828273681640625,-0.0006128712013363,0.0070377348833717,-0.0601572393208742,0.0007967436686158,-0.0005986550822854,0.0010911298450082
1783206488710210600,0.83821044921875,-0.0014821465828455,0.0007912599755451,-0.0412947179406881,-0.0019569648429751,-0.0016008024103939,-0.000599444610998
1783206488720146700,0.848146728515625,-0.0008280117893591,-0.0105055753907188,-0.0438344655513763,-4.44212928414e-05,-0.0010933727025985,-0.0001301392912864
1783206488730083600,0.85808349609375,0.0021722294725477,-0.0046397520972415,-0.039491467911005,-0.0008383095264434,0.002960224635899,0.0019868074450641
1783206488740020700,0.868020751953125,0.0002382840015925,0.0026546792272478,-0.0408364527791738,-0.00094910338521,-0.0004468997940421,-0.000415014103055
1783206488749956600,0.87795654296875,-0.0008345328616909,0.0062933827894739,-0.040235564276576,-0.0019190264865756,-0.0010961783118546,-0.0011484485585242
1783206488759893800,0.887893798828125,0.0061235061152838,0.005861585509777,-0.0556511600732803,-0.0005240682512521,0.0005537564866244,0.0014094864018261
1783206488769829600,0.89782958984375,-0.002491853348352,0.0133311542054638,-0.050860418665409,0.0002607656642794,-0.0037941201590001,0.0014078887179493
1783206488779766500,0.9077666015625,0.0035628801133483,0.0135708812454715,-0.0478682511121034,0.0016872799023985,-0.0007672272622585,0.0010127027053385
1783206488789703700,0.91770361328125,0.0024800167800858,0.004343582162261,-0.0338005627930164,0.0022404184564948,0.0003507677465677,0.000656904419884
1783206488799639800,0.927639892578125,-0.0029341902883723,0.0090430285574868,-0.0444277552694082,0.0014905566349625,0.0019923346117138,0.0013770638033747
1783206488809576700,0.93757666015625,0.0018520576074719,0.0063046896347776,-0.0484668015271425,0.0004817508161067,-0.0004148967564105,-0.0002964667510241
1783206488819512600,0.9475126953125,-0.0023702727952972,0.0034063013121485,-0.0532587119787931,-0.0010908683761954,-0.0020071454346179,-0.0013475811574608
1783206488829449700,0.95744970703125,0.0005255947766825,0.0090232461447827,-0.0495142647534608,2.44639813899e-05,-0.0007535959593951,-0.000339841004461
1783206488839386600,0.96738671875,0.0082085870273411,0.0097267913042567,-0.0498112018734216,0.0089082326740026,-0.0145861990749835,-0.0015277516795322
1783206488849322500,0.977322509765625,0.0071468760799616,0.0099256931435316,-0.0317284326940774,0.0474779941141605,-0.0263946540653705,0.0027857702225446
1783206488859259600,0.987259765625,0.0192922363006509,0.0199424986366182,0.0964700771957635,0.0309819672256708,-0.032934732735157,-0.0004134459886699
1783206488869195800,0.99719580078125,-0.0011850633324123,0.0119155335201881,-0.2818015101492405,-0.001867857761681,0.002667998895049,-0.0014896292705088
1783206488879132700,1.007132568359375,-0.0045063349759206,-0.0035311698008328,-0.0396972196161746,-0.0133812353014945,0.0149339856579899,-0.0016288175247609
1783206488889069600,1.017069580078125,-0.0032978177026845,0.0041038003233261,0.126564771208167,0.0021417969837784,-0.0069726444780826,-0.0003238685894757
1783206488899005700,1.027005615234375,0.0131620264499448,0.0019703136922791,-0.2068418384939432,0.0116940578445792,-0.0029977299273014,-7.7001750469e-06
1783206488908942600,1.036942626953125,0.0072755439609289,0.0176158457873389,-0.1073334165155887,-0.0076040057465434,0.0035483196843415,-0.0001110308803617
1783206488918879700,1.046879638671875,0.0072418243544176,0.0082613766605034,0.0225654675513505,-0.0199052523821592,0.0173731502145528,0.0006689471192657
1783206488928815600,1.056815673828125,-0.0091886841058731,-0.0079577723377384,-0.0538712909191846,-0.017457541078329,0.0080174654722213,0.0019712327048182
1783206488938752800,1.066752685546875,-0.0035433351626619,0.0024030060211196,-0.1135761102974414,-0.0129118440672755,0.0224570408463478,-0.0006540899630635
1783206488948688600,1.076688720703125,-0.0177187764388509,0.0127886082939803,0.0097100776314735,-0.01428949739784,0.0146158952265977,-0.0021688959095627
1783206488958625500,1.08662548828125,-0.0085526877572759,0.0076808368261903,-0.0271019419372081,-0.0088866204023361,0.0124826878309249,0.0022123712114989
1783206488968562700,1.096562744140625,0.0046086263066157,0.0158146233179606,-0.0869628286600112,0.0035279709845781,-0.0012648166157305,0.0013708123005926
1783206488978498800,1.106498779296875,0.0080412128374911,0.0067065849665552,0.0040028059005737,0.0091019868850708,-0.0022048470564186,-0.0013751357328146
1783206488988435700,1.116435791015625,0.0113638727204874,0.0146980769108049,-0.0937117183983325,-0.0023831622675061,0.0011054622009396,-4.40878793597e-05
1783206488998371600,1.12637158203125,0.0025290252872742,0.008766531437356,-0.0712672468781471,-0.004753490909934,0.0080067077651619,0.0024520244915038
1783206489008308700,1.136308837890625,0.0038690051867626,0.0127945813770405,0.0372200158476829,0.0019829757511615,-0.0029276986606419,0.0024554866831749
1783206489018245600,1.14624560546875,0.0085290146207436,0.0089951708277687,-0.0868318957567215,0.0062238196842372,-0.0023853741586208,-0.0014204832259565
1783206489028181500,1.156181396484375,0.0007746376343071,0.0110367596579715,-0.0971633201569318,-0.0002066493034362,0.0036791760940104,-0.0016625644639134
1783206489038118700,1.16611865234375,0.0032360593117773,0.0058241030436009,0.0255412684917449,-0.0042470209300518,0.0022690671030431,0.0030336631461977
1783206489048055600,1.1760556640625,0.0051518663378432,0.004120057338383,-0.0384942735671997,0.0019450960680842,-0.0026628407649695,-0.001204757601954
1783206489057991700,1.18599169921875,0.0083432097250595,0.0001415273625403,-0.0742541537344455,0.0040739169344305,-0.0017242487519979,0.0002979871351271
1783206489067928600,1.195928466796875,-0.0016880444184876,0.0049260947579517,-0.0447755457937717,-0.0022838478907942,0.001912563573569,-0.0002082795836031
1783206489077864700,1.20586474609375,-0.0105616894921287,0.0055503276035189,-0.03549100009799,-0.0012324312701821,0.0027418718673288,0.0014474862255156
1783206489087801600,1.215801513671875,0.0006736980104818,0.004190072100982,-0.0389361721158027,-0.0010018022730946,0.0008033569902181,-0.0004891643766313
1783206489097738800,1.22573876953125,0.0021069822166115,0.0084820336738601,-0.0474620083987712,0.0013613356277346,-0.0018132482655346,-0.0024313698522746
1783206489107674600,1.235674560546875,0.0043484957993961,0.0105182156765833,-0.0585334375113248,-0.0004315050318837,0.0024105252232402,-0.0002590294461697
1783206489117611500,1.245611572265625,-0.0028978038007393,0.0071120787612162,-0.0408785383552312,-0.0014422368258237,0.0012149736285209,-0.0010893875733017
1783206489127548700,1.255548583984375,0.0033580051910132,0.018960940253362,-0.0431248559772968,0.0002696430310606,-0.0002114158123731,-0.0019400011515244
1783206489137484500,1.265484619140625,0.000166040749289,0.014671773425769,-0.0616828414529561,7.78650864958e-05,-0.0016265329904854,-0.0012987914960831
1783206489147421700,1.275421630859375,-0.0017672106019221,0.0071662018349394,-0.0516559529572725,-0.0018513286486268,0.0005806949920952,0.0028842356987297
1783206489157357600,1.285357666015625,-0.0086953293646685,0.0086751085605472,-0.0209819977521896,-0.0003543859347701,0.0031387202907353,0.0009773625060915
1783206489167294700,1.295294677734375,-0.0029918204934336,0.0128835017695091,-0.0491179589122533,0.0011793291196227,-1.41961500048e-05,-0.0013097601477056
1783206489177231600,1.305231689453125,0.0125436753558926,0.0164301431341096,-0.052708676880598,0.0009487299248576,0.00170478830114,-6.8687368184e-06
1783206489187167700,1.315167724609375,-0.0077804612757638,0.0173373941721394,-0.0428407783389091,-0.0013647582381963,0.0012243539094924,0.0008107214234769
1783206489197104600,1.325104736328125,-0.0045628692024387,0.0147463182330131,-0.0429910004645586,0.0015575475990772,0.0031300524715334,-0.0023471433669328
1783206489207041800,1.335041748046875,0.0120791083177551,-0.002883154220879,-0.0510761072427034,0.0005282359197735,-0.0018908050842583,-0.0015567169757559
1783206489216977700,1.344977783203125,0.0082296298153698,0.01533199090017,-0.0483756161123514,-0.0010536350309848,2.0172446966e-06,-0.0007668854668736
1783206489226914600,1.35491455078125,-0.0026264943123795,0.0114240236761979,-0.0377449165046215,0.0016465438529849,-0.001427567563951,-0.0006968444213271
1783206489236850700,1.3648505859375,-0.0037147827394306,0.0039022133366204,-0.0444739324986934,0.0016991226002573,3.33259813487e-05,-0.0005064397118985
1783206489246787600,1.37478759765625,0.0056725474773906,0.0068689541877247,-0.0492629203408956,0.0002205362543463,-0.0008215489797294,0.0005817278288304
1783206489256724500,1.384724365234375,0.0048368455719202,0.0033658597039058,-0.0540565843582153,0.0009293286129832,0.0023275830317288,-0.0002119250129908
1783206489266660600,1.39466064453125,0.015305632616207,-0.0007010609414428,-0.0419394455850124,0.0002156011760234,0.0018183863721787,-0.0004891601856797
1783206489276596700,1.4045966796875,-0.0022340791950002,0.0139661276407539,-0.0470282931566238,-0.0016013113781809,-0.0009443797171115,0.0002420102246105
1783206489286534000,1.414533935546875,-0.0076012870502658,0.0213882039329037,-0.0440332029938697,-0.000237506814301,0.001432491466403,-0.0035268953070044
1783206489296470000,1.424469970703125,-0.0038654615228064,0.0052414443174377,-0.0494248329043388,-0.0015471447259187,-0.0009944443590939,0.0010103383101522
1783206489306406700,1.43440673828125,0.0036592166272923,0.0015674137135036,-0.0456803856790065,-0.0017130598425865,0.0007070493884384,0.0009597381576895
1783206489316343800,1.44434375,0.0052662316988222,0.0132172820348292,-0.0393915146678686,0.0012924205511808,-0.0022802776657044,-0.0012326868018135
1783206489326280000,1.454280029296875,-0.0073707844963297,0.0145426306207664,-0.0555494532644748,0.0009856251999735,-0.0011950391344726,-0.0002084351144731
1783206489336216800,1.464216796875,-0.0001407967101782,0.0146817833631299,-0.0428331795543432,-0.0026890048757195,0.000863051507622,0.001735454192385
1783206489346152700,1.474152587890625,0.0054500090342015,0.0082187065625563,-0.0446218165367841,0.0012663220986723,-0.0018935860134661,-0.0001604498829692
1783206489356089900,1.48408984375,-0.0026137444286607,0.0031592312159016,-0.0426771122097969,0.0004703616723418,0.0003296765498816,0.0022218485828489
1783206489366026800,1.49402685546875,8.13581405207e-05,-0.0042085941383615,-0.0411795671284198,0.0011436091735959,0.0009613782167434,-0.0002655438147485
1783206489375962600,1.503962646484375,-0.0034255540018901,0.0001242839667946,-0.0369914677888155,-0.0008641658350825,-0.0018878453411161,0.0025106566026806
1783206489385899800,1.513899658203125,-0.0022388284353539,0.0130840293102897,-0.0443266329824924,0.0012735538184642,-0.0028801397420465,0.0015785503201186
1783206489395837000,1.5238369140625,-0.0047944129359908,0.010107771712169,-0.0455202266812324,-0.0018215719610452,-0.0008348319679498,-0.0006310173776
1783206489405772800,1.533772705078125,-0.0054441455489955,0.0031861374891363,-0.0600356587678194,0.0010178899392485,-0.002278531435877,0.0010214741341769
1783206489415709700,1.543709716796875,0.0081377502808347,-0.0025179376376792,-0.0477659597814083,0.0019102040678262,0.0004637194797396,0.000916457735002
1783206489425646800,1.553646728515625,0.0065245063979178,-0.0038273945347405,-0.0458206709325313,-0.0009588189423084,-0.0004161889664828,0.0019420408643782
1783206489435583000,1.5635830078125,-0.0017167042573913,-0.0010782236907631,-0.0420820689260959,0.001250198110938,0.0006397585384547,-0.0014080887194722
1783206489445520000,1.573519775390625,0.0021851254867389,0.0160765439234674,-0.0492670119941234,0.0014744363725185,0.0006232471205294,-0.0009758577216416
1783206489455456800,1.583456787109375,-0.0077668163429014,0.0225790576852858,-0.05001929166615,-0.0003354372456669,-2.11647711694e-05,0.0003381655551493
1783206489465393000,1.593392822265625,-0.0054909073001705,0.0234126041662879,-0.0513631074905395,0.0005359491333365,-0.0032864660024642,0.0001211178023368
1783206489475329800,1.603329833984375,0.0102977595926262,0.0045797290056943,-0.047317046970129,0.0001581320539116,0.0019680811092257,-0.0007255363743752
1783206489485265700,1.613265625,0.0075760247448459,0.0091711119165644,-0.0494201567292213,0.002422085031867,0.0003882939927279,-0.0004408443346619
1783206489495202800,1.623202880859375,-0.0055601000788621,0.0161706154150888,-0.0373065250873565,0.0002311244606971,-0.0014404891990125,5.33449929207e-05
1783206489505139700,1.6331396484375,-0.0053115869442,0.0078632441883906,-0.0458393756330013,0.0008857287466526,0.0007054861634969,-0.0019141983939334
1783206489515075800,1.643075927734375,0.0005775441596284,-0.001895074765291,-0.048081601601839,-0.0024722637608647,0.0001973793841898,-0.0009586394298821
1783206489525012700,1.6530126953125,0.0143315268870443,0.0061361098685301,-0.0404530064195394,-0.0010714419186115,5.83622604608e-05,-0.0007501137442886
1783206489534950000,1.662949951171875,0.0072507931121625,-0.0010917955583892,-0.0524240147203207,0.001231787726283,-0.0004034782759845,0.0026638468261808
1783206489544885800,1.6728857421875,0.0031905214033089,0.0180213213156908,-0.0459936894118785,-0.0018122056499123,0.0044477358460426,-0.0008208993822336
1783206489554823000,1.682822998046875,0.0024070063428021,0.0089491579952649,-0.045547114688158,-0.0006851991638541,0.0005115335807204,-0.0016654061619192
1783206489564759800,1.692759765625,-0.0041058826825581,0.0110833387460559,-0.041809681725502,-0.0013994583860039,0.0015685423277318,0.0004422194324433
1783206489574696000,1.702696044921875,-0.0065046691862866,0.0015904109966009,-0.0419528895884752,-0.002057546749711,-0.002202701754868,0.0004721372388303
1783206489584632800,1.7126328125,8.59247177839e-05,0.0039607203245162,-0.0391091905951499,9.3488022685e-05,0.0001989370211958,0.000556293176487
1783206489594570000,1.722570068359375,-0.0004768602641299,0.0096889252455905,-0.0388099153876304,-0.0009458279237151,0.0013742628507316,-0.0024321414530277
1783206489604505900,1.732505859375,0.0021927425376139,0.0179334603691473,-0.0438987629592418,-0.0008587427437305,0.000821657013148,0.0028265363071113
1783206489614442800,1.74244287109375,0.0047416233028285,0.009644063190557,-0.0427040002167224,0.0006271759048104,-0.0015796273946762,0.0012460479047149
1783206489624380000,1.7523798828125,0.0091451006924733,0.0098036376664415,-0.0563239447683095,0.0014767237007617,0.001089658588171,6.2272651121e-05
1783206489634315800,1.762315673828125,0.0057231634197756,-0.0070962601375766,-0.0486830746263265,-0.0015057027339935,1.11302360892e-05,0.0025305049493908
1783206489644252700,1.772252685546875,-0.0076908284972421,0.0135217814067378,-0.0522720390290021,0.000480749644339,-0.0009204433299601,0.0017768302932381
1783206489654189800,1.78218994140625,-0.008908972115349,-0.0062946979637257,-0.0434375751882791,-0.0014760429039597,-0.0002695051953196,0.0011964943259954
1783206489664126000,1.7921259765625,-0.009629139616061,0.0153640848051756,-0.050468788999319,-0.0009878855198621,0.0006167949177324,-0.0003974074497818
1783206489674062800,1.802062744140625,0.0047334399963729,0.0029022425138391,-0.0491208815217018,-0.0011449456214904,-0.0007635368965566,-0.001555930590257
1783206489683999700,1.811999755859375,0.0022023140835575,0.0295592354288324,-0.0485182394534349,0.0008561536669731,0.0009094607084989,0.0010843272320926
1783206489693935900,1.821935791015625,-0.0019637743536382,0.0153804514180868,-0.049420741251111,0.000108091160655,0.0002885158173739,0.0008601651061326
1783206489703873000,1.831873046875,0.0101710644730366,0.015812687089201,-0.0401420407742261,0.001743271946907,-3.3667311072e-06,-9.00509767234e-05
1783206489713809700,1.8418095703125,0.0027098069479689,0.0161707798118703,-0.0467319405585527,-0.0001529809087514,0.0032330558169633,0.0012831911444664
1783206489723745800,1.851745849609375,-0.000728843997512,0.0078093951093032,-0.0525765749335288,0.0004523554816842,0.0011059893295168,-0.000413242727518
1783206489733683000,1.861682861328125,0.0015184052063152,-0.0002741772988811,-0.0458475589394569,0.0017808405682444,0.0001834486611187,0.0013903486542403
1783206489743619800,1.871619873046875,0.0057494851711206,0.0029594160611741,-0.0425526090472936,-0.0001211892813444,0.0014899955131113,-0.002292270772159
1783206489753555700,1.8815556640625,-0.0050479310393333,0.0227657576301135,-0.046595162436366,-0.0016776490956544,0.0001483503729104,0.0037277971860021
1783206489763492900,1.891492919921875,0.0002015139214694,0.0052131863373331,-0.042104280757904,0.0018718121573328,0.0003587398678064,0.0005828703287988
1783206489773429800,1.9014296875,0.0121625488175079,-0.0050459400116465,-0.0462958872288465,-0.0015410976484417,-0.0005676313303411,-0.0025683578569442
1783206489783365600,1.91136572265625,0.0042234994465485,0.0067477024282328,-0.05063479321599,0.0001191161572933,0.0012065665796399,0.001108402153477
1783206489793302800,1.921302734375,-0.0036309403808787,0.0101829375739209,-0.0533306081712245,-0.0010447073727846,-0.0014169909991323,0.0005999293643981
1783206489803240000,1.931239990234375,-0.0090911602818407,0.0102000348391942,-0.0471890366762876,-0.0021733548492193,-0.0006156461313366,0.0025994307361543
1783206489813175800,1.94117578125,0.0033776232069358,0.0138759468729607,-0.0320727160871028,-0.0003436850383877,0.0001765633933246,0.0005043807905167
1783206489823112700,1.95111279296875,0.0022944858790375,-0.0014085698899812,-0.034013913282752,-0.0004528751596808,0.0009329011663794,-0.0006588879041373
1783206489833049900,1.9610498046875,-0.0100944007739424,0.0021251023951917,-0.043738019439578,-0.0010631307959556,-0.0010897880420088,-9.6943695098e-06
1783206489842986000,1.970986083984375,0.000902501797676,0.0063565476861782,-0.044638767671585,0.0017726030200719,0.0009568510577082,0.001286199549213
1783206489852923000,1.9809228515625,0.0080731971446424,0.0079471961447969,-0.0370060808360576,-0.0002581886947154,-0.0017020427621901,-0.0002059938851743
1783206489862859800,1.99085986328125,0.0041701800904236,0.0120536998818628,-0.0355120428860187,0.0022710151970386,0.0029742019250988,-5.84546942263e-05
1783206489872796000,2.0007958984375,0.004584807039611,0.0027341376716271,-0.044793665972352,-0.0004715686663985,0.0021568271331489,0.0014255810528993
1783206489882732800,2.01073291015625,0.0076491265136748,-0.0001108764959499,-0.0421066188454627,-0.0021536210551857,0.0010050102137029,0.000559255015105
1783206489892670000,2.020669921875,0.0034332989169284,0.0081707027023658,-0.0467430464744567,-0.0004482632502913,-0.00230357889086,0.0012111046817153
1783206489902605800,2.030605712890625,0.0009142105017788,0.0103907168393954,-0.0441933619916439,-0.0006474675610661,0.0025588206481188,3.55853699147e-05
1783206489912542700,2.040542724609375,-0.0027006555271334,0.004845101943612,-0.0355108738422393,-0.0028737802058458,-0.00052972137928,-0.0003347496967762
1783206489922479900,2.05047998046875,-0.0022434132789261,0.016595928155072,-0.0498737457156181,0.0014519933611154,0.0014327620156109,0.0002689890097826
1783206489932415700,2.060415771484375,-0.0010040990086272,0.01846811523512,-0.0465823029547929,-0.0006185872480273,-0.0012293620966374,-0.0003582609351724
1783206489942353000,2.070352783203125,-0.0028704774023965,0.0068110134554095,-0.0393979444086551,0.0018312549218535,0.0013357945717871,0.0013975610490888
1783206489952289800,2.080289794921875,-0.0025107955108396,0.0004884411040693,-0.0468815781623125,-0.0023519927635788,0.001633780542761,0.0028753941878676
1783206489962226000,2.090225830078125,-0.0007315656775608,0.02133216289673,-0.0338601840257644,-0.000149292871356,0.0012452253140509,0.0013525988906621
1783206489972162800,2.100162841796875,-0.0044675921344198,0.016728669422958,-0.0334124402582645,0.0030829589813947,-0.0015103872865438,0.0015663600061088
1783206489982099700,2.110099609375,-0.0036338629903271,0.0068865446433424,-0.0477758966535329,-0.0017043389379978,-0.0006603063084185,0.0013399913441389
1783206489992035800,2.120035888671875,-0.0064772514563985,0.0024078100604005,-0.0438812273025512,-0.0018138904124498,-5.91436401e-06,0.0008869490120559
1783206490001973000,2.129972900390625,0.0105529399300925,-0.0023489925452508,-0.0369908832669258,-0.0040663927793502,-0.0017809113487601,0.0014608602505177
1783206490011909600,2.13990966796875,0.0074507543973624,0.0144683780744671,-0.0414765042483806,0.0005498267710208,6.90235756337e-05,-0.0003539680037647
1783206490021845800,2.149845703125,-0.0082978544796817,0.0131617341889999,-0.0476180757433176,0.0016052378341555,0.0016450826078653,0.0034703311976045
1783206490031783000,2.159782958984375,-0.0060419653116725,0.0305479542052373,-0.0369943903982639,-0.0016295686364173,-0.0040374579839408,-0.0007118594367057
1783206490041719800,2.1697197265625,0.0003107099169865,-0.0218226132947951,-0.0383306074380874,-7.66795128583e-05,-0.0015380815602838,0.0012413028161972
1783206490051655700,2.17965576171875,0.004601776440721,0.011050112329889,-0.0450637150853872,-0.00062957406044,0.0015421509742736,0.0025713827926665
1783206490061592800,2.1895927734375,-0.0029110468748025,-0.0020525668819434,-0.0438695368647575,0.0018133437260985,-0.0006706696003675,-0.0008137612603604
1783206490071530000,2.199530029296875,-0.0018626520667225,0.0169377455963753,-0.0392307711482048,-0.0002161841839551,-0.0009352657943964,-0.0014122042339295
1783206490081465900,2.2094658203125,-0.0052107386519201,0.0204020972386933,-0.0390787954568862,0.0001060580834746,-0.0020806910470128,-0.0028820028528571
1783206490091402800,2.21940283203125,8.53949948213e-05,0.0079368756801821,-0.0498544564932584,0.0017165252938866,0.0004698946140706,-0.001195406075567
1783206490101340000,2.22933984375,-8.8737729378e-05,-0.0042336920469999,-0.0440174209028482,-0.0003133360296487,0.0019980161450803,-0.0010236322414129
1783206490111276000,2.239276123046875,0.0049614400659687,-0.0011418817778117,-0.0251671744823455,0.0017712591215968,-0.0011553955264389,0.0008424005936831
1783206490121213000,2.249212890625,0.0073012811903841,-0.00476608189065,-0.0408797073990106,4.55314293503e-05,0.0043072802945971,-0.0019701640121638
1783206490131149800,2.25914990234375,-0.0099789211681112,0.0211625784834846,-0.0393868384927511,0.0014686081558465,-0.001056489534676,-0.0003976377192884
1783206490141086000,2.2690859375,-0.0054722756649367,0.018190850930009,-0.0404383933722972,0.0010691341012716,0.0010756370611488,-0.0009015079122036
1783206490151022800,2.27902294921875,0.0094306213692761,0.0019693638442084,-0.0489724129617214,0.0007788501679897,0.0020952308550477,0.0001291860826313
1783206490160960000,2.2889599609375,0.006598046558164,0.0024581154755316,-0.0423889429181814,0.0008962955325841,-0.0013804608024656,-0.0010274248197674
1783206490170896000,2.298895751953125,-0.0028883783852681,0.0091881361166015,-0.0329682036221027,-0.0007243556901812,-0.0005037104710936,-0.001190997310914
1783206490180832800,2.308832763671875,-0.0039144152310676,0.0180218145060352,-0.0434463430166244,0.0030163200572133,-5.20385801792e-05,0.0008346030954271
1783206490190770000,2.31877001953125,-0.0033174539849162,0.017290796817746,-0.0488385574489831,-0.0003361217677593,0.0020070229656994,0.0003585929516702
1783206490200707000,2.32870703125,-0.0019059432191774,0.0085313344419933,-0.0406125808954238,0.0008436581119894,0.0003337585367262,3.979075700044632e-07
1783206490210642700,2.338642578125,-0.0087740206240676,0.000641859833803,-0.0304383928835392,0.0014402912929654,0.0008503650315105,6.66466075927e-05
1783206490220579800,2.348579833984375,-0.0023615232332609,-0.0026826449464075,-0.0500403344541788,-0.000754952430725,0.0031537329778075,0.0017479001544415
1783206490230517000,2.35851708984375,-0.0085776943343691,0.0061360002706758,-0.05483107586205,0.0001763198524713,-0.0007463856600224,-3.0672410503e-05
1783206490240452900,2.368452880859375,-0.0160654014749452,0.0136414987962692,-0.0506371313035488,0.0008399793878197,0.0017599151469767,0.0001131382305175
1783206490250389800,2.3783896484375,0.0004463372617028,0.0096897837621159,-0.0476455482721328,0.0006213700398802,-0.0010266168974339,-0.0001600724644958
1783206490260327000,2.388326904296875,0.0032241314119659,0.0066886291847564,-0.0479465770453214,0.0009143175557255,0.001329481601715,0.000729955965653
1783206490270263000,2.398262939453125,0.0073300323608331,0.0106413123332895,-0.0395668712347745,-0.0017228983342647,-0.0005606799386441,0.0018747909925878
1783206490280201000,2.408200927734375,-0.0050727001544088,0.0081078300666064,-0.0464542926609516,-0.0005870601162314,0.0021789139136672,0.002184516750276
1783206490290137900,2.418137939453125,-0.0056996912126429,0.0124643082430586,-0.0406195951581001,-0.0005916599184274,0.0014370516873896,-0.002600954612717
1783206490300074000,2.428073974609375,0.0075916424390859,0.0025920623198151,-0.0439168831378221,-0.0010321466252207,0.0005922969430685,0.0002454319037497
1783206490310011000,2.438010986328125,0.0049224232298322,0.0093999705026857,-0.0317933146238327,0.0001430762931704,0.001588356681168,0.001156595069915
1783206490319948000,2.447947998046875,0.0098441706062294,0.0037932730694301,-0.0355330856740474,-0.00089209433645,0.000867438968271,-0.0039987517520785
1783206490329884000,2.4578837890625,0.0056701545909047,-0.0032032530207186,-0.0332844299644231,0.0008104108273983,-0.0019011851400136,0.0031302988063544
1783206490339820800,2.46782080078125,-0.0026567615864798,0.004401121035777,-0.0424099857062101,0.001391245983541,0.0004016500897705,0.0008543611038476
1783206490349758000,2.477758056640625,-0.0077123462093062,0.0036829080301336,-0.0385106401801109,0.0002749487757682,-0.0024837148375809,0.0013795911800116
1783206490359693800,2.48769384765625,-0.0091741258575581,0.0030535058191046,-0.0470382300287485,0.0019711162894964,0.0004558819346129,-1.88348349183e-05
1783206490369630700,2.497630615234375,0.000533029164467,0.0030101964003406,-0.0480892003864049,-0.0007782140746712,0.0014387532137334,-0.0005541120190173
1783206490379567900,2.50756787109375,0.0079544478694908,0.0004020962611772,-0.0365711965501308,0.0004148818552494,0.0028515600133687,0.0016224896535277
1783206490389505000,2.517505126953125,-0.0012289938056841,0.0174969686480239,-0.0311871654242277,-0.0035669710487127,-0.0001429296098649,0.0009918874129652
1783206490399440600,2.527440673828125,0.0034319289437495,0.0013394136439077,-0.0397159243166446,0.0006360299885272,0.0001830412074923,-0.0003639278002083
1783206490409377800,2.537377685546875,-0.000884820010513,0.007665474860277,-0.0350818347752094,0.0013773664832115,0.0032520985696464,-0.0014837777707725
1783206490419315000,2.54731494140625,-4.44053973071e-05,0.0034319837426766,-0.0343342312783002,-0.0007084207609295,-0.0003351792693138,0.0021309307776391
1783206490429251000,2.5572509765625,-0.0017519034349359,0.002745225321222,-0.0250514391481876,-0.0014331713318824,-0.000822979491204,-0.0022590071894228
1783206490439187700,2.567187744140625,0.002887318939343,0.0055003327156417,-0.0335784444749355,-0.0005798945203423,-0.0002077897079288,0.0013530380092561
1783206490449124900,2.577124755859375,-0.0046891807295382,0.0056096017763949,-0.0483937362909317,-0.0003442456945776,0.000977826770395,0.0005151587538421
1783206490459061000,2.58706103515625,-0.0009147219584323,0.0107531934762373,-0.0437555550962686,-0.0022726403549313,0.0019008782692253,0.0006211525760591
1783206490468998000,2.596997802734375,-0.0023386538143269,0.0080531772699207,-0.0394184026747942,0.0003184685483574,0.001023597549647,-0.0014511523768305
1783206490478934800,2.606934814453125,0.0009055522712878,0.0053897302143275,-0.0346276612669229,0.0002284534275531,0.0002158610150218,0.0022730121854692
1783206490488872000,2.616871826171875,-0.0023668569955043,0.0014204429908655,-0.0434580334544181,0.0007304614409804,0.000839325133711,0.0027701826766133
1783206490498807800,2.626807861328125,-0.0043300285609439,0.0080716262420639,-0.0350759895563125,0.00022978708148,0.000618016347289,0.0001826554071158
1783206490508745000,2.636744873046875,-0.0020934468816034,0.0195352878089062,-0.0388198522597551,0.0027045616880059,-1.84765085577e-05,-0.0017111622728407
1783206490518681900,2.646681884765625,-0.007823514966201,0.0083394651317037,-0.0359743997007608,-0.0012401118874549,0.000134122557938,0.0006020592991262
1783206490528618000,2.656617919921875,-0.0049635224252007,0.0043655565320514,-0.0470534275978803,0.0007730899378657,0.0005982178263366,0.0017554280348122
1783206490538555000,2.666554931640625,-0.0026110227486118,0.0102452074214816,-0.0439180521816015,-0.0003126803785562,0.0008509517647325,-0.0013205230934545
1783206490548492000,2.676491943359375,-0.0077880965929478,-0.0015066417032852,-0.0392792864650487,-0.0014598527923226,0.0008321893401443,8.39945860207e-05
1783206490558428000,2.686427978515625,-0.0025345599789172,0.0045356706682592,-0.0394341847658157,-0.0005631670355796,0.0037757812533527,0.0017964071594178
1783206490568364800,2.69636474609375,-0.0034221199357882,0.0117276827978901,-0.0367366162449121,-0.001511825248599,-0.0024320553056895,0.0007216830272227
1783206490578302000,2.706302001953125,0.0002491524554789,0.0011567505533806,-0.0407762470245361,-0.000685978680849,-0.0014008786529302,-0.0006794058717787
1783206490588237800,2.71623779296875,-1.34988023899e-05,-0.0003447035181336,-0.0331388840138912,0.0001264084130525,-0.0008827354758977,0.0005987861659377
1783206490598174700,2.7261748046875,-2.49152455478e-05,0.0013473777546547,-0.0379290408998727,-0.0030227797105908,0.0008248835802078,-0.0004771309904754
1783206490608111900,2.73611181640625,0.0036310865113511,0.0074487268370576,-0.0407739089369773,0.0006758915260434,0.0001240372657775,0.0011122922878712
1783206490618049000,2.746049072265625,-0.0022099311344325,0.0071694897705689,-0.0346346755295991,-0.0031223082914948,0.0008569392375648,-0.001306656980887
1783206490627984600,2.755984619140625,-0.0002364756369963,0.0174045228579081,-0.0395738854974508,-0.0007303906604647,0.0010513407178223,-0.001349541824311
1783206490637921800,2.765921875,-0.0048186888607218,0.0212878488309681,-0.0412222372263669,0.0002243518829345,0.0008587939664721,-0.0011026668362319
1783206490647859000,2.77585888671875,-0.005252659831196,0.0157879362404346,-0.0368833312392234,-0.0019198944792151,-0.0018912418745458,0.0001249730121344
1783206490657795000,2.785795166015625,-0.0012558452799916,0.010377053640224,-0.034181671065092,-0.0008445093408226,0.0001572617329657,-0.0015972933033481
1783206490667731700,2.795731689453125,0.0017690007002092,0.0094182002791203,-0.0474970797121524,0.0007745614275336,-0.0005452404730021,0.001291470369324
1783206490677668900,2.8056689453125,0.0001398103294894,0.0010620397409424,-0.0476467173159122,-0.0013216128572821,-0.0014368668198585,0.0005926568992435
1783206490687605000,2.81560498046875,-0.0034800972007215,0.0075621606162749,-0.0313344649404287,-0.0011479705572128,0.0020444663241505,0.002435487229377
1783206490697542000,2.8255419921875,-0.006844806127157,0.0210129226134158,-0.048394905334711,0.0020422302186489,0.0010801358148455,-0.0020804351661354
1783206490707478800,2.835478759765625,-0.0113808055889792,0.0239111648055724,-0.0455500372976064,-0.0048321709036827,-0.000287665054202,-0.0013288130285218
1783206490717416000,2.845416015625,0.0103887440780177,-0.0065302237526513,-0.0509334839016199,0.0008307751268148,0.0009171492420136,0.0020091929472982
1783206490727351800,2.855351806640625,0.0094789540230296,-0.0186318909620866,-0.0507885224729776,0.001145209185779,-0.0001722578890621,-0.0008392282761633
1783206490737289000,2.8652890625,0.0016305238112807,0.0071289568307809,-0.0350794966876506,0.0016024736687541,3.49362380802e-05,-0.0003398854751139
1783206490747225900,2.875225830078125,-0.0067888564225286,0.0098088252982124,-0.0334299759149551,-0.0008187908679246,-0.0020125773735344,-0.00018249778077
1783206490757161700,2.88516162109375,-0.0074694956304505,0.0029492599933408,-0.0389607220351696,-0.0012289183214306,0.0004077032208442,0.000818318221718
1783206490767099000,2.895098876953125,-0.0117511367387138,-0.0017066577874124,-0.0331225174009799,-0.0012613832950592,-0.0011201342567801,0.0023388252593576
1783206490777036000,2.9050361328125,-0.0033016718938946,-0.0134298470732755,-0.0358124871373176,0.0004835193976759,-0.0002218498848378,-0.0014513857895508
1783206490786972700,2.91497265625,0.0098016283724457,0.0006001213176175,-0.0414952089488506,-0.0028799474239349,0.0014234194532036,0.0019546234980225
1783206490796908800,2.92490869140625,0.0104642387333326,0.0127085105287842,-0.0438917486965656,-0.000300676561892,0.0023022626992315,0.0017168032936751
1783206490806846000,2.934845947265625,-0.0069928728283382,0.0193583238068036,-0.0468850852936506,-0.0030776578933,0.0010867179371416,0.0014369052369147
1783206490816782800,2.944782958984375,-0.0109767730990424,0.003558258737158,-0.0355126274079084,0.0026577245444059,0.0006515574641525,-0.0010432968847453
1783206490826718700,2.95471875,-0.0012489954140968,-0.0097007983464747,-0.0441886858165264,-0.0012628585100173,0.000339270569384,-0.0019909720867872
1783206490836655900,2.96465576171875,-0.0031606559880077,0.0069393160101957,-0.0332651407420635,-0.0037784809246659,0.0007246299646794,0.0020748761016875
1783206490846593000,2.974593017578125,-0.0064772331900894,0.0194619120454415,-0.0369967284858226,0.0001881113275885,-0.0022663767449557,-0.0003356651868671
1783206490856528600,2.984528564453125,0.0006758534349501,0.0095311043353751,-0.0408820454865694,-0.0007234886288642,-0.0007265373133122,-0.0006642993539571
1783206490866465800,2.9944658203125,0.0129297703303396,0.0087562840379774,-0.0407364995360374,0.0030590975657105,0.0004694419912993,0.002275459934026
1783206490876403000,3.00440283203125,0.0095444387409836,0.0091438585834577,-0.0398398429572582,-0.0016469741240143,5.74509613215e-05,-0.0012588209938257
1783206490886339800,3.01433984375,0.0025486798358149,0.0040816432904452,-0.0449269369632005,0.0015800930559635,-0.0028534079901874,-0.0003680225927382
1783206490896275700,3.024275634765625,-0.0071524473042227,0.0018367504404857,-0.0524082326292991,-0.0010998463258147,-0.0004768026992678,0.001347053097561
1783206490906212900,3.034212890625,-0.0054416795972734,0.0022349194452166,-0.0476122305244207,-0.0023982627317309,-0.0010221269913017,0.0019936212338507
1783206490916149800,3.044149658203125,-0.0031873065329156,-0.0089286449301987,-0.042367315608263,-0.0001502884551882,0.0021731336601078,-0.0001539520453661
1783206490926086000,3.0540859375,-0.0044413069156929,0.0035977322310209,-0.0401233360737562,-0.0005253721028566,1.7118640244e-05,0.0020003344397991
1783206490936022800,3.064022705078125,0.0086176062196493,0.001867693568021,-0.0386234529048204,-0.0022460408508777,-0.0013104672543704,-0.0010271470528095
1783206490945959700,3.073959716796875,0.008361402968876,0.0035541305513121,-0.0348778366357088,-0.0014251368120312,0.0013221269473433,0.001838712953031
1783206490955896800,3.083896728515625,-0.0032020291780121,0.0090258399606682,-0.0312859496235847,6.3115730881e-06,-0.0005426187999546,0.0023838621564209
1783206490965833000,3.0938330078125,-0.0114934173842892,-0.0006926219066604,-0.0417623354524374,-0.0001335190609097,0.0007696817629039,7.4534676969e-05
1783206490975769900,3.103769775390625,-0.0146572334437631,0.0043590719923377,-0.0356266091763973,0.0004989821463823,0.0021071215160191,-0.0016394758131355
1783206490985706800,3.113706787109375,-0.0117728736464865,0.0019022534247487,-0.0377186130195856,-0.0011762417852878,-0.0026324191130697,0.0034618424251675
1783206490995643000,3.123642822265625,-0.0057833509081043,-0.0040145328709855,-0.0419020361840724,-0.0018180636689066,-0.0002648686058819,0.0014783204533159
1783206491005580000,3.133580078125,-0.0010226941112428,0.0147665573034435,-0.0486257914811372,0.0010726824402809,-0.00218041613698,0.0005397293716669
1783206491015516700,3.1435166015625,0.0072902483397163,0.0075840071219019,-0.0471224011808633,-0.0029617398977279,-0.0006818557158112,-0.0004823917988687
1783206491025453800,3.153453857421875,0.0029509404937736,-0.0015964571448974,-0.0408358682572841,0.0009619360789656,0.0012462525628507,0.001043384661898
1783206491035390000,3.163389892578125,-0.0059716582881286,0.0172835085604339,-0.0447258614331483,-0.0020682085305452,-0.0004816064611077,0.0016247525345534
1783206491045326800,3.173326904296875,-0.0044107291143387,0.0054254591148346,-0.0361935954093933,-0.0009696073830127,0.0003604707308113,-0.0017195269465446
1783206491055263700,3.183263671875,-0.0083099285099655,0.0039529754094779,-0.0396405209928751,0.0011587906628847,0.0011546253226697,-7.227063179016113e-07
1783206491065199900,3.193199951171875,-0.0102603501916863,0.000296699657943,-0.0272229379683732,0.0010030074045062,-0.00112389260903,0.0017665675841271
1783206491075137000,3.203136962890625,-0.0026664061976596,0.011227551256027,-0.036048633980751,-0.0018361881375312,-0.0012911390513181,-0.0001490442082285
1783206491085074000,3.213073974609375,0.0003502382097765,0.0097422263354063,-0.048463878917694,0.0014013238251209,-0.0049569522961974,-0.0006228925194591
1783206491095010800,3.2230107421875,-0.0010916311616078,0.0157173552222549,-0.0328957229077816,-0.0008088340982794,-0.0016762041486799,-0.000646594678983
1783206491104947000,3.232947021484375,-0.0007914426386356,0.0031560528781265,-0.0460638320386409,-0.0027435692027211,-0.00096913613379,0.000562923727557
1783206491114883800,3.2428837890625,-0.0012976568614132,-0.003082786712516,-0.0393248791724443,0.0004375772550702,-0.0012596868909895,-0.0003241752274334
1783206491124821000,3.252821044921875,-0.0030330840855836,0.0091088968679308,-0.0337841961801052,-0.0023769047111272,-0.0003835093230009,-0.0023426089901477
1783206491134756900,3.2627568359375,-0.004634728862252,0.0083979721195995,-0.0370803151160478,0.0001701423898339,0.00101411761716,0.0031275239307433
1783206491144693800,3.27269384765625,0.0003039148500189,-0.0015628836688585,-0.0293050049394369,0.0014501214027404,0.0012425826862454,0.0018673171289265
1783206491154631000,3.282630859375,0.0064362253262661,0.0108926567458547,-0.0400759898006916,-0.0011331448331475,-0.0012751696631312,0.0010776901617646
1783206491164568000,3.292568115234375,0.007666534306202,0.0065010889897122,-0.0364864408761262,0.0028299549594521,0.0003487225621938,-0.0013745871838182
1783206491174503700,3.302503662109375,0.0049876887520775,0.0184078546815551,-0.0355903688192367,-0.000586082227528,0.0006272890605032,-0.0003386174794286
1783206491184440800,3.31244091796875,0.0001304579792544,0.0031296397952362,-0.0343950215548276,-0.0008997498080134,-0.0009738961234688,0.0004013762809336
1783206491194378000,3.3223779296875,-0.0121615259042009,0.0010212328065186,-0.0318558584660291,0.0024686157703399,0.0002234610728919,0.001344401622191
1783206491204313900,3.33231396484375,-0.006584164163284,0.0010128668369725,-0.0326110607475042,0.000163217075169,0.0013466048985719,0.0003305780701339
1783206491214250800,3.342250732421875,0.0006076287706382,0.0011159436189569,-0.0350035088419914,-0.0022477423772215,0.0010941373184323,0.0012160793412476
1783206491224188000,3.35218798828125,0.0038521088508889,0.0106878183561377,-0.0311141001880168,-0.0004162956029176,0.0003789369948208,-0.0005066294688731
1783206491234124800,3.362124755859375,-0.0076638856913894,0.0175038002476096,-0.0372474883764982,0.0019728261977434,-9.88342799246e-05,0.0010071115102618
1783206491244060700,3.372060791015625,-0.0056989788265898,0.013032500052452,-0.0394961440861225,0.000560256652534,0.0018821354024112,0.0012863017618656
1783206491253997800,3.381997802734375,-0.0079890625251457,0.0085693648974411,-0.0377069225817918,-0.0008466904982924,-0.0002127070911228,-0.0008271827828139
1783206491263935000,3.39193505859375,-0.0169059074196964,0.0062966524587944,-0.0339630598783493,-0.0017678933218121,0.00117027759552,0.000512455124408
1783206491273870800,3.401870849609375,-0.0066432739393785,0.0009516381690278,-0.037702830928564,-0.0016248812898993,0.002225421834737,-0.0001823636703193
1783206491283807500,3.411807373046875,0.0002035597480833,0.0053792818855494,-0.0351584071427583,-1.97598710656e-05,0.0001366566866636,-0.001440679654479
1783206491293744600,3.42174462890625,-0.0045753268252126,0.008053286867775,-0.037701077362895,-0.0003276215866208,-0.0005581621080636,-0.0003125646617263
1783206491303681300,3.431681396484375,0.0044336533321999,0.0163286189883947,-0.0433878908276557,0.0018245540559291,-0.0003703599795699,0.0006593021098524
1783206491313617400,3.441617431640625,0.0033887291228398,0.0087370313482359,-0.042191959041357,0.0001550186425447,0.0020512524060904,-0.0005092928186058
1783206491323554600,3.451554443359375,0.005288352199085,0.0078538553055375,-0.0450327354252338,-0.001831236295402,0.0008195461705327,-0.000386428553611
1783206491333491500,3.461491455078125,0.0025582513817586,-0.0054620282655581,-0.0450333199471235,0.0002689324319362,-0.0011834171600639,0.0005459440872073
1783206491343428400,3.471428466796875,0.0085357731550931,-0.0059106853485107,-0.0375473481059074,0.0021341945976018,-0.0003492948599159,-0.0008602610323578
1783206491353364500,3.481364501953125,-0.0001031681135296,-0.0015555223463103,-0.0388935020178556,-0.0007737101987004,-0.000451027881354,-0.0001153748016804
1783206491363301600,3.491301513671875,-0.0014560074945911,0.0093023736134171,-0.0384428356409072,0.0013099536299705,0.0006837085820734,0.0015956610441207
1783206491373238500,3.501238525390625,-0.0011273235294967,0.0068432534908875,-0.0409884284704923,0.0004657311365008,-0.0016894340515136,0.0012308079749345
1783206491383174400,3.51117431640625,0.0114562271790578,-0.0025099187280051,-0.0480231494128704,-0.0020600305870175,0.0007987772114574,-0.0014317678287625
1783206491393111600,3.521111572265625,0.0109702702930197,0.0003582388531416,-0.0357546194702386,-0.0022259457036852,0.0019133104942739,-1.44334044307e-05
1783206491403048400,3.53104833984375,-0.0042530178019776,0.0146609049718827,-0.0336567704081535,-7.09816813468e-05,0.0021283361129462,-0.0011224215850234
1783206491412985600,3.540985595703125,-0.0143519486205652,0.0149117744604125,-0.0501215829968452,-0.0004185242578387,0.0031904049683362,0.0012134369462728
1783206491422921500,3.55092138671875,-0.0164750782543793,0.0027639482880011,-0.0471335070967674,-0.0006917119026184,0.0021532569080591,-0.0010532394517213
1783206491432858400,3.5608583984375,-0.0069795201564207,-0.0028585860352031,-0.0365045610547065,0.0014907484874129,-0.0012803566642105,-4.54992987215e-05
1783206491442795500,3.57079541015625,0.0051930751310661,0.0083355744078755,-0.043385552740097,-0.0008262377232313,-0.0009196153841912,-0.0010731522925198
1783206491452731400,3.5807314453125,0.0108566355844028,0.011677377382759,-0.040989012992382,-0.0032065706327557,-0.000196034554392,0.0022818981669843
1783206491462668500,3.59066845703125,0.005573580614943,0.0177186485746875,-0.0379904156982898,0.0005335304886102,-0.0008635739795863,0.002404662547633
1783206491472605400,3.60060546875,-0.0032122217784635,0.0110097620531916,-0.0459206241756677,-0.0012955283746123,-0.0003863354213535,-0.000302973203361
1783206491482542600,3.61054248046875,-0.0056162324465811,0.0047791423016227,-0.0423269835978746,-0.0002631992101669,-0.0002425774000585,0.003148621879518
1783206491492478500,3.620478515625,-0.0035546237416565,0.0037696181992068,-0.0427782344967126,-0.0004703933373093,0.0030280507635325,0.0020748353563249
1783206491502415400,3.630415283203125,-0.007195190467406,-0.0034027576481923,-0.0393383231759071,-0.0006970902904868,0.000530291814357,-0.0011713446583598
1783206491512352500,3.6403525390625,-0.0110696572805754,0.0079469221501611,-0.0358995808988809,0.0019162697717547,-0.0005685286596417,-0.0002520214766263
1783206491522289400,3.650289306640625,-0.0052716567926108,0.0065021301693283,-0.0442822093188762,0.0008549634367227,-0.0013721296563744,0.0003825060557574
1783206491532225300,3.660225341796875,-0.0066046772283501,0.0032457221892662,-0.0450309818595647,-0.0014031305909156,0.0003376198001205,-0.0006156465969979
1783206491542162400,3.670162353515625,-0.0003396254842169,0.0081992346771061,-0.0468272176265716,0.0022802716121077,0.0018464252352714,0.0013383796904236
1783206491552099600,3.680099609375,-0.0052104281246662,0.006547777675651,-0.0472784685254097,0.001316207461059,0.0022642749827355,0.0013759301509708
1783206491562035500,3.690035400390625,-0.0006118117554113,-0.0060473173402249,-0.0469838694930076,0.0009984020143747,0.0020493431948125,0.0001571003813296
1783206491571972400,3.699972412109375,-0.0010135609567165,0.000898318812903,-0.042046413090825,-0.0021675638854503,0.0008682310581207,-2.3728236556e-05
1783206491581909500,3.709909423828125,0.0005863485205918,0.0122269923558458,-0.0377069225817918,-0.0005153398960828,0.001310815103352,-0.0018953949911519
1783206491591846400,3.719846435546875,0.0047994727035984,0.0098480613300576,-0.0390536610156297,0.0009408760815858,-0.001030902378261,-0.0003001615405082
1783206491601782500,3.729782470703125,0.0035462943047285,0.003853204829432,-0.0445873297452926,-0.0020962655544281,0.0002971952781081,0.001393032958731
1783206491611719400,3.739719482421875,-0.0004628500050865,0.0038668862949125,-0.0447363828271627,0.0007439954206347,-0.0029009948484599,0.00101726106368
1783206491621656300,3.74965625,-0.0051087943810969,-0.0061501749265007,-0.0411450803369283,-0.0018870132043957,0.0006182217039167,-0.0014824072131887
1783206491631593500,3.759593505859375,-0.0135444133636541,-0.0003913556714542,-0.0444365230977535,0.0004096971824765,0.0009401980787515,0.0017211090307682
1783206491641529600,3.769529541015625,-0.0070109564743004,0.0117440859434194,-0.0409971962988376,0.0002883812412619,0.0012165028601884,0.000105062033981
1783206491651466500,3.779466552734375,0.0035563042420893,0.0132569199254736,-0.0472884053975343,0.0003685429692268,0.0007259487174451,-0.001385775511153
1783206491661403400,3.7894033203125,0.0081146981988102,0.0087062160848639,-0.0378659125357866,0.0001805536448955,0.0006729643791913,-0.004801804665476
1783206491671340500,3.799340576171875,0.0068678034102544,0.004791362462379,-0.0375631301969289,-0.0008370401337742,0.0004015881568193,0.0008017523214221
1783206491681276700,3.809276611328125,-0.0084893036648631,-0.0027908180286176,-0.0468406616300344,0.0002156840637326,-0.0019733184017241,0.001701348926872
1783206491691213300,3.81921337890625,-0.0131474316690117,0.0055045157004147,-0.0342775326550006,0.0007557729259133,0.0018677585758268,-0.0004906991962343
1783206491701150500,3.829150390625,-0.0042660964792594,0.0096394783469848,-0.0434025038748979,-0.000953490845859,-0.0036627920344471,-0.0009876904077827
1783206491711086600,3.839086669921875,0.0016942366972565,0.0086223189273849,-0.0417494759708642,-0.0020094346255064,0.0004019909538328,-0.0015264478279277
1783206491721023500,3.8490234375,0.0029616262845695,0.0080708773233927,-0.043090953707695,0.00219860766083,-0.0016407859511673,0.0003669422585517
1783206491730960400,3.85896044921875,0.0095450415291823,0.0100259203813038,-0.0426426254183053,-0.0014094430953264,0.0004255608655512,-0.0010730288922786
1783206491740897500,3.8688974609375,0.001633409888111,0.007589231286291,-0.0436883350789546,0.0009018424898386,0.0022107211407274,-0.0007365532219409
1783206491750833400,3.87883349609375,-0.0030548209933564,0.0112193679495714,-0.0354606049597263,0.0016539189964532,0.0012085735797882,-0.0011639904696494
1783206491760770600,3.8887705078125,-0.0030562822980806,0.0079860303178429,-0.0429442387133836,0.0001287041231989,0.0007103309035301,0.0004173973575234
1783206491770707500,3.89870751953125,-0.0078474803636781,0.0083590283486992,-0.0420440750032663,0.0003409571945667,-0.0027089011855423,0.0012773321941494
1783206491780644400,3.908644287109375,0.0024671938311308,0.0144059803627431,-0.0441325717151164,-0.0019450644031167,-0.0001773959957063,0.0022102126386016
1783206491790580500,3.91858056640625,0.0038471586811356,0.001099704870209,-0.0399380426347255,0.0004134308546781,-0.0002578236162662,-0.0003605368547141
1783206491800517600,3.928517578125,0.0053794462823309,0.0041249527092091,-0.0403822792708873,0.0003751115873456,-0.0028586871922016,0.0017972255591303
1783206491810454300,3.938454345703125,-0.0052000163285061,0.0040228440416045,-0.0423275681197643,0.0009644692763686,0.0014716130681335,-0.0011042885016649
1783206491820391400,3.948391357421875,-0.0033514841186814,0.0061514535681344,-0.0381371306926012,-0.001070343889296,0.0018439996056258,0.0006670095026493
1783206491830327600,3.95832763671875,-0.003865333658643,0.015301851490233,-0.0498117863953113,0.0006236936897039,0.0004029632546007,0.0032846303656697
1783206491840264400,3.968264404296875,-0.0069963251607492,-0.0040318858645856,-0.0382926135152578,-8.19480046629e-05,0.0012830854393541,-4.00324352085e-05
1783206491850201300,3.978201416015625,-0.0039845943904481,-0.0041448812523856,-0.0438251132011413,-0.0012545380741357,-0.0023081875406205,0.0004598428495228
1783206491860137500,3.988137451171875,0.0029079781348817,-0.0034533918568864,-0.0429255340129137,0.0002198489382863,0.0010159104131162,-0.0003150661941617
1783206491870074600,3.99807470703125,0.0119494905887171,0.007997501559928,-0.0312543854415416,0.0011713961139321,0.0011810264550149,0.0008964058943092
1783206491880011500,4.008011474609375,0.0108096181049011,0.0074268985977396,-0.0468155271887779,-0.0009555239230394,-0.0001985668204724,-0.0011526495218276
1783206491889948400,4.017948486328125,-0.0011228482837788,0.0016923552674241,-0.0514560464709997,0.0010887188836932,0.000696521718055,-0.0014112424105405
1783206491899884500,4.027884521484375,-0.000330656726472,0.012369853158947,-0.0351461321830749,-0.002731367945671,-0.0007266588509082,-0.0006739397067576
1783206491909821400,4.037821533203125,-0.0011052578281611,0.0060547334617003,-0.0441156205803155,-0.0010200208052992,0.0019253171049058,0.0019530025310814
1783206491919758600,4.047758544921875,0.0037608503708615,0.0006977912721224,-0.0426221671521663,0.0009794123470783,0.00060571776703,-0.0005249842070043
1783206491929695500,4.057695556640625,0.0059263213090598,0.0077788903731852,-0.0336433264046907,-0.0032848408445715,-0.0019818097352981,0.001291824504733
1783206491939631400,4.06763134765625,0.0024327435722574,0.0106838728333823,-0.0412695834994316,0.0001672571524977,-0.0019791340455412,0.0017375962343066
1783206491949568500,4.077568603515625,0.004359181590192,0.00604490618743,-0.0367810399085283,0.0019102962687611,-0.0022723479196429,0.0018731511663645
1783206491959505700,4.087505615234375,0.0014108897112309,0.00749669416463,-0.0405237335681915,0.0011171232908964,-0.0006330260075628,0.0002775997854769
1783206491969442300,4.0974423828125,-0.0016166231500916,0.0062922502783127,-0.0429144280970096,-8.12988728284e-05,-0.0006460756994783,0.000567351700738
1783206491979378400,4.10737841796875,0.0002969005873426,-0.0004292582627385,-0.0387298358887433,0.002947230823338,0.0003604246303439,-0.0004991856403648
1783206491989315600,4.117315673828125,-0.0065468095612712,0.009659644352179,-0.040381110227108,0.0002031102776527,0.0033620733302086,0.0012624955270439
1783206491999252500,4.12725244140625,-0.0064467284539714,0.0010125928423367,-0.0483183329671621,0.001281764358282,0.0013492871075868,0.0001641644630581
1783206492009189400,4.137189453125,-0.0067112976742908,0.0029710517000406,-0.0396434436023235,-0.0007765926420688,0.0021253321319818,0.0005023858975619
1783206492019125500,4.14712548828125,-0.0034520036173984,0.0052557285711169,-0.0372509955078363,-0.0009029302746057,-0.0026665632613003,-0.0016773768002167
1783206492029062400,4.1570625,-0.0073254109846428,0.0141856338766403,-0.0451800349414348,0.001568216830492,-0.0002883598208427,-0.0006653754971921
1783206492038999600,4.16699951171875,0.0007775419774465,0.0046658363865688,-0.0429366399288177,0.0011402005329728,-0.0008505783043801,0.0008388645946979
1783206492048935400,4.176935302734375,-0.0044581849852576,0.0029002149535343,-0.0427875868469476,-0.0020175101235508,0.0012730262242257,-0.0002524987794458
1783206492058872600,4.18687255859375,-0.0102345398969948,0.017455431061238,-0.0378489614009857,0.0012853657826781,0.0008283224888145,0.0018063464667648
1783206492068809500,4.1968095703125,-0.0045789435544051,-0.0015285978067666,-0.0360550637215375,-0.0004851035773754,-0.0001011206768453,0.0022793237585574
1783206492078746600,4.20674658203125,-0.0049432285558432,0.0043264483643695,-0.035608488997817,-0.000260155647993,0.0014233980327844,-0.0004827284719794
1783206492088682500,4.2166826171875,0.0006250365631654,0.0140138392399996,-0.0423445192545652,0.0006250794976949,-0.0024405820295214,0.0023527392186224
1783206492098619400,4.226619384765625,-0.0046003516686148,0.0165165062433108,-0.0447369673490524,-0.0004127109423279,0.0015581548213958,6.55057374387e-05
1783206492108556500,4.236556640625,-0.004677344161272,0.0033481779167428,-0.0421907899975776,-0.0010438803583383,-0.0001992653124034,-0.0003384959418326
1783206492118493400,4.246493408203125,-0.0093492449624463,0.0136139532022178,-0.0435369439095258,-0.0010347384959459,-0.0010628872551023,-0.0011069907341152
1783206492128429300,4.25642919921875,0.002443009237945,0.0097770784530788,-0.0397983419030904,0.0016542561352252,0.0007760254666209,-0.0003282823599874
1783206492138366500,4.266366455078125,-0.0038537528187036,0.0024090156367979,-0.0406955830037593,-0.0006364285945892,0.000300258398056,-0.0003847260959446
1783206492148303600,4.2763037109375,-0.008219656410627,0.0078038969502784,-0.0424924032926559,0.0004820991307497,-1.2130010873e-05,-0.0010401299223303
1783206492158240500,4.286240478515625,-0.00648782764934,0.0109656123842112,-0.0430973834484815,0.0020143473520874,0.0016412641853094,-0.001544848200865
1783206492168176400,4.29617626953125,0.0021372312244027,0.0117615302685648,-0.0411596933841705,0.0003522681072354,0.0020916047506034,-0.0017754780128598
1783206492178113500,4.306113525390625,-0.0039637159992009,0.004941420191247,-0.0380219798803329,0.0005995538085699,-0.0018824189901351,0.0001409987453371
1783206492188050400,4.316050537109375,-0.001219951982703,0.0066322776213288,-0.0459486812263727,-0.0017903670668601,-0.0009875972755253,-0.0017120288684964
1783206492197987600,4.325987548828125,-0.0012174312320537,0.0053178888208232,-0.0456499905407428,-0.0018177554011344,0.0005663144402205,0.0023139745462685
1783206492207923500,4.33592333984375,-0.0064023595892824,0.0081858272062614,-0.041908465924859,-0.0014672828838229,-0.0008427640423178,0.0002782542724162
1783206492217860400,4.3458603515625,-0.003779043614678,0.0072434683222323,-0.0389075305432081,-0.0015566227957606,0.0016173752956092,-0.0014276268193498
1783206492227797500,4.355797607421875,-0.0042497298663482,0.0048130263049155,-0.0408522348701953,-0.001853565685451,0.0012682345695793,-0.0012140413746237
1783206492237734700,4.365734619140625,0.0034335911778733,0.0105234763735905,-0.0493850854158401,0.0019681826233863,-0.0007090354338288,-0.0002585675101727
1783206492247670500,4.37567041015625,0.000236366039142,0.004366122787632,-0.0484884288370609,-0.0005684783682227,0.0008976496756076,0.0001765929628163
1783206492257607400,4.385607421875,0.0016202033466659,-0.0016381956610828,-0.0384650474727153,-0.001234526745975,0.0012158192694187,-0.0006553889252245
1783206492267544600,4.395544677734375,-0.0012354783453978,0.0007526632645167,-0.0369645797818899,-0.0009202742949128,0.0007468368858098,-0.0017872324679046
1783206492277481000,4.40548095703125,-0.0028663126839324,-0.0002486409988254,-0.0472907434850931,-0.0017640236765146,0.0011568204499781,0.0020368921104818
1783206492287417000,4.4154169921875,-0.0090400694154202,0.0031315760239958,-0.0411591088622808,0.0034059705212712,-0.0019164672121405,6.2957406044e-05
1783206492297354000,4.42535400390625,-0.0068678034102544,0.0073635875705629,-0.0389133757621049,-0.0018943566828966,0.0011074123904109,-0.0006264701951295
1783206492307291100,4.435291015625,-0.0005085705766454,0.0096785682483576,-0.0484901824027299,-0.0003643706440925,0.0011782525107264,0.0001077633351087
1783206492317228000,4.44522802734375,0.0028718656418845,0.0022685111875645,-0.0438508321642875,0.0014890022575855,-0.0008567720651626,-0.0033949851058423
1783206492327164200,4.4551640625,-0.0027578656070865,0.0095835469086654,-0.0457943674474954,-0.0016380818560719,0.0021041305735707,0.0005227911751717
1783206492337101000,4.46510107421875,-0.0056035008291713,0.0048331923101097,-0.0446025273144245,0.0013903332874178,0.0020866552367806,0.0009703270625323
1783206492347038000,4.475037841796875,-0.0050819977057166,0.0046460539738647,-0.0413157607287168,-0.0053245602175593,-0.0004569296725094,0.001200956525281
1783206492356975000,4.48497509765625,-0.0036211679055355,0.0024861725262366,-0.0437052862137556,-0.0005661081522703,-0.0026644081808626,0.001966422656551
1783206492366911200,4.4949111328125,0.0006342245166189,0.0043788544050417,-0.0339706586629152,-0.0006928751245141,-0.0021770498715341,0.0002651952672749
1783206492376848000,4.504847900390625,-0.0072015106103383,0.0063674526726827,-0.0420499202221631,0.0004731146618723,-0.0006736195646226,-0.0012596864253282
1783206492386785000,4.514784912109375,-0.0006521072331815,5.9730830602e-06,-0.0387567238956689,-0.0028142919763922,-0.0018051965162158,-0.0004008167888969
1783206492396722200,4.52472216796875,-0.0043463038423098,0.0032489187933504,-0.0450385806441307,-0.0002545835450291,-0.0028611058369278,0.0014905096031725
1783206492406658000,4.534657958984375,0.0006779540604911,0.0112863687711767,-0.0531155041158199,-0.0002647042274475,-0.0006858361884951,0.001340840011835
1783206492416595000,4.544594970703125,0.0006929689665324,0.0040760903324931,-0.0429389780163764,-0.0005815597251057,0.000769515056163,-0.0003413560334593
1783206492426532000,4.554531982421875,0.0046173576023429,0.0073692683926783,-0.0382990432560443,0.0017476407811045,-0.00031199445948,-0.0014463015832006
1783206492436469000,4.564468994140625,-0.0053563394013792,0.0083012337468564,-0.0448825132995843,-0.0015868572518229,-0.0011618263088166,-0.0002465371508151
1783206492446405000,4.574405029296875,0.0005657441239804,0.0069424760816618,-0.0429302101880311,0.0004667062312364,-0.0025450717657804,-0.0011400277726352
1783206492456342000,4.584342041015625,-0.0015345526235178,0.0062978032362647,-0.0399362890690565,0.0029562842100858,-0.0024936040863394,-0.0002120237331837
1783206492466279000,4.59427880859375,-8.0773618631e-05,-0.0045768063962459,-0.0513116695642471,0.0003913938999176,-0.0008147470653057,-0.0015087167266756
1783206492476216000,4.604216064453125,-0.0045084904003888,0.0075804451916366,-0.0344014512956142,0.0003772275522351,-0.0004880614578723,0.0015621436759829
1783206492486152200,4.614152099609375,-0.0035950653498992,0.0017346965718083,-0.043238253223896,0.0013942895457148,-0.0024361638352274,0.000756537541747
1783206492496089000,4.624089111328125,-0.0003625862346962,0.0038394320324063,-0.0424924032926559,0.0013427212834358,0.0008583697490394,0.0001094527542591
1783206492506026000,4.63402587890625,-0.0015687471540644,0.0026966186728328,-0.0499713608711957,-0.0008184341713786,0.0002655503340065,-0.0027089705690741
1783206492515963100,4.643963134765625,0.0107095735302194,0.0102655743560753,-0.0477250432491302,-0.0018126890063285,-4.69619408249e-05,0.0002692497801035
1783206492525899300,4.653899169921875,-0.0029859387419186,0.0007576499668881,-0.0466775800228118,-0.0001657903194427,8.03368166089e-05,-0.0009997463785111
1783206492535836000,4.6638359375,-0.0127414081513881,0.0191092992154881,-0.0379974299609661,0.0001856032758951,0.0020991708151996,-0.0020095568615943
1783206492545773000,4.67377294921875,-0.0023953707039356,0.003331957434304,-0.0365028074890375,-0.0009576911106705,0.0003140540793538,-0.0021760044619441
1783206492555710000,4.6837099609375,-0.009325918885786,0.0108835418576374,-0.0323076938867568,-0.0005070762708783,-0.0004012752324342,0.001803568098694
1783206492565646000,4.69364599609375,-0.0089408833572641,0.0042831754782237,-0.0420358916968107,-0.0009779231622815,0.0017508254386484,-0.0003916753921657
1783206492575583000,4.7035830078125,6.41878100112e-05,0.0046560273786075,-0.0402414094954729,0.001993104815483,-0.0015243752859532,0.0004743707831948
1783206492585520000,4.71352001953125,-0.0030148177765309,0.0144952295487746,-0.0498240613549947,-0.0008274493739008,0.0010298625566065,0.0019281902350485
1783206492595457000,4.72345703125,-0.0076700597038492,0.0054614254773594,-0.05326455719769,0.0005489317700266,-0.0010039266198873,0.0034479552414268
1783206492605393200,4.73339306640625,0.0060131958749145,0.0029447847476229,-0.0414373412817716,0.000590743497014,-0.0008673067204654,-0.0004016442690044
1783206492615330000,4.743330078125,0.0021390943879261,-0.0038761107809841,-0.035893735679984,-0.0021779490634799,-0.0016430644318461,0.0006336139049381
1783206492625267000,4.753266845703125,-0.006266385184694,0.0123180681727826,-0.0363397258818149,-0.0029444061219692,-0.000267275609076,-0.0023113095667213
1783206492635204000,4.7632041015625,-0.0015407266359776,0.013244571900554,-0.0421656555563211,-0.0011570509523153,-0.0016235364601016,-0.0020440437365323
1783206492645140200,4.77314013671875,-0.0037758652769029,0.0164917005956172,-0.0515869793742895,-0.0005913954228162,-0.0012682708911597,-0.001546565326862
1783206492655076900,4.783076904296875,-0.00486519488357,0.004061824345123,-0.0423059408098459,-0.0023152353242039,-0.0025185849517583,-0.0013514030724763
1783206492665014000,4.793013916015625,0.0002459741177037,-0.0001845627866685,-0.0411105935454368,0.0009860191494226,0.0030231873970478,0.0022182981483638
1783206492674951200,4.802951171875,-0.0001222016075626,0.0023911329202353,-0.0391682273060083,-3.54154035449e-05,0.0011714496649801,0.002509067999199
1783206492684887300,4.81288720703125,-0.0103705873668193,0.0035024186303839,-0.0448585479021072,0.0013390416279435,0.0010880925692617,-0.0006201460491865
1783206492694824000,4.822823974609375,-0.0111481110779568,0.0042965464164502,-0.0375286434054374,0.0009815962985157,0.0010992740280926,0.0002542007714509
1783206492704761000,4.832760986328125,-0.0034727541444823,0.0083993968917056,-0.0405260716557502,-0.0014112535864114,0.001166651956737,-5.12637197971e-05
1783206492714698000,4.842697998046875,0.0018702873839065,-0.0023084230728447,-0.04246609980762,-0.0003687283024191,-0.0002389643341302,0.0012142017949372
1783206492724634000,4.852634033203125,0.0013307736797258,0.003825805365853,-0.0550292287826538,0.0001854756847023,-0.0008474965579807,-0.0018646786920726
1783206492734571000,4.862571044921875,-0.0079935925697907,0.0128004631285555,-0.0340770416468381,-0.001933048479259,-0.0017973636277019,-0.0015200519701465
1783206492744508000,4.8725078125,-0.0003266929374076,0.0167994148379191,-0.0379652812570333,-7.94883817434e-05,0.002111623995006,0.0025809495709836
1783206492754445000,4.882445068359375,0.0030233481428585,0.0063316507069393,-0.0402127679228782,0.0005241427570581,0.0003344053402543,0.0021796079818159
1783206492764381200,4.892381103515625,-0.0073560253186151,0.0002348499354906,-0.0348240606218576,0.0006927205249667,0.0007125744596123,0.0013244666624814
1783206492774318000,4.902318115234375,-0.0099677056543529,0.009056965751294,-0.0427525155335664,-0.0005655996501445,-0.0012437710538506,0.0005092287901788
1783206492784255000,4.9122548828125,-0.0101533461532555,0.0061028834523633,-0.0463461561113595,0.0012722481042146,0.0012113973498344,-0.0001765352208167
1783206492794192100,4.922192138671875,-0.0093100089306011,0.0088644023212604,-0.0382692326396703,-0.0002659438177943,0.0022400896996259,-0.0004454141017049
1783206492804128300,4.932128173828125,0.0048503626406192,-4.27796958014e-05,-0.0409662166386842,0.0013045230880379,-0.0012558419257402,-3.63525468856e-05
1783206492814065000,4.94206494140625,-0.0088048906863667,0.0078116235990077,-0.0429103364437818,0.0017654029652476,0.0004343627952039,-0.0008742527570575
1783206492824002000,4.952001953125,-0.0051097076965495,0.0091674951873719,-0.0277986920297145,-0.0020423848181962,-0.0003560637123882,-0.000984507612884
1783206492833939200,4.961939208984375,-0.0023384163523092,0.0045905974595807,-0.0445575191289186,-0.0006820270791649,0.0016599437221884,0.0007512185256928
1783206492843876000,4.9718759765625,-0.0021709690972231,0.0166332644907757,-0.05443944619596,0.0012463675811886,0.0018061511218547,0.0023054389748722
1783206492853812000,4.98181201171875,0.0026038988880813,0.0123906036860309,-0.0474140776038169,-0.0012562097981572,0.0020488365553319,-0.0010198047384619
1783206492863749000,4.9917490234375,-0.0005150003174319,0.0064369377123191,-0.0381324545174837,-0.0008029397577047,0.0012893034145236,0.0003000579308718
1783206492873686000,5.00168603515625,4.8551849462e-05,0.0085327957467176,-0.0438151763290166,0.0018409173935651,6.16549514234e-05,1.60466879606e-05
1783206492883623200,5.011623046875,-0.0048254839276894,0.0056155383268371,-0.0483002127885818,-0.0030744783580303,-0.0003705760464072,0.0007497472688555
1783206492893559000,5.02155908203125,-0.0076517568621784,0.0154225187278352,-0.0450058474183082,0.0019085733219981,-0.0016043041832745,-0.0026048345025628
1783206492903496000,5.031495849609375,-0.0056424811326898,-0.0001617481666617,-0.0438017323255538,0.0012350594624876,-0.0006325165741145,0.0002079962287098
1783206492913433000,5.04143310546875,0.0009373904479667,-0.0013116853867657,-0.0459025039970874,-0.0025441329926252,0.0031553865410387,0.001140046166256
1783206492923370200,5.051370361328125,-0.0042049408765509,-0.0072594330763444,-0.0340799642562866,0.0005219634622335,0.0001729126088321,0.0009256617631763
1783206492933305900,5.061305908203125,-0.0021986060228198,0.0079154858322814,-0.0346826063245534,0.0024300953373312,-0.0007874160073697,0.0002738987095654
1783206492943243000,5.071242919921875,0.0027387773141264,0.0043669265052303,-0.0388736282736063,-0.0001563671976327,-0.0006191041320562,0.0010110614821314
1783206492953180200,5.08118017578125,0.0055117491587996,0.015751330557093,-0.0417190808326005,-1.18538737297e-05,0.0027436835225671,0.0011587352491915
1783206492963117000,5.091116943359375,-0.0079990907288156,0.0104213494396768,-0.0412689989775419,-0.0005311705172061,-0.0022670542821288,0.0002117149997502
1783206492973053000,5.101052978515625,-0.0094775475172325,0.0061726790192537,-0.0408177480787038,-0.0004127481952309,0.0002367552369832,0.0016852100379765
1783206492982990000,5.110989990234375,-0.0103297073671594,-0.0116293917888775,-0.038572014978528,-0.0008119558915495,0.0008138623088598,0.0032756496220827
1783206492992927000,5.120927001953125,0.0009918423152528,-0.0098616149313747,-0.0469523053109645,-0.0004941010847687,0.001150204334408,0.0002389270812273
1783206493002864000,5.130864013671875,-0.0028234781892038,6.51193917728e-05,-0.0463572620272636,0.0009416090324521,8.44071619212e-05,0.0009076467249542
1783206493012800000,5.140800048828125,-0.0044096331357955,0.0079016765026375,-0.0493500141024589,0.0002010827884078,0.0008967495523393,9.692739695310593e-07
1783206493022737200,5.150737060546875,0.0065427361743524,0.0112533980833366,-0.0367857160836458,0.0008626114577054,-0.0007307082414627,0.0005429224111139
1783206493032674000,5.160674072265625,-0.0042793943522498,0.0035403942869044,-0.0297515796631574,-0.0008205575868487,0.0010697492398321,0.0003087609075009
1783206493042611200,5.170611083984375,-0.0084624521905556,-0.0044062538686208,-0.0337912104427814,-0.0026410948485136,0.0004830551333725,0.0010155639611184
1783206493052548000,5.180548095703125,-0.0023603724557906,0.0019289587685838,-0.0290010535567998,-0.0020799646154046,-0.000541609711945,0.0025037906598299
1783206493062484000,5.19048388671875,-0.0031575507154688,0.006793496065028,-0.0363280354440212,0.0004899855703115,-0.0023269923403859,0.000403621699661
1783206493072421000,5.200421142578125,-0.0053857846915721,0.0067841985137201,-0.0396194782048463,0.0005687791854143,-0.0004393472336232,-0.0014431899180635
1783206493082358000,5.21035791015625,-0.0038560543736442,0.010497319019027,-0.0373731605827808,0.0004326915368437,-0.0004952736198902,-0.0004527603741735
1783206493092295200,5.220295166015625,-0.0017696948199532,0.0004725859478116,-0.0424608391106128,-0.0006550885736942,-0.0006030648946762,-0.000177718931809
1783206493102231000,5.23023095703125,0.0024689656631089,0.0030044973119162,-0.0382692326396703,-0.0004446981474757,0.0007602074183523,0.0004766199272125
1783206493112168200,5.240168212890625,-0.0008251439788378,0.0049327436944469,-0.0406634342998266,0.0011173896491527,0.000205420423299,0.0006955191493034
1783206493122105000,5.25010498046875,-0.002379588612914,0.0034758046180941,-0.0432142878264188,0.0030793407931923,0.0020816177129745,-0.0003553642891347
1783206493132042200,5.260042236328125,-0.0039683739080093,0.0014753332495689,-0.0517448002845048,-0.0012933174148201,-0.0008034668862819,0.0010362898465245
1783206493141978000,5.26997802734375,-0.0024958719363436,0.0026896044101566,-0.0382739088147878,1.5115365386e-06,-0.0017598075792193,-0.0007389732636511
1783206493151915000,5.2799150390625,-0.0065548832698725,-0.0007522431394085,-0.0462099625110626,0.0026218788698315,0.0005681668408215,-0.0015573115088045
1783206493161852200,5.28985205078125,-0.0053065819755196,0.0045434886485338,-0.0435164856433868,-0.0003683185204863,-0.0001572780311107,-0.0032457555644214
1783206493171789000,5.2997890625,-0.0052148120388388,0.0124907213259488,-0.0442623355746269,-0.0010606152936816,-0.0013339170254766,0.001298957504332
1783206493181725000,5.309724853515625,0.0017483963035978,0.0088286003555171,-0.0453185666292905,0.0007037287577986,0.0016994234174489,-0.0002211746759712
1783206493191662000,5.319662109375,-0.007531345352903,0.008029741595406,-0.0493576128870248,-0.0006353361532092,-0.0016119787469506,-0.002736244816333
1783206493201599200,5.32959912109375,-0.0049632484305649,0.005357307515759,-0.0406739556938409,0.0009937193244695,-0.0006439196877181,0.0001125384587794
1783206493211536100,5.3395361328125,0.0028827523620799,0.0079015669047832,-0.0545884992778301,-0.0021828776225447,0.0010457169264554,-0.0003837693948298
1783206493221473000,5.34947314453125,-0.0033630101596936,0.0056600350556895,-0.0391793332219123,0.0004001222550868,0.0004326575435698,-0.0003520776517689
1783206493231409200,5.3594091796875,-0.0059590180022642,0.0092307696819305,-0.0400824195414781,-0.0010506035760045,0.0009989603422582,-0.0023306543007493
1783206493241346000,5.369345947265625,-0.0056304801676422,0.0013471037600189,-0.0328957229077816,-0.0017376989126205,-0.0002604485489428,0.0009556864388287
1783206493251283200,5.379283203125,-0.0092928751327097,0.000695599315036,-0.0426186600208282,0.0014602458104491,-0.000609491020441,-0.000392070505768
1783206493261220000,5.38922021484375,-0.0051116439253091,0.0052360922888852,-0.0328980609953403,-0.0001064911484718,0.0008342084474861,7.79775436967e-05
1783206493271156000,5.399156005859375,-0.000700092827063,0.0135331065183505,-0.0382891063839197,0.0032323021441698,0.0032382346689701,-0.0016222570557147
1783206493281093600,5.40909375,0.0014419059040024,0.0070925703431479,-0.0320113412886857,0.0017182948067784,8.959323167800903e-07,0.0008249217644333
1783206493291030500,5.419030517578125,-0.0132553672892041,0.0068802427667193,-0.0384492653816938,-0.0017790142446756,0.0007512872107326,0.0011425465345382
1783206493300967700,5.4289677734375,-0.0060035329974256,-0.0093256448911502,-0.0460819522172212,-0.0004943050444126,0.0005584745667874,0.0012757047079503
1783206493310903600,5.438903564453125,-0.001980341895949,-0.0030476606002077,-0.039502573826909,0.0026815682649612,0.0022141747176647,-0.0008211701642721
1783206493320840700,5.4488408203125,-0.0025269611943513,0.0057976168954744,-0.0321738383740186,-1.03544443845e-05,0.0022448010277003,0.0006353124044835
1783206493330777600,5.458777587890625,-0.0080507661171257,-0.0010284845312125,-0.0390583371907472,0.0009543485939502,-0.0011247373186051,0.0024183851201087
1783206493340714800,5.46871484375,-0.0021932722605764,0.0032008053353056,-0.0398071097314357,0.0001303665339946,-0.0016451189294457,0.0015667059924453
1783206493350650600,5.478650634765625,-0.0026228045179508,0.0086332421801984,-0.0408551574796438,-0.001154227182269,-0.0008762055076658,0.0015119845047593
1783206493360587500,5.48858740234375,-0.0101607440084218,0.0038691878498531,-0.0402589451521635,0.000566441565752,0.0021765758283436,0.003482723608613
1783206493370524700,5.498524658203125,-0.0034561866021715,0.0061807892604731,-0.0384662165164947,0.0022600591182708,7.50282779335e-05,0.0005515879020094
1783206493380461600,5.508461669921875,-0.0095691713234409,0.0028253048201091,-0.0368219564408063,-0.0003517027944326,-0.0004107323475182,-0.0025920073967427
1783206493390398500,5.5183984375,0.0024823548676446,0.002889730092138,-0.0380097049206495,-0.0020816549658775,-0.0021512201055884,-0.0010996877681463
1783206493400334600,5.52833447265625,0.0063726403044536,0.0097977011159993,-0.0441413395434618,0.001365540549159,0.0012922473251819,-5.57287130504e-05
1783206493410271700,5.538271728515625,-0.0006767667504027,0.0082621255791746,-0.0344230786055326,0.0022729914635419,0.0020593986846506,0.0013906287495046
1783206493420208600,5.548208740234375,-0.0007617416201159,0.0015473025072366,-0.0454950922399759,-0.0015425197780132,-0.0012367954477667,-0.0021638921461999
1783206493430145500,5.5581455078125,-0.0055932534297928,0.0101904815595597,-0.0401040468513965,-0.0001034326851367,0.0005295765586197,0.0019121775403618
1783206493440081700,5.56808154296875,-0.0111392153854481,0.0124437769116833,-0.037260932379961,0.000588989816606,0.0003402256406843,0.0021643792279064
1783206493450018600,5.5780185546875,-0.0123846854018978,0.008952665126603,-0.040403322058916,0.0009010154753923,0.0013817925937473,-0.0016204959247261
1783206493459955700,5.587955810546875,-0.0136926261953078,0.0078268577007576,-0.0351712666243314,0.0038573909550905,0.0019897921010851,1.76145695149e-05
1783206493469892600,5.597892578125,-0.0123849045976065,0.0160863163988105,-0.0457978745788335,-0.0008155889809131,0.0031923863571137,-0.0002530254423618
1783206493479828500,5.607828369140625,-0.0160305858898907,0.0156285078950226,-0.0462479564338922,-0.0002030618488788,0.001827782485634,-0.0003659434150904
1783206493489765600,5.617765625,0.0096851623859256,-0.0033683804545551,-0.0426531468123197,-0.0016099689528346,0.0004223580472171,-0.0010970185976475
1783206493499702800,5.627702880859375,0.0073853062120266,0.0103735099762678,-0.0454974303275346,-0.0002677356824278,0.000666569918394,0.0012465631589293
1783206493509639400,5.637639404296875,-0.0007302870359271,0.0124685460267588,-0.046994390887022,0.0003246599808335,0.0007596132345497,0.001279205083847
1783206493519576600,5.64757666015625,0.0032580702141858,8.57785873115e-05,-0.0422042340010404,-0.0024381028488278,0.000898896716535,0.0004110145382583
1783206493529512700,5.6575126953125,-0.0039074192347005,0.0029599457841366,-0.0444493825793266,-0.0020740758627653,0.0017975494265556,-0.0015038443962112
1783206493539449600,5.66744970703125,-0.0091238752413541,0.0021318791958503,-0.0420522583097219,-0.0032157720997929,0.0010870182886719,-0.000812754034996
1783206493549386500,5.677386474609375,-0.0136743050873279,0.0012491598108783,-0.0462397731274366,-0.000684899277985,0.000591296236962,0.0014825176913291
1783206493559323600,5.68732373046875,0.0020640929229557,0.0098226528941653,-0.0395107571333646,-0.0013128723949193,0.000925522763282,0.000999153824523
1783206493569259500,5.697259521484375,0.0144322107825428,0.0106831239147111,-0.0369675023913383,-0.0003429492935538,0.0022304435260593,-0.0013761771842837
1783206493579196700,5.70719677734375,0.0138586669445969,0.0075151979357004,-0.0466927775919437,0.0023527024313807,0.0004431959241628,-0.0017178606940433
1783206493589133600,5.717133544921875,0.0025806093440391,0.0066869852169416,-0.0433995812654495,0.0022952202707529,-0.0019088871777057,0.0016958962660282
1783206493599070500,5.727070556640625,-0.0098951701411046,0.0104072843817062,-0.0404039065808057,-0.0007778014987707,-0.0008305730298161,0.0002577891573309
1783206493609006600,5.737006591796875,-0.0141748750206083,0.0110123741353861,-0.0429506684541702,0.0023034401237964,0.0023179675918072,-0.0007374086417257
1783206493618943700,5.74694384765625,-0.0153284107035957,0.0033935331621207,-0.0428039534598588,-0.0007890220731496,-5.46425580978e-05,-0.000858049839735
1783206493628880400,5.75688037109375,-0.004996200852096,0.004601429380849,-0.0375584540218114,-0.0043176803737878,-0.0008108220063149,-0.0003307920414954
1783206493638817500,5.766817626953125,-0.0051506059625186,0.0066357847526669,-0.0423491954296827,-0.0002038944512605,0.0005662986077368,3.24631109833e-05
1783206493648754700,5.776754638671875,-8.06640207767e-05,0.0100690106043592,-0.0408574955672025,0.0005768137052655,-0.0010566427372395,-0.0019871175754815
1783206493658690800,5.78669091796875,-0.0051717400820925,0.0122173842772841,-0.0375631301969289,0.001078818924725,-0.0011929967440664,0.0006331666372716
1783206493668627500,5.79662744140625,0.0039401159279048,-0.0013778642244637,-0.0384662165164947,8.29230993986e-05,-0.0027212332934141,0.0006529090460389
1783206493678564600,5.806564697265625,-0.0028141075726598,-0.0003668605510145,-0.0374140771150589,-0.0011647678911685,0.0001315451227128,-0.0006488440558314
1783206493688501500,5.81650146484375,-0.0071872628892771,-0.0008423873745836,-0.0395090035676956,0.0012318147346377,-0.0002636946737766,0.0010488256812095
1783206493698437600,5.826437744140625,-0.0117235363457351,0.0010990290167741,-0.0323322438061237,-0.0002675456926226,0.0001163384877145,0.0005566733889281
1783206493708374500,5.83637451171875,-0.0106112459885887,0.0052528790269047,-0.0369721785664558,-0.0015687318518757,0.0015294775366783,0.0021583726629614
1783206493718311400,5.8463115234375,-0.00885457504699,0.0038742658837698,-0.0453518843770027,-0.0010632639750838,0.00440089777112,-0.0012398208491504
1783206493728248600,5.85624853515625,0.0063944685437716,0.011591799724847,-0.0324818814098835,-0.0006473651155829,-0.0004033679142594,-0.0008799752686172
1783206493738185700,5.866185791015625,-0.0005885770102962,0.0083181483490392,-0.0374234294652938,0.0014655869454145,0.0034060177858918,0.0002518682740628
1783206493748121600,5.87612158203125,-0.0068712557426653,0.0094475907703861,-0.0401145682454109,-0.0020420029759407,-0.0022724377922713,-0.0005334857851266
1783206493758058500,5.88605859375,-0.0099654954309575,0.0139946778818033,-0.0351724356681108,0.0004898644983768,-0.0005877222865819,-0.0001462623476982
1783206493767995600,5.89599560546875,-0.0107933793561533,0.0086507595705799,-0.0395160178303718,-0.0003682998940348,-0.0015444140881299,-0.0020547017920762
1783206493777932500,5.9059326171875,-0.0136680580096319,0.005745119523257,-0.0336748905867338,-0.00073395203799,0.0001831785775721,-0.0004072703886777
1783206493787868400,5.915868408203125,-0.0102650628994219,0.0068576473424211,-0.0323263985872268,-0.0004188818857073,0.00021359231323,-0.0003041643649339
1783206493797805600,5.9258056640625,-0.0097357965946197,0.0100546167528256,-0.023497195443511,0.0003574294969439,0.0015592877753078,0.0023462134413421
1783206493807742700,5.93574267578125,-0.0128927262555807,0.0118384314296767,-0.0372597633361816,0.0007529212161898,-0.0016302913427352,-0.0004843478091061
1783206493817679600,5.9456796875,-0.0054996933948248,0.0158851860698312,-0.0285790287524461,-0.0004305876791477,0.0027498097624629,-0.0001908675767481
1783206493827616800,5.95561669921875,-0.0043252610542811,0.0086765150663442,-0.0237947170853614,0.0013613896444439,0.0019067642278969,-0.000804687384516
1783206493837552600,5.965552734375,-0.0010677022967487,0.0049132718089967,-0.0217003751546144,-0.0003310488536953,-0.0005345554091036,-0.0018233464797958
1783206493847489500,5.975489501953125,-0.0003645589960739,0.0056772419188171,-0.0181067345768213,0.0022904928773641,-0.0011754883453249,0.0002972481306642
1783206493857426700,5.9854267578125,0.0030426373652182,0.0145316708353348,-0.0341197117447853,-8.15847888588e-05,-0.0017339526675641,0.0004418578464537
1783206493867363600,5.995363525390625,-0.0029241438183933,0.0192216918150894,-0.0219996503621339,-0.0002026772126555,0.0003286213614046,0.0011541859712451
1783206493877299500,6.005299560546875,-0.005304974540323,0.0123018842229619,-0.0288859027445316,0.0004074526950716,0.0028493034187704,2.87338625639e-05
1783206493887236600,6.015236572265625,0.0038166722113266,0.0085603048081509,-0.0191594585001468,-0.0003154184669256,-0.0010923626832664,0.0012199785560369
1783206493897173800,6.025173828125,-0.001454564456176,-0.0018740867761895,-0.0238005623042583,-0.0008480502292513,0.0019167428836226,-0.0016634257044643
1783206493907110700,6.035110595703125,-0.0082027418084442,-0.009451353630051,-0.0240974994242191,-0.001010525971651,-0.0010069562122225,-3.73914372175e-05
1783206493917046500,6.045046630859375,-0.0051049219235777,0.0094107476250268,-0.018853169029951,-0.0013245129957795,-0.0003837766125798,0.0002044236753135
1783206493926983700,6.054983642578125,-0.0017084478856995,-0.0030509120032191,-0.0199006322562694,-0.0001877676695585,-0.0013553905300796,0.0012388329487293
1783206493936920600,6.064920654296875,0.0050840617986395,-0.0032685733418911,-0.0225906019926071,0.0001139687374234,0.0012185545638203,0.0003256353083997
1783206493946857700,6.074857666015625,0.0022694062367081,0.0040504809672012,-0.0278267490804195,-6.20167702436e-05,0.0012711407616734,-0.0009192109573632
1783206493956794600,6.084794677734375,0.000531312131416,0.0031630671408027,-0.0142126497477293,-0.0015219617635011,-0.0010484727099537,-0.0001354427076876
1783206493966730500,6.09473046875,-0.0123134285302832,0.0009824168997816,-0.0142179104447364,-0.0003118971362709,0.000584811437875,-0.0014622311573475
1783206493976667600,6.104667724609375,-0.0046966151173226,0.0085155706172809,-0.0112228202819824,0.0004186080768704,-0.0005563534796237,0.0002078372053802
1783206493986604800,6.114604736328125,-0.0070023895753547,0.0089219594610854,-0.0092822076082229,-0.0014100484549999,0.0029252036474645,-0.0017215484986081
1783206493996541400,6.12454150390625,-0.0075892860852181,0.0025821619803085,-0.0163221892476081,-0.00048060528934,0.0019108057022094,9.36619471758e-05
1783206494006477600,6.1344775390625,0.001166230767779,0.0074298760061152,-0.0158680157393217,-0.0016297176480293,-0.0016967533156275,0.0006336853839457
1783206494016414700,6.144414794921875,-0.0127334257743321,0.0115427364187315,-0.0164683197200298,0.0026686247438192,0.0001288438215851,0.0002477932721376
1783206494026351600,6.1543515625,-0.0023967589434236,0.0115008517720736,-0.007044073292613,0.0006029531359672,0.0012508416548371,-0.000586659181863
1783206494036288500,6.16428857421875,-0.0017570728003978,0.0038477614693343,-0.0048018473237752,-0.0014748452231287,0.0019701616838574,0.0013238925021141
1783206494046224600,6.174224609375,-0.0077606423304416,0.0001798318126238,-0.0028594810843467,-0.0009278273209929,0.0010597426444292,0.0017620474100112
1783206494056161500,6.18416162109375,-0.0126930024323984,0.0086634911879897,-0.016171382600069,-0.0009278273209929,0.0022680186666548,0.001241133082658
1783206494066098700,6.1940986328125,-0.0029169286263175,0.0005902940433472,-0.005097030878067,0.0009121131151914,-0.0002143853344023,-0.0014655117411166
1783206494076035600,6.20403564453125,-0.0076393175057135,0.0004574614439159,-0.0101876320153474,0.0007688356563448,-0.0006040055304765,0.0011891273315995
1783206494085972500,6.213972412109375,-0.0038126901559531,0.0086824881494045,-0.0109328974246978,0.0003704251721501,-0.0010567065328359,0.0006889982614666
1783206494095908600,6.22390869140625,-0.0037933278683573,0.0068781786737963,-0.0030056115567684,0.001700141467154,-0.0004036994650959,-0.0010862648487091
1783206494105845800,6.233845703125,-0.0010134878914803,-0.0010620214746333,-0.0037508769661188,0.0001411475241184,-0.0003207959234714,-0.0038342224434018
1783206494115782400,6.243782470703125,-0.0025921353850513,-0.0011838029570877,-0.0043488428592681,-0.0001669805496931,-0.0008808583952486,0.0004401511978358
1783206494125719600,6.253719482421875,-0.0048684828191995,0.0062756827360019,0.0064250646114349,-0.0011870982125401,0.0013682199642062,0.0034567003604024
1783206494135655700,6.26365576171875,-0.0110517562977038,-0.0029444559540599,-0.0100339027583599,-0.0022496990859508,-0.0005207601934671,-0.000448292819783
1783206494145592600,6.273592529296875,-0.0065433024299331,0.0026819690929725,-0.0003051204264163,-9.53087583184e-05,-0.0007396144792437,-0.0011805887334048
1783206494155529500,6.283529541015625,0.0023279680235311,0.0008731661053374,-0.0112269119352102,0.0018075192347168,0.0004606721922755,0.0006354206707328
1783206494165466600,6.293466552734375,0.0060244296549819,0.0015887852950952,-0.0028431144714355,-0.001352297142148,-0.0030271993018686,0.0005647940561175
1783206494175402800,6.30340283203125,0.0041146505109034,0.0018127485103905,0.0022521628409624,-0.0017344607040286,-0.0026935054920613,-0.00062643783167
1783206494185339600,6.313339599609375,-0.0024135822140611,0.0036136421862058,-0.0113590138822793,0.0014075115323066,-0.0023427447304129,-0.0018833562498912
1783206494195276500,6.323276611328125,0.0041524069717153,0.0031745566491968,0.0027057518273591,-0.0008087716996669,0.001524431630969,0.0017902082763612
1783206494205213400,6.33321337890625,-0.0023323884703218,-0.0043143560677766,-0.0052262102156877,0.001958598382771,0.0001452360302209,0.0002039654646068
1783206494215149600,6.343149658203125,-0.0118603510005399,-0.0003395524189807,-0.0029869068562984,0.0004246179014444,0.0020371456630527,-0.0005294689908623
1783206494225086700,6.353086669921875,-0.001243168461509,0.0055721741091459,0.0016536124259233,0.0010129772126674,-0.0027830232866108,0.0014256897848099
1783206494235023600,6.363023681640625,-0.004309296300169,0.0064692690793424,-0.0046329204976558,-0.0006016977131366,0.0019757794216275,0.000790525926277
1783206494244960500,6.37296044921875,-0.0023657792832702,0.009969477486331,-0.0017915595918893,-0.0017070267349481,0.0018597217276692,0.0014864995609968
1783206494254896600,6.382896728515625,0.0005420344548299,0.0153036781211383,2.9226094484e-06,0.0003486676141619,0.0010466589592397,0.0010838296730071
1783206494264833800,6.392833740234375,-0.0029310302169062,0.0053797568095847,-0.0056827218115329,-0.0001179259270429,7.19628296792e-05,-0.000824746210128
1783206494274770400,6.4027705078125,-0.0028454160263761,0.0054490591861307,-0.0004366378515958,-0.0019174236804246,0.0001284219324588,0.0001646180171519
1783206494284706300,6.412706298828125,-0.000425605000928,0.0036890272436663,-0.0013344634741544,-0.0010302271693944,0.0014272583648562,-0.0003775181248784
1783206494294642200,6.42264208984375,0.0065792322598397,-0.0033932226348668,-0.0020861586242914,0.0003194622695446,0.0015673404559493,-0.000459543429315
1783206494304579300,6.432579345703125,0.0043562589807435,0.0112786055898293,-0.0035866263151168,-0.0007322700694203,0.0017712395638227,0.0016792654059827
1783206494314516200,6.44251611328125,-0.000356302624382,-0.0068656845184043,0.0026969839990139,-0.0020571928471326,-0.0001672757789492,0.0012393114157021
1783206494324453400,6.452453369140625,-0.0052959144510328,-0.0072163063206709,-0.0086743048429489,0.0008568530902266,-0.0003414670936763,0.0013784843031316
1783206494334389200,6.46238916015625,0.0001736943327821,0.0047031361896544,0.0012017770051956,0.0013359561562538,0.0021997215226292,0.0008005781564861
1783206494344326100,6.472326171875,-0.0040823374101892,0.0088151380857452,0.0062894555330276,-0.0008115097880363,-0.003695314284414,0.0012454364914447
1783206494354263300,6.48226318359375,-0.0074856795802712,0.0056292015260085,-0.0068716393351554,0.0005389796569943,0.000777730718255,-9.49325039982e-05
1783206494364200400,6.492200439453125,-0.0077678575225174,0.007667557219509,-0.0008843816190958,-0.0003473879769444,-0.0003470317460596,1.81428622454e-05
1783206494374136300,6.50213623046875,-0.005294946336653,0.00439315692503,0.0139233114123344,0.0014057708904147,0.0019984142854809,-0.0014647050993517
1783206494384073200,6.5120732421875,-0.0059894131405279,-0.0002840593720786,0.0047936640173196,-0.0020632939413189,-0.0003612115979194,-0.0017174073727801
1783206494394010400,6.52201025390625,0.0025782347238622,0.0049960729879327,0.0112280809789896,0.0006672451272606,0.0001557078212499,0.0005207131616771
1783206494403946200,6.5319462890625,-0.0048012993345037,0.0092231343647465,0.002995090162754,0.0005568629130721,0.0010826233774423,0.0005923092830926
1783206494413883100,6.541883056640625,-0.0013567301048897,0.0031118118776008,-0.0016442600756883,-0.0011185314506292,-0.0004042196087539,-0.0025424975901842
1783206494423820300,6.5518203125,-0.0062028732281178,0.0086126925825141,-0.0023930326163768,-0.0010794447734951,-0.0007927049882709,0.0004890754353255
1783206494433757200,6.561757080078125,-0.0023378683630377,-0.0042572738519869,-0.0053863692134618,0.0014976961538195,0.0003055827692151,-0.0005679333116859
1783206494443693000,6.571693115234375,-0.004398015763238,-0.0055102878540754,0.0065828855216503,-0.0004010526463389,0.0008727400563657,-0.0017525417497381
1783206494453630200,6.581630126953125,-0.0070682944184169,0.0006325988151133,0.0070323828548192,-0.000107305124402,0.000634919386357,-0.0022167307324707
1783206494463567400,6.5915673828125,-0.0081191003792919,0.0121508766460232,0.0106236853450536,-4.81391325592e-05,-0.0014000008814036,-0.0013253525830805
1783206494473504300,6.601504150390625,-0.0045222449311055,0.0071717547928914,0.000753448715806,-0.0019099544733762,0.0005688741803169,1.18205789476e-05
1783206494483440000,6.611440185546875,-0.0066966115618124,-0.0037434791109524,-0.0049357028365135,9.79676842689e-05,0.0014604316093027,-0.0015284112887457
1783206494493377300,6.621377197265625,-0.003042929626163,0.0066440411243587,0.0001519756913185,-0.0030778525397181,-0.0012986031360924,-0.0006250671576708
1783206494503314200,6.631314208984375,-0.0070269394947215,0.0008784268023446,-0.0043330607682466,0.0002459054812788,-0.0012912414968013,-0.0002984572201967
1783206494513251300,6.641251220703125,-0.0068414633926004,0.0099426260120235,0.002553191614151,-0.0018910150974988,-0.000262196175754,-0.0006766261067241
1783206494523187200,6.651187255859375,-0.0080726126227527,0.0023291553336195,0.001204699614644,0.0011286567896604,-0.0028310366906225,-0.0003541894257068
1783206494533124000,6.6611240234375,-0.0090807850182987,-0.009069112846814,0.0140752871036529,-0.0005946746096014,-0.0002632164396345,-0.0027755354531109
1783206494543061200,6.671061279296875,-0.0097623192753642,0.0070428129172883,-0.0032791678011417,-5.61410561203e-05,-4.20222058892e-05,0.0008441254030913
1783206494552997400,6.680997314453125,-0.0066404426614753,0.008274418805167,-0.0011813187390565,-0.0020346036180853,4.34652902185e-05,0.0002268045209348
1783206494562934300,6.690934326171875,-0.0094306031029671,0.0089767035893164,0.0066027592658996,0.0005762325599789,-0.0018757907673716,-0.0017290539108216
1783206494572871200,6.70087109375,-0.0041144130488857,0.0017777137296274,-0.0047714521855115,-0.0011686710640788,0.0032891437876969,0.0014654078986495
1783206494582808300,6.710808349609375,0.0008018544347956,0.0009920797772705,0.0103378541409969,-0.0008673733100295,-0.0021678251214325,-0.0016576554626226
1783206494592744400,6.720744384765625,-0.0017781886536628,-0.0026906638560816,0.0113829792797565,-0.0004758881404995,0.0002133073285222,-4.72420360893e-05
1783206494602681000,6.73068115234375,-0.0069964347586035,-0.0002247851992025,0.0095855744689702,0.0011227829381823,0.0006220336072146,0.0011235913261771
1783206494612618200,6.7406181640625,-0.000151482500974,0.0051366687687113,0.0179693719327449,-0.0016058925539255,-0.0011995681561529,-0.0003890842199325
1783206494622554400,6.750554443359375,-0.0075419032795354,-0.0068078168513253,-0.001781038197875,0.0005079321563243,-0.0001138527877628,0.0034043139312416
1783206494632491300,6.7604912109375,-0.0083903002697974,0.0025442593890242,0.0033101474612951,-0.0003043320029973,0.000784165225923,6.49765133857e-05
1783206494642428200,6.77042822265625,-0.0066440411243587,0.0071809975452721,0.0101876320153474,0.0014868602156639,-0.000509625300765,-0.0003816541284322
1783206494652365300,6.780365234375,-0.0031790136286057,-0.0051410892155021,0.0163210202038288,0.0007715355604887,0.0010168985463678,-0.0010322644375264
1783206494662301200,6.79030126953125,-0.0052961153804324,0.0003030198008753,-0.004335983377695,0.0017372379079461,0.0041602542623877,-0.0002300899941474
1783206494672238300,6.80023828125,-0.004398691616673,0.0110894762258976,0.0124187520682811,4.5065768063e-05,0.0002888171002268,0.0012841834686696
1783206494682175200,6.81017529296875,-0.0126832299570553,0.0037760114073753,0.0140630121439695,0.0004448192194104,0.001575019210577,-0.0003618700429797
1783206494692112100,6.820112060546875,-0.0042140740310773,0.001801149404142,0.0158534026920795,0.0028318101540207,-0.0009232922457158,0.0009622536599636
1783206494702048300,6.83004833984375,0.0021807781051844,0.0026701873236335,0.010615502038598,0.0010968064889311,-0.001327178440988,0.0012530144304037
1783206494711985400,6.8399853515625,6.56125821173e-05,0.0037447760188952,0.0107639705985784,0.0020832419395446,-0.0012014769017696,-0.0013310508802533
1783206494721922000,6.849922119140625,-0.0089031451627612,0.0072022960616275,0.0022299510091543,-0.0010337335988879,0.0012209867127239,0.0001156476791948
1783206494731858200,6.859858154296875,-0.0054819020098075,0.0035186025802046,0.0127022451847791,-0.0003362512215971,0.0027989097870886,0.0013353754766285
1783206494741795300,6.86979541015625,-0.0007137377599254,0.00257191458093,0.0122457335889339,-0.0004590172320604,0.0010356050916016,-0.000538325170055
1783206494751732200,6.879732177734375,-0.0016176095307804,-0.008619926040899,0.0085077161043882,-0.0020001893863081,-0.0001718723215162,-8.0794095993e-05
1783206494761668000,6.889668212890625,-0.0110031131166964,-0.0051177266062237,0.01734451803267,-0.0003250204026699,-0.0028689061291515,0.001453133765608
1783206494771605200,6.899605224609375,0.0002210406058467,-0.0021068543524481,0.0121072019010782,-0.0007745623588562,3.10097821056e-05,0.0005417999345809
1783206494781542400,6.90954248046875,3.97657548077e-05,0.0003931092371232,0.0158481419950723,0.0003452552482485,-0.0019121263176202,0.0011358021292835
1783206494791479300,6.919479248046875,-0.0029533516465686,-0.0051267684292048,0.019742811346054,-0.0002211993560194,-0.0011866809800267,-0.0004525072872638
1783206494801415200,6.929415283203125,0.0008192622273229,0.0001419292213395,0.0052367316097021,-0.0027161948382854,-0.0012143882922828,-0.0016439572209492
1783206494811352300,6.939352294921875,-0.0021078407331369,0.0096507303933613,0.013021394136548,0.0003973059356212,0.0002218545414507,-0.000299327308312
1783206494821289200,6.949289306640625,-0.0078654361454769,-0.0055684112494811,0.0173573775142431,-0.0001472495496273,-0.0011224746704101,-0.0004827473312616
1783206494831225000,6.95922509765625,-0.0121733076735399,0.004535926396586,0.0146586399495601,0.0021973978728055,0.0010599857196211,-0.000534412683919
1783206494841162200,6.969162353515625,-0.0086170764966867,0.0062030010922811,0.0149561615914106,-0.0009884014725685,-0.0004734145477414,-0.0007616761140525
1783206494851099100,6.97909912109375,-0.002980184854567,0.0084458663819357,0.0203413617610931,0.0018153749406337,-0.0012023216113448,-2.93068587779e-05
1783206494861036300,6.989036376953125,-0.0018088395202532,-0.0007814692338928,0.010018705189228,-0.0016354769468307,-0.0012560114264488,0.0001333020627498
1783206494870972200,6.99897216796875,-0.0094951927717775,-0.0028935660170391,0.0028396073400974,0.0009046457707881,0.0010321764275431,0.0005855069030076
1783206494880909300,7.008909423828125,-0.0064123147277161,0.0068254255732521,0.0014870236873626,-0.0008806455880403,-0.0015161954797804,0.0002324888482689
1783206494890846200,7.01884619140625,6.30735651589e-05,0.0097983404368162,0.0083761986792087,-8.16974788904e-05,-0.0004021953791379,-0.0017755345907062
1783206494900782300,7.0287822265625,0.0010965265324339,-0.0044979324737563,0.0068774845540523,-0.0009821113198995,-0.0006427178159356,0.0006496228743344
1783206494910719200,7.03871923828125,-0.002457220426388,-0.0051159913068637,0.013463292685151,-0.0017437748610973,0.0009700926020741,-0.0034010452218353
1783206494920656100,7.04865625,-0.0034714937691576,-0.0026773842494003,0.0067290159940719,2.9783695936e-06,0.000580231193453,0.0022291743662208
1783206494930592300,7.05859228515625,0.0003126826783642,0.0074017093575559,0.0104740477412939,-0.0024260906502604,0.0019781240262091,-0.0004840542096644
1783206494940529400,7.068529296875,-0.0028253961516544,-0.0029684578841552,0.0092827921301126,0.0006340574473142,-4.6864151954e-06,-0.0019850456155836
1783206494950466000,7.078466064453125,-0.0043187765145674,-0.0031983393835835,0.0086824881494045,0.0018569808453321,0.0003612320870161,0.0003532096743583
1783206494960403200,7.0884033203125,-0.0065922744045034,-0.0052342291253618,0.0103343470096588,-0.0037493957206606,-0.0013126255944371,-0.0007763099856674
1783206494970339300,7.09833935546875,-0.0041437670075334,0.0088020959410816,0.0128811088830232,-4.9909576773e-06,-0.0009440444409847,0.0007789758965373
1783206494980276200,7.108276123046875,-0.0030249190454371,0.003676788816601,0.0205108731091022,0.0005581341683864,0.0021525060292333,-0.0003435725811868
1783206494990213000,7.118213134765625,-0.0050497576702386,-0.0031689671586267,0.0220043265372514,0.0005397582426667,0.0025431916583329,0.001805864740163
1783206495000149200,7.128149169921875,-0.0073947133611887,-0.0071145447129383,0.0077870006144046,0.0008393377065658,-0.0003900802694261,0.0002453119959682
1783206495010086400,7.13808642578125,-0.0069919595128856,-0.0035491803815588,0.0050929392248392,-0.0001247264444828,0.000953484326601,-0.0023989405017346
1783206495020023300,7.148023193359375,-0.0034882805071771,-0.0027472163489088,0.0154185184061527,0.0011715097352862,-0.0029212106019258,-0.0027161312755197
1783206495029959200,7.157959228515625,-0.0042785175694152,-0.002912270717509,0.0110778588533401,0.0018165269866585,0.0004080072976648,0.0007960454095155
1783206495039896300,7.167896240234375,-0.0081184062595479,0.0080013557511381,0.012875848186016,-0.0020066630095243,-0.0008669523522257,-1.15854199975e-05
1783206495049833200,7.177833251953125,-0.002568096922338,0.0017772753382101,0.0179705409765243,0.0023508016020059,-0.0041439714841544,-0.0005037377122789
1783206495059769000,7.18776904296875,-0.001676719306875,-0.0014515139825642,0.0048006782799959,0.0008075237274169,-0.000384762417525,0.0006552040576934
1783206495069706200,7.197706298828125,-0.0010963438693433,-0.0071622928448021,0.0122825584679841,-4.20249998569e-05,4.64031472802e-05,0.0011023487895727
1783206495079643100,7.20764306640625,-0.0124033535697497,0.0026982078417204,0.0086935940653085,-0.0010706409811973,0.0012211045250296,0.0020360681228339
1783206495089579300,7.217579345703125,-0.010828998658806,-0.0088115578891709,0.0175198745995759,-0.0005483953282237,0.0016269702464342,-0.0004180350806564
1783206495099516200,7.22751611328125,-0.0126854767130687,0.0041670930841937,0.0241033446431159,0.0010168440639972,-0.0020998958498239,0.0013549500145018
1783206495109453300,7.237453369140625,-0.0095601112341508,0.0018013868661597,0.0125754039347171,0.0008733002468943,0.0015771300531923,0.0002473411150276
1783206495119389200,7.24738916015625,-0.0048718255537562,-0.0032646643517538,0.0035977322310209,0.0028771385550498,-0.0030829757452011,0.0017031503375619
1783206495129326300,7.257326416015625,-0.0029125264458358,0.004750117136538,0.0067383683443069,0.0012243809178471,0.0005794037133455,-0.0035627181641757
1783206495139263200,7.26726318359375,-0.0042140192321501,0.0002275434118695,0.0179594350606203,-0.0020892033353447,0.0019767852500081,-0.0015116938157007
1783206495149200100,7.2772001953125,-0.0186229404706507,0.0073654690003953,0.0124181675463914,0.0002799443900585,-0.0002823746763169,0.0030545620247721
1783206495159136300,7.28713623046875,-0.0125204223444685,0.0033135632610879,0.0038841479569673,0.0014505600556731,0.0007129902951419,0.0005806628614664
1783206495169073400,7.297073486328125,-0.0064326268633827,0.0042738048616796,0.0148041859000921,0.0008337721228599,0.0007579973898828,-0.0022891596890985
1783206495179010000,7.307010009765625,-0.0043160548345185,-0.0021229469707235,0.0109089320272207,0.0021706186234951,7.60196708142e-05,-0.002300082007423
1783206495188946200,7.3169462890625,-0.0007543985638767,0.0062076224684715,0.0100116909265518,-0.000890152528882,0.0025271929334849,0.0010472449939697
1783206495198883300,7.32688330078125,-0.0071776000117883,0.0032611754867248,0.008364508241415,0.0011303573846817,0.0012489822693169,0.0004378012381494
1783206495208820200,7.3368203125,-0.0028129385288804,0.0019349501179531,0.0139057757556438,-0.0032753096893429,-0.0012482637539505,-0.0015622326172888
1783206495218756000,7.346756103515625,-0.0017072057766839,-0.0126507159269414,0.0176461313277482,0.0012918198481202,0.0007208152674138,0.0010961527004837
1783206495228693200,7.356693359375,-1.00464699789e-05,-0.0014203699256293,0.0056762920707464,-0.001257624477148,-0.0009729550220072,-0.0016847199294716
1783206495238630400,7.36663037109375,-0.0217867382638156,0.0242203403525985,0.0104606037378311,0.0011454066261649,0.0007872157730162,-2.8610229492e-06
1783206495248566300,7.376566162109375,-0.0155134301479905,0.0027331147583201,0.0140542443156242,-0.0002389047294855,-0.0007949685677886,-0.0007248439360409
1783206495258503200,7.386503173828125,0.0119582949496805,0.0022621910446323,0.0143523504793643,0.0007391534745693,0.0006255549378693,-0.0014924597926437
1783206495268440300,7.3964404296875,0.0026087029273621,-0.0018533179827965,0.0077688804358243,0.0019620768725872,0.0002660281024873,-0.0004935080651193
1783206495278376400,7.40637646484375,0.000129983055219,0.0177989290029741,0.0035749358773231,-0.0007540229707956,0.0009815110825002,-0.0014578577829524
1783206495288313900,7.41631396484375,-0.0096036398486234,0.007773958469741,0.0106032270789146,0.0009879507124423,-0.0009527429938316,-0.0014344219816848
1783206495298251000,7.4262509765625,0.00114056660356,-0.0220672174393199,0.0118014969527721,0.0011492520570755,0.0005317889153957,0.001358154695481
1783206495308187000,7.436186767578125,-0.0067941171195358,-0.0067275364230386,0.0134404963314533,0.0026536723598837,-0.0005611721426248,0.0002249795943498
1783206495318123800,7.446123779296875,-0.0076140004013665,0.0026801607283763,0.0137426941484212,-0.001100149936974,-0.0005038017407059,-0.0012617344036698
1783206495328061000,7.45606103515625,-0.0167033340523019,0.0110212150289677,0.0113508305758237,-0.0005070641636848,-0.0030271471478044,-0.001733646611683
1783206495337997000,7.4659970703125,-0.0097173110898584,0.0098229086224921,0.0077624506950378,-0.0009911926463246,0.0002290476113557,0.0012855348177254
1783206495347933700,7.47593359375,-0.0004494608005508,-0.0070805145791731,0.0150987849324941,0.0003036363050341,-0.004149455577135,-0.0005464537534862
1783206495357870800,7.485870849609375,-0.0044502939397469,0.0055380891764536,0.010613748472929,-0.0014771167188882,-0.0007340139709413,-0.0024153469130396
1783206495367807000,7.495806884765625,-0.0164541450642049,0.0142125218835659,0.0094201547741889,0.0011042850092053,-0.0001571732573211,0.0001828330568969
1783206495377744000,7.505743896484375,-0.008099738091696,0.0089046430001035,0.0136111767232418,0.0007670577615499,-0.0009093899279832,-0.0008171286899596
1783206495387680800,7.5156806640625,0.0014747852602973,-0.0076656392570585,0.01510638371706,0.0009169932454824,-0.0003027217462658,-0.0008168623317033
1783206495397617000,7.525616943359375,0.0063262621457688,-0.0122547571456059,0.015251929667592,-0.0006473455578088,0.0003723250702023,-0.0013479036279022
1783206495407553800,7.5355537109375,0.0077934668878093,-0.0009104293758049,-0.0031534955948591,0.0002064639702439,-0.0019576745107769,-0.0003343045245856
1783206495417489700,7.54548974609375,0.010381547152251,-0.0248704565580934,0.0050830023527145,-0.0029352894052863,0.0028041447512805,0.0027635644655674
1783206495427426800,7.5554267578125,0.0045484936172142,-0.006920702641271,0.0109147772461175,-0.0009030308574438,0.0030584766063839,0.0005113291554152
1783206495437364000,7.565364013671875,0.0002928089341148,-0.0106869233069941,0.0082242229878902,0.0008584670722484,-0.0026373881846666,0.001490109367296
1783206495447300900,7.57530078125,-0.0064118946026079,0.0012050649408251,0.0043371524214744,0.0029455870389938,-0.0009366935119032,0.0020991743076592
1783206495457236700,7.58523681640625,-0.0146331767147406,0.0062270760876126,0.0080798460811376,-0.0007956251502037,0.0003454186953604,0.00115234288387
1783206495467174000,7.595173828125,-0.0071222530953586,-0.0005651961347088,0.0023918635725975,3.23513522744e-05,0.0015430422499775,0.0024277309421449
1783206495477110000,7.605110107421875,-0.0058527446161955,0.0113792164200916,0.0032885201513767,-0.0031773569062352,0.000687644816935,-0.0004136252682656
1783206495487047000,7.615046875,0.001144055468589,0.0110285763515159,0.0073375032812356,-0.0011440329253673,-0.0009877495467662,0.0005299327895045
1783206495496983800,7.62498388671875,0.0087283000525087,0.0023182686134241,0.0052466684818267,-0.0011447751894593,0.0010757567360997,0.0031585430260747
1783206495506920000,7.634919921875,-0.0016810118895024,0.0076612736091949,0.0076397010982036,-0.00032105948776,-0.0005415808409452,-4.95007261633e-05
1783206495516856800,7.64485693359375,-0.0142093070131726,0.0172540084713138,0.0054003977388143,-0.0011442527174949,-0.0004036147147417,0.000754534965381
1783206495526794000,7.6547939453125,0.0004838014615699,0.0081387914604507,0.0057043491214513,-0.002952005714178,-0.0014446442946791,-4.1483901441e-05
1783206495536729900,7.664729736328125,0.0105241339607164,-0.0094755747558549,0.016182488515973,-0.0020603276789188,0.0005021123215556,0.0016919381450861
1783206495546666800,7.674666748046875,0.0135149863397702,-0.013278547235392,0.0133411276102066,0.0007394533604383,0.0011830823495984,-0.0002140861470252
1783206495556604000,7.68460400390625,0.0192630102061666,0.0059952583594247,0.0109492640376091,-0.0023634377866983,-0.0020972280763089,9.820330888e-06
1783206495566539800,7.694539794921875,0.0156589578322134,0.0172676168715581,0.0073649758100509,-0.0009122807532548,-0.002931862603873,-0.0014916697982698
1783206495576477000,7.704476806640625,0.023536723736301,0.018818499575369,0.0099140757709741,-0.001586589962244,-0.0015705870464444,0.0021173129789531
1783206495586413800,7.714413818359375,0.0121065077813342,-0.0041001287952065,0.008121931657195,-0.0011706044897437,0.0014987061731517,0.000710364896804
1783206495596350000,7.724349853515625,-0.0037278248840942,-0.001368968531955,0.0156079034984111,-0.0021335575729608,-0.0004352321848273,0.0006071305833756
1783206495606286800,7.734286865234375,-0.0184578861020505,-0.0055889791134744,0.0135205758303403,-0.0016278233379125,-0.0003809034824371,-0.0001907525584101
1783206495616223700,7.7442236328125,-0.0222712338451296,0.0011199439406394,0.0144254157155752,-0.0002077119424939,-0.0006840573623776,0.000794235849753
1783206495626159900,7.754159912109375,-0.0231520718002691,0.0007348353468813,0.0147276135325431,-0.0017893640324473,-0.0019285529851913,0.0021915964316576
1783206495636097000,7.764096923828125,-0.009167878779862,0.0176388978693634,0.0060550622552633,-0.0019706347957253,0.0010344558395445,-0.0010793008841574
1783206495646033000,7.774032958984375,-0.0020069559082388,0.0186068295860663,0.000520224481821,-0.0002678092569112,-0.0015887576155364,0.0002147289924323
1783206495655969800,7.7839697265625,0.0011215879084542,0.0043614100798964,0.0138426473915576,0.001255813986063,-0.0002669799141585,0.0022413125261664
1783206495665907000,7.793906982421875,-0.0058899713540449,0.0076531085690483,0.0124924018263816,-0.0009623328223824,-0.0014923000708222,0.0003091893158853
1783206495675842800,7.8038427734375,0.0012890716961584,0.0119053774523548,0.0106990886688232,-0.0021815495565533,0.0003784545697271,0.00051024206914
1783206495685779700,7.81377978515625,-0.0083853318337351,0.0279031387848779,-0.0006757073044776,1.52923166751e-05,3.86349856853e-05,0.000223153270781
1783206495695716900,7.823716796875,-0.0225957165591418,0.0226432820279151,0.0098000940024852,-0.0024484721943736,0.0003938386216759,0.0016916682943701
1783206495705653000,7.833653076171875,-0.0091345427658408,0.0137691620302386,0.0114466921657323,0.001214706338942,0.0010124905966222,-0.0016127822455018
1783206495715590000,7.84358984375,-0.0111589977981522,0.0040376945508643,0.0111456633925437,0.0028967149555683,-0.0029490087181329,0.0012013283558189
1783206495725526800,7.85352685546875,-0.0136301371520385,0.0062966707251034,0.0075602061212062,-0.0009749885648488,6.06295652687e-05,0.0009821504354476
1783206495735463000,7.863462890625,-0.0121847971819341,-0.0002516549398191,0.002623918762803,-0.0007794015109539,0.0002088760957121,-0.0015246109105646
