time,seconds_elapsed,ax,ay,az,gx,gy,gz
1783197282559688700,0.099688720703125,-0.5762129110246896,0.5823495140835643,0.3616325872331857,-0.2268329113721847,-0.0786954537034034,-0.4975680708885193
1783197282569624600,0.10962451171875,-1.5600424540832638,1.1772668333172798,1.0280068306982515,-0.1492560505867004,0.238576740026474,-0.6624189019203186
1783197282579561700,0.119561767578125,-1.041674706044793,1.0352315212547778,1.4958867927759885,0.1324976086616516,0.4173097312450409,-0.6992512345314026
1783197282589499000,0.129498779296875,-0.0738353438004851,0.2344040914192795,0.776409320154786,0.4268973171710968,0.5233381390571594,-0.6175876259803772
1783197282599434800,0.139434814453125,0.6192109257519245,-0.5904787522643804,0.909571005409956,0.5591632127761841,0.6893558502197266,-0.4622001647949219
1783197282609371600,0.14937158203125,0.5277753355920315,-0.8133271381855011,1.348472125762701,0.5569927096366882,0.6942509412765503,-0.2480208575725555
1783197282619308800,0.159308837890625,0.1305849666349589,-1.001227837105095,0.1709159541100263,0.4733137786388397,0.5141077637672424,-0.0410189367830753
1783197282629245700,0.16924560546875,0.1391290692269802,-1.0385393306285142,-0.4669014724344015,0.3195247948169708,0.2576031386852264,0.0939573571085929
1783197282639181800,0.179181884765625,0.2255120521724224,-0.6161357560902834,-0.2205786874234676,0.1288307458162307,0.103789322078228,0.0956849530339241
1783197282649118700,0.18911865234375,0.2648249486461281,-0.1024830538749694,0.1667810462623834,-0.0915605872869491,0.0272401012480258,0.0214293450117111
1783197282659055600,0.1990556640625,0.1070375023089349,0.2713581498071551,0.300083016771078,-0.2923647761344909,-0.0410169810056686,-0.073084644973278
1783197282668991700,0.20899169921875,0.0959619815431535,0.4015869964808225,0.3038163580805063,-0.4434520900249481,-0.1979002505540847,-0.1614048182964325
1783197282678929000,0.218928955078125,-0.0893311652265489,0.247120657390356,-0.1657826828747987,-0.5823758840560913,-0.3709436655044555,-0.2430666536092758
1783197282688865500,0.228865478515625,-0.5614287449993193,0.5372969049140811,-0.49098143620193,-0.7150065898895264,-0.4895447790622711,-0.3082980215549469
1783197282698801700,0.2388017578125,-0.6420150243647397,1.0999188052207232,-0.2590291218489408,-0.7666577696800232,-0.5610604882240295,-0.3882919251918793
1783197282708738800,0.24873876953125,-0.6796142487883567,1.2588804099038242,-0.0714092856973409,-0.6798092722892761,-0.5797087550163269,-0.4648027122020721
1783197282718676000,0.258676025390625,-0.6753131905935704,1.1345265927433967,-0.0548392591685056,-0.5644863843917847,-0.5811708569526672,-0.5136312246322632
1783197282728611600,0.268611572265625,-0.6274699277922511,1.0821873336970806,0.1297293727189302,-0.5338670611381531,-0.5710545182228088,-0.5113849639892578
1783197282738548700,0.278548828125,-0.6118295833289623,1.080476438125968,0.5097539412111044,-0.5740837454795837,-0.5451571345329285,-0.4693927466869354
1783197282748486000,0.28848583984375,-0.7546519541159272,0.9482000112727283,0.6261620600640774,-0.6133652329444885,-0.5201252698898315,-0.4242090880870819
1783197282758422800,0.2984228515625,-0.910407310103625,0.9063663641497492,0.4537760334014892,-0.6371579170227051,-0.5225574970245361,-0.4140965342521667
1783197282768358700,0.308358642578125,-0.8887331653688102,0.963478828947246,0.2994967413157224,-0.65529465675354,-0.5452703833580017,-0.4452976286411285
1783197282778295800,0.3182958984375,-0.8651279064409434,1.1648109641090034,0.1664174736469984,-0.690266489982605,-0.5438014268875122,-0.5026216506958008
1783197282788232700,0.328232666015625,-0.7083133237238973,1.3034314992919565,0.2581283736169338,-0.7433117032051086,-0.4840187132358551,-0.5599383115768433
1783197282798168800,0.3381689453125,-0.4792991086494177,1.2739604901358486,0.3763531865030527,-0.7614774107933044,-0.4266145229339599,-0.6051542162895203
1783197282808105700,0.348105712890625,-0.2810209542308002,1.1742840181142091,0.1538748029381036,-0.7222205400466919,-0.36485555768013,-0.6237303018569946
1783197282818043000,0.35804296875,0.0220244194772094,0.935557679581642,-0.1625795029193162,-0.6345271468162537,-0.3058335185050964,-0.608980119228363
1783197282827978800,0.367978759765625,0.3728216513760388,0.5471007983088493,-0.4847060091942548,-0.5294773578643799,-0.2742308378219604,-0.5421038269996643
1783197282837916000,0.377916015625,0.6456298538610339,0.143325644133985,-0.6771405521512032,-0.4249232113361358,-0.2588372826576233,-0.4456137716770172
1783197282847852800,0.387852783203125,0.7799420243255794,-0.2617360427200794,-0.7705079871565103,-0.3144015669822693,-0.2432007938623428,-0.3381694853305816
1783197282857789000,0.397788818359375,0.8901675090208649,-0.5529007167592644,-0.6979553766429424,-0.2159215956926345,-0.2009843587875366,-0.2441953271627426
1783197282867725800,0.407725830078125,1.037443717411533,-0.6677127985924481,-0.4517284532219171,-0.1211498230695724,-0.1392050832509994,-0.1789864301681518
1783197282877663000,0.4176630859375,1.174204961528629,-0.7070701187297701,-0.1946516344845295,-0.0519070997834205,-0.0635286942124366,-0.1406595557928085
1783197282887598800,0.427598876953125,1.31660106972754,-0.7371078218579292,0.0141857617408037,-0.0276069454848766,0.0078553082421422,-0.1297768503427505
1783197282897535700,0.43753564453125,1.428232475697994,-0.7382827108561992,0.1643903517335653,-0.0911297276616096,0.1409577131271362,-0.1264966279268264
1783197282907473000,0.447472900390625,1.6809201195657253,-0.7645534626662731,1.0307248574852943,-0.2551979422569275,0.260833203792572,-0.1295966804027557
1783197282917408800,0.45740869140625,1.7279479743309318,-0.956162660714984,1.5282611221581697,-0.2992753982543945,0.4005985856056213,-0.0353530049324035
1783197282927345700,0.467345703125,1.749215364895761,-1.4880626750215886,0.3440519223570824,-0.2320723533630371,0.5823900699615479,0.0773747563362121
1783197282937282800,0.47728271484375,1.9381022983737288,-1.498316065749526,0.2464209846884012,-0.1121888235211372,0.6902662515640259,0.1717499941587448
1783197282947220000,0.487219970703125,2.060275995016098,-1.4808683796033262,-0.0323497794628143,0.0274372212588787,0.7884455323219299,0.3097403943538666
1783197282957155600,0.497155517578125,2.0014733851745725,-1.661254172848165,-0.3844412158906459,0.1269624829292297,0.8230612874031067,0.4740028381347656
1783197282967092700,0.5070927734375,1.880456603482365,-1.5645365506321192,-0.5242196889370679,0.1540310531854629,0.8337584733963013,0.6132303476333618
1783197282977030000,0.51702978515625,1.8552508505553007,-1.2596353199243544,-0.5043634803444147,0.1474418640136718,0.8527750372886658,0.7064092755317688
1783197282986966000,0.526966064453125,1.7080848976060747,-1.0115887798607348,-0.6009434476554394,0.1244302541017532,0.8627012372016907,0.7433304190635681
1783197282996902700,0.536902587890625,1.6409212866544722,-0.7802256635725497,-0.4998486332684755,0.089939922094345,0.8987788558006287,0.7468098402023315
1783197283006839800,0.54683984375,1.609862131524086,-0.5637608412086963,-0.3829372410684823,0.0605398342013359,0.9320711493492126,0.7445359230041504
1783197283016776000,0.55677587890625,1.4571931972444057,-0.4578986662894487,-0.5007751004636287,0.0586191639304161,0.9269235134124756,0.7622992396354675
1783197283026712800,0.566712890625,1.3582792340278624,-0.4022980673596262,-0.6844149270683526,0.0929849818348884,0.8888793587684631,0.797296941280365
1783197283036649700,0.576649658203125,1.2224095319230108,-0.2701294847950339,-0.8711398602068424,0.1530073136091232,0.8463036417961121,0.8522550463676453
1783197283046585900,0.5865859375,1.15315179823637,0.0332408830836415,-1.0138181463479996,0.2372107952833175,0.7811837196350098,0.9080794453620912
1783197283056522800,0.596522705078125,1.3300763451114297,0.2936860092103481,-1.18991121083498,0.324802964925766,0.759577751159668,0.9402094483375548
1783197283066460000,0.6064599609375,1.4295879819601771,0.3054050885766744,-1.1138228274106978,0.4167622923851013,0.7382158041000366,0.9679157733917236
1783197283076395800,0.616395751953125,1.356694595184922,0.2592351658150553,-0.8409422903418541,0.4705818593502044,0.740272581577301,0.9921175241470336
1783197283086332700,0.626332763671875,1.153482710691169,0.1450002993479371,-0.3474696218460798,0.4858831763267517,0.7689260840415955,1.011809468269348
1783197283096269800,0.636269775390625,0.7682162229575217,0.000956570072472,0.2375397590965032,0.4222879409790039,0.8537291288375854,1.0132598876953125
1783197283106205700,0.646205810546875,0.2667505098812281,0.0860407453790307,1.0585206269055605,0.300832062959671,0.7527201771736145,0.9686625003814696
1783197283116142800,0.656142822265625,-0.1501324015393853,0.4124380608409643,0.8903712148994207,0.1150448992848396,0.6554458141326904,0.9327577948570251
1783197283126079700,0.666079833984375,0.1017903223704546,0.3955070920452475,0.8356739945501088,-0.049751903861761,0.5753458142280579,0.9638157486915588
1783197283136017000,0.676016845703125,0.1256227411177009,0.1432309515878558,0.7331202135264873,-0.170562744140625,0.4646781086921692,0.9952277541160583
1783197283145952800,0.685952880859375,-0.0136314888589084,0.1872998104169964,0.4589852924823761,-0.2619690895080566,0.3270227611064911,1.0105912685394287
1783197283155889700,0.6958896484375,-0.1492985810637474,0.4429460118293762,0.1993365774303674,-0.298326313495636,0.1636138707399368,0.98756343126297
1783197283165826800,0.705826904296875,-0.3441369702920317,0.6896323694556951,-0.0567635052293539,-0.2713082134723663,0.0657567754387855,0.961047351360321
1783197283175763000,0.715762939453125,-0.3127528209909797,0.6475824492335319,-0.0431429761558771,-0.1937321871519088,0.0784776359796524,0.9513211846351624
1783197283185699600,0.725699462890625,-0.2680120542496442,0.4225044045642018,0.2206763025790452,-0.1337043344974517,0.2102179378271103,1.0099983215332031
1783197283195636700,0.73563671875,-0.0852734142683446,0.0306318696290254,0.5669985079556703,-0.0979415476322174,0.3932684361934662,1.083184838294983
1783197283205573000,0.745572998046875,-0.3907455767318606,-0.0598632248103618,0.5915490118443966,-0.0851216241717338,0.4619124829769134,1.1075831651687622
1783197283215510000,0.755510009765625,-0.7832499798297882,0.2764379372894763,0.1985422121822833,-0.1071981638669967,0.4568777680397033,1.1028435230255127
1783197283225447200,0.765447265625,-0.8923170882701873,0.531411061745882,-0.0861918442875146,-0.1510006189346313,0.4106130301952362,1.06230366230011
1783197283235384300,0.77538427734375,-1.069461415375769,0.6480024282112717,-0.1410772806853056,-0.2351301461458206,0.3448563814163208,1.0001527070999146
1783197283245320200,0.7853203125,-1.1757980759389697,0.8783046372696757,-0.0021948796957731,-0.3249690532684326,0.2305224984884262,0.9177455902099608
1783197283255257000,0.795257080078125,-1.460264275252819,0.867425515858829,-0.029084640187025,-0.4064175486564636,0.0555059388279914,0.795421838760376
1783197283265194200,0.8051943359375,-2.033394417831301,1.099396534912288,-0.124548755210638,-0.5465700626373291,-0.1223159208893776,0.6333927512168884
1783197283275130400,0.81513037109375,-2.180481898716837,1.5551011982887983,0.0566138676255941,-0.6803156137466431,-0.2369921654462814,0.5434660315513611
1783197283285067000,0.82506689453125,-2.073473037980497,1.237423780377209,0.2199333752572536,-0.750694990158081,-0.3445560336112976,0.3868275880813598
1783197283295004200,0.835004150390625,-2.47061094609797,1.3842638623729346,0.297470203924179,-0.8184964060783386,-0.2453263700008392,0.261552482843399
1783197283304940300,0.844940185546875,-1.908014764754474,1.326231652382016,0.9744114341109992,-0.7993006706237793,-0.0588759258389472,0.2874599695205688
1783197283314877200,0.854877197265625,-1.3394628898769616,0.4249582274571061,0.8474246380984782,-0.6583648920059204,0.115366980433464,0.3190327882766723
1783197283324814000,0.86481396484375,-1.1972967910416423,0.1302297234565019,0.4674275421351194,-0.4976223707199096,0.351400226354599,0.4063058495521545
1783197283334751200,0.874751220703125,-0.4797132424082607,-0.1404974349707365,0.4084691572099924,-0.3322168886661529,0.4999902248382568,0.553078830242157
1783197283344687000,0.88468701171875,0.1352694711893796,-0.6495747920945286,-0.3634750002294779,-0.1082824543118476,0.5232553482055664,0.7096859216690063
1783197283354624300,0.894624267578125,0.8105078429810703,-0.8724085649684071,-1.2704098119169474,0.0603656768798828,0.2898530066013336,0.8706479072570801
1783197283364561200,0.90456103515625,1.2611141603052616,-0.7074380752593279,-1.9603817885905503,-0.1431304514408111,-0.2659746408462524,1.0119175910949707
1783197283374497300,0.914497314453125,1.5148051359966397,-0.6423977400720119,-1.9706874940276145,-0.4381815493106842,-0.48444864153862,0.9488747119903564
1783197283384434200,0.92443408203125,1.274847209842503,-0.1885451343029737,-1.3239035016953944,-0.6638673543930054,-0.6084746718406677,0.8209202289581299
1783197283394371300,0.934371337890625,1.1110346579968928,0.3992246512636542,-0.9296002324819564,-0.8034140467643738,-0.7446474432945251,0.5869511365890503
1783197283404307200,0.94430712890625,0.6978782197535037,0.4423708422899245,-0.4291951343744993,-0.8538970351219177,-0.6675474643707275,0.3696565628051758
1783197283414244000,0.954244140625,0.3393787429142743,0.3146415573470294,-0.0976958195984363,-0.8280832767486572,-0.5678418874740601,0.2842599153518677
1783197283424181200,0.96418115234375,0.5848659538839012,-0.150890964821726,-0.2155102981179952,-0.7372121810913086,-0.5325460433959961,0.3429587483406067
1783197283434118100,0.9741181640625,1.1716976548828184,-0.4859755907386541,-0.3676894030541181,-0.6426424980163574,-0.5609851479530334,0.5206032991409302
1783197283444054000,0.984053955078125,1.7270321746602653,-0.8510676707759499,-0.4966723413199186,-0.5941755175590515,-0.6511693000793457,0.7478603720664978
1783197283453991200,0.9939912109375,2.0405466276735065,-1.253873103135824,-0.7097662259459495,-0.5678784251213074,-0.6985653042793274,1.088947892189026
1783197283463928300,1.00392822265625,2.4098398126624523,-1.8365102019891144,-0.4640963518857955,-0.5766432881355286,-0.7267181873321533,1.2897071838378906
1783197283473864200,1.0138642578125,1.7351472381852566,-1.5585523616559802,0.1377922676652669,-0.7654669880867004,-0.604958713054657,1.1599704027175903
1783197283483801000,1.023801025390625,0.8695300138574094,0.1905266635090112,1.052284947386384,-1.0464884042739868,-0.5291430950164795,0.7538496851921082
1783197283493738200,1.03373828125,-0.5205915615677833,1.1253593898169696,0.821708597561717,-1.175885558128357,-0.4226864278316498,0.465106338262558
1783197283503675100,1.043675048828125,-0.6329029856916517,0.5660911838524043,-0.4433522545427084,-1.1057544946670532,-0.5283699035644531,0.3840031623840332
1783197283513611000,1.053611083984375,0.3581545723916962,0.3841017548032104,-0.9735510178893804,-0.9465064406394958,-0.4976204931735992,0.4323331415653229
1783197283523548200,1.063548095703125,0.7404951992738992,0.3312514774948358,-0.3460293599098921,-0.7031235694885254,-0.194275215268135,0.6174343228340149
1783197283533485000,1.073485107421875,0.824957370224595,-0.5466103844434023,0.1855786857128143,-0.379272848367691,0.2096743881702423,0.8308911919593811
1783197283543421200,1.083421142578125,0.4686182862896472,-0.8249911263637244,0.170202252882719,-0.0963594168424606,0.4377401173114776,0.9836518168449402
1783197283553358000,1.093358154296875,-0.216650444596447,0.0071596624962985,-0.3907119667232036,0.108282670378685,0.3450083136558532,0.9766953587532043
1783197283563295200,1.103295166015625,-0.659760305218026,1.007257764919102,-0.8848667722642422,0.0991724804043769,0.1443478465080261,0.8011628985404968
1783197283573232000,1.113232177734375,-1.0477558525893838,1.2882350992038845,-0.5811597197771072,-0.1504370868206024,0.0876720398664474,0.6296774744987488
1783197283583168300,1.123168212890625,-1.1525659611724317,1.4523615393042564,-0.5499444973021745,-0.4851002991199493,-0.2883349359035492,0.5569671988487244
1783197283593105200,1.133105224609375,-0.535715115615353,1.123065287530422,-1.1619517752856017,-0.6409894824028015,-0.5033631324768066,0.6038724184036255
1783197283603042000,1.1430419921875,-0.4619441422879695,0.376074661822617,-0.9061883772343396,-0.6600713729858398,-0.6275990605354309,0.5857498645782471
1783197283612979200,1.152979248046875,-1.5869311916612088,0.898174728257209,-1.048773139873147,-0.684948742389679,-0.6992943286895752,0.3872977197170257
1783197283622915300,1.162915283203125,-2.036593798394501,2.249447736784816,-0.5428986704438924,-0.6186922788619995,-0.5564950108528137,0.0823387801647186
1783197283632852000,1.17285205078125,-2.8890374336987734,2.8085470159232613,-0.3457879523694515,-0.4354883432388305,-0.34272301197052,-0.1635876297950744
1783197283642789000,1.1827890625,-2.8412463394761085,2.515997901788354,-0.1268903499007225,-0.1629054844379425,0.0413504615426063,-0.2363288849592209
1783197283652725200,1.192725341796875,-2.026999309966713,1.6647113275647163,0.1528442908465862,0.1726144701242447,0.2844278216361999,-0.1233072653412818
1783197283662662100,1.202662109375,-1.5484803188443184,0.4238553807817399,-0.1668044271379709,0.4762179553508758,0.4893088638782501,0.1096981689333915
1783197283672599000,1.21259912109375,-1.2336723188892007,0.0865001795843243,-0.7395978851079941,0.5356101393699646,0.4770399332046509,0.3207078874111175
1783197283682536200,1.2225361328125,-0.9355722926288844,0.1730639989893883,-0.2730769364237785,0.4853679537773132,0.5190823078155518,0.4189273118972778
1783197283692472300,1.232472412109375,-1.0343161599755286,0.2718430107146501,0.3100941231757402,0.2922829091548919,0.5575689673423767,0.350465178489685
1783197283702409200,1.2424091796875,-1.2627984601303934,0.5124292979001999,0.2456301265716552,0.0211846493184566,0.4261625707149505,0.2385212928056717
1783197283712346000,1.25234619140625,-0.9792091897815466,0.599720627862215,-0.1999485718488693,-0.1982411742210388,0.1607857495546341,0.1353147476911544
1783197283722283000,1.262282958984375,-0.9862189224131404,0.5025342190906406,-0.4488935220569371,-0.3363490700721741,0.0815634280443191,0.0573750846087932
1783197283732219100,1.27221923828125,-1.062242277777195,0.4093029776856303,-0.0561363132417202,-0.3843759894371032,0.2170091420412063,0.0258158277720212
1783197283742156300,1.28215625,-1.158232462501526,0.3318284736651927,0.3112497229516506,-0.32904714345932,0.4769624471664428,0.0478518083691597
1783197283752093200,1.29209326171875,-0.9377092315923422,0.1493425663359463,0.3709475280672311,-0.2219446450471878,0.6282784342765808,0.0746831595897674
1783197283762030000,1.302030029296875,-0.6303688641041517,0.0138349755417555,0.1138338844507932,-0.0819932073354721,0.617160975933075,0.1036295518279075
1783197283771966200,1.31196630859375,-0.3601251783449202,0.0445651909787207,-0.4125917900979519,0.0503627024590969,0.4936043918132782,0.0962627157568931
1783197283781903400,1.3219033203125,-0.1602208109639585,0.1277604837987571,-0.5486152945250272,0.118691973388195,0.3051614165306091,0.0204413551837205
1783197283791840000,1.331840087890625,-0.1695415604842826,0.3246995716333389,-0.5528448949187994,0.0965568423271179,0.1564521193504333,-0.039919190108776
1783197283801777200,1.341777099609375,-0.2265685024227947,0.1461130098301917,-0.762045279237628,0.1086442172527313,0.1438110172748565,-0.0786564424633979
1783197283811713300,1.35171337890625,-0.4124458057560026,0.0952796983674168,-0.0623497809290885,0.0636205524206161,0.3153843581676483,-0.0689417645335197
1783197283821650200,1.361650146484375,-0.1824309257389977,-0.1465567350097,0.0799140791922807,-0.0181547068059444,0.3780717849731445,-0.0147741166874766
1783197283831587000,1.371587158203125,-0.1374063370876014,-0.5743025473587214,0.2409095277905464,-0.1369825601577758,0.4066073000431061,0.0141238430514931
1783197283841523200,1.381523193359375,-0.2911818078370765,-0.3527648787099868,0.1138408987134695,-0.3534440994262695,0.5463657975196838,0.0048300880007445
1783197283851460000,1.391460205078125,0.0453100179966539,-0.0850697083897888,0.9537187746942044,-0.5946362018585205,0.6337134838104248,0.0233747437596321
1783197283861397200,1.401397216796875,-0.0796630270406603,-0.1241128480114042,0.5138233826071024,-0.651852011680603,0.5546420216560364,0.0207479242235422
1783197283871334100,1.411334228515625,-0.6401693964980543,-0.580057896015048,-0.6466898843079805,-0.5897734761238098,0.435861587524414,0.0989335402846336
1783197283881270300,1.421270263671875,-0.0073928878719278,-0.2997914134133607,-0.6719178490668535,-0.4692869484424591,0.2265351414680481,0.162087544798851
1783197283891207200,1.431207275390625,0.0022148995704948,0.2162503028303384,-0.6162573366433381,-0.2534492015838623,0.0361713096499443,0.1017448455095291
1783197283901144300,1.441144287109375,-0.1683833303598687,0.403208094876632,-0.8422966275602579,-0.016222296282649,-0.073132611811161,-0.0425103902816772
1783197283911081000,1.4510810546875,-0.0888251154005527,0.7160667873948812,-0.8014999222695827,0.1625517159700393,-0.1218298375606536,-0.1879807710647583
1783197283921017000,1.46101708984375,0.1173514641176909,0.7898620914459228,-0.4798685060352087,0.2489500492811203,-0.2167116552591323,-0.2268992364406585
1783197283930954200,1.470954345703125,0.1237899727325886,0.674579323361069,-0.3691577220410108,0.3620118796825409,-0.3446033000946045,-0.2373918145895004
1783197283940891400,1.480891357421875,-0.4486655585199594,0.0237454711161553,-0.7747878564327955,0.4026484489440918,-0.351359874010086,-0.1201947256922721
1783197283950828000,1.490828125,-0.1724356379579752,-0.0464868797563016,-0.1594371132403612,0.3270871043205261,-0.3059948086738586,0.0122815547510981
1783197283960764200,1.50076416015625,0.1562007251350209,-0.2492221597142517,0.3706248719841241,0.2121933102607727,-0.1133157163858413,0.0546225495636463
1783197283970701300,1.510701416015625,0.5872546391187236,-0.3928960327640176,0.7840922758728265,0.1181341782212257,-0.2156167924404144,0.0273424629122018
1783197283980638200,1.52063818359375,0.123416691573942,-0.644543373798579,-0.00456920761168,0.0671239346265792,-0.2743156552314758,0.0235342569649219
1783197283990575000,1.5305751953125,0.53686055932343,-0.6321254985131323,-0.0498971265912055,0.0395018979907035,-0.3553628325462341,0.0817962288856506
1783197284000512000,1.540511962890625,0.4649475984202698,-0.3510843782771378,-0.0430541288286447,0.0674207508563995,-0.3573220670223236,0.1018356457352638
1783197284010448100,1.5504482421875,0.022241569359228,-0.126469786401093,-0.0044154783546924,0.1421149671077728,-0.2643620371818542,0.0620786510407924
1783197284020385300,1.56038525390625,0.0267120658367872,0.0860235019832849,0.2056955910682678,0.2329023480415344,-0.1890009492635727,-0.0317681692540645
1783197284030322200,1.570322265625,0.2130903409620747,0.092892218708992,0.1368020875841379,0.2814837396144867,-0.2168693244457245,-0.1368410587310791
1783197284040259000,1.580259033203125,0.3228038940798491,0.0273454683694988,-0.1570107628762722,0.2306399494409561,-0.3274894654750824,-0.1370736360549926
1783197284050195200,1.5901953125,0.2761052347363903,-0.1533341201901435,-0.0521703322201967,0.1461690068244934,-0.3433483242988586,-0.0969131588935852
1783197284060132400,1.60013232421875,0.4097544843127951,-0.5327336155865341,0.3446878821730613,0.1060749962925911,-0.3064376711845398,-0.0470660664141178
1783197284070069000,1.610069091796875,0.5152260159466415,-0.6999534916575998,0.5230056369721889,0.1142668798565864,-0.2460369318723678,0.0267173442989587
1783197284080006100,1.620006103515625,0.5700219108974561,-0.8699319457218051,0.4408423175483942,0.171151116490364,-0.1545252501964569,0.1355697810649871
1783197284089942300,1.6299423828125,0.8013909089371561,-1.215372107566893,0.2596183199137449,0.2375458627939224,-0.1438784599304199,0.2574320435523987
1783197284099879200,1.639879150390625,0.9134399557977916,-1.0470843830686063,0.1433528244018554,0.3061833679676056,-0.0846806615591049,0.3165020942687988
1783197284109816000,1.649816162109375,0.8001766377765684,-0.8274019868977367,0.4322235422849655,0.3646911382675171,0.005760293919593,0.315060019493103
1783197284119753200,1.659753173828125,0.5082062733776868,-0.5584586431473493,0.4777700724512338,0.3706110119819641,0.0601407513022422,0.3279455304145813
1783197284129689300,1.669689453125,0.6159381876915693,-0.5589771140635014,0.2717728680878877,0.3689968883991241,0.0525488778948783,0.3683659136295318
1783197284139626200,1.679626220703125,0.4777109261425212,-0.5685568433135748,0.0600952800005674,0.3461662232875824,0.0175265669822692,0.3581913411617279
1783197284149563100,1.689563232421875,0.1476848987894132,0.0051069677501916,-0.1413093358755111,0.29512619972229,-0.0133690321817994,0.2933934330940246
1783197284159500000,1.6995,0.050231728840433,0.4145620672576129,0.0208586636334657,0.2537258267402649,-0.0023382911458611,0.1599874943494796
1783197284169437200,1.709437255859375,0.067246284266375,0.6848644244015216,0.2585305246770382,0.2504778504371643,-0.0344634726643562,-0.0121826808899641
1783197284179373300,1.719373291015625,-0.0654748176144436,0.867062673895806,0.364733475857973,0.2810989618301391,0.1091618686914444,-0.1159364134073257
1783197284189310000,1.72931005859375,-0.5640537962732837,0.5865671317785978,0.3718172966390848,0.2610376477241516,0.1714034080505371,-0.1346664130687713
1783197284199247000,1.7392470703125,-0.1830947964752093,0.5043251941606403,0.2619236742466688,0.2055565416812896,0.211886316537857,-0.0544850081205368
1783197284209184300,1.749184326171875,0.1710332603467628,0.6785192931585013,0.3096113080948591,0.2702039778232574,0.0543278567492961,-0.0883359163999557
1783197284219120400,1.759120361328125,-0.8340152675576508,0.5678121624261141,-0.6662544164776801,0.3951086401939392,0.0767554864287376,-0.1513928174972534
1783197284229057000,1.76905712890625,-0.2807015495507046,0.8870401707805693,-0.1416238086521625,0.4640650749206543,0.0839984863996505,-0.1621535867452621
1783197284238994200,1.778994140625,-0.2469082567486911,0.8768333956733345,0.3376654361903667,0.4640558063983917,0.1720282435417175,-0.134214162826538
1783197284248931000,1.78893115234375,-0.3961879869814962,0.3070850044876337,0.4869599256008863,0.3842824101448059,0.2475006282329559,-0.0181855671107769
1783197284258868200,1.7988681640625,-0.4732025453399867,0.0724932815417647,0.6619862376391887,0.3710968792438507,0.4024026691913605,0.0958774536848068
1783197284268804000,1.80880419921875,-0.5113298122256994,0.0878447260610759,1.0783844342827795,0.4421265721321106,0.6774883270263672,0.1179297566413879
1783197284278741200,1.8187412109375,-0.5070435862738639,0.071926733700186,1.0823387248665093,0.5604775547981262,0.9056932330131532,0.1034446582198143
1783197284288678100,1.82867822265625,-0.5395626578889787,0.2561405608005822,0.5901549271374941,0.7273349761962891,0.9624417424201964,0.1425257325172424
1783197284298615300,1.838615234375,-0.3656226067174226,0.3671224168211221,-0.0325122765481472,0.923684060573578,0.9398555159568788,0.202137291431427
1783197284308551200,1.84855126953125,-0.1428284352015703,0.3443073584228754,-0.3619201720029115,1.057790994644165,0.8026638627052307,0.1909168660640716
1783197284318488000,1.858488037109375,0.0385134897243231,0.374379256081581,-0.6529337471336126,1.0021758079528809,0.5833523273468018,0.0612232834100723
1783197284328425200,1.86842529296875,0.2810980380550026,0.5609039904728531,-0.4240776452302932,0.7606185674667358,0.3522919714450836,-0.1485784202814102
1783197284338362000,1.878362060546875,0.5799735787324607,0.5633860165469348,-0.0066015902221202,0.4533798396587372,0.1065904796123504,-0.3707708120346069
1783197284348299300,1.88829931640625,0.7309518565114587,0.2284070429615676,0.0351204132199287,0.164440706372261,-0.1263951063156128,-0.527313232421875
1783197284358235100,1.898235107421875,0.8365001431759447,-0.3027303164094686,-0.0760129801005125,-0.0546933785080909,-0.2959762215614319,-0.5830199122428894
1783197284368172300,1.90817236328125,0.9812344850640744,-0.7056099830493331,0.1466664789944887,-0.1689168959856033,-0.3499853909015655,-0.5991290807723999
1783197284378109200,1.918109130859375,1.135108265088871,-0.6357314140506088,0.4927659815311431,-0.1669564694166183,-0.2704624235630035,-0.7275261878967285
1783197284388046300,1.92804638671875,1.1402619945902377,-0.5009804137773811,0.6574380728155375,-0.0836783498525619,-0.198507010936737,-0.8428665995597839
1783197284397982200,1.937982177734375,0.6907827085345983,-0.7518776670970022,0.3181593562096357,-0.0107849696651101,-0.086685836315155,-0.8088443279266357
1783197284407919000,1.947919189453125,0.2747033503155224,-0.8223029101930558,0.3516121284782886,0.0736337751150131,0.0576194152235984,-0.6365125179290771
1783197284417856300,1.957856201171875,0.2610057556841522,-0.9400722343966365,0.5106874226689339,0.1428086012601852,0.1658212840557098,-0.3930290937423706
1783197284427793200,1.967793212890625,0.37541166786924,-1.0702077036984263,0.5756225439161062,0.1873502433300018,0.2829569578170776,-0.1448310017585754
1783197284437730000,1.97772998046875,0.5655707401748746,-1.207014905849099,0.4483744666188955,0.250638335943222,0.3117277324199676,0.0225404109805822
1783197284447666200,1.987666259765625,0.7524969680391251,-1.06842418128252,0.1885755294412374,0.3286945223808288,0.2935457825660705,0.1335667967796325
1783197284457603300,1.997603271484375,0.9019539545349776,-0.9129834442019462,0.2208803007185459,0.3251973390579223,0.1934443265199661,0.1762743443250656
1783197284467540200,2.007540283203125,0.5638369021195918,-0.5318357168987393,0.2828209163248539,0.2599757313728332,0.2261154651641845,0.1723405867815017
1783197284477477000,2.01747705078125,0.4548294514445588,-0.3686871819198131,0.6327683264613151,0.0775673612952232,0.3385297656059265,0.2300302684307098
1783197284487414000,2.0274140625,0.4273653616640716,-0.8658576820202172,0.8647843537002802,-0.1411231756210327,0.2495564520359039,0.3572066128253937
1783197284497350100,2.03735009765625,0.5342568796310574,-0.917581001125276,0.7082920617401599,-0.4240217804908752,0.2123646587133407,0.5057306885719299
1783197284507287300,2.047287353515625,0.5597841195974499,-0.5257068587549031,0.4531798210740089,-0.7184960246086121,-0.0012392345815896,0.6118408441543579
1783197284517224200,2.05722412109375,0.4694458962202071,-0.4791954290792345,0.1776104833126068,-0.92806077003479,-0.0013909162953495,0.673591673374176
1783197284527161000,2.0671611328125,0.4146256340131163,-0.2854683620937168,0.5004729026466608,-1.0265905857086182,0.0600548684597015,0.7081712484359741
1783197284537098200,2.07709814453125,0.3594214870549738,-0.0998306396700441,0.4508335502088069,-1.005326271057129,0.122331216931343,0.7353039979934692
1783197284547034400,2.087034423828125,0.6509248915292323,0.1051416055597364,0.1068757358759641,-0.9049605131149292,0.0796918794512748,0.7358587384223938
1783197284556971000,2.096970947265625,0.6199477155938744,0.2564193777419626,-0.4511135361939668,-0.790255606174469,0.005122291855514,0.6946449279785156
1783197284566908200,2.106908203125,0.4606636740233749,0.6429917604424059,-0.7928384769082069,-0.7116401791572571,-0.0860132128000259,0.6155346632003784
1783197284576845000,2.116844970703125,-0.02541583374748,1.1202234882332385,-0.97739366479218,-0.6558249592781067,-0.1158086135983467,0.5174248814582825
1783197284586782200,2.1267822265625,-0.291696662024036,1.3609361782774327,-1.0174386749327182,-0.6054192781448364,-0.2057169377803802,0.4663198888301849
1783197284596718000,2.136718017578125,-0.608739800620079,1.4511375504672526,-0.9851724821001292,-0.5941994786262512,-0.2811962366104126,0.4664767980575561
1783197284606655200,2.1466552734375,-0.6876554433595389,1.2651469229526815,-0.8670271641910076,-0.5740364193916321,-0.3497257530689239,0.529630720615387
1783197284616592100,2.156592041015625,-0.4465812995918095,0.9676976156860588,-0.582473140463233,-0.5525382161140442,-0.3450853228569031,0.5980278253555298
1783197284626529300,2.166529296875,-0.7164377395991236,0.9568975508607924,-0.0494265864700078,-0.511617124080658,-0.1986585855484008,0.6302449107170105
1783197284636466200,2.176466064453125,-0.9857892988242208,0.9125625884413718,0.2869961561828851,-0.4069210886955261,-0.0894538462162017,0.6116011738777161
1783197284646402000,2.186402099609375,-1.027203332295641,0.8147010568872094,0.0547585951477289,-0.2593345642089844,-0.0119995372369885,0.5564756393432617
1783197284656339200,2.196339111328125,-1.0096429795552044,0.7814905689418316,-0.1777624590039253,-0.136552631855011,0.0282157901674509,0.4724428951740265
1783197284666276000,2.206276123046875,-1.0690539305534212,0.732876467898488,-0.3261749048829078,-0.0968819111585617,0.009596299380064,0.3879413306713104
1783197284676213200,2.216213134765625,-0.9723541362550108,0.5187843660153448,-0.3313409093439579,-0.1600018590688705,-0.041425846517086,0.3437392115592956
1783197284686150100,2.226150146484375,-0.6907716026186943,0.1924351274788379,-0.1103998183488845,-0.2913700342178345,-0.1246861144900322,0.3458175361156463
1783197284696086300,2.236086181640625,-0.6375914357688277,-0.0601563625380396,0.0360194078862667,-0.4306411445140838,-0.1496407985687255,0.3620968461036682
1783197284706023200,2.246023193359375,-0.602284560066089,-0.030927345444262,0.1455371827036142,-0.5316162705421448,-0.1198735758662223,0.3782577216625213
1783197284715960300,2.255960205078125,-0.513434054495953,-0.1075559732250869,0.3892781345278024,-0.5649396777153015,-0.0419773086905479,0.3598525524139404
1783197284725897000,2.26589697265625,-0.4701399063663556,-0.0493790940664708,0.3407569724649191,-0.5327902436256409,0.0411372818052768,0.3545462191104889
1783197284735834000,2.275834228515625,-0.3328614334421232,-0.137089087831974,0.0670890844106674,-0.4721617996692657,0.1219148486852645,0.3749456405639648
1783197284745771300,2.285771240234375,-0.2866252405112609,-0.230930570089817,-0.085448916965723,-0.4268419742584228,0.1952338069677353,0.3672006130218506
1783197284755707100,2.29570703125,-0.2300643086493015,-0.085728245363757,-0.1777232960373163,-0.3843534588813782,0.2309242933988571,0.3542452454566955
1783197284765644000,2.30564404296875,-0.176599260443449,0.0407129725299775,-0.4359136289745569,-0.3243228793144226,0.2436315566301345,0.3506529033184051
1783197284775581200,2.315581298828125,-0.1722399692554026,0.1688089718934148,-0.6024164428174495,-0.2269463241100311,0.234475165605545,0.3290142118930816
1783197284785518000,2.32551806640625,-0.2355684590235352,0.3065630264401435,-0.8238274894118308,-0.1329593807458877,0.1903471052646637,0.2727914154529571
1783197284795455200,2.335455322265625,-0.146239960678108,0.3159578275773674,-0.9739385559022428,-0.0917791500687599,0.1420973092317581,0.2141977548599243
1783197284805391000,2.34539111328125,0.0861737606415525,0.138333973326534,-0.8743734353005885,-0.1108833327889442,0.0802366062998771,0.1922623664140701
1783197284815328000,2.355327880859375,0.1879126085530966,-0.1146109332378953,-0.9528133502870798,-0.153925821185112,0.0368769615888595,0.1929982900619506
1783197284825265200,2.36526513671875,0.2658132290311157,-0.2605604961346834,-0.9390665644854308,-0.2120770066976547,0.0363741591572761,0.1946774125099182
1783197284835202300,2.375202392578125,0.3740823189616203,-0.3785011583171784,-0.7299766548037528,-0.2731312215328216,0.0253445114940404,0.2089154571294784
1783197284845139200,2.38513916015625,0.430355702586472,-0.4191573591586202,-0.7382201670140027,-0.3125209808349609,-0.0009526065550744,0.2225407212972641
1783197284855075000,2.395074951171875,0.5122277839787304,-0.3781119398038834,-0.7844505877912044,-0.3275215327739715,-0.0401365980505943,0.2439643740653991
1783197284865012200,2.40501220703125,0.6458638818126171,-0.4694703730743378,-0.7811351796329021,-0.3394154608249664,-0.0388449653983116,0.2987847328186035
1783197284874949000,2.41494921875,0.8414256899446249,-0.6219191617973149,-0.5299836592912673,-0.3681729137897491,-0.0206559598445892,0.3957569599151611
1783197284884886300,2.42488623046875,0.9465012445308268,-0.8005887987740338,-0.3936924438387155,-0.3922295272350311,-0.0083508240059018,0.5150655508041382
1783197284894823200,2.4348232421875,1.0503576325856148,-0.9252220904629676,-0.4260463149547576,-0.4105825424194336,-0.0176932364702224,0.6114282608032227
1783197284904760000,2.444760009765625,1.1675198577415198,-0.8532982793722301,-0.5087357040792704,-0.4124630093574524,-0.0904832854866981,0.6651527285575867
1783197284914696200,2.4546962890625,1.046063369457796,-0.6791643130637705,-0.6715314800977706,-0.389128565788269,-0.1238714978098869,0.6826752424240112
1783197284924633300,2.46463330078125,0.8942072128657251,-0.4735560714853927,-0.5956406650722027,-0.3691119849681854,-0.1167552694678306,0.6915470361709595
1783197284934570000,2.474570068359375,0.8166189462725073,-0.500769657103531,-0.3367237714260816,-0.3475275039672851,-0.0588481910526752,0.7383984327316284
1783197284944507100,2.484507080078125,0.943778322372958,-0.7021145421490073,-0.0057610477447509,-0.3369832634925842,0.0038575325161218,0.8338969945907593
1783197284954444300,2.4944443359375,1.1569278096437454,-0.9657274846568704,0.2619084766775369,-0.3365716636180877,0.0376233235001564,0.9397499561309814
1783197284964381200,2.504381103515625,1.0477661547876893,-0.8851147556759417,0.2869043862462043,-0.335282415151596,0.0758362188935279,1.0417128801345823
1783197284974317000,2.514317138671875,0.9490204608101396,-0.7657960100732744,0.2135959889292716,-0.3304063379764557,0.1199435144662857,1.1985808610916138
1783197284984254200,2.524254150390625,1.1658643456194548,-1.041780358376354,0.3849713772445917,-0.3359363973140716,0.1339418888092041,1.371158003807068
1783197284994191000,2.534191162109375,1.1802898344002664,-1.0964162039272487,0.4609083694994449,-0.3286289870738983,0.1677615791559219,1.4764865636825562
1783197285004128300,2.544128173828125,1.1915460454951972,-0.978316186464578,0.4747404954969882,-0.3361316323280334,0.2150923311710357,1.586322784423828
1783197285014065200,2.554065185546875,1.3189765666872262,-1.2268205532982943,0.6378261943727731,-0.3916696012020111,0.2606801092624664,1.7242239713668823
1783197285024002000,2.564001953125,1.3365206989452243,-1.27112322088331,0.910753493192792,-0.4986628592014313,0.2468281984329223,1.8067885637283323
1783197285033938200,2.573938232421875,1.072186821751669,-1.3592944024197755,0.9797364285260438,-0.6250011324882507,0.2266463488340377,1.8545401096343996
1783197285043875300,2.583875244140625,1.117497935726866,-1.4156107484035194,0.9985779071182012,-0.7598622441291809,0.2155875712633133,1.9551697969436648
1783197285053812200,2.593812255859375,1.2666158264614642,-1.6589393200345337,1.4174053767353296,-0.9172244071960448,0.2609744668006897,2.1463119983673096
1783197285063749000,2.6037490234375,1.1272648581121116,-1.9639406501159071,1.9594810403585432,-1.0945347547531128,0.3905036747455597,2.3802239894866943
1783197285073686000,2.61368603515625,0.99639822499156,-2.1104063458412883,2.4344921694904564,-1.257871389389038,0.5751463770866394,2.667354822158813
1783197285083622100,2.6236220703125,1.1686196356769651,-2.134184111791849,2.6290239769876003,-1.4367303848266602,0.7048007845878601,2.8955743312835693
1783197285093559300,2.633559326171875,1.0922506086803971,-2.185845033185184,2.6668606634289023,-1.6136471033096311,0.8888456225395203,3.119008302688598
1783197285103496200,2.64349609375,1.4752883875139058,-2.288382447595894,2.340623214703798,-1.758547067642212,0.8951905965805054,3.299694061279297
1783197285113433000,2.65343310546875,1.6181133886493742,-1.7489602210909128,1.5007821636021137,-1.850435733795166,0.7804396152496338,3.373156785964966
1783197285123370200,2.663370361328125,1.3356363173261283,-0.8708796018354594,0.6815232972800731,-1.8540970087051392,0.6729959845542908,3.271800994873047
1783197285133307100,2.67330712890625,0.8809103627886623,-0.087155428622663,0.1241904432922601,-1.713753581047058,0.5431764721870422,3.020629644393921
1783197285143243000,2.683242919921875,0.3768162009049207,0.6225406546965241,-0.5000520468860864,-1.4288427829742432,0.4354295134544372,2.722492218017578
1783197285153180200,2.69318017578125,-0.1228603637322783,0.728906833615154,-0.8809159888118505,-1.0984431505203247,0.3783745765686035,2.5347695350646973
1783197285163117000,2.703116943359375,-0.2962077827729285,0.4636887939982116,-0.7313479431569576,-0.833273708820343,0.4290798306465149,2.5380489826202397
1783197285173054200,2.71305419921875,-0.0609577420487999,-0.0457614880912005,0.0041337388038635,-0.6644359827041626,0.5667026042938232,2.7515053749084477
1783197285182991400,2.722991455078125,0.3585404664367437,-0.7505093013532459,0.781209998434782,-0.5933724641799927,0.8178932666778564,3.1339755058288574
1783197285192928000,2.732927978515625,1.1210868270643055,-0.9135258805155754,1.28676064273715,-0.6092221736907959,1.0740033388137815,3.5401625633239746
1783197285202864000,2.742864013671875,1.7892155129812657,-0.5013702898778021,1.157536296930909,-0.5998529195785522,1.2076802253723145,3.877885103225708
1783197285212801500,2.752801513671875,2.0667245866335926,0.0598633709408342,0.1432633925527334,-0.5086755752563477,1.0531853437423706,4.007815837860107
1783197285222738400,2.762738525390625,1.633781497902423,1.3880245300807057,-1.337295482710004,-0.3918938636779785,0.8300918340682983,3.782237052917481
1783197285232675600,2.772675537109375,0.9764194129325448,2.7317797103241084,-1.7106787134915589,-0.3110737204551697,0.6323872208595276,3.2625083923339844
1783197285242612500,2.782612548828125,0.4494358122400939,3.691896661622822,-1.731251545920968,-0.2617799639701843,0.3988461196422577,2.6565237045288086
1783197285252549600,2.792549560546875,0.0049872868932783,4.405661309555173,-2.012162829232216,-0.2765360176563263,0.0918459594249725,2.071830987930298
1783197285262485500,2.802485595703125,-0.6867198430098593,5.408879151433706,-2.3248107285439965,-0.4446254372596741,-0.1944736838340759,1.4046233892440796
1783197285272422700,2.812422607421875,-0.9969485523506998,6.625809886619448,-2.058860282999277,-0.6657103896141052,-0.4187432825565338,0.8586648106575012
1783197285282359600,2.822359619140625,-0.8427489013724029,6.951314929416776,-1.9200690674245355,-0.8380776643753052,-0.5778676867485046,0.5888402462005615
1783197285292296700,2.832296630859375,-0.6911912893354892,6.396312564203143,-1.685441396382451,-0.8724932074546814,-0.6403152942657471,0.4179573953151703
1783197285302233300,2.8422333984375,-0.7005943468444049,6.106654495334625,-1.3694295735955238,-0.7622916102409363,-0.7378823757171631,0.1916150748729705
1783197285312170500,2.85217041015625,-1.1818136829666792,5.868682774561643,-1.7815075689524411,-0.4883914887905121,-0.844791054725647,-0.0446157120168209
1783197285322107600,2.862107666015625,-1.754586536540091,4.999731364309787,-2.253530622184277,-0.1413765698671341,-0.8529738783836365,-0.3037833571434021
1783197285332043500,2.87204345703125,-1.9942726600155236,4.297380967578292,-1.8425947825998064,0.2212145626544952,-0.7544204592704773,-0.6079505085945129
1783197285341980400,2.88198046875,-1.95378984297961,3.597225450542569,-1.0813386079132556,0.4610666036605835,-0.5668140649795532,-0.7655504941940308
1783197285351917600,2.89191748046875,-1.418943692218512,1.829470220349729,-0.0119756844758987,0.4981220364570617,-0.2974512577056885,-0.6287006139755249
1783197285361854500,2.9018544921875,-0.4950060155428946,-0.4985603470236063,1.2684545861959458,0.3786081671714782,-0.1040410473942756,-0.3401382863521576
1783197285371791600,2.91179150390625,0.2712869842670857,-1.8184116507187484,1.8649311175704,0.2164113074541092,-0.0739526748657226,-0.1624359786510467
1783197285381728800,2.921728759765625,0.1142640925616025,-1.6933057000167666,1.5656600017040967,0.0643410757184028,-0.0841179639101028,-0.2021839320659637
1783197285391664400,2.931664306640625,-0.4627108888767659,-1.1081672858670353,1.2110352474063637,-0.0829479321837425,-0.0970216616988182,-0.3806207478046417
1783197285401601500,2.9416015625,-0.9684630471006036,-0.615169395276159,1.02232177079916,-0.2564731240272522,-0.0928221195936203,-0.6425207853317261
1783197285411538700,2.95153857421875,-1.176794539630413,0.0018526421293616,1.0207482378721238,-0.4691066145896911,-0.0621965453028678,-0.8971701860427856
1783197285421475600,2.9614755859375,-1.0529930956557392,0.1529649946168065,1.0667384201526642,-0.7277430295944214,-0.0436292514204978,-1.0347895622253418
1783197285431412500,2.97141259765625,-0.5505260965824127,-0.0715102618537843,1.0981897894710302,-0.9948670864105223,-0.0698640346527099,-1.0564240217208862
1783197285441349600,2.981349609375,0.0744645816147327,-0.1706941280528903,0.9756453598201276,-1.1889095306396484,-0.1330296844244003,-1.0680452585220337
1783197285451285500,2.991285400390625,0.3369774539262056,0.297866655895859,0.5992588555693626,-1.27495539188385,-0.1909329742193222,-1.15890634059906
1783197285461222700,3.00122265625,0.2819520245358348,0.9359954864770174,0.0289963773816823,-1.2771857976913452,-0.2189164012670517,-1.2277911901474
1783197285471159600,3.01115966796875,0.4979892691373824,0.9532825752340256,-0.4333616064041852,-1.2198761701583862,-0.249433696269989,-1.1630654335021973
1783197285481096400,3.021096435546875,0.8462121205035597,0.5400761603690684,-0.7245254036605357,-1.1444551944732666,-0.2650544643402099,-1.045170783996582
1783197285491033600,3.03103369140625,1.029423784824088,0.17642010448426,-0.7392758135467767,-1.0612746477127075,-0.2023566514253616,-0.8617995977401733
1783197285500970500,3.040970458984375,1.2579384528785944,-0.5104772870495915,-0.6351280413299799,-0.933692455291748,-0.1882866322994232,-0.6572887897491455
1783197285510907600,3.05090771484375,1.200248772715032,-0.6152963826566934,-0.9863304199635982,-0.7082310318946838,-0.2021343410015106,-0.5603311061859131
1783197285520843500,3.060843505859375,0.7645954751770943,-0.2752083954945206,-1.342837919268012,-0.3974129855632782,-0.1395761519670486,-0.5103888511657715
1783197285530780700,3.07078076171875,0.5895343110211193,-0.5669698663830757,-1.2182266202151777,-0.0860434472560882,-0.0449668914079666,-0.4375127553939819
1783197285540717600,3.080717529296875,0.668642919049412,-0.8263485323220491,-0.8279127128988504,0.1854804754257202,0.080754280090332,-0.336118221282959
1783197285550654700,3.09065478515625,0.863251737305522,-1.3268223117515443,-0.6724731448620558,0.3537288308143616,0.1569589078426361,-0.1178698167204856
1783197285560591400,3.10059130859375,1.3943074097424746,-2.246568966478109,-0.4958849903345108,0.3530566394329071,0.1622804403305053,0.1616284102201461
1783197285570528500,3.110528564453125,1.831823505477607,-2.748243646129965,-0.1811883417993783,0.279272049665451,0.1363434195518493,0.3922309875488281
1783197285580464600,3.120464599609375,1.8272466990813607,-2.598319918905198,-0.147928461754322,0.2218777537345886,0.0681779533624649,0.5004482865333557
1783197285590401500,3.130401611328125,1.557108446457982,-2.0446721831709147,-0.3351262731015682,0.1727532297372818,-0.0239662937819957,0.5163272619247437
1783197285600338400,3.14033837890625,1.2746456959210335,-1.568789239640534,-0.4169494007855653,0.103637009859085,-0.0744254663586616,0.5118222236633301
1783197285610275600,3.150275634765625,0.920107450862974,-1.309549397650361,-0.3594342004060745,0.0200898423790931,-0.1021852791309356,0.5239320993423462
1783197285620212500,3.16021240234375,0.8973226414725184,-1.1474775519922376,-0.3798229084402322,-0.0281141735613346,-0.1464510113000869,0.573716402053833
1783197285630149600,3.170149658203125,1.050471322093159,-1.089290443700552,-0.6150619893789291,-0.0217313133180141,-0.1720965951681137,0.6496118307113647
1783197285640086500,3.18008642578125,1.1760485435687005,-1.1106243236303328,-0.73378656848073,0.0830150693655014,-0.1547053605318069,0.7905223369598389
1783197285650022400,3.1900224609375,1.2100689596574752,-1.2135346630066632,-0.855856950879097,0.2516969442367553,-0.0842491388320922,0.9343819618225098
1783197285659959600,3.19995947265625,1.1269923247810452,-1.1122890419721605,-0.8162912486881018,0.4515799582004547,0.0334897488355636,1.1097798347473145
1783197285669896700,3.209896728515625,1.201579948253557,-1.3056925760917364,-0.6118593939453363,0.6274204254150391,0.1711024940013885,1.3063243627548218
1783197285679833600,3.21983349609375,1.2564523059740662,-1.4228925759747624,-0.4388292241603135,0.7337383031845093,0.2576229870319366,1.4738459587097168
1783197285689770500,3.2297705078125,1.2178314834177493,-1.2901416634775698,-0.4623258350819349,0.7553219199180603,0.2293400913476944,1.565518856048584
1783197285699707400,3.239707275390625,1.0489113793000575,-1.0023846059247852,-0.6898837138682603,0.6683111786842346,0.0945652276277542,1.5424456596374512
1783197285709644500,3.24964453125,0.7077154308959841,-0.4896612935140729,-0.7740478517204523,0.513128399848938,-0.0511406771838665,1.4059581756591797
1783197285719580700,3.25958056640625,0.2969150542594492,0.1643422748081386,-0.6307306831538677,0.3781375288963318,-0.1490366160869598,1.1948806047439575
1783197285729517600,3.269517578125,-0.1681811223186552,0.9389267176233232,-0.4994786309123039,0.3102144300937652,-0.1939586549997329,0.930009663105011
1783197285739454500,3.279454345703125,-0.666945759742707,1.8190784440644083,-0.4086795850902796,0.2895661294460296,-0.220250979065895,0.5845729112625122
1783197285749391600,3.2893916015625,-1.2636219053424893,2.954230329099297,-0.4130459636062383,0.3022502660751343,-0.2039440721273422,0.2366838306188583
1783197285759328500,3.29932861328125,-1.811836363981664,3.778992176751792,-0.3832803554177284,0.3029533624649048,-0.1565232872962951,-0.0608146898448467
1783197285769265700,3.309265625,-1.9418632583424449,4.114266041630506,-0.0466390015780925,0.3206509947776794,-0.0669701769948005,-0.2039879411458969
1783197285779202600,3.31920263671875,-1.4196120929993687,3.3037641899988053,0.1627250488698482,0.3693319857120514,0.0465089790523052,-0.1269216537475586
1783197285789138400,3.329138427734375,-0.6311176366448402,2.1939210798740385,0.261149182742834,0.4021322429180145,0.0002801534719765,0.0747800469398498
1783197285799075600,3.33907568359375,0.022522651322931,1.5834242064535615,-0.0366395856112241,0.4491341114044189,-0.0775968059897422,0.1632414758205413
1783197285809012700,3.3490126953125,-0.1905838005237281,1.585045231784135,-0.2852139489412307,0.5597001910209656,-0.0826778262853622,0.1164981499314308
1783197285818949400,3.358949462890625,-0.7452410055615007,1.6279443161815403,-0.3867793034493923,0.6694765090942383,-0.09257572889328,-0.0418137349188327
1783197285828886500,3.368886474609375,-0.9873387202233076,1.98623110011816,-0.2591892808467149,0.7212526202201843,-0.0897386670112609,-0.2521073222160339
1783197285838823700,3.37882373046875,-0.8107738004408777,1.9230073128335177,0.032978725016117,0.7024602890014648,-0.1055330783128738,-0.3611760139465332
1783197285848760600,3.388760498046875,-0.4693038574010133,1.0316250211954117,0.1642407141298055,0.6455076932907104,-0.0709073692560195,-0.2639258801937103
1783197285858696400,3.398696533203125,0.0897680953390896,-0.0610791764713823,0.5794669443845749,0.565299391746521,-0.0236413218080997,-0.089159108698368
1783197285868633600,3.408633544921875,0.4542093102522194,-0.6173274500928819,0.930303996837139,0.4949791133403778,0.0667297095060348,0.0878144204616546
1783197285878570500,3.418570556640625,0.6248859026484191,-1.0967220550060273,1.0147054505765438,0.456398457288742,0.1045607030391693,0.2573350071907043
1783197285888507600,3.428507568359375,0.5606773421101272,-1.2339578578323125,0.7444236978292464,0.422397255897522,0.0422487594187259,0.3135157525539398
1783197285898444500,3.438444580078125,0.1122134436421096,-0.5878846441179514,0.319225524136424,0.4028912186622619,-0.0309367701411247,0.2192433178424835
1783197285908381400,3.44838134765625,-0.3782920456111431,0.1178966038450598,0.1739613131552934,0.3554434478282928,-0.0708763971924781,0.0253933928906917
1783197285918318600,3.458318603515625,-0.6717027450114488,0.6608651246547699,0.3079565266251564,0.2722276449203491,-0.1063459739089012,-0.1938260495662689
1783197285928254700,3.468254638671875,-0.801463974173367,0.9818988672569392,0.4423649970710277,0.1767355948686599,-0.0949652791023254,-0.3337340354919433
1783197285938191600,3.478191650390625,-0.7263919281847775,0.8750807067871094,0.6815607066810131,0.0969928354024887,-0.0282943788915872,-0.2950612008571625
1783197285948128500,3.48812841796875,-0.2142959538921713,0.2164022785216569,1.0169546908080578,0.0675379261374473,0.0110529474914073,-0.1072759479284286
1783197285958065400,3.4980654296875,0.1928290952324867,-0.1830845308095216,0.9521294596761464,0.1301746666431427,0.0413362830877304,0.0892381817102432
1783197285968002600,3.50800244140625,0.2385002746917307,-0.1682262766346335,0.6775614079117774,0.25043386220932,0.0412747822701931,0.1731880456209182
1783197285977939700,3.517939697265625,-0.1400229493267834,0.375748863934353,0.4190180237531661,0.3741459548473358,0.0252111256122589,0.1389272809028625
1783197285987876600,3.527876708984375,-0.5473685093343258,0.987750954286009,0.2355301728397607,0.4529328644275665,-0.0217376984655857,0.0264840293675661
1783197285997812500,3.5378125,-0.8048916105344891,1.3318497845247388,0.1954214498132467,0.4692324697971344,-0.0196439176797866,-0.1478262692689895
1783197286007749600,3.54774951171875,-0.9006640608549118,1.573936247140169,0.386332144203782,0.4324530661106109,-0.0087383547797799,-0.3308582007884979
1783197286017686500,3.5576865234375,-0.9099421768099069,1.6250328126490114,0.380451853993535,0.3728856146335602,-0.0490530207753181,-0.4883833825588226
1783197286027623700,3.567623779296875,-0.6952721289083361,1.6188246056586504,0.1537029535025358,0.3082217574119568,-0.1301451027393341,-0.6086245775222778
1783197286037560600,3.577560546875,-0.3906204890474677,1.4627186826676128,-0.0537625698477029,0.2216522246599197,-0.2304639816284179,-0.6850842237472534
1783197286047497500,3.58749755859375,-0.1066863507837057,1.293622345200181,-0.2446691725850105,0.1401917487382888,-0.2898912131786346,-0.7101334929466248
1783197286057434600,3.5974345703125,0.0622673633426427,1.1016600228648632,-0.1941647277504205,0.1342124044895172,-0.2750896513462066,-0.6903547048568726
1783197286067370800,3.607370849609375,0.1120071074150502,0.9481715888958424,-0.210562904843688,0.2119630575180053,-0.2294659465551376,-0.6411054134368896
1783197286077307400,3.617307373046875,0.1071360673125833,0.8545685185037553,-0.3501899867206812,0.333098828792572,-0.1872798800468444,-0.601917028427124
1783197286087244500,3.62724462890625,0.1061992248538881,0.8193589656956494,-0.4807043723374605,0.4420787692070007,-0.1903439313173294,-0.5879284739494324
1783197286097181400,3.637181396484375,-0.0162057232610881,0.7972839120097458,-0.6036585518330335,0.4954312145709991,-0.22100330889225,-0.6083008646965027
1783197286107118600,3.64711865234375,-0.1621129813861102,0.8147814286470413,-0.6103256085067987,0.5101377367973328,-0.2498508095741272,-0.6582961082458496
1783197286117055700,3.6570556640625,-0.2556749891154468,0.8688765183847397,-0.5458709642529487,0.5019173622131348,-0.2724407911300659,-0.7228500843048096
1783197286126992400,3.666992431640625,-0.3534690083913505,0.8296146945111453,-0.4883657007455825,0.4932611584663391,-0.2718861699104309,-0.7769953608512878
1783197286136928500,3.676928466796875,-0.4139146361995488,0.7106802720509469,-0.3998930520445108,0.4680767059326172,-0.2877519428730011,-0.867543637752533
1783197286146865700,3.68686572265625,-0.7626397379994392,0.8251832879349589,-0.4468178848266601,0.4136841595172882,-0.2063125669956207,-0.8949787616729736
1783197286156802600,3.696802490234375,-0.5226886799775063,0.5751960621323436,-0.4201274462997913,0.3343248963356018,-0.2926280200481415,-0.7925647497177124
1783197286166739500,3.706739501953125,0.3163515761353075,0.2447630614135414,-0.5895131221026182,0.3360105156898498,-0.3463843166828155,-0.7371104955673218
1783197286176676600,3.716676513671875,0.3350727162834256,0.2473943232325836,-0.6018336744934321,0.3161923289299011,-0.3944677114486694,-0.7218979597091675
1783197286186613500,3.726613525390625,-0.0930409795299172,0.2798903062330559,-0.5183405677706003,0.3413167297840118,-0.3939211666584015,-0.7547287344932556
1783197286196550700,3.736550537109375,-0.5555031543426215,0.4511509455949067,-0.5746557447105646,0.4193220734596252,-0.3642253279685974,-0.802964985370636
1783197286206486800,3.74648681640625,-0.6360021207507699,0.6793663384418934,-0.56024786465168,0.4917376935482025,-0.3714815378189087,-0.8395662903785706
1783197286216423000,3.7564228515625,-0.6101351274359971,0.7580360435962676,-0.591081978854537,0.5250317454338074,-0.3606933355331421,-0.8457815647125244
1783197286226359800,3.76635986328125,-0.5771474884610622,0.651018707292527,-0.4508925869196653,0.5342727899551392,-0.293325811624527,-0.905614137649536
1783197286236297000,3.776296875,-0.3548782906673848,0.6490710803560912,-0.0598047726213932,0.5549724698066711,-0.2146994471549987,-0.91093647480011
1783197286246233600,3.786233642578125,-0.3041730260310694,0.5167198347009718,-0.029082886621356,0.594099223613739,-0.1732804328203201,-0.8333659768104553
1783197286256170800,3.796170654296875,-0.3663208546472713,0.3421862746156752,-0.2126391265958547,0.6444305777549744,-0.1533349454402923,-0.7478223443031311
1783197286266108000,3.80610791015625,-0.3180260852187871,0.3343020241718739,-0.3304588658124208,0.7226822376251221,-0.1415105164051056,-0.6846774816513062
1783197286276044800,3.816044921875,-0.3075744685050099,0.3719958680763841,-0.3808177646964788,0.8209912776947021,-0.1404050290584564,-0.6754046082496643
1783197286285982000,3.82598193359375,-0.5411228929430246,0.5811321011178195,-0.4558043243587016,0.8597089648246765,-0.17845219373703,-0.70046067237854
1783197286295917800,3.835917724609375,-0.8255985907375812,0.771954459637776,-0.3870563668251037,0.7955206632614136,-0.237437218427658,-0.729456901550293
1783197286305854700,3.845854736328125,-0.9088010439507662,0.8621727098971604,-0.1550023456633091,0.6883958578109741,-0.2733851671218872,-0.8546778559684753
1783197286315792000,3.8557919921875,-0.7781983955286442,1.1122786667086184,0.0121983873158693,0.5796763300895691,-0.3213750422000885,-0.9939846396446228
1783197286325728800,3.865728759765625,-0.8461142861522734,1.1778330158326775,0.0484884288370609,0.4740473628044128,-0.3177255690097809,-1.1033005714416504
1783197286335665700,3.875665771484375,-0.8772224680561572,1.1421958121970297,0.2158048971503973,0.4245959222316742,-0.3151623010635376,-1.153165340423584
1783197286345602800,3.885602783203125,-0.4851066258843988,0.9298057649914174,0.0132779992461204,0.4723322093486786,-0.3309927582740783,-1.101054549217224
1783197286355539700,3.895539794921875,-0.1436133385015651,0.5046500787334517,-0.296030526509881,0.5830225348472595,-0.3479613661766052,-1.0315089225769043
1783197286365475800,3.905475830078125,-0.1490050414772704,0.3810525598330423,-0.3590162672549486,0.6824761033058167,-0.3456874191761017,-1.0014097690582275
1783197286375412700,3.915412841796875,-0.2335051332855597,0.6092468733593821,-0.1942553286433219,0.7396749258041382,-0.3437113463878631,-1.0115714073181152
1783197286385349600,3.925349609375,-0.396907752623409,0.755504113965854,-0.0531920764833688,0.7556605935096741,-0.3342868387699127,-1.066422700881958
1783197286395286800,3.935286865234375,-0.540242749107629,0.7369928902413696,0.04127250610888,0.7478735446929932,-0.3321123719215393,-1.1292554140090942
1783197286405224000,3.945223876953125,-0.5316292345412075,0.7734624530479312,0.0405079514771699,0.7014612555503845,-0.3625254034996032,-1.2064355611801147
1783197286415160800,3.955160888671875,-0.4488106660790741,0.8109316944163292,0.1477852538913488,0.6336361765861511,-0.4200259745121002,-1.2739759683609009
1783197286425097700,3.96509765625,-0.2603885736338794,0.7454385739602148,0.1033358713120222,0.5802220702171326,-0.4840821623802185,-1.305364727973938
1783197286435034600,3.97503466796875,-0.1821015476541593,0.7052567126322538,0.1062970592051744,0.5421239733695984,-0.4881245791912079,-1.3092635869979858
1783197286444970800,3.984970703125,-0.1732202855296432,0.6049027066752314,0.3675526249319314,0.514470636844635,-0.4487296640872955,-1.2861547470092771
1783197286454908000,3.994907958984375,-0.1462061314737424,0.480497305458039,0.4644593399792909,0.5218348503112793,-0.4225188493728637,-1.2399123907089231
1783197286464844800,4.0048447265625,-0.0681247110687196,0.321780103990063,0.2392062310039997,0.5501693487167358,-0.4206342995166778,-1.1776632070541382
1783197286474781700,4.01478173828125,0.0176030228383839,0.2452751025889068,0.0629378099501132,0.56928950548172,-0.4132413566112518,-1.1219635009765625
1783197286484718800,4.02471875,0.0508934076195582,0.2919213376253843,0.0967541548341512,0.5613135099411011,-0.4126562476158142,-1.0888129472732544
1783197286494655700,4.03465576171875,0.0596721592176705,0.3695873456299304,0.1293055943489074,0.538083553314209,-0.4195058941841125,-1.0939984321594238
1783197286504593000,4.044593017578125,0.0472825236460194,0.4500583280526101,0.0695750560075044,0.5162955522537231,-0.433402270078659,-1.11923348903656
1783197286514529800,4.05452978515625,0.0146504201104864,0.4745739067584276,0.0538993479698896,0.4878201782703399,-0.4606618285179138,-1.1507134437561035
1783197286524466000,4.0644658203125,0.043221457352722,0.5052801567979157,0.1235392859071493,0.4354922175407409,-0.4920330941677093,-1.1681413650512695
1783197286534402800,4.07440283203125,0.1035979563143104,0.5032207400500774,0.2752519423753023,0.3850191831588745,-0.5087060928344727,-1.1592189073562622
1783197286544340000,4.084340087890625,0.1204071984264999,0.3723787299141287,0.4253203387677669,0.348006397485733,-0.5077112317085266,-1.1231656074523926
1783197286554276600,4.094276611328125,0.1163546351000666,0.2232264254532754,0.3318868527889251,0.3232216835021972,-0.5503727197647095,-1.0642986297607422
1783197286564213800,4.1042138671875,0.1196831219356507,0.2596510531395674,0.1452747323751449,0.3025091290473938,-0.6185699701309204,-1.0265008211135864
1783197286574151000,4.11415087890625,0.1279537413485348,0.3908963833793997,0.2120610344469547,0.2902551293373108,-0.6500839591026306,-1.0216898918151855
1783197286584087800,4.124087890625,0.0628613106478005,0.462564320012927,0.353442851036787,0.2577958106994629,-0.6528860330581665,-1.0244356393814087
1783197286594025000,4.13402490234375,-0.0279895384266972,0.4072629962906241,0.4297001612871885,0.2130213975906372,-0.649341344833374,-1.0298417806625366
1783197286603961600,4.143961669921875,0.0296564487256109,0.406989878437668,0.5299959342509508,0.1539574265480041,-0.6068034172058105,-1.0443259477615356
1783197286613897700,4.153897705078125,0.0972401117201894,0.3303583280473947,0.6060369714021683,0.0811881422996521,-0.5688512325286865,-1.0527193546295166
1783197286623835000,4.1638349609375,0.2000745363160967,0.1000277696773409,0.6106950263410806,0.0175510738044977,-0.5617458820343018,-1.0191627740859983
1783197286633771800,4.173771728515625,0.3747487469810992,-0.0864420196563005,0.5099310513436794,-0.0331653654575347,-0.5912819504737854,-0.9489178657531738
1783197286643708700,4.183708740234375,0.4463823064209893,-0.1861614540368318,0.3684048578470945,-0.0673044323921203,-0.6388005018234253,-0.869928777217865
1783197286653645800,4.193645751953125,0.3820451145343482,-0.2332031911969184,0.3286497705638408,-0.089551143348217,-0.6884732246398926,-0.8066012263298035
1783197286663582700,4.203582763671875,0.2539526223022491,-0.1920962509132921,0.468336473673582,-0.1107908487319946,-0.685847282409668,-0.7534098029136658
1783197286673519900,4.213519775390625,0.0952683001905679,-0.1437672504216432,0.6145856040388346,-0.1211875602602958,-0.6711034774780273,-0.6916910409927368
1783197286683457000,4.22345703125,0.0868776345945894,-0.0833035755001008,0.4833160161405802,-0.1199545711278915,-0.676002025604248,-0.6620581150054932
1783197286693392600,4.233392578125,-0.0294999429896473,0.2462538114279508,0.4469797973901033,-0.1542587429285049,-0.641552209854126,-0.668185293674469
1783197286703329800,4.243329833984375,1.86316352337e-05,0.7100503035843372,0.7705588405609131,-0.1910346150398254,-0.6066383123397827,-0.699225902557373
1783197286713267000,4.253266845703125,-0.1518621479414403,0.4534742739759385,1.0104653287887573,-0.2005181461572647,-0.4972169697284698,-0.7705429792404175
1783197286723203800,4.263203857421875,-0.1953795834328979,0.5380966769896447,0.9278419906377792,-0.2257723361253738,-0.4516122341156006,-0.8340097069740295
1783197286733140700,4.273140625,0.0068757309883832,0.5935130053937435,0.8339514085412025,-0.2359698414802551,-0.4393151104450226,-0.8774221539497375
1783197286743077600,4.28307763671875,0.1211967413689941,0.3816623988270759,0.7070043600171804,-0.2388823628425598,-0.3925054371356964,-0.8993580341339111
1783197286753014800,4.293014892578125,0.2284945751145481,0.1962709062494337,0.7505097397446632,-0.2501238286495209,-0.3351753056049347,-0.9045759439468384
1783197286762952000,4.302951904296875,0.3295900470886379,0.0657801937691867,0.8093816154301166,-0.2579985857009887,-0.3010278642177582,-0.886653482913971
1783197286772887800,4.3128876953125,0.3941664910912513,-0.0498135399609804,0.7126900044381618,-0.2486559450626373,-0.263386458158493,-0.8685061931610107
1783197286782824700,4.32282470703125,0.3865034091174602,-0.1902276805624365,0.7091115614295005,-0.2602948546409607,-0.2015281170606613,-0.8617668747901917
1783197286792761900,4.332761962890625,0.3509774107713252,-0.2517230366192758,0.7760194440543651,-0.2848571836948395,-0.1457703113555908,-0.8501661419868469
1783197286802698800,4.34269873046875,0.4482818198993802,-0.3564167522810399,0.7314911510199308,-0.30593141913414,-0.1109385043382644,-0.8150624632835388
1783197286812635600,4.3526357421875,0.5523160487391054,-0.540351908570528,0.5894236902534962,-0.3184328377246856,-0.09670390188694,-0.7507532238960266
1783197286822572800,4.36257275390625,0.6682790541730821,-0.6430811922915279,0.4600695805877446,-0.3283818662166595,-0.0937488600611686,-0.6669132113456726
1783197286832509700,4.372509765625,0.7544621306322514,-0.7049474274873733,0.3927922801285982,-0.3156692683696747,-0.0913892984390258,-0.5865392684936523
1783197286842446800,4.38244677734375,0.7284102822698653,-0.6435460333243012,0.2382961304217576,-0.2817591428756714,-0.0997063964605331,-0.5352003574371338
1783197286852383700,4.3923837890625,0.5910774488098919,-0.4284302874818444,0.1334931091666221,-0.2260482311248779,-0.0904668271541595,-0.5261674523353577
1783197286862319600,4.402319580078125,0.420995169045031,-0.2324994268417358,0.3030599867552518,-0.169311836361885,-0.0158215556293725,-0.5336153507232666
1783197286872256800,4.4122568359375,0.2701729586105793,-0.1460362182669341,0.5776093338191509,-0.1184675693511962,0.0889549255371093,-0.5270357728004456
1783197286882194000,4.42219384765625,0.2095779854595661,-0.1521127617016434,0.6823778682827949,-0.0724287182092666,0.1709639132022857,-0.4819650650024414
1783197286892130800,4.432130859375,0.2977731323935091,-0.2332157584175467,0.6399667135328054,-0.0390135012567043,0.2149588018655777,-0.4255667626857757
1783197286902067700,4.442067626953125,0.3999482893630862,-0.2880544330641627,0.5332189879506826,-0.0258600674569606,0.2779044508934021,-0.3758252263069153
1783197286912004600,4.452004638671875,0.3802067201260477,-0.237830120345205,0.6088438455164432,-0.0466423109173774,0.3251611888408661,-0.3413977324962616
1783197286921941800,4.461941650390625,0.354260743290931,-0.2330032847106456,0.5321797080308198,-0.0915281325578689,0.3599411845207214,-0.3370096683502197
1783197286931879000,4.47187890625,0.2413034955441951,-0.1919584498777985,0.5233049121797084,-0.1935309320688247,0.3436706066131592,-0.3281189501285553
1783197286941815800,4.48181591796875,0.3565359216812998,-0.1442566413737833,0.4234621436804532,-0.286815881729126,0.2664439678192138,-0.3047488629817962
1783197286951751700,4.491751708984375,0.5283056430764496,-0.245981131966412,0.0817336958348751,-0.3219120800495147,0.1976268291473388,-0.2889054417610168
1783197286961688800,4.501688720703125,0.5183719858221709,-0.2352060554519295,-0.1053349361747503,-0.3390360474586487,0.181437537074089,-0.296915203332901
1783197286971625700,4.511625732421875,0.3914247181024402,-0.0770014066159725,-0.1247983460575342,-0.3615730702877044,0.1638654768466949,-0.3010433614253998
1783197286981563000,4.52156298828125,0.3444770159013569,-0.0406704485625028,-0.2050561241209507,-0.3897842466831207,0.1759103089570999,-0.3120000958442688
1783197286991499800,4.531499755859375,0.3564556960519403,-0.0497824141703546,-0.221482358264923,-0.4132959544658661,0.187987208366394,-0.3409068584442138
1783197287001436700,4.541436767578125,0.3050290218058973,-0.0202930656399577,-0.1913748047709464,-0.4214597940444946,0.2161221355199813,-0.3520976603031158
1783197287011373800,4.551373779296875,0.264274548221752,-0.076200319366157,-0.1711053392022848,-0.4245128333568573,0.2401664853096008,-0.3345910906791687
1783197287021310700,4.561310791015625,0.3286518894556909,-0.1971737003080546,-0.2450543725103139,-0.394098162651062,0.2394651174545288,-0.2857708632946014
1783197287031248000,4.571247802734375,0.4066819815322756,-0.2731570159226655,-0.4585539153277874,-0.3317985534667969,0.2535958588123321,-0.2302668541669845
1783197287041183700,4.581183837890625,0.3993102837204933,-0.2002769270204007,-0.5888683944582939,-0.247449904680252,0.2817024886608124,-0.1855883151292801
1783197287051120600,4.59112060546875,0.3361479442995041,-0.1313947486478835,-0.5414788667738437,-0.1436824798583984,0.3536539077758789,-0.1564482599496841
1783197287061057800,4.601057861328125,0.1836295609390363,-0.0567371286790817,-0.4577952059149742,-0.050288263708353,0.423783928155899,-0.1342030763626098
1783197287070995000,4.610994873046875,0.125966220793128,0.0511513644360005,-0.3689706750363111,0.0359073430299758,0.4754077196121216,-0.1072289943695068
1783197287080931600,4.620931640625,0.1966562888378277,0.0816007901702076,-0.4995797531992196,0.1179917901754379,0.5073387622833252,-0.0743263885378837
1783197287090868700,4.63086865234375,0.3303389292271808,0.1425979874465614,-0.6273989083826541,0.1913661360740661,0.4978443384170532,-0.0401945151388645
1783197287100805600,4.6408056640625,0.3355498688085004,0.0932207200109958,-0.6439765336960553,0.2491182088851928,0.5054378509521484,-0.0295958444476127
1783197287110742800,4.65074267578125,0.1667812289254739,-0.0030060499481856,-0.4865507602781057,0.2674415707588196,0.536912739276886,-0.0315394178032875
1783197287120680000,4.660679931640625,0.0885737892542965,-0.0585207241602242,-0.2893400889605284,0.227198913693428,0.5316761136054993,-0.0392995402216911
1783197287130615800,4.67061572265625,0.1622474579533561,-0.0693220310945063,-0.2957067013829946,0.123725526034832,0.4774869084358215,-0.0374883227050304
1783197287140552700,4.680552734375,0.3232931754341349,-0.0281463364236056,-0.3322428266197443,-0.0192930847406387,0.390689492225647,-0.0487216636538505
1783197287150489900,4.69048974609375,0.4720010605957359,-0.0139693425111472,-0.6260913329154253,-0.1117931902408599,0.2556046545505523,-0.0641027465462684
1783197287160426800,4.7004267578125,0.5020289729822427,-0.0556269024148583,-1.1129846230208873,-0.2111141979694366,0.1727147102355957,-0.1050518080592155
1783197287170363600,4.71036376953125,0.4247749798446893,0.0827823281049728,-0.9760761524528264,-0.3823653161525726,0.1039596199989318,-0.1523250490427017
1783197287180300800,4.72030078125,0.4746469354620203,-0.1036691949196159,-0.2408914076119661,-0.4879358112812042,-0.0087486431002616,-0.2081799954175949
1783197287190237700,4.73023779296875,0.4346610716301947,-0.0277795489378273,-0.5783090065211057,-0.4956216514110565,-0.0464107990264892,-0.2200981676578521
1783197287200174800,4.7401748046875,0.6216983586534858,-0.0541208817660808,-0.5096493117928504,-0.3772177696228027,-0.1073121130466461,-0.2045778781175613
1783197287210112300,4.7501123046875,0.5793037166468799,-0.0108845282383263,-0.8749000895231962,-0.219917356967926,-0.0443062521517276,-0.1842656880617141
1783197287220049400,4.76004931640625,0.4361774675425142,0.0795798057366162,-0.5399912585645914,-0.0997835546731948,0.0467410013079643,-0.178563192486763
1783197287229985500,4.769985595703125,0.3070512483485043,0.0399446185059845,-0.0341115284383296,-0.0016125170513987,0.1745668649673462,-0.1520540863275528
1783197287239922400,4.77992236328125,0.2936693868691101,-0.0600590396434068,0.1139344222158193,0.1125350445508956,0.2747201323509216,-0.1011117547750473
1783197287249859300,4.789859375,0.3472280316425487,-0.111159331479296,-0.0448094480633735,0.2396059036254882,0.3648145794868469,-0.0468003153800964
1783197287259796500,4.79979638671875,0.4125948223052546,-0.068856824735552,-0.1126619180619716,0.3356060683727264,0.4586644768714905,-0.0052427686750888
1783197287269733400,4.8097333984375,0.348368689577654,-0.0244997966147959,0.0181347916275262,0.3877758085727691,0.5425601601600647,0.027093332260847
1783197287279670500,4.81967041015625,0.2731028380500152,0.0178325207453221,0.1559048474609851,0.4140779972076416,0.5766271948814392,0.0496220514178276
1783197287289607400,4.829607421875,0.2788941713351756,0.0331361075349152,0.1039262384206056,0.4170282483100891,0.5482842326164246,0.0443117059767246
1783197287299544300,4.83954443359375,0.2523266102693043,0.111631332905218,-0.0124836339980363,0.3876291811466217,0.4860972166061401,0.0090298987925052
1783197287309481500,4.8494814453125,0.1909625889745541,0.2507133481200784,0.1027998647391796,0.3280082046985626,0.4321753978729248,-0.0586807020008564
1783197287319418400,4.85941845703125,0.0747448963934555,0.2783300346463918,0.3027858459889888,0.2553046345710754,0.3820965886116028,-0.1359057873487472
1783197287329354500,4.8693544921875,-0.0058274640444666,0.2184099650822579,0.4758130931645631,0.1843438893556594,0.3419267833232879,-0.1976586282253265
1783197287339291400,4.87929150390625,-0.0990872739568352,0.1188711479656398,0.7092267122417688,0.1286046206951141,0.3155113458633423,-0.2429639995098114
1783197287349228300,4.889228271484375,-0.2993429024608806,-0.1042035209920257,0.8594038297057152,0.0767968222498893,0.3693926930427551,-0.2575101852416992
1783197287359165400,4.89916552734375,-0.248682317216508,-0.1660042166709899,0.988702994313836,0.0032087909057736,0.4134182631969452,-0.2456897944211959
1783197287369102600,4.9091025390625,-0.1512927505556494,-0.1543950274199247,1.0260188717514276,-0.0608663335442543,0.4448089301586151,-0.2123627364635467
1783197287379039500,4.91903955078125,-0.1417888995533809,-0.1732820256542414,0.8517103525936603,-0.1016984060406684,0.4710042774677276,-0.1917773485183715
1783197287388976400,4.928976318359375,-0.1479432209320366,-0.0379109207212924,0.5974088437885046,-0.1215144544839859,0.4720426499843597,-0.2094173282384872
1783197287398913300,4.938913330078125,-0.209404674719274,0.1824460867755115,0.4117290357887744,-0.1288936585187912,0.4652585685253143,-0.2545589208602905
1783197287408850400,4.948850341796875,-0.2696050225295126,0.335469314385578,0.2502577863723039,-0.1254429966211319,0.4566704034805298,-0.3090386986732483
1783197287418786600,4.95878662109375,-0.2641607125837356,0.367657838872075,0.129966688606143,-0.1066672205924987,0.4378079175949096,-0.3501989841461181
1783197287428723500,4.968723388671875,-0.2182350469067692,0.236304518213123,-0.1180313361406326,-0.0856455564498901,0.3934468626976013,-0.3639347851276397
1783197287438660400,4.978660400390625,-0.1248711920980364,0.0805365219395607,-0.3597884206712246,-0.0896994695067405,0.3313270509243011,-0.3621719777584076
1783197287448597500,4.988597412109375,-0.0727849579647183,-0.0623042612869292,-0.5002238963216543,-0.1313686221837997,0.2762409150600433,-0.359675794839859
1783197287458534400,4.998534423828125,-0.0663818129241466,-0.1688023229569196,-0.5994236907422542,-0.2164308726787567,0.2270219922065735,-0.3470812141895294
1783197287468471600,5.008471435546875,0.000136558926478,-0.207083684425801,-0.6960311305820942,-0.3312823474407196,0.1718655377626419,-0.3326261341571808
1783197287478408400,5.018408447265625,0.0406851346749812,-0.2097735810969024,-0.8757949925363063,-0.4311791062355041,0.1270997673273086,-0.317505419254303
1783197287488345300,5.028345458984375,0.0622325842902064,-0.1463821821603924,-1.2348439930170774,-0.5104440450668335,0.0539890751242637,-0.3025209009647369
1783197287498282500,5.038282470703125,0.1528446561727672,-0.1301313045833259,-1.4859008208125828,-0.5460731983184814,-0.0389784015715122,-0.296869695186615
1783197287508219400,5.048219482421875,0.0890776288568973,-0.0264404092885553,-1.7858295238047837,-0.5299475193023682,-0.1603309363126754,-0.3028122782707214
1783197287518155300,5.0581552734375,0.097600761726126,0.1116428041473031,-1.919152537101507,-0.4769201874732971,-0.2789570689201355,-0.3268621265888214
1783197287528092400,5.068092529296875,-0.0032213731992989,0.2076025206681341,-1.8188035726457836,-0.4044316112995147,-0.3565597236156463,-0.3601548373699188
1783197287538029300,5.078029296875,-0.1411586753584444,0.2624548585139215,-1.5892156493365763,-0.3193058967590332,-0.4021858870983124,-0.3916488885879516
1783197287547966500,5.087966552734375,-0.232172679105401,0.3076528675034642,-1.242204292652011,-0.2311991900205612,-0.4039158821105957,-0.4087077677249908
1783197287557903600,5.097903564453125,-0.3525255900613963,0.2762877151638269,-0.7849561992257833,-0.1327574551105499,-0.3668226301670074,-0.4086135327816009
1783197287567840300,5.10784033203125,-0.4658578816656023,0.2287150129321962,-0.4648100531131028,-0.014597806148231,-0.2981634140014648,-0.3952007889747619
1783197287577777400,5.11777734375,-0.4924290046617388,0.1411960116941481,-0.157661920261383,0.0987796187400817,-0.2258689552545547,-0.3812056183815002
1783197287587714600,5.127714599609375,-0.554101105524972,0.1201915829144418,0.0654272886782884,0.1726714223623275,-0.1470194160938263,-0.3702128827571869
1783197287597651500,5.1376513671875,-0.5968034983064979,0.1340192519325763,0.4029161992579698,0.2242199778556823,-0.073872834444046,-0.3397300839424133
1783197287607588600,5.147588623046875,-0.5930214224845171,0.1061010251764208,0.5794885716944933,0.2513501346111297,0.0007795584388077,-0.3206538558006286
1783197287617524500,5.1575244140625,-0.6302046134531497,0.0845695037826895,0.8506669810205697,0.2792282700538635,0.034606397151947,-0.3000603914260864
1783197287627461400,5.16746142578125,-0.5987589432232081,0.0880816035568714,0.6721072341591119,0.2846198379993438,0.0833851173520088,-0.2902751266956329
1783197287637398500,5.1773984375,-0.6078001086171716,0.072255308067426,0.799572753599286,0.2471902966499328,0.0976505652070045,-0.3049423396587372
1783197287647335400,5.18733544921875,-0.6456154600095003,0.1131019899796694,0.8251537695795297,0.1829266250133514,0.119625374674797,-0.3224334418773651
1783197287657272300,5.197272216796875,-0.6648780135579406,0.1045014079600572,0.900426744967699,0.0988718122243881,0.1217434406280517,-0.3294806778430938
1783197287667209500,5.20720947265625,-0.6956675579667091,0.0026501491826027,0.8751210387974977,-0.0006363969296216,0.1038587167859077,-0.3191627860069275
1783197287677146400,5.217146484375,-0.6221531166836619,-0.0991221260745078,0.7445107915908098,-0.1136755943298339,0.0487870685756206,-0.3012130260467529
1783197287687083500,5.22708349609375,-0.5150089391298592,-0.0850868056550622,0.6463900245785713,-0.208621010184288,-0.0014697099104523,-0.2876215875148773
1783197287697020400,5.2370205078125,-0.5241256539780647,-0.0665947250224649,0.6319196006774902,-0.2785881459712982,0.0010043787769973,-0.2783509194850921
1783197287706957300,5.246957275390625,-0.589065962857008,-0.0102911654550582,0.7205278584569692,-0.3071265816688537,0.0318808034062385,-0.267225831747055
1783197287716894500,5.25689453125,-0.5602304020602256,0.0018163287069648,0.6834808610886335,-0.3017556071281433,0.0706543400883674,-0.258165955543518
1783197287726830600,5.26683056640625,-0.4371744426906108,0.0865152310229837,0.5381219575613737,-0.2954953014850616,0.1018724516034126,-0.2536002099514007
1783197287736767500,5.276767578125,-0.3736113404490053,0.1612627577649429,0.471219920155406,-0.2719005644321441,0.1343547850847244,-0.2532320022583008
1783197287746704400,5.286704345703125,-0.32724311863631,0.1593163729375228,0.280360663691163,-0.2381694912910461,0.1417541056871414,-0.2473988831043243
1783197287756641300,5.296641357421875,-0.1994911834701895,0.2222373778833076,0.1257826809197664,-0.2155566662549972,0.1461865901947021,-0.2432152032852172
1783197287766578400,5.306578369140625,-0.1095874790526926,0.2241383891990408,0.0709960287213325,-0.2242646813392639,0.14363394677639,-0.2400343120098114
1783197287776515600,5.316515625,-0.0755015234470367,0.1950512282613664,-0.071657122978568,-0.2409528344869613,0.1200652346014976,-0.2491115927696228
1783197287786452500,5.326452392578125,0.0541813797816634,0.3117751350652426,-0.2600099495798349,-0.2571184635162353,0.0932117849588394,-0.2796287536621094
1783197287796389400,5.336389404296875,0.0444138728745281,0.4170614828579128,-0.4063771533668041,-0.2841401994228363,0.0660302117466926,-0.3125326931476593
1783197287806326300,5.346326171875,0.0405217608068138,0.3862827155714854,-0.5241863711893558,-0.3269049823284149,0.0435209050774574,-0.3320059776306152
1783197287816263400,5.356263427734375,0.0969067881125956,0.3895889175100251,-0.589125584089756,-0.3691831529140472,0.0037564260419458,-0.345826506614685
1783197287826200600,5.36620068359375,0.1505802183721214,0.3859378111239522,-0.6672030955046415,-0.3904130756855011,-0.0358024351298809,-0.3608121275901794
1783197287836136400,5.376136474609375,0.1410853178612887,0.3582943096559494,-0.7006395011603832,-0.3969480395317077,-0.0671902596950531,-0.3835787773132324
1783197287846073300,5.3860732421875,0.0976231927536428,0.3827965174235403,-0.6490601205706596,-0.4039044976234436,-0.0747858583927154,-0.419765830039978
1783197287856010500,5.396010498046875,0.0551920911941677,0.3963770798128098,-0.6133522628515958,-0.3920143544673919,-0.0726012289524078,-0.4583951234817505
1783197287865947400,5.405947509765625,0.0783092743441462,0.3886670899573713,-0.6690677203327416,-0.3547460734844208,-0.0619307421147823,-0.4863481819629669
1783197287875884500,5.415884521484375,0.1441476280413568,0.3535259992755949,-0.7193629063308239,-0.2944972813129425,-0.0592952147126197,-0.4944618940353393
1783197287885821400,5.425821533203125,0.1996047999124973,0.2745096361080184,-0.8316530684709549,-0.2324770241975784,-0.0625581219792366,-0.4871962666511535
1783197287895758300,5.43575830078125,0.2804026031367481,0.2328393628532067,-0.9073784638017416,-0.1910581588745117,-0.0611366815865039,-0.4822281897068023
1783197287905695500,5.445695556640625,0.3441678038217127,0.2216907403185963,-0.8566992469221353,-0.1541416943073272,-0.0352920368313789,-0.4835698902606964
1783197287915632400,5.45563232421875,0.3803645410362631,0.2290115481933578,-0.8038993846267461,-0.1053905934095382,-0.0138886468484997,-0.489881157875061
1783197287925569500,5.465569580078125,0.4174719633549452,0.2648861407814547,-0.9222609756350516,-0.0282404106110334,-0.0156450010836124,-0.5016608238220215
1783197287935505400,5.47550537109375,0.4810128537647425,0.2925142620172351,-0.979639397892356,0.0555621273815631,-0.0047491053119301,-0.5081368684768677
1783197287945442600,5.485442626953125,0.5470711338229477,0.2817674617491662,-0.954787865230441,0.1319194883108139,-0.0103374822065234,-0.5009833574295044
1783197287955379500,5.49537939453125,0.6137402392558753,0.2269377741266041,-0.9041320292264222,0.1896445751190185,-0.0252433307468891,-0.4901678562164306
1783197287965316600,5.505316650390625,0.6875340089369565,0.2288910270862281,-0.7122317392766475,0.229508638381958,-0.0184804983437061,-0.495369553565979
1783197287975253200,5.515253173828125,0.6514109214805066,0.2025931315409019,-0.4706687160134315,0.2612110078334808,-0.0044040232896804,-0.502617359161377
1783197287985190400,5.5251904296875,0.5942672578271478,0.118064918749826,-0.3322609467983246,0.2883427739143371,0.0151222730055451,-0.5022556781768799
1783197287995127600,5.53512744140625,0.6389714188851415,0.0590603109296411,-0.1993260560363531,0.2969658672809601,0.0289131663739681,-0.4900946915149688
1783197288005064400,5.545064453125,0.6507114679742604,-0.0110450525622814,-0.0152045833945274,0.2833616435527801,0.0320317298173904,-0.4650410115718841
1783197288015001600,5.555001708984375,0.6040102148149162,-0.0804067946126684,0.0469628267049789,0.2621769905090332,0.023662731051445,-0.4386269152164459
1783197288024938200,5.564938232421875,0.6161820063848048,-0.1004308888518251,0.169029117450118,0.2279479354619979,0.020935121923685,-0.413662701845169
1783197288034875400,5.57487548828125,0.539339589722827,-0.083224263186194,0.241044552347064,0.2010634988546371,0.0436054617166519,-0.4004174172878265
1783197288044812500,5.5848125,0.4499857742730528,-0.0139359334318898,0.2667225989609956,0.1800583451986313,0.0475714430212974,-0.4059677124023437
1783197288054748400,5.59474853515625,0.4123756631292402,0.026965711804293,0.2550871062248945,0.1680457592010498,0.0618958473205566,-0.4096057116985321
1783197288064685300,5.604685302734375,0.4057373210933059,-0.0177484226584434,0.296726107558608,0.1463798731565475,0.0785368829965591,-0.4080096781253814
1783197288074622500,5.61462255859375,0.4103747716356068,-0.0739894566499628,0.2577747378736734,0.1310471296310424,0.0861778184771537,-0.3901804387569427
1783197288084559400,5.624559326171875,0.4480422389898449,-0.1878703585802577,0.1761000787496566,0.1222504451870918,0.1014198809862136,-0.3599905669689178
1783197288094496500,5.63449658203125,0.5031469441615045,-0.2634423351813107,0.0979623615801334,0.1072280779480934,0.1036608070135116,-0.3210666477680206
1783197288104433700,5.64443359375,0.5304404631480575,-0.32544578689076,-0.00432663102746,0.0982098132371902,0.0863928720355033,-0.2751825153827667
1783197288114370300,5.654370361328125,0.5228786495916545,-0.3136659172479063,-0.0690115769058466,0.1017676815390586,0.0636198297142982,-0.2440440654754638
1783197288124307500,5.664307373046875,0.4770154546916484,-0.3005930486524477,-0.0301426248073577,0.0904822722077369,0.0762932822108268,-0.2258165925741195
1783197288134244400,5.674244384765625,0.3488553771160543,-0.3826247045205906,-0.0831675280302763,0.0780571550130844,0.0725987553596496,-0.2199652791023254
1783197288144181500,5.684181396484375,0.3821239519242197,-0.302729074300453,-0.1802840864360332,0.0692154616117477,0.0362023971974849,-0.2024182379245758
1783197288154118700,5.69411865234375,0.4266741645295173,-0.3050298620561137,-0.3081944270342588,0.0509096831083297,-0.0205771252512931,-0.1814301609992981
1783197288164055300,5.70405517578125,0.3797527658134698,-0.3199335993405431,-0.3924778073519468,0.0001972392201423,-0.0890864133834838,-0.1549796462059021
1783197288173991400,5.713991455078125,0.4039208462558686,-0.2498029552768916,-0.2907259903609752,-0.0585608780384063,-0.1533933579921722,-0.1295986324548721
1783197288183928600,5.723928466796875,0.3252810978483408,-0.1948810227936133,-0.1787280891656875,-0.1029989197850227,-0.1947740912437439,-0.099403977394104
1783197288193865500,5.733865478515625,0.2355503388449549,-0.1645931077640503,-0.0913987652808427,-0.1167946308851242,-0.2144797593355178,-0.0647711977362632
1783197288203802400,5.74380224609375,0.1652647964805364,-0.098065840220917,-0.0363777198046445,-0.1053986996412277,-0.2129588276147842,-0.0360069274902343
1783197288213738800,5.75373876953125,0.1515266323767602,-0.0281818461284041,0.0171843590348958,-0.0841311290860176,-0.2177071422338485,-0.0152069078758358
1783197288223675400,5.76367529296875,0.1285910163387656,0.0530408497107215,0.0404933384299278,-0.0531702861189842,-0.197963535785675,-0.0115131037309765
1783197288233612500,5.773612548828125,0.1583014602739363,0.2031895630640909,0.1121995612472295,-0.0316372737288475,-0.1661727279424667,-0.0301993116736412
1783197288243549700,5.7835498046875,0.1423378021404147,0.3184771169219166,0.1728296787768602,0.0088592860847711,-0.1358688771724701,-0.0615796037018299
1783197288253486600,5.793486572265625,0.1878740301083773,0.2683757364628836,0.1229524259299039,0.0457248240709304,-0.1140097603201866,-0.0766917914152145
1783197288263423700,5.803423828125,0.2553906922813505,0.2063499085248447,0.0980272435098886,0.0638697445392608,-0.1067518442869186,-0.0757365152239799
1783197288273360400,5.8133603515625,0.3319418709117919,0.114714101351425,0.1164373449474573,0.0627016276121139,-0.1146214604377746,-0.0690426677465438
1783197288283297500,5.823297607421875,0.3625669454738497,0.0516345448430627,0.2103723507076501,0.0465106666088104,-0.1044316738843917,-0.0662450194358825
1783197288293233700,5.833233642578125,0.3335195685572922,0.0712186219634488,0.2885942390292882,0.0138197541236877,-0.0981797352433204,-0.0798579007387161
1783197288303170600,5.843170654296875,0.3413435401812195,0.129747675560601,0.3138163585692644,-0.015088059939444,-0.0903226062655448,-0.1028641536831855
1783197288313107500,5.853107421875,0.3532589458372444,0.1135596340866759,0.3458656937807798,-0.0250021144747734,-0.0640342012047767,-0.1195374131202697
1783197288323044600,5.863044677734375,0.3557058275327086,0.0405435890461318,0.2756213602095842,-0.0037165358662605,-0.0591880455613136,-0.1174098178744316
1783197288332981500,5.8729814453125,0.4320302116699516,-0.0534384707261808,0.1058025536864995,0.0184714142233133,-0.0444645397365093,-0.1156458407640457
1783197288342918700,5.882918701171875,0.4901032651279121,-0.0931260639974847,0.1203220774263143,0.0563753880560398,-0.008528109639883,-0.0992506220936775
1783197288352855800,5.892855712890625,0.4663349245928228,-0.2075560146452859,0.1945458360224962,0.0967608839273452,0.0563106797635555,-0.0605341456830501
1783197288362792400,5.90279248046875,0.4510804376419633,-0.3420030635358765,0.2584796712726354,0.1118101477622985,0.115399569272995,-0.0309546813368797
1783197288372729600,5.9127294921875,0.3745056589402258,-0.3775161293352022,0.3208031487166881,0.0919506400823593,0.1356983333826065,0.0014743835199624
1783197288382666500,5.92266650390625,0.4652335392221808,-0.3540220391642302,0.2848679119825363,0.0567316710948944,0.1266095042228698,0.0318725034594535
1783197288392603600,5.932603759765625,0.5205819169566035,-0.3822647121017798,0.1428565653175115,0.0096232360228896,0.0922992229461669,0.053842831403017
1783197288402540800,5.942540771484375,0.4499455883931368,-0.3990231738748028,0.079708327487111,-0.0327172987163066,0.0785594433546066,0.0833509191870689
1783197288412476400,5.952476318359375,0.4074273200068622,-0.3855487022085115,0.1082376718789339,-0.0687528550624847,0.0698143243789672,0.1204425916075706
1783197288422413600,5.96241357421875,0.3653397711880505,-0.3685775840654969,0.0754793116152286,-0.0977530851960182,0.0412013195455074,0.1568474620580673
1783197288432350700,5.972350830078125,0.3140995594248175,-0.2914579761636443,-0.0728033704042434,-0.1124022230505943,-0.0087712248787283,0.1838303357362747
1783197288442287600,5.98228759765625,0.2933884875684976,-0.1191295797061175,-0.1100397528648376,-0.133278489112854,-0.0454181879758834,0.1884863376617431
1783197288452224500,5.992224609375,0.1711401182547211,0.0559243144588544,0.0406137499392032,-0.148604154586792,-0.026432242244482,0.1763978153467178
1783197288462161700,6.00216162109375,-0.0156917823895812,0.1154948581992648,0.1436170282959938,-0.139672189950943,-0.0123001774773001,0.1780716180801391
1783197288472098600,6.0120986328125,-0.0565695170272141,0.1436487934074364,0.1045920088529586,-0.1074921116232872,-0.0041233785450458,0.1806495040655136
1783197288482035700,6.02203564453125,-0.0396605408675968,0.1913090277920477,0.0948655646085739,-0.0575897991657257,0.0143605573102831,0.1877098083496093
1783197288491972600,6.03197265625,-0.0953608007796108,0.1796929886750876,0.1320446639239788,-0.0187438204884529,0.0459600053727626,0.2031683474779129
1783197288501909500,6.041909423828125,-0.1569026263266801,0.1688317682471126,0.1748193912893533,-0.0045425137504935,0.0752164348959922,0.2167219668626785
1783197288511846700,6.0518466796875,-0.1781380143180489,0.1761652529403567,0.1893067663252353,-0.0218742378056049,0.0725721269845962,0.2211002707481384
1783197288521783600,6.061783447265625,-0.1847653235033154,0.1990950785583816,0.1639490377068519,-0.0635577663779258,0.0522926822304725,0.2133600562810897
1783197288531720700,6.071720703125,-0.1964157215476036,0.210234695802629,0.1183206744760274,-0.1181634068489074,0.010832155123353,0.1963111609220504
1783197288541656600,6.081656494140625,-0.2024647924534976,0.2887706185095012,0.0229471603453159,-0.1486571282148361,-0.0328146591782569,0.1666153222322464
1783197288551593500,6.091593505859375,-0.2192804643064737,0.3133466952309012,-0.018862521380186,-0.1737088114023208,-0.0309176370501518,0.1294950693845749
1783197288561530600,6.101530517578125,-0.3345603097818792,0.2907379913260228,0.140406834077835,-0.195198655128479,-0.0258797332644462,0.1019681021571159
1783197288571467500,6.111467529296875,-0.3206542417652905,0.2578022469351068,0.2381459082961082,-0.1861131936311721,-0.0112796667963266,0.0912293642759323
1783197288581404700,6.12140478515625,-0.2203960243329405,0.1729247366491705,0.2082885301709175,-0.1502366811037063,0.0198979601263999,0.1100933328270912
1783197288591341600,6.131341552734375,-0.2234125956751406,0.0706181718522682,0.2137374432265758,-0.0958991050720214,0.0591852962970733,0.1341474503278732
1783197288601278500,6.141278564453125,-0.2186320103351026,0.0486969570212066,0.1365437289088964,-0.042547732591629,0.0953923016786575,0.1538958549499511
1783197288611215600,6.151215576171875,-0.2502454383473843,0.0929293723816052,0.0856686971962451,-0.0187150612473487,0.117043100297451,0.1536271870136261
1783197288621152500,6.161152587890625,-0.2742562093362212,0.1508402575477957,0.0921434461683034,-0.0195691362023353,0.1214335858821868,0.1352306008338928
1783197288631089700,6.171089599609375,-0.3000942688174545,0.1565787646671757,0.0784469292491674,-0.0402858704328537,0.1192419305443763,0.1136433184146881
1783197288641026600,6.181026611328125,-0.3197121386095881,0.1235508850133977,0.0329600203156471,-0.0727029293775558,0.1044091954827308,0.09489706158638
1783197288650963500,6.19096337890625,-0.2804575481943786,0.1122773026585578,-0.0021416882038116,-0.1063456237316131,0.0863953456282615,0.0877828896045684
1783197288660899600,6.200899658203125,-0.2602857708465307,0.062529119551368,-0.063527592536807,-0.1254511326551437,0.0847172886133194,0.0862204134464263
1783197288670836700,6.210836669921875,-0.290656943712756,0.0138771707156673,-0.1498684899061918,-0.1142915114760398,0.0829203724861145,0.095499463379383
1783197288680773400,6.2207734375,-0.2570494192738086,0.0550952888893429,-0.2668593770831823,-0.0927574634552002,0.0786121636629104,0.0945431217551231
1783197288690710500,6.23071044921875,-0.2421148849923163,0.1319204164898023,-0.3481336387127637,-0.0841758251190185,0.0632701590657234,0.088698461651802
1783197288700647700,6.240647705078125,-0.2972978430319577,0.1584102178780362,-0.438843252685666,-0.0953477844595909,0.0492797754704952,0.0789837837219238
1783197288710584600,6.25058447265625,-0.2698185922149568,0.1493873918583616,-0.4862374565452337,-0.1175722181797027,0.0300969406962394,0.0724942609667778
1783197288720521700,6.260521728515625,-0.2227691832050681,0.1672565913522616,-0.4973901342004537,-0.1335621029138565,0.01256082393229,0.0703416317701339
1783197288730458600,6.270458740234375,-0.1996862676508724,0.1936851640725508,-0.5226736285388469,-0.1187554150819778,-0.0045643979683518,0.0701634734869003
1783197288740395500,6.2803955078125,-0.2902963667720556,0.1824611382141709,-0.557920298486948,-0.0949243903160095,-0.0126215256750583,0.0761015266180038
1783197288750332700,6.290332763671875,-0.2938861348923295,0.2545789740396663,-0.5272235469281673,-0.0634289607405662,-0.0068350611254572,0.0623001866042614
1783197288760269600,6.30026953125,-0.2980931581281125,0.3550869649820029,-0.4136912757724523,-0.0295719280838966,0.0198788419365882,0.03391994535923
1783197288770206700,6.310206787109375,-0.3227883311845362,0.3305201310129836,-0.3918658129334449,0.0105039458721876,0.0372314304113388,0.0170872751623392
1783197288780143600,6.3201435546875,-0.2342627832524478,0.2960326454017311,-0.4652496135741472,0.0479128360748291,0.024603521451354,0.0063001411035656
1783197288790080500,6.33008056640625,-0.1234429128605872,0.2821726450165733,-0.5298287609905005,0.0818662717938423,0.00652093347162,0.0011985292658209
1783197288800016600,6.3400166015625,-0.062926630968973,0.2369773759733885,-0.4745277295291423,0.1044839695096015,0.0114994468167424,-0.0068546030670404
1783197288809953800,6.349953857421875,-0.0936870223484933,0.2100750482615083,-0.3754308109611272,0.118052065372467,0.0388982594013214,-0.0122374230995774
1783197288819890400,6.359890380859375,-0.0961897258844226,0.2364762215182185,-0.2472632807314395,0.1566766947507858,0.0623878724873065,-0.0116850836202502
1783197288829827600,6.36982763671875,-0.0727124772503972,0.1855707946673035,-0.2154588601917028,0.1841313987970352,0.0827855914831161,-0.0123994508758187
1783197288839764500,6.379764404296875,-0.1146215276971459,0.2121146277977153,-0.1462847862005233,0.2007428556680679,0.0965788960456848,-0.0237844642251729
1783197288849701600,6.38970166015625,-0.0859788591239601,0.1836623672300949,-0.1047130048841238,0.1969027519226074,0.0923198834061622,-0.0393430516123771
1783197288859638500,6.399638427734375,-0.0644640696693211,0.1524073242014273,-0.0033107319831848,0.1766206473112106,0.0937041938304901,-0.058471206575632
1783197288869575400,6.409575439453125,-0.0632986791517585,0.0776768764584325,0.0833662654727697,0.1596895307302475,0.0982670411467552,-0.0599093399941921
1783197288879512600,6.4195126953125,-0.057405748655647,-0.0150421045755036,0.1122813943117856,0.1403062343597412,0.0966734066605568,-0.0534024387598037
1783197288889449500,6.429449462890625,0.0066286974247545,-0.0589237702694721,0.1222679507970809,0.1168231442570686,0.0893680155277252,-0.0467480234801769
1783197288899386600,6.43938671875,0.0492267530489712,-0.0778490181549452,0.1537158129841089,0.0995514765381813,0.0986416712403297,-0.0349387675523757
1783197288909323500,6.449323486328125,0.0280186183907091,-0.1092960218254476,0.1943915222436189,0.0865455344319343,0.1071285679936409,-0.0133278965950012
1783197288919260400,6.459260498046875,0.0181401984550058,-0.1276251669812947,0.156095401597023,0.0791901499032974,0.0990583896636962,0.0026792990975081
1783197288929197600,6.469197509765625,0.0435709192443639,-0.1253695335416123,0.1056564232140779,0.0678038448095321,0.0828592926263809,0.0172148142009973
1783197288939133700,6.4791337890625,0.0762703889276832,-0.1349770458477549,0.0913823986679315,0.0427701286971569,0.0807114541530609,0.0225382056087255
1783197288949070300,6.4890703125,0.0460124671775847,-0.1187910136678256,0.1336006611943244,0.0157563593238592,0.080637015402317,0.0315013118088245
1783197288959007500,6.499007568359375,0.0321672625027596,-0.1139658768000081,0.1076870522588491,0.0047186221927404,0.0643344819545745,0.0448999404907226
1783197288968944600,6.508944580078125,0.0303481573168188,-0.0948510794254951,0.0136205290734767,0.0004175333306193,0.0444457791745662,0.0436293855309486
1783197288978881500,6.518881591796875,-0.0073783467482775,-0.0233667191979475,-0.0216764097571372,-0.0122023886069655,0.0324540957808494,0.0345480069518089
1783197288988818700,6.528818603515625,-0.0617087065465748,-0.0042873949956148,-0.0010848726272583,-0.017107892781496,0.0327584631741046,0.0294840168207883
1783197288998755300,6.53875537109375,-0.0678563424561172,0.0037742578417062,0.0214332486510276,-0.0139041086658835,0.039809450507164,0.0278789270669221
1783197289008692500,6.5486923828125,-0.0804060274276882,0.0210621685826219,-0.0055436056017875,-0.0016207210719585,0.0422387421131134,0.0293054841458797
1783197289018629600,6.558629638671875,-0.0952819633897393,-0.0062617638085037,-0.0512117163211107,0.0290527679026126,0.0403830483555793,0.0445243865251541
1783197289028566500,6.56856640625,-0.0630121172953397,-0.0292706460121087,-0.0787280842781066,0.0415362492203712,0.034994326531887,0.0612014383077621
1783197289038503700,6.578503662109375,-0.0627371728114783,-0.008108743382059,-0.0627636224269866,0.02727528847754,0.0285196471959352,0.0643405020236969
1783197289048440600,6.588440673828125,-0.1492283653717488,0.055003308890108,0.0535077183037996,-0.0015967916697263,0.0413551330566406,0.058969359844923
1783197289058377500,6.59837744140625,-0.2104134864356368,0.0675046794742345,0.1479267081886529,-0.0210746191442012,0.0530770383775234,0.0572838447988033
1783197289068314600,6.608314697265625,-0.2245717025823891,0.0580792822693474,0.121145084246993,-0.0265918485820293,0.0582234375178813,0.0528523251414299
1783197289078251500,6.61825146484375,-0.2025336199060082,0.0871588626887649,0.0716483551502227,-0.0306747406721115,0.0534992553293705,0.0483768805861473
1783197289088187400,6.6281875,-0.2016167242567986,0.0697688615465536,0.002456160980463,-0.0319852344691753,0.0520631298422813,0.0508649945259094
1783197289098124500,6.63812451171875,-0.1992220842052251,0.0687848189452663,-0.0522977579921484,-0.0314941480755806,0.046047318726778,0.0490314103662967
1783197289108061400,6.6480615234375,-0.1878339903589338,0.0998850732710212,-0.0903846198022365,-0.0269993655383586,0.0275315847247838,0.043526042252779
1783197289117998600,6.65799853515625,-0.1951375913705676,0.1309720845227129,-0.1203898819655179,-0.0186953619122505,0.0198259949684143,0.0327708683907985
1783197289127935700,6.667935791015625,-0.2060659587506204,0.1369995281186886,-0.1013864908099174,-0.0085648205131292,0.0290766954421997,0.0182846616953611
1783197289137872400,6.677872314453125,-0.2323401446267962,0.1112278849371708,-0.096189506688714,-0.0009026387706398,0.0334309637546539,0.0158635824918746
1783197289147809500,6.6878095703125,-0.1922834440484642,0.0718690304298885,-0.1402057585477829,0.0033227298408746,0.0282195713371038,0.0176581963896751
1783197289157746400,6.697746337890625,-0.1391338915325701,0.0391170816406607,-0.1323211427778005,0.0019818283617496,0.0313181579113006,0.0286943353712558
1783197289167683600,6.70768359375,-0.1379792416047305,-0.0029615166867151,-0.0975818378299474,-0.0008258568122982,0.0434574484825134,0.0375800281763076
1783197289177620700,6.717620849609375,-0.1497017550371587,0.0188176045262254,-0.052738487496972,0.0155786825343966,0.0614915750920772,0.0511717349290847
1783197289187557400,6.727557373046875,-0.151409070411697,0.0171590053979307,-0.0831686970740556,0.0294120740145444,0.0665938630700111,0.0567144230008125
1783197289197494500,6.73749462890625,-0.1658121281649917,0.0588039798147045,-0.1402098502010107,0.0294815842062234,0.0618177503347396,0.0480045527219772
1783197289207431700,6.747431640625,-0.1446776432648301,0.1184166821964085,-0.1110392852962017,0.0267986748367548,0.0621813014149665,0.0417141579091548
1783197289217369300,6.757369384765625,-0.137808926539123,0.0945924102229997,-0.1221627368569374,0.0291137620806694,0.0522943139076232,0.0306055787950754
1783197289227306200,6.76730615234375,-0.1108018232785165,0.0817041409468278,-0.1995744778394699,0.0212598778307437,0.0267547145485878,0.0201826859265565
1783197289237242000,6.7772421875,-0.0783287096969783,0.1421643818022683,-0.1942132430672645,0.0095787197351455,0.0140844611451029,0.0073084337636828
1783197289247179300,6.78717919921875,-0.0937389717314392,0.1117587404108606,-0.1694657553017139,0.0028636809438467,0.0084276869893074,0.0017565442249178
1783197289257116400,6.797116455078125,-0.0750165164090693,0.0898047375550493,-0.189139593064785,-0.0092441150918602,-0.0111350947991013,-0.0072076558135449
1783197289267053300,6.80705322265625,-0.010939181035012,0.1097110323671251,-0.1369838738918304,-0.0181982479989528,-0.0118132522329688,-0.0045302999205887
1783197289276990500,6.816990478515625,-0.0189686851684004,0.0882144544226117,-0.1016945338457822,-0.0186437964439392,-0.0183334685862064,-0.0110390661284327
1783197289286927000,6.826927001953125,-0.0222237414415925,0.0649875272878445,-0.1204255378007888,-0.0065721198916435,-0.0156257394701242,-0.018537325784564
1783197289296864300,6.8368642578125,-0.0090966219082474,0.0439190750949084,-0.1007148751586675,0.0147906932979822,-0.000396984629333,-0.0198726337403059
1783197289306801400,6.846801513671875,-0.0006353022288531,-0.0141758979339152,-0.0278285026460885,0.0354419015347957,0.0176694970577955,-0.0126043045893311
1783197289316738300,6.85673828125,0.0301429170683026,-0.073540379441902,-0.0036778117299079,0.0422380231320858,0.0306175202131271,0.0068133352324366
1783197289326675500,6.866675537109375,0.0775754801768809,-0.0841355510785244,0.0019698387682437,0.0390413552522659,0.0371198169887065,0.0231680814176797
1783197289336612400,6.8766123046875,0.0890029561854898,-0.0706409316733479,-0.0602770663082599,0.0193880274891853,0.0198537427932024,0.0320249572396278
1783197289346549200,6.88654931640625,0.0789282830253243,-0.0155311484677717,-0.1129915884077548,-0.0050330301746726,-0.0061346497386693,0.0274292882531881
1783197289356486400,6.896486328125,0.0510709926761686,0.0482644473554566,-0.0756523300945758,-0.0125215714797377,0.0052636796608567,0.0155867431312799
1783197289366423300,6.90642333984375,-0.0116861269447952,0.0825547298941761,-0.0246428583472967,0.004115198738873,0.0103137027472257,0.0152612747624516
1783197289376360400,6.9163603515625,0.0089537793714553,0.0553135804156772,-0.0701969872981309,0.0105331502854824,0.0054925819858908,0.0115685351192951
1783197289386297300,6.92629736328125,0.0123597153574228,0.1085370384179987,8.59247177839e-05,0.0060240994207561,0.0050939209759235,0.0100983139127492
1783197289396233200,6.936233154296875,-0.0148479519765824,0.0585814231052063,0.0747539199501276,0.0025396198034286,0.0114101395010948,0.0114067252725362
1783197289406170400,6.94617041015625,-0.0267475755415856,0.0377772478716447,0.096748894137144,6.49290159344e-05,0.0216561704874038,0.0099827703088521
1783197289416107500,6.956107421875,0.0057096828836947,0.0767207995763048,0.1373486155509948,0.0070083229802548,0.0267105847597122,0.0097452169284224
1783197289426044200,6.966044189453125,0.0058837973415851,0.0217613480942323,0.0777133542776107,0.0188500247895717,0.0186193883419036,0.0100976023823022
1783197289435981300,6.975981201171875,-0.0013811521600931,0.0044179808390326,0.0456476524531841,0.007737451698631,0.0028622644022107,0.0060211019590497
1783197289445918200,6.985918212890625,0.0051901890542358,0.0230526848127134,0.0926180779427289,-0.013721858151257,-0.0157854128628969,0.0007241738494485
1783197289455855400,6.99585546875,-0.0221849438011646,0.0251497849561274,0.1527051746368408,-0.0281252972781658,-0.0095003526657819,-0.0037653832696378
1783197289465792500,7.00579248046875,-0.0702818160373717,0.0296449044182896,0.1635860496133565,-0.0281909257173538,0.006581044755876,-0.0025537207257002
1783197289475729200,7.015729248046875,-0.0485387707848101,0.0471970373196527,0.1335971540629863,-0.0079911136999726,0.019068606197834,-0.0019579716026782
1783197289485666300,7.025666259765625,-0.0293703252606093,0.0555910273838788,0.1000304000258445,0.0071530514396727,0.0424459278583526,0.008379491046071
1783197289495603200,7.035603271484375,-0.0464533428128808,0.0564046087890863,0.043892917740345,0.0086143277585506,0.0305218901485204,0.004816448315978
1783197289505540400,7.045540283203125,0.0190608204312622,0.117674156733416,0.0117389531105756,5.11622056365e-05,0.0164895877242088,-0.0023780628107488
1783197289515477500,7.0554775390625,-0.0236303933691233,0.1229831681280396,-0.0217909760475158,-0.0021938830614089,0.0092548429965972,-0.0030643595382571
1783197289525414100,7.0654140625,-0.0598650514412671,0.0990837485591881,-0.066813774600625,-0.0136294914409518,-0.0097171133384108,-0.0082828542217612
1783197289535351300,7.075351318359375,-0.0235355546925216,0.114822913754452,-0.0729541770517826,-0.0355470404028892,-0.0275664180517196,-0.0189677234739065
1783197289545288400,7.085288330078125,-0.0466435316227376,0.1205830664500594,-0.0289081145763397,-0.06926791369915,-0.0232914313673973,-0.0265068728476762
1783197289555224300,7.095224365234375,-0.0863845903806388,0.0774126908306032,-0.0492085598051547,-0.0867542326450347,-0.0262272991240024,-0.02060610614717
1783197289565161200,7.1051611328125,-0.054359732023254,0.0378904989877715,-0.1645890891760587,-0.0843439847230911,-0.0412462428212165,-0.0265320036560297
1783197289575098400,7.115098388671875,0.0042219285439699,0.0723487585045397,-0.2707581380873918,-0.0747238472104072,-0.0653025731444358,-0.025612948462367
1783197289585035300,7.12503515625,-0.0055856181126087,0.1015116515595465,-0.3079717241942882,-0.0662602186203002,-0.0824473798274993,-0.0361706502735614
1783197289594972400,7.134972412109375,-0.0385546254523098,0.1189890021916478,-0.2845575308591127,-0.0566198416054248,-0.0877247005701065,-0.048009730875492
1783197289604909300,7.144909423828125,-0.0480420002438128,0.1227966508463025,-0.2271761859923601,-0.0475123822689056,-0.0841816365718841,-0.0581174306571483
1783197289614846200,7.15484619140625,-0.0693532299503684,0.0842951072880998,-0.1827986996054649,-0.0300473719835281,-0.0831989347934722,-0.0599361024796962
1783197289624783400,7.164783447265625,-0.0358129255287349,0.0192228791251778,-0.1441711550474166,-0.0137397916987538,-0.0719737112522125,-0.057800717651844
1783197289634720300,7.17472021484375,0.020679946065694,-0.0425086237750947,-0.0804664523780345,-0.008456346578896,-0.042681872844696,-0.0516496151685714
1783197289644657400,7.184657470703125,0.0611015344336628,-0.0826596150407567,-0.0294715936779975,-0.0098198261111974,-0.0306874103844165,-0.0397642739117145
1783197289654594300,7.19459423828125,0.1236545828498899,-0.10988255300913,-0.1081686982959508,-0.0046556908637285,-0.030234407633543,-0.0177540462464094
1783197289664531200,7.20453125,0.1772588933959603,-0.1161115470591932,-0.1920703858196735,-0.0096802953630685,-0.0330896824598312,-0.0027474432718008
1783197289674468400,7.21446826171875,0.2014670135878026,-0.09487740117684,-0.2577168702065944,-0.0117429140955209,-0.0481354780495166,-0.0099923070520162
1783197289684405200,7.2244052734375,0.2036373433642089,-0.0746957234894856,-0.2690261997282505,-0.0153487576171755,-0.0612294934689998,-0.0131604401394724
1783197289694342400,7.23434228515625,0.1829557898633182,-0.0541959928289055,-0.2839735934913158,-0.0189432278275489,-0.0732459425926208,-0.0074650039896368
1783197289704279300,7.244279296875,0.1835038522001355,-0.0751127250588499,-0.3439613214641809,-0.0101774632930755,-0.0924856513738632,0.0015537787694483
1783197289714215200,7.254215087890625,0.1804057400543242,-0.06047741118595,-0.4099883296012878,-0.0011994140222668,-0.1002527624368667,0.014770514331758
1783197289724152300,7.26415234375,0.1452514976300299,-0.0070883142931386,-0.4402238933891058,0.014190818183124,-0.1043005436658859,0.0294622741639614
1783197289734089500,7.27408935546875,0.0832500917471945,0.0741112381324172,-0.4684083698660135,0.030288029462099,-0.1017180755734443,0.0485390312969684
1783197289744026400,7.2840263671875,0.0330468948815017,0.1768514085736125,-0.4425421072036027,0.0593603737652301,-0.1001221612095832,0.0696435943245887
1783197289753963300,7.29396337890625,-0.0437872654087841,0.2692381619784981,-0.527735003581643,0.1054996401071548,-0.108266107738018,0.0667242407798767
1783197289763900200,7.303900146484375,-0.1475537101577967,0.4717154485873878,-0.5921838026165962,0.1825665533542633,-0.1431599855422973,0.0379367768764495
1783197289773837300,7.31383740234375,-0.1906841921582817,0.5661620571315288,-0.656573564940691,0.2802709937095642,-0.1217431053519249,0.0171121880412101
1783197289783774500,7.3237744140625,-0.3438456591952591,0.5297344337705523,-0.4363257169067859,0.3659643530845642,-0.0569692701101303,-0.0097347106784582
1783197289793711400,7.33371142578125,-0.4488500482413917,0.5639014187231659,-0.1568359908312559,0.4374979138374328,0.018938809633255,-0.0183787979185581
1783197289803648300,7.343648193359375,-0.3239323866531253,0.541264420305565,-0.0801864663928747,0.5057750940322876,0.0700248256325721,-0.0012347865849733
1783197289813585400,7.35358544921875,-0.1317590519156307,0.5169423548778519,-0.1442237620174884,0.5542619824409485,0.087213397026062,0.0154954586178064
1783197289823522300,7.363522216796875,0.0258219120640307,0.4807175240799784,-0.2051777046740055,0.5366488099098206,0.072313442826271,0.0219403263181448
1783197289833459500,7.37345947265625,0.1489591930415481,0.5029891232512891,-0.2471148121714592,0.4608057141304016,0.0587717965245246,-0.0004685763269662
1783197289843396400,7.383396240234375,0.0558877453081309,0.5015129497515037,-0.120850485214591,0.3801162838935852,0.0362593829631805,-0.0291839130222797
1783197289853333200,7.393333251953125,0.1503317965690046,0.491731414319016,-0.1927484312117099,0.3230586051940918,-0.0093067707493901,-0.061675276607275
1783197289863270400,7.4032705078125,0.2124761180538684,0.5017380637442693,-0.3245633780330419,0.3055742681026459,-0.0785832405090332,-0.0892002955079078
1783197289873207300,7.413207275390625,0.3647574412554502,0.5376623772256076,-0.425735933831334,0.3198448121547699,-0.1345977783203125,-0.0982987135648727
1783197289883144400,7.42314453125,0.5136162426624447,0.4976233584344386,-0.4524409854054451,0.3619133830070495,-0.150068998336792,-0.0957868844270706
1783197289893081300,7.433081298828125,0.5483869656618684,0.3655165890596806,-0.3338280499845742,0.4210014641284942,-0.1083713546395301,-0.089384377002716
1783197289903017200,7.443017333984375,0.653719198422879,0.2610374659966677,-0.1503665025562048,0.5125542879104614,-0.0085902996361255,-0.0823992043733596
1783197289912954400,7.452954345703125,0.8334042960524558,0.0823896024603396,-0.0951923123449087,0.6392205953598022,0.0625312849879264,-0.0827395543456077
1783197289922891300,7.462891357421875,0.9184582954164594,0.1375438458621501,-0.2314122161269187,0.7882192730903625,0.0905948281288147,-0.1124373599886894
1783197289932828400,7.472828369140625,1.0068880548238754,0.2587136261589825,-0.5276636919111013,0.9231659173965454,0.0228370875120162,-0.1001668497920036
1783197289942765300,7.482765380859375,0.8571201757479459,0.2325413662873208,-0.7383657129645347,1.0261138677597046,-0.078899547457695,-0.0666342675685882
1783197289952702200,7.4927021484375,0.8441126640062778,0.2023859550636261,-0.6380635102599859,1.0804232358932495,-0.0689734145998954,-0.0546095632016658
1783197289962639400,7.502639404296875,0.8889730385392903,0.1821507570907473,-0.6156266375243663,1.0613199472427368,-0.0876234695315361,-0.0569244399666786
1783197289972576300,7.512576171875,0.9326615928139536,0.1812671061240136,-0.4636766651690006,0.9603176712989808,-0.0818023309111595,-0.0601844154298305
1783197289982513400,7.522513427734375,0.8339633912399411,0.121618839238584,-0.2362041265785694,0.7576447129249573,-0.04327142983675,-0.0409976206719875
1783197289992450300,7.5324501953125,0.6558512420155107,-0.0254164730682969,0.0266255565971136,0.5073032975196838,-0.0819224193692207,0.0101563772186636
1783197290002387200,7.54238720703125,0.689267408600822,-0.2359650571256875,0.4025041113257407,0.2950874865055084,-0.0713997557759285,0.0987753421068191
1783197290012324400,7.552324462890625,0.9298233737133442,-0.4859866966545581,0.5650467893660068,0.160345658659935,-0.0886383950710296,0.1793173253536224
1783197290022261500,7.562261474609375,0.9453414800364524,-0.6414142819926142,0.2852753237396478,0.0865676999092102,-0.1619642078876495,0.2448101937770843
1783197290032198400,7.572198486328125,0.9364921839527786,-0.5736993207685649,0.0989940427154302,0.0213857628405094,-0.2180157601833343,0.2888396978378296
1783197290042135300,7.58213525390625,0.8786997740671038,-0.4533484556391834,0.3168798377931118,-0.0547068379819393,-0.2345259189605713,0.3175221979618072
1783197290052072200,7.592072265625,0.6803884480312467,-0.3955548767097294,0.5771347020447254,-0.1313515454530716,-0.2024175226688385,0.3647488355636596
1783197290062009300,7.60200927734375,0.5798544823974371,-0.3516016070842743,0.7153413957297802,-0.1775390654802322,-0.1781370490789413,0.4118596315383911
1783197290071946500,7.611946533203125,0.5917772676423192,-0.2759168360248208,0.5937795473754406,-0.200061410665512,-0.1675182282924652,0.4243658483028412
1783197290081882000,7.621882080078125,0.6039968438766896,-0.0152026836983859,0.3607265783041715,-0.2109692692756652,-0.1628564745187759,0.3985700905323028
1783197290091819300,7.6318193359375,0.5619434165231884,0.1995876295819878,0.1837052930563688,-0.2015478014945984,-0.1620633900165558,0.3381663858890533
1783197290101756400,7.64175634765625,0.4868946052797138,0.2199424353465437,0.0429506684541702,-0.1689026355743408,-0.1661186218261718,0.2811904847621918
1783197290111693300,7.651693359375,0.5263510018773376,0.1322261579707264,-0.0530325020074844,-0.1241559386253357,-0.1768767237663269,0.2465960383415222
1783197290121630500,7.66163037109375,0.6023715076971798,0.0013210194706916,-0.0870259570240974,-0.0863625332713127,-0.1900397837162017,0.2391168922185897
1783197290131567400,7.6715673828125,0.6228573194302618,-0.2250968955002725,-0.0835498053461313,-0.0657808259129524,-0.2020170837640762,0.2626624405384063
1783197290141504300,7.681504150390625,0.685186495962739,-0.3731383161097765,-0.1117804590523242,-0.0750533044338226,-0.2397328466176986,0.301749587059021
1783197290151441400,7.69144140625,0.6864758051209151,-0.3452507767528295,-0.106012397044897,-0.1277713924646377,-0.2805745601654053,0.3348657190799713
1783197290161378300,7.70137841796875,0.5097350173149258,-0.3332436742253601,-0.0316144509255886,-0.2035916000604629,-0.2969555258750915,0.3525286316871643
1783197290171315500,7.7113154296875,0.2317416307443753,-0.3049611442014575,0.1250450142949819,-0.276937186717987,-0.2845001816749573,0.3495549261569977
1783197290181252400,7.72125244140625,0.0321271131554618,-0.2639348679386079,0.3014788550436496,-0.3151114583015442,-0.2322525084018707,0.3373863101005554
1783197290191189200,7.731189208984375,-0.0293870937323197,-0.3540418398432433,0.494396213081479,-0.3103084564208984,-0.1686921864748001,0.3380747437477112
1783197290201126400,7.74112646484375,0.0548772530913352,-0.3865986861854791,0.4307289198130369,-0.2859893441200256,-0.1516493856906891,0.3375534415245056
1783197290211063000,7.75106298828125,0.1050374510655179,-0.2942646858811378,0.083149407851696,-0.2869552671909332,-0.2091486304998397,0.3386751413345337
1783197290221000200,7.761000244140625,0.1803527312254533,0.0057636780932545,-0.1951981624513864,-0.3570489287376404,-0.2588687837123871,0.3155049085617065
1783197290230937300,7.770937255859375,0.183642274290137,0.1251215866625309,-0.2800724943995475,-0.4723510146141052,-0.3613442778587341,0.2923942506313324
1783197290240874000,7.7808740234375,-0.0023787848953157,0.1138496665418148,-0.4986334122598171,-0.5766866207122803,-0.4520922303199768,0.2875551879405975
1783197290250811100,7.79081103515625,-0.1998458055941387,0.0955172334503382,-0.6119686995387077,-0.648587167263031,-0.5016949772834778,0.2857485115528106
1783197290260747300,7.800747314453125,-0.252963830460608,0.0300263049513101,-0.3906435776621103,-0.6626667380332947,-0.5028539299964905,0.2836328744888305
1783197290270684200,7.81068408203125,-0.2344511454313993,-0.0126617670439183,-0.1910048024147748,-0.6143423914909363,-0.4581541121006012,0.2981084883213043
1783197290280621000,7.82062109375,-0.2229813281184062,-0.0633324352908879,-0.1108230121970176,-0.5242995023727417,-0.3884501755237579,0.3254255652427673
1783197290290558200,7.83055810546875,-0.3437366458628326,-0.1162084315624088,-0.0874415520876646,-0.4235720932483673,-0.3088341653347015,0.3602463901042938
1783197290300495000,7.8404951171875,-0.4701102784130722,0.053152621255815,-0.0213233585357666,-0.3310387432575226,-0.1901552975177765,0.3859736025333404
1783197290310432300,7.850432373046875,-0.4299132560485973,0.2316870875455439,0.1065267763078212,-0.2682664394378662,-0.1013854816555976,0.38459512591362
1783197290320369200,7.860369140625,-0.3388006142327562,0.2394529723066836,0.0987391911715269,-0.2319997996091842,-0.1000558733940124,0.3879038989543915
1783197290330306000,7.87030615234375,-0.3621714433502405,0.2048601631574332,-0.0904465791225433,-0.2366171926259994,-0.1313525438308715,0.3926887810230255
