time,seconds_elapsed,ax,ay,az,gx,gy,gz
1783204886237734000,0.09673388671875,0.0917103154480457,-0.0144189129095524,0.1438967220202088,-0.2315489053726196,-0.2016043812036514,-0.0845809876918792
1783204886247670500,0.10667041015625,0.0248345815271139,0.0011743044763803,0.1700543688446283,-0.2458580583333969,-0.1874805688858032,-0.0897192955017089
1783204886257607700,0.116607666015625,-0.0028700024783611,0.0006225158125162,0.1161257947802543,-0.2530790865421295,-0.1982027888298034,-0.0912116542458534
1783204886267544800,0.126544921875,0.0142909756809473,-0.0145581752497702,0.0376639602228999,-0.2451854944229126,-0.2078596800565719,-0.0870448723435401
1783204886277481700,0.136481689453125,0.0495236171036958,-0.0326590646076947,-0.025889935798943,-0.2334443181753158,-0.211967185139656,-0.0817001089453697
1783204886287419000,0.1464189453125,0.0456879844635725,-0.0226838332340121,-0.0861047505259513,-0.2120740413665771,-0.2200770378112793,-0.0814947783946991
1783204886297355800,0.156355712890625,0.017374328649044,-0.0374785206533968,-0.1340747084468603,-0.1920630782842636,-0.2164854407310485,-0.0716459900140762
1783204886307292700,0.166292724609375,-0.0343581966757774,-0.0240570943485945,-0.1445028712198138,-0.1640897691249847,-0.207657054066658,-0.0673894584178924
1783204886317229800,0.176229736328125,-0.0254758020401,0.0236912567108869,-0.1984492732018232,-0.1320776343345642,-0.2086200416088104,-0.0639745742082595
1783204886327166700,0.186166748046875,0.0219371065199375,0.0271974382009357,-0.2330754731640219,-0.1183751374483108,-0.2185272574424743,-0.0671149715781211
1783204886337104000,0.196103759765625,0.0279237797141075,-0.0311407689992338,-0.1784475186586379,-0.1242717802524566,-0.2149828225374221,-0.0751246139407157
1783204886347040800,0.206040771484375,0.0202963535755872,-0.06475757272318,-0.076614453125,-0.1288138031959533,-0.2174664884805679,-0.0724337548017501
1783204886356977700,0.215977783203125,-0.0040817163556814,-0.0249586462981998,-0.0821580587267875,-0.1332022249698639,-0.2385203689336776,-0.0694423541426658
1783204886366914800,0.225914794921875,0.0560264231264591,-0.0101467885483056,-0.1161933070585131,-0.1324749141931533,-0.2545509934425354,-0.0587460361421108
1783204886376851700,0.235851806640625,0.0862929665744304,-0.0224478325210511,-0.1672901648283004,-0.1231718137860298,-0.2574139833450317,-0.0453104637563228
1783204886386788900,0.245788818359375,0.0798152949929237,-0.0548107637263834,-0.182578334853053,-0.1075632870197296,-0.2501581907272339,-0.0427575558423996
1783204886396726800,0.255726806640625,0.0800929428905248,-0.0334263957183808,-0.1835124008327722,-0.0977536439895629,-0.2504656314849853,-0.0334988832473754
1783204886406663700,0.26566357421875,0.0408393753886222,-0.001501709799841,-0.1565530822366476,-0.0906430035829544,-0.2421067506074905,-0.0305611509829759
1783204886416600800,0.275600830078125,0.027782909938693,0.0122446376103907,-0.1194672141626477,-0.0795844942331314,-0.220721036195755,-0.0282870791852474
1783204886426537700,0.285537841796875,-0.0043406595528125,-0.0417357397064566,-0.0605851093441247,-0.0691925734281539,-0.1728645712137222,-0.0241690333932638
1783204886436475000,0.295474853515625,-0.0043909284353256,-0.0161327310901135,-0.0308776610836386,-0.0596439540386199,-0.1391351819038391,-0.0226060077548027
1783204886446411800,0.305411865234375,0.0227905084788799,-0.0141749480858445,-0.0519295092016458,-0.0467736944556236,-0.1266079396009445,-0.0220320969820022
1783204886456348700,0.3153486328125,0.0410053796052932,-0.0062853638797998,-0.0735579881638288,-0.03133325278759,-0.1147348061203956,-0.0210514701902866
1783204886466285800,0.325285888671875,0.0379874930888414,-0.0088284724913537,-0.0703027857601642,-0.0165567025542259,-0.1055146753787994,-0.0202823467552661
1783204886476222700,0.33522265625,0.0368090969592332,0.0048592035342007,-0.0862441589966416,0.0030267732217907,-0.1002125442028045,-0.0199502147734165
1783204886486160000,0.345159912109375,0.0339537075281143,-0.0164180508375167,-0.0968465092927217,0.028320413082838,-0.0872453451156616,-0.0179182235151529
1783204886496096800,0.3550966796875,0.0332768311798572,-0.017875483104214,-0.0788838593617081,0.0464419871568679,-0.0717777982354164,-0.0095119848847389
1783204886506033700,0.36503369140625,0.0723959586471319,-0.0138854636199772,-0.0585714314341545,0.0581487119197845,-0.0687995851039886,-0.0025568730197846
1783204886515970800,0.374970703125,0.0918389102637767,-0.0299463715828955,-0.0191840084195137,0.063112773001194,-0.0688828974962234,0.0048902020789682
1783204886525907700,0.38490771484375,0.1130903726071119,-0.0391135745093226,0.0209743989676237,0.0645508840680122,-0.0652061328291893,0.0181719195097684
1783204886535844900,0.394844970703125,0.102381347066164,-0.0777596776373684,0.074922846776247,0.0613642521202564,-0.0557125881314277,0.0269765686243772
1783204886545781800,0.40478173828125,0.0640694443285465,-0.0727889034874737,0.1249959144562482,0.0592041611671447,-0.0405086018145084,0.0369367897510528
1783204886555718700,0.41471875,0.0851011264413595,-0.0652044397078454,0.1205973872363567,0.0578331388533115,-0.0230617467314004,0.0417483784258365
1783204886565656600,0.424656494140625,0.0478080453574657,-0.0618770488508045,0.1334510235905647,0.0552637204527854,-0.010928651317954,0.0444482900202274
1783204886575593700,0.43459375,0.0242787012100219,-0.0447530417010188,0.1277069269806146,0.051075205206871,0.0023170260246843,0.0396234504878521
1783204886585531000,0.44453076171875,-0.0095008187949657,-0.0407549119755625,0.1419657539576292,0.0481577143073082,0.0168221984058618,0.0364255271852016
1783204886595467800,0.4544677734375,0.0028460370808839,-0.03495243624188,0.1274792557045817,0.0461824908852577,0.0217059012502431,0.0325657613575458
1783204886605405000,0.464405029296875,0.0185778592199087,-0.0809058667086064,0.1004869116216898,0.0389871597290039,0.0219535753130912,0.0329276844859123
1783204886615341600,0.474341552734375,0.0129559276849031,-0.0946810018219053,0.0911065043359994,0.0261009894311428,0.0057739885523915,0.0345900505781173
1783204886625278700,0.48427880859375,0.0294265854924917,-0.055893298266083,0.0783598354876041,0.0101686287671327,-0.0118348328396677,0.0281848795711994
1783204886635216000,0.4942158203125,0.0128594815731048,-0.0584038197822868,0.0854851573228836,-0.0029109166935086,-0.0218766406178474,0.0213864184916019
1783204886645152800,0.50415283203125,-0.0191390002340078,-0.0600416501171886,0.0999006361663341,-0.0086380438879132,-0.0142019437626004,0.0179362930357456
1783204886655090000,0.51408984375,-0.0034475101053714,-0.0486703612752258,0.0911304697334766,-0.0104310698807239,-0.0028654434718191,0.0150469914078712
1783204886665026600,0.524026611328125,0.0265840555429458,-0.0580982609644532,0.0906008929014206,-0.0126569382846355,0.0170422177761793,0.0166049413383007
1783204886674964000,0.5339638671875,0.0485550643324851,-0.0610893325392156,0.0967579542264342,-0.0131275998428463,0.0290725603699684,0.0215520672500133
1783204886684901000,0.543901123046875,0.0820388162612915,-0.0724600368592888,0.0817836724564433,-0.0152397537603974,0.0353661440312862,0.0273396484553813
1783204886694838000,0.553838134765625,0.1100450135618448,-0.067794237005338,0.073430854652822,-0.0134668666869401,0.0504703931510448,0.0372035726904869
1783204886704776000,0.56377587890625,0.100699093067646,-0.0585855330247431,0.085551500557363,-0.0112069081515073,0.0639571696519851,0.0406302623450756
1783204886714713000,0.573713134765625,0.0897065744102001,-0.043827085962519,0.0781619748279452,-0.0062599442899227,0.0819407477974891,0.0474927797913551
1783204886724650000,0.58364990234375,0.0810357766985893,-0.0501752128802239,0.09351122739017,-0.004299059510231,0.1049414053559303,0.0488832145929336
1783204886734587000,0.5935869140625,0.0779997700035572,-0.0395529888398945,0.1261363166630268,-0.0007147286087274,0.1298280209302902,0.0534562282264232
1783204886744524000,0.60352392578125,0.050948096948862,-0.0108394469875842,0.1377761933133006,0.0107946544885635,0.1651423275470733,0.0563697256147861
1783204886754461000,0.6134609375,0.0613280366659164,-0.0499325632307678,0.0929527167245745,0.023639015853405,0.1841351091861724,0.0622685104608535
1783204886764398000,0.623398193359375,0.0970768109172582,-0.0759382343638688,0.1043140686944127,0.0169347748160362,0.1957656592130661,0.0743241086602211
1783204886774335000,0.6333349609375,0.1527992826610803,-0.0732950263787061,0.1809150778159499,0.0193928908556699,0.2224626541137695,0.0971520319581031
1783204886784272000,0.64327197265625,0.2414420272320508,-0.1146827563650906,0.2127916868090629,0.018806729465723,0.2556123435497284,0.1236906945705413
1783204886794209000,0.653208984375,0.3209609696269035,-0.1627199343033135,0.251992062819004,0.0184485986828804,0.2907514870166778,0.1606062799692154
1783204886804146200,0.663146240234375,0.3888929346024989,-0.1725920706287026,0.3000637275487184,0.014226421713829,0.3204566538333893,0.200738251209259
1783204886814083000,0.6730830078125,0.3762503106504678,-0.1997880475249141,0.3149927088722586,0.0005791410803794,0.3275567889213562,0.2360352128744125
1783204886824021000,0.68302099609375,0.1498006853669881,-0.1691330162160098,0.2991857756704091,-0.0175841487944126,0.3244803249835968,0.230917677283287
1783204886833958000,0.6929580078125,-0.1231838965982198,-0.092199779465422,0.2609706113055348,-0.0355534367263317,0.3250550925731659,0.2042248547077179
1783204886843895000,0.70289501953125,-0.2690261997282505,-0.0140811323225498,0.1589770945131778,-0.0418898947536945,0.3220313191413879,0.166391983628273
1783204886853832000,0.71283203125,-0.3463748123466968,0.0275122032385319,0.0688967183545231,-0.0426905155181884,0.3208985924720764,0.1236399784684181
1783204886863769000,0.72276904296875,-0.3435416347473859,0.0680905165381729,-0.0070949266970157,-0.0442796275019645,0.3063310980796814,0.0873488187789917
1783204886873706000,0.7327060546875,-0.3307885361582041,0.0832321907643228,-0.0314019772186875,-0.0556103698909282,0.288376122713089,0.0489730723202228
1783204886883643000,0.742642822265625,-0.2651251006364822,0.1255062020659446,-0.0347755453050136,-0.063740462064743,0.2682732343673706,0.021609891206026
1783204886893580000,0.752580078125,-0.1881914985597133,0.1238336657438427,-0.0387359733685851,-0.0696115642786026,0.258723497390747,0.0009340923279523
1783204886903517000,0.762516845703125,-0.1028092170894146,0.099446243462339,-0.0232338683322072,-0.0649947077035904,0.261712372303009,-0.0094932485371828
1783204886913454000,0.7724541015625,-0.0154535897195339,0.1020076183829456,0.0021536709025502,-0.0585065521299839,0.2779951095581054,-0.0223433393985033
1783204886923391000,0.782390869140625,0.0460030417621135,0.1276977207608521,0.0489653986990451,-0.0544966273009777,0.3075506091117859,-0.0317224599421024
1783204886933328000,0.792327880859375,0.0861620336711406,0.1398541686311364,0.1286141049534082,-0.0451714172959327,0.3489889204502105,-0.0312660187482833
1783204886943265800,0.802265869140625,0.1325128659576177,0.1092802397344261,0.2021718008562922,-0.0375305414199829,0.4216956198215484,-0.0295778438448905
1783204886953203000,0.812202880859375,0.172324651864171,0.0224924023151397,0.3421048799425363,-0.0291884802281856,0.5234003663063049,-0.0114014521241188
1783204886963140000,0.82214013671875,0.2709334946542978,0.0120491881035268,0.4658241985917091,-0.0216719731688499,0.6395981311798096,0.0098391212522983
1783204886973077000,0.832076904296875,0.3644862230986356,-0.0548766685694456,0.5865823293477297,-0.0253271088004112,0.7700551748275757,0.0438913777470588
1783204886983014100,0.84201416015625,0.4439700941801071,-0.1268923957273364,0.7203729601562022,-0.0522745661437511,0.895042896270752,0.087595447897911
1783204886992951000,0.851950927734375,0.5029594587653875,-0.1965742000449448,0.7941703100338577,-0.0947485044598579,0.9945328831672668,0.1361141949892044
1783204887002888000,0.861887939453125,0.5471791242420673,-0.2682179520852863,0.7914829706460237,-0.1603168547153473,1.057511806488037,0.1962030977010727
1783204887012825000,0.8718251953125,0.5900087966650724,-0.3226740571551024,0.7481143690407276,-0.2427361607551574,1.0866520404815674,0.254965215921402
1783204887022762000,0.881761962890625,0.5937865616381168,-0.3354134925451129,0.6694882838323712,-0.3322125077247619,1.085922122001648,0.3106050193309784
1783204887032699100,0.89169921875,0.5518734195381403,-0.3534073413319885,0.5891325983524323,-0.4139914214611053,1.0732425451278689,0.3559596240520477
1783204887042637000,0.901636962890625,0.5081932677656412,-0.3435273139610886,0.5031704711675644,-0.4760611653327942,1.0478007793426514,0.398527055978775
1783204887052574000,0.911573974609375,0.4727998828232288,-0.3407571185953915,0.3262245892435312,-0.521733283996582,1.014208436012268,0.432985246181488
1783204887062510800,0.9215107421875,0.4116454491585493,-0.3318580650858581,0.1811374883949756,-0.549757719039917,0.973159909248352,0.4632478356361389
1783204887072448000,0.931447998046875,0.3209773362398147,-0.297181157849729,0.0432055199980735,-0.5654348134994507,0.9266557097434998,0.4899243414402008
1783204887082385200,0.94138525390625,0.2189823581427335,-0.3065076429910958,-0.0986889222890138,-0.5541738867759705,0.8732832670211792,0.5053911805152893
1783204887092322000,0.951322021484375,0.1296732586175203,-0.3238727654203772,-0.2541945412993431,-0.5249108076095581,0.8167202472686768,0.5172135233879089
1783204887102259000,0.961259033203125,0.0220540108978748,-0.3112475309945642,-0.4096142355918884,-0.4771933257579803,0.7587370872497559,0.5194236636161804
1783204887112196000,0.971196044921875,-0.06898644246459,-0.2946918252520263,-0.5128998380213976,-0.4161308705806732,0.6998603940010071,0.5185378789901733
1783204887122133000,0.981133056640625,-0.1447837339878082,-0.2745569458484649,-0.581398789229989,-0.3391386270523071,0.642557680606842,0.5150163769721985
1783204887132071000,0.99107080078125,-0.1814151362925767,-0.2295551900833845,-0.631699820446968,-0.2635689973831177,0.5897578597068787,0.5026817917823792
1783204887142008000,1.001008056640625,-0.2274164244890213,-0.1924136462993919,-0.6228109960705042,-0.1842651069164276,0.541029155254364,0.4865193367004394
1783204887151945200,1.0109453125,-0.2557628135293722,-0.1544860667042434,-0.5891401971369982,-0.1183086633682251,0.5025323629379272,0.4735098481178283
1783204887161881900,1.0208818359375,-0.2490717914581298,-0.1075870990157127,-0.5167629431903362,-0.0582930035889148,0.4679908752441406,0.4572493731975555
1783204887171819000,1.030819091796875,-0.2404834113329648,-0.0404142818443477,-0.4461860166639089,-0.0154306767508387,0.4384727776050567,0.439695805311203
1783204887181756000,1.040755859375,-0.2266910328239202,0.0014630582898855,-0.3830558990120887,0.0182218253612518,0.4124164283275604,0.4263304769992828
1783204887191693000,1.050693115234375,-0.200644737419486,0.0291403158970177,-0.3020148616164922,0.0329073034226894,0.3829249739646911,0.4106128811836242
1783204887201630200,1.060630126953125,-0.1778852086007595,0.0742851333945989,-0.222646141347289,0.0381729044020175,0.3532810509204864,0.3975213170051574
1783204887211568000,1.070568115234375,-0.1634592083632945,0.1057012852691113,-0.1599871483385563,0.0304674282670021,0.3275815844535827,0.3847703337669372
1783204887221505000,1.080505126953125,-0.1401987442851066,0.1470056478209793,-0.0861480051457881,0.013458882458508,0.3091810047626495,0.3684504926204681
1783204887231442000,1.09044189453125,-0.1040419737547636,0.1797590396486222,-0.0508762007564306,-0.0135489394888281,0.2846724092960357,0.3510269224643707
1783204887241379000,1.100379150390625,-0.0912275003671646,0.216703453425318,-0.0086631989270448,-0.0513144321739673,0.2664015293121338,0.3327983915805816
1783204887251316000,1.11031591796875,-0.0949801308989524,0.2566948336824775,0.0068722238570451,-0.0770680829882621,0.2448133081197738,0.3139654099941253
1783204887261253000,1.120253173828125,-0.0985807857394218,0.2654229145392775,-0.0241956991016864,-0.099650889635086,0.2275962382555008,0.3012562692165375
1783204887271190000,1.13018994140625,-0.1089239005774259,0.2560651574768126,-0.0565583380460739,-0.1161237955093383,0.2085978090763092,0.2828516364097595
1783204887281127000,1.140126953125,-0.1263069970548153,0.2678264685496688,-0.096249127921462,-0.1310585290193557,0.1901279836893081,0.2688234448432922
1783204887291065000,1.150065185546875,-0.1203138941198587,0.3009296967282891,-0.1167161618888378,-0.1230092048645019,0.1781792640686035,0.2572542726993561
1783204887301002000,1.160001953125,-0.1291769995331764,0.2924623126342892,-0.1601619203835725,-0.1173236221075058,0.170610561966896,0.2387674301862716
1783204887310939100,1.169939208984375,-0.1481745454698801,0.2930260839968919,-0.1815513298928737,-0.1029224023222923,0.1655808389186859,0.2227966487407684
1783204887320876000,1.1798759765625,-0.1630149717271327,0.3010214666649699,-0.2069967367947101,-0.0837031677365303,0.1599045693874359,0.2069327235221862
1783204887330813000,1.18981298828125,-0.1850181292206049,0.307589739139378,-0.2097691241174936,-0.0647603720426559,0.158732384443283,0.1918702572584152
1783204887340750000,1.19975,-0.204596689915657,0.3148489164873957,-0.2300140397667884,-0.0397511534392833,0.1549898386001587,0.1704890727996826
1783204887350687000,1.20968701171875,-0.2211041726022958,0.3010924860745668,-0.2379968552142381,-0.0191184096038341,0.147737056016922,0.1463295519351959
1783204887360624000,1.2196240234375,-0.2396311784178018,0.2969096474319696,-0.2472375617682933,0.0069169220514595,0.1464387625455856,0.1212910413742065
1783204887370562000,1.22956201171875,-0.2398521276921033,0.2768786667943,-0.2444873862773179,0.0209881775081157,0.1436827927827835,0.0887709483504295
1783204887380499200,1.239499267578125,-0.25138416005373,0.2726373759627342,-0.2200730759888887,0.0257128905504941,0.121302917599678,0.0560979545116424
1783204887390435800,1.249435791015625,-0.2541273212820291,0.2734758726134896,-0.1865840633630752,0.0264542289078235,0.1023364812135696,0.0290243495255708
1783204887400373000,1.259373046875,-0.2311988656371831,0.2202867187395691,-0.1797965951800346,0.0236706919968128,0.0791408792138099,-0.0020094662904739
1783204887410310100,1.26931005859375,-0.2191401790529489,0.196987383955717,-0.1573649831414222,0.015071858651936,0.0595599226653575,-0.0237743146717548
1783204887420247000,1.2792470703125,-0.1814490385621786,0.1869306848436593,-0.1125409220308065,0.0103407530114054,0.0510924011468887,-0.0463001318275928
1783204887430184200,1.28918408203125,-0.1298445235311985,0.1357125387817621,-0.0999818847090005,0.0072482954710721,0.0413357876241207,-0.0580695457756519
1783204887440120800,1.299120849609375,-0.0603191518843173,0.0861120570495724,-0.0970803180485963,0.0031331786885857,0.0376952476799488,-0.0653152093291282
1783204887450059000,1.30905908203125,-0.0031868133425712,0.0648357525259256,-0.0672270315766334,-0.0024290084838867,0.0291959960013628,-0.069852203130722
1783204887459996000,1.318995849609375,0.0367407078981399,0.0276364872053265,-0.0596375993609428,-0.0045262472704052,0.0208672266453504,-0.0640814006328582
1783204887469933000,1.32893310546875,0.0581330400168895,-0.0070917118266224,-0.067751932233572,-0.0073390780016779,0.0105325635522603,-0.0596741326153278
1783204887479870200,1.3388701171875,0.0652139381885528,-0.0305503288254141,-0.0610264233708381,-0.0034729680046439,0.0060422071255743,-0.0531296804547309
1783204887489807000,1.34880712890625,0.0608504822820425,-0.0506084897309541,-0.0502256278932094,-0.0024645514786243,0.0093851238489151,-0.0551893413066864
1783204887499744000,1.358743896484375,0.0557172110468149,-0.0602403875596821,-0.0458183328449726,-0.000511122867465,0.0122786480933427,-0.0545078366994857
1783204887509681000,1.368680908203125,0.0553279194682836,-0.095911566530168,-0.0409340679347515,-0.001259721815586,0.0124078355729579,-0.0484925024211406
1783204887519619000,1.378619140625,0.0567944848895072,-0.1226766777284443,-0.0486778139293193,0.0035771122202277,0.0112978294491767,-0.0439131967723369
1783204887529556000,1.388555908203125,0.0651724371343851,-0.1475537832230329,-0.0493850854158401,0.0008714469149708,0.0137422047555446,-0.0387318357825279
1783204887539493000,1.3984931640625,0.0582481908291578,-0.1517972660116851,-0.0325391645550727,0.0007715784013271,0.0055532506667077,-0.0303396806120872
1783204887549430000,1.408429931640625,0.0678816960930824,-0.1722699990674853,-0.0355085357546806,0.0034983409568667,0.0067107127979397,-0.0224788933992385
1783204887559367000,1.418366943359375,0.0690770433574914,-0.1811268208704888,-0.021581717211008,0.0069481995888054,0.0043631363660097,-0.0176689587533473
1783204887569304000,1.428303955078125,0.0745896692991256,-0.1809573095224797,-0.0371463660895824,0.0111500425264239,0.0039959270507097,-0.0095822345465421
1783204887579241000,1.438240966796875,0.0750526106357574,-0.1886515172868967,-0.0275040929973125,0.015692064538598,-0.0014656838029623,-0.0034620242659002
1783204887589179100,1.44817919921875,0.0759650493055582,-0.1754103429198265,-0.0363350497066974,0.0198888666927814,-0.0021876022219657,0.0034519007895141
1783204887599116000,1.458115966796875,0.0543207882523536,-0.1603665030449628,-0.0554769725501537,0.0274919234216213,-0.002531150355935,0.0103012844920158
1783204887609053200,1.46805322265625,0.0490939935147762,-0.1406054253898561,-0.0892494782924652,0.0376230627298355,0.0001580752432346,0.014106186106801
1783204887618989800,1.47798974609375,0.0313964242607355,-0.1496020940549671,-0.1063572649598121,0.0510318167507648,0.0005879094824194,0.0165802631527185
1783204887628927000,1.487927001953125,0.0002770633757114,-0.1132910097457468,-0.1026081415593624,0.0585018768906593,-0.0021005333401262,0.0161591954529285
1783204887638864100,1.497864013671875,-0.0336953488528728,-0.0552102844379842,-0.1168207913070917,0.0695777013897895,-0.0074241920374333,0.0054993610829114
1783204887648802000,1.507802001953125,-0.0671300009429454,-0.02030979757905,-0.1200455985724926,0.076576791703701,-0.0094552328810095,-0.00548851583153
1783204887658739200,1.5177392578125,-0.0846779325932264,0.0185468795597553,-0.1351677643805742,0.0982027277350425,-0.0100621674209833,-0.0057822624221444
1783204887668676000,1.527676025390625,-0.1506353826254606,0.0566338875003159,-0.2148947965681552,0.1314594596624374,0.0015521179884672,-0.0385770164430141
1783204887678613200,1.53761328125,-0.5018891991853713,0.233189162671566,-0.2509212187170982,0.1707123219966888,0.026243882253766,-0.1145269125699997
1783204887688550100,1.547550048828125,-0.6933516822397708,0.3574452185459434,-0.3258025644391775,0.2207471132278442,0.0547016039490699,-0.1874289065599441
1783204887698487000,1.557487060546875,-0.7201625322759151,0.3696066348522901,-0.4137573267459869,0.2622309029102325,0.0687601715326309,-0.2700734436511993
1783204887708424200,1.567424072265625,-0.7390928581953048,0.5032002817839384,-0.3640969315201043,0.2824181914329529,0.0677634924650192,-0.3554695844650268
1783204887718362000,1.577362060546875,-0.6741694273859262,0.5180028602488339,-0.3038157735586166,0.2806530594825744,0.0474622175097465,-0.4303986728191376
1783204887728299300,1.58729931640625,-0.5380032996177673,0.525590392768383,-0.2492296123683452,0.2656786739826202,0.0093071330338716,-0.4883079826831817
1783204887738236200,1.597236083984375,-0.4218044396013021,0.5108417364478111,-0.174928112360835,0.2427413761615753,-0.0358153358101844,-0.5328122973442078
1783204887748173300,1.60717333984375,-0.2991045271277427,0.5056283857136965,-0.1135714341223239,0.2185576409101486,-0.078581690788269,-0.559823215007782
1783204887758110000,1.61710986328125,-0.1717921524226665,0.473500724568963,-0.0545493363112211,0.2066200226545334,-0.1052678972482681,-0.5759009718894958
1783204887768047000,1.627047119140625,-0.0497094950646162,0.4160230797208845,0.0201361945778131,0.1918763518333435,-0.1143791154026985,-0.5773921608924866
1783204887777985000,1.636985107421875,0.0547591796696186,0.384439170064032,0.101942955648899,0.1825947016477584,-0.111642450094223,-0.571458637714386
1783204887787922200,1.646922119140625,0.1534317353457212,0.3386049089975655,0.1892705259680747,0.1739359498023986,-0.0961483269929885,-0.5484970211982727
1783204887797859000,1.656859130859375,0.239862064564228,0.2613309690505266,0.261755331942439,0.1603487730026245,-0.0736131966114044,-0.5225234627723694
1783204887807796200,1.666796142578125,0.3210837192237377,0.2069856308788061,0.3094289372652768,0.1452082693576812,-0.0539692267775535,-0.4796165227890014
1783204887817733000,1.676733154296875,0.3594634265005588,0.1395604463815689,0.3343278162002563,0.1340594738721847,-0.0289096795022487,-0.4388038516044616
1783204887827670000,1.686669921875,0.347515799075365,0.0864811826229095,0.3305862915843725,0.1193828210234642,-0.0085047781467437,-0.3970091938972473
1783204887837608200,1.696608154296875,0.3199842335492372,0.0521963434442877,0.3116431061834097,0.1076585203409195,0.0060920086689293,-0.3612184524536133
1783204887847545000,1.706545166015625,0.2878840449333191,0.011387655454874,0.3046791123896837,0.0983269810676574,0.0244746599346399,-0.3275251090526581
1783204887857482200,1.716482177734375,0.2636544435620307,-0.0366987684525549,0.2781494173824787,0.0823927670717239,0.0323168709874153,-0.2993792295455932
1783204887867419100,1.726419189453125,0.2273760924786329,-0.0374985405281186,0.2513327221274375,0.0664946585893631,0.0402709729969501,-0.2743175029754638
1783204887877356000,1.73635595703125,0.198667884388566,-0.0603944090776145,0.2353700138419866,0.0507705584168434,0.0429945848882198,-0.254471093416214
1783204887887293200,1.746293212890625,0.1684106932908296,-0.1225843232698738,0.1886065091013908,0.0384891852736473,0.0445676483213901,-0.2419881671667099
1783204887897231000,1.756231201171875,0.1581120021164417,-0.1422664904698729,0.1716337469905614,0.0205344185233116,0.0445940122008323,-0.2208051234483719
1783204887907168300,1.766168212890625,0.1637315955638885,-0.200978499418497,0.1597071623533964,0.0077903191559016,0.0406154543161392,-0.2052856683731079
1783204887917105200,1.776105224609375,0.1639554674476385,-0.2179861867122351,0.1264618953555822,-0.0118571519851684,0.0385381877422332,-0.1920766532421112
1783204887927042300,1.786042236328125,0.1624298653155565,-0.2328308507531881,0.1006347956597805,-0.0205301903188228,0.0330425500869751,-0.1809349358081817
1783204887936979000,1.79597900390625,0.164517777505517,-0.2804160471402108,0.0589899491071701,-0.0262655764818191,0.0306310579180717,-0.1670105904340744
1783204887946916000,1.805916015625,0.1976952399641275,-0.3109481096565723,0.0245306301444768,-0.0311079248785972,0.0311054456979036,-0.1465036571025848
1783204887956854000,1.81585400390625,0.2337175704598426,-0.3417959601238369,0.0118131873905658,-0.0295933857560157,0.0273413341492414,-0.1184134259819984
1783204887966791200,1.825791259765625,0.260325006878376,-0.3725380121290683,0.0081435589671134,-0.0266020521521568,0.0297630354762077,-0.0950905084609985
1783204887976728300,1.835728271484375,0.2678127322852611,-0.3990732600942254,-0.0176928930789232,-0.0230371430516242,0.0267379507422447,-0.0703833028674125
1783204887986665200,1.845665283203125,0.2753004576921463,-0.4113096413329243,-0.0360761065095663,-0.0108868209645152,0.0233620200306177,-0.0417028851807117
1783204887996602000,1.85560205078125,0.2803670934319496,-0.4250570116564631,-0.0474853892743587,-0.00481987465173,0.0216900873929262,-0.0179733242839574
1783204888006539000,1.8655390625,0.2792664387136697,-0.4152592557415366,-0.0327063378155231,-0.000818214379251,0.0285910069942474,0.0068985223770141
1783204888016477200,1.875477294921875,0.2784937007755041,-0.4219980624772608,-0.0129389765501022,0.0074538299813866,0.0256892256438732,0.0340542420744895
1783204888026414000,1.8854140625,0.2689233238756656,-0.4144352260075509,-0.0153103818565607,0.0108422553166747,0.0270875934511423,0.0585002154111862
1783204888036351200,1.895351318359375,0.2098310834378004,-0.376906436471641,-0.0245487503230571,0.0160625837743282,0.0149619560688734,0.0742387026548385
1783204888046288100,1.9052880859375,0.107959439459443,-0.3095681996054947,-0.0265478151857852,0.0138768777251243,0.0125380493700504,0.0693360716104507
1783204888056225000,1.91522509765625,0.012239888370037,-0.2561521051079035,-0.0289537072837352,0.0171368531882762,0.007306003011763,0.0645988434553146
1783204888066163000,1.925162841796875,-0.0544265867143869,-0.2072885593481361,-0.0319844532817602,0.0148600805550813,0.0031189352739602,0.050648134201765
1783204888076100000,1.93510009765625,-0.073719900727272,-0.1537542452983558,-0.0192360308676958,0.0128003917634487,-0.000550634227693,0.0388479307293891
1783204888086037200,1.945037353515625,-0.0550093550384044,-0.1368831899963319,-0.0021112930655479,0.0084316078573465,-0.0003077471628785,0.037125639617443
1783204888095974100,1.95497412109375,-0.0105541272401809,-0.1115580484732985,0.0212701670438051,0.0028315130621194,-0.0015128273516893,0.0370265692472457
1783204888105911300,1.964911376953125,0.0265928233712911,-0.0709502898834645,0.0391693963497877,-0.0018101753666996,-0.0047948244027793,0.0369664244353771
1783204888115848200,1.97484814453125,0.0090285251080989,-0.0289990077301859,0.0260568167984485,-0.0004714047536253,0.0010699890553951,0.0344830267131328
1783204888125786000,1.9847861328125,-0.010604396122694,0.0048391105942428,0.0266308172941207,0.0070298477075994,0.0111113600432872,0.0350169204175472
1783204888135723000,1.994722900390625,-0.0065559975147247,0.0380555898889899,0.0114309100747108,0.0118469735607504,0.0126783642917871,0.0351404920220375
1783204888145660200,2.00466015625,-0.0281716169953346,0.0808111741624772,0.0147562551051378,0.0167751796543598,0.0160510335117578,0.0304280333220958
1783204888155597300,2.014597412109375,-0.0389811803013086,0.1018995548985898,0.0149064772307872,0.0180851891636848,0.0187027435749769,0.0277768578380346
1783204888165534200,2.0245341796875,-0.0375578694999218,0.1448575298763811,0.0256540812164545,0.0207739621400833,0.0201954804360866,0.0238261204212903
1783204888175472400,2.034472412109375,-0.0539952095597982,0.1547927945658564,0.0325531930804252,0.0136526701971888,0.0196346193552017,0.0194060709327459
1783204888185409000,2.044408935546875,-0.060368251723051,0.1765250261634588,0.0275426714420318,0.0134505061432719,0.0195293799042701,0.0189488008618354
1783204888195346200,2.05434619140625,-0.0575251372516155,0.217796217098087,0.0378998148053884,0.0086605437099933,0.0208713468164205,0.0201996881514787
1783204888205283000,2.064282958984375,-0.0648895285397768,0.2195874844290316,0.0680208123028278,0.0072619318962097,0.0263126865029335,0.0153079032897949
1783204888215220200,2.07422021484375,-0.0652513475894927,0.2329490703053772,0.0610813684284687,0.000863155350089,0.0282045975327491,0.0111014414578676
1783204888225158100,2.084158203125,-0.0642395401984453,0.2387653553687035,0.0600420885086059,-0.0011476781219244,0.0281161814928054,0.0094633027911186
1783204888235095300,2.09409521484375,-0.0860322698116302,0.2373683480523526,0.0437689990997314,-0.0022433027625083,0.0271875374019145,0.0036429637111723
1783204888245032200,2.1040322265625,-0.1158902324587106,0.2361022736392915,0.0365215121895074,-0.0041942605748772,0.0322961993515491,-0.0114300344139337
1783204888254969000,2.113968994140625,-0.145912445756793,0.2590453423313796,0.0102250414162874,-0.0093991430476307,0.0348493717610836,-0.0276255160570144
1783204888264906200,2.12390625,-0.1907148795574903,0.2650200328268111,-0.001254968497157,-0.0119500001892447,0.0327414497733116,-0.050233744084835
1783204888274843100,2.133843017578125,-0.1993956141412258,0.2397733633674681,-0.0188736272960901,-0.0124868946149945,0.0300726946443319,-0.0724354535341262
1783204888284781300,2.14378125,-0.1793055967926979,0.2217604445539414,-0.0362099620223045,-0.0133797451853752,0.0290014892816543,-0.0882138684391975
1783204888294718000,2.153718017578125,-0.1442038882732391,0.1996848063461482,-0.0532207180559635,-0.0105876885354518,0.030760508030653,-0.1017208844423294
1783204888304655000,2.163655029296875,-0.0950233855187892,0.1775799420438706,-0.0620423224151134,-0.0085602318868041,0.0251061283051967,-0.1088725924491882
1783204888314592000,2.173592041015625,-0.0478805260717868,0.1310020230032503,-0.0769908852219581,-0.0015670377761125,0.0223289839923381,-0.1073410063982009
1783204888324529200,2.183529052734375,0.0181201785802841,0.0921782252207398,-0.0838093330651521,0.0102733597159385,0.0196031983941793,-0.1011646017432212
1783204888334467000,2.193467041015625,0.0819143130987882,0.0505716648519039,-0.0751736066669225,0.0145000629127025,0.0171064846217632,-0.0938816592097282
1783204888344404200,2.203404296875,0.1189870294302701,0.0321698928512632,-0.0488005635261535,0.0180695950984954,0.0173397399485111,-0.081931822001934
1783204888354341000,2.213341064453125,0.1041769983112812,0.0115332014054059,-0.0387888725996017,0.0207958742976188,0.0220351591706275,-0.0752824395895004
1783204888364278000,2.223278076171875,0.0979974328935146,-0.0218478208012878,-0.0485112251907587,0.0220492854714393,0.0207638051360845,-0.0649406164884567
1783204888374215200,2.233215087890625,0.1010018754065036,-0.0542319409251213,-0.0429226114034652,0.0155237419530749,0.0147645026445388,-0.0590989738702774
1783204888384153000,2.243153076171875,0.116048053368926,-0.0542673044994473,-0.0323491949409246,0.0047320229932665,0.0086137037724256,-0.0525661446154117
1783204888394090200,2.25309033203125,0.11949088729918,-0.0830548614360392,-0.0228150583982467,-0.001160753890872,0.003530794288963,-0.0403241254389286
1783204888404027100,2.263027099609375,0.1261275488346815,-0.1170616143256425,-0.0149240128874778,-0.0120977219194173,-0.0039647528901696,-0.0301755405962467
1783204888413964000,2.272964111328125,0.1280716686397791,-0.1261100131779909,-0.0131599258244037,-0.0118212848901748,-0.0082207499071955,-0.0204318314790725
1783204888423901200,2.282901123046875,0.0875964503884315,-0.1306488256514072,-0.0413689522206783,-0.0105534121394157,-0.0134495962411165,-0.0207332111895084
1783204888433839000,2.292839111328125,-0.0048439328998327,-0.1049142265446484,-0.0957610521435737,0.0039461683481931,-0.0196875184774398,-0.031706765294075
1783204888443776300,2.3027763671875,-0.0700765757888555,-0.0940237069569528,-0.1269043784260749,0.0193765759468078,-0.0196569301187992,-0.0371975004673004
1783204888453713200,2.312713134765625,-0.0788993491917848,-0.0873575270660221,-0.1084632973283529,0.0340985283255577,-0.0207794532179832,-0.0507154390215873
1783204888463650300,2.322650390625,-0.054184010130167,-0.0850679548241198,-0.0752104315459728,0.0384412482380867,-0.0154248643666505,-0.055075529962778
1783204888473587000,2.3325869140625,-0.0125432552307844,-0.1008782490268349,-0.0316390008449554,0.0426911190152168,-0.008881477639079,-0.0539287738502025
1783204888483525000,2.342525146484375,0.0346358445733785,-0.1065443119645118,0.0097404727697372,0.0417067557573318,-0.012895967811346,-0.0459500104188919
1783204888493462000,2.3524619140625,0.0941962870448827,-0.1304110713727772,0.0447720386624336,0.0416114144027233,-0.0132989045232534,-0.0319055654108524
1783204888503399200,2.362399169921875,0.138293787446618,-0.1519089096926152,0.0831891553401946,0.0348574370145797,-0.0124008106067776,-0.0172668993473052
1783204888513336000,2.372336181640625,0.1560463017582893,-0.1561608680486679,0.1358896489143371,0.0282978042960166,-0.0029220879077911,-0.0024488046765327
1783204888523273200,2.382273193359375,0.1748912874817848,-0.1559820043504238,0.1926543231874704,0.015379243530333,0.0089577790349721,0.0192205719649791
1783204888533211100,2.392211181640625,0.1743827534377574,-0.1520132468499243,0.2136035877138376,0.0012969803065061,0.01596668548882,0.0311328936368227
1783204888543148000,2.40214794921875,0.1219441256701946,-0.1065570253156125,0.1821744302272796,-0.0121308118104934,0.0140637066215276,0.0375160872936248
1783204888553085200,2.412085205078125,0.0249427180767059,-0.0732557903468608,0.1086006599724292,-0.0196814052760601,0.0061839460395276,0.0345762223005294
1783204888563022000,2.42202197265625,-0.0358984118551015,-0.06032353579849,0.0549964955568313,-0.0251230746507644,0.0030753510072827,0.031019140034914
1783204888572959200,2.431959228515625,-0.0610077186703681,-0.0239741653054952,0.0404512528538703,-0.0277667939662933,0.0091825118288397,0.0237452499568462
1783204888582897200,2.441897216796875,-0.0548293222963809,-0.0029845687687397,0.045187049204111,-0.0337768569588661,0.0148337427526712,0.0199558679014444
1783204888592834300,2.451834228515625,-0.0308428820312023,0.0025135902561247,0.0180973822265863,-0.0302084852010011,0.0154774282127618,0.019469840452075
1783204888602771000,2.46177099609375,0.0107505265951156,0.0107790220372378,-0.0099181674242019,-0.0255657471716403,0.0096986377611756,0.0246172584593296
1783204888612708000,2.4717080078125,0.0359697235256433,0.0159669460691511,-0.039922260543704,-0.0163589343428611,0.0063238800503313,0.0335284620523452
1783204888622645200,2.481645263671875,0.0307283157408237,0.0205558812946081,-0.0383165789127349,-0.0089827524498105,0.0095405532047152,0.0380995199084281
1783204888632583200,2.491583251953125,0.0188484928548336,0.0392423154555261,-0.0125911860257387,-0.0013133818283677,0.017922319471836,0.0392614565789699
1783204888642520000,2.50152001953125,0.0003945522755384,0.0577447713516652,-0.0111895025342702,0.0017950600013136,0.0252436157315969,0.0388055257499218
1783204888652457200,2.511457275390625,-0.0427332263112068,0.0809308550193905,-0.0022504092752933,0.0022541880607604,0.021848352625966,0.0285291876643896
1783204888662394000,2.52139404296875,-0.1217705226689577,0.1059606668576598,-0.0456540821939706,0.0018769847229123,0.0097400620579719,0.0098812328651547
1783204888672331000,2.5313310546875,-0.1551554903984069,0.12211582897529,-0.0768424166619777,0.0004668403416872,0.0031790980137884,-0.0065262364223599
1783204888682269700,2.541269775390625,-0.155009944447875,0.1198813479214906,-0.0853191531062126,-0.003056826069951,-0.0027348399162292,-0.0225415881723165
1783204888692206600,2.55120654296875,-0.097228202086687,0.1189690553821623,-0.0632119507163763,-0.0031670816242694,-0.0077698128297924,-0.0313686318695545
1783204888702143700,2.561143798828125,-0.0218722245901823,0.0976576795451343,-0.04565525123775,-0.0061239497736096,-0.0055739134550094,-0.0306952204555273
1783204888712080600,2.57108056640625,0.0400268899619579,0.0838188315458595,-0.0426151528894901,-0.003257323987782,-0.0111923851072788,-0.0239025633782148
1783204888722018800,2.581018798828125,0.0723737468153238,0.0686938892588019,-0.0536696308672428,0.0039026141166687,-0.0112306140363216,-0.0169424954801797
1783204888731955500,2.59095556640625,0.0656552522152662,0.0574795445442199,-0.0435229153841733,0.0055702850222587,-0.0047849658876657,-0.0077114459127187
1783204888741892600,2.600892578125,0.0552262126594781,0.0447549413971602,-0.0306838920772075,0.0132034374400973,0.0009757177904248,-0.003352117491886
1783204888751829500,2.61082958984375,0.0409574488103389,0.0307161869116127,-0.0125894324600696,0.0184274949133396,0.003963784314692,0.0004183859564363
1783204888761766700,2.6207666015625,0.028017887738347,0.0360249608442187,-0.0068815762072801,0.0185359455645084,0.002297616796568,0.007415113504976
1783204888771704600,2.63070458984375,-0.0076508070141077,0.0451949402496218,0.0100227968424558,0.0152269685640931,-1.42729841172e-05,-0.0011978156398981
1783204888781641700,2.640641845703125,-0.0676934800446033,0.059733314820379,-0.0037479543566703,0.0153624648228287,-0.008489622734487,-0.0132681280374526
1783204888791578600,2.65057861328125,-0.1098351702034473,0.0578020544968545,-0.0257078572303056,0.0167568959295749,-0.0140974409878253,-0.0248741824179887
1783204888801515500,2.660515625,-0.1137947214841842,0.061603784867376,-0.0114648123443126,0.0102474987506866,-0.0106494408100843,-0.0381928868591785
1783204888811452700,2.67045263671875,-0.0992260979056358,0.04768339606449,0.031774025401473,0.0031448481604456,-0.007379078771919,-0.0458060652017593
1783204888821390600,2.680390625,-0.0468839162498712,0.005799187798053,0.0444078815251588,-0.0010320898145437,-0.0107758212834596,-0.0474745370447635
1783204888831327700,2.69032763671875,-0.0002133504897356,-0.0139335405454039,0.0461819054603576,-0.005623378790915,-0.0102101657539606,-0.0416006669402122
1783204888841264600,2.7002646484375,0.0512695839881897,-0.0338861952498555,0.0423626394331455,-0.0058219814673066,-0.0072713010013103,-0.0339641533792018
1783204888851201500,2.710201416015625,0.0763970109820365,-0.0552474015779793,0.0433130720257759,-0.0032054251059889,-0.0032544545829296,-0.0278338212519884
1783204888861139500,2.720139404296875,0.0950520270913839,-0.0766787505328655,0.0348901115953922,0.0008112201467156,-0.0016005900688469,-0.0132153984159231
1783204888871076600,2.73007666015625,0.0810696789681911,-0.0786259390778839,0.0247036486238241,0.0061639072373509,0.0007312740199267,-0.005472257733345
1783204888881013500,2.740013427734375,0.0549742837250232,-0.0679623601138591,0.014821137034893,0.0100833754986524,0.0052533480338752,-0.0045979730784893
1783204888890950700,2.74995068359375,0.0163788878709077,-0.0536330982491373,0.0166430917650461,0.0144759928807616,0.0075412699952721,-0.0047782692126929
1783204888900887800,2.7598876953125,-0.0084773209661245,-0.0537234068810939,0.0229915840089321,0.018137477338314,0.010617759078741,-0.0047566648572683
1783204888910825700,2.76982568359375,-0.0012421090155839,-0.0401119378969073,0.0167734401464462,0.0147512694820761,0.0125157944858074,-0.0071050403639674
1783204888920762600,2.7797626953125,0.0018470891714096,-0.0425030708171427,0.0360936421662569,0.0054323663935065,0.0084615843370556,-0.0063378829509019
1783204888930699500,2.789699462890625,0.0122451490670442,-0.0310090323783457,0.0295282923012971,-0.0016918554902076,0.0017773164436221,-0.0067554665729403
1783204888940636700,2.79963671875,0.0089396777808666,-0.029316841507703,0.023780688560009,-0.0115547683089971,-0.0082897692918777,-0.0074931969866156
1783204888950574600,2.80957470703125,-0.0054664487123489,-0.0305285553850233,0.019332476979494,-0.0136972814798355,-0.0005988255143165,-0.0100642126053571
1783204888960511700,2.81951171875,0.0080786770373582,-0.0072505556501448,0.0085480481147766,-0.0148023962974548,0.0049327556043863,-0.0110536124557256
1783204888970448600,2.82944873046875,0.0317617504417896,-0.0266420693404972,0.0054717094093561,-0.0112444125115871,0.0088547933846712,-0.0071478197351098
1783204888980385500,2.839385498046875,0.0393763170987367,-0.044049569606781,0.0025952771902084,-0.0075442632660269,0.0114334728568792,0.0001525399275124
1783204888990322700,2.84932275390625,0.0505506220638751,-0.0365704658977687,-0.0274129075825214,-0.0022618826478719,0.0043025920167565,0.0077143195085227
1783204889000260600,2.859260498046875,0.025375264275074,-0.0352061918072402,-0.0423567942142486,0.0009406367316842,0.0045137987472116,0.0046492516994476
1783204889010197800,2.86919775390625,-0.0046393502384424,-0.0159143390990793,-0.0473760836809873,0.0010077487677335,-0.0032091024331748,0.0014326861128211
1783204889020134700,2.879134765625,-0.0197591779589653,-0.0125816875450313,-0.0411976873070001,0.006019898224622,-0.0012495103292167,-0.0049344985745847
1783204889030071800,2.88907177734375,-0.0159527714133262,-0.0147596161060035,-0.0344721784442663,0.0024762963876128,-0.0038378364406526,-0.002668681088835
1783204889040008400,2.899008544921875,0.0010801964521408,-0.0190464996449649,-0.0331739553272724,0.0062342626042664,-0.0011280351318418,-0.0027963477186858
1783204889049946600,2.908946533203125,0.0240559983700513,-0.0188576990745961,-0.0209001646876335,0.0102657563984394,-0.0022289855405688,0.0054999319836497
1783204889059883500,2.918883544921875,0.052003743481636,-0.0098301968798041,1.81201785802e-05,0.0143286092206835,-0.0009687948040664,0.009994052350521
1783204889069820700,2.928820556640625,0.0406447295993566,0.0104518359094858,0.0011684592574834,0.0161440856754779,0.0008586663752794,0.0132407117635011
1783204889079757600,2.938757568359375,-0.0035655835270881,0.0285388428725302,0.0128904612332582,0.0225969292223453,0.0090781906619668,0.0102781094610691
1783204889089695700,2.94869580078125,-0.0356026437789201,0.0400052626520395,0.0363479091882705,0.0234115906059741,0.0162881668657064,0.0079715456813573
1783204889099632600,2.958632568359375,-0.0437573086619377,0.0573578178606927,0.0516910242706537,0.0150603055953979,0.020143236964941,0.0011081786360591
1783204889109569500,2.968569580078125,-0.0438362191170454,0.0455227108992636,0.0623351678818464,0.0006491430103778,0.0162273254245519,-0.0033456920646131
1783204889119506700,2.978506591796875,-0.03989244992733,0.04521232977584,0.0608311930596828,-0.0112249702215194,0.0126724764704704,-0.0024429112672805
1783204889129444600,2.988444580078125,-0.0262105460554361,0.0441436776310205,0.0460433737725019,-0.017206696793437,0.0120223984122276,-0.0054248524829745
1783204889139381800,2.9983818359375,-0.0158019647657871,0.0325124226786196,0.019026772031188,-0.0202519819140434,0.0067102895118296,-0.0115255583077669
1783204889149318700,3.008318603515625,-0.0196042796581983,0.0402111604876816,-0.0094932200103998,-0.0171307548880577,0.0030191484838724,-0.0167464185506105
1783204889159255800,3.018255859375,-0.0386865812689065,0.0478800876803696,-0.0523404280900955,-0.0114477584138512,-0.0003459183499217,-0.0196941029280424
1783204889169192400,3.0281923828125,-0.0491945312798023,0.0347903044827282,-0.0676437956839799,-0.0068218475207686,-0.0008159661665558,-0.0244286693632602
1783204889179130600,3.038130615234375,-0.03826981716156,0.0275189983054995,-0.079607789722085,0.0002173800021409,-0.0024787336587905,-0.0306047070771455
1783204889189067500,3.048067626953125,0.0048614685565233,-0.0020873276680707,-0.071774611878395,0.0066973837092518,-0.002114413306117,-0.0252469591796398
1783204889199004700,3.058004638671875,0.0475455950289964,-0.0171324827171862,-0.0508826304972171,0.0100060775876045,0.0012542465701699,-0.0207523442804813
1783204889208941800,3.06794189453125,0.0925958661109209,-0.0137878484643995,-0.0413251130789518,0.0137539450079202,0.0030963548924773,-0.0117460656911134
1783204889218879700,3.077879638671875,0.1057066920965909,-0.0238964238941669,-0.0282476048409938,0.0162767767906188,-0.0025874469429254,0.0029880381189286
1783204889228816600,3.087816650390625,0.0944710123330354,-0.0367057827152311,-0.0114274029433727,0.0159007385373115,-0.0018305769190192,0.0104733845219016
1783204889238753500,3.09775341796875,0.0586672930240631,-0.0263031927749514,0.0049526539713144,0.0180063359439373,-0.0020921365357935,0.0129721947014331
1783204889248690700,3.107690673828125,-0.0057359133034944,-0.0073101768828928,0.0096937110185623,0.0152382468804717,-0.0044655450619757,0.0051065497100353
1783204889258627600,3.117627685546875,-0.0598754997700452,0.0125661977149546,0.003825111246109,0.0163983814418315,-0.0033762389793992,-0.0026128231547772
1783204889268565800,3.127565673828125,-0.0699766225457191,0.007544862421602,0.0182499424397945,0.0136627815663814,-0.0026763603091239,-0.0094856433570384
1783204889278502700,3.137502685546875,-0.0694984836399555,0.01040200541839,0.0444844538927078,0.0102990046143531,-0.0013558347709476,-0.0154229905456304
1783204889288439800,3.147439697265625,-0.0396668244779109,-0.0021963410004973,0.0636158553421497,0.0046877237036824,-0.003808606415987,-0.0195002909749746
1783204889298376400,3.15737646484375,-0.0062193129062652,-0.0134929571710526,0.0648357525259256,0.0019208015874028,-0.0023167394101619,-0.0127372266724705
1783204889308314600,3.167314697265625,0.0179079971343278,-0.0339257966078817,0.0666407561212778,-0.001755160279572,-0.0002384088002145,-0.0112165613099932
1783204889318251500,3.17725146484375,0.0267769477665424,-0.0375200217075645,0.049812370917201,-0.0029062805697321,0.0014095338992774,-0.0082911495119333
1783204889328188700,3.187188720703125,0.0278524680435657,-0.0416255573302507,0.0538175149053335,-0.0005999831482768,0.0102123469114303,-0.0036945331376045
1783204889338125800,3.197125732421875,0.0278249955147504,-0.0491784569278359,0.0695370620846748,0.0028821909800171,0.0131888631731271,0.001226318301633
1783204889348063700,3.207063720703125,0.0399748675137758,-0.0537888733327388,0.0489683213084936,0.0013948157429695,0.0154437627643346,0.0060439771041274
1783204889358000600,3.217000732421875,0.0366910235375165,-0.0543409542575478,0.0371948814064264,0.0011428799480199,0.0162810590118169,0.0089606707915663
1783204889367937500,3.2269375,0.0256219325125217,-0.0399991251721978,0.0372048182785511,0.0016744472086429,0.0173788145184516,0.0157152451574802
1783204889377874700,3.236874755859375,0.0162654906243085,-0.0390951620697975,0.0387859499901533,-0.0005469536408782,0.0132021065801382,0.0163982808589935
1783204889387812600,3.2468125,0.0127858318150043,-0.0156247085027396,0.0407610494554042,0.0005028638988733,0.0153808388859033,0.0163266416639089
1783204889397749800,3.256749755859375,-0.0205786776483058,0.0036195056714117,0.0382873528182506,0.0027174763381481,0.0196438338607549,0.0125600071623921
1783204889407686700,3.266686767578125,-0.045321489238739,0.0220411514163017,0.0399199224561452,0.0005699032917618,0.0257360804826021,0.005132982507348
1783204889417623800,3.276623779296875,-0.057421676877141,0.0356692792743444,0.0494032055944204,-0.0018156841397285,0.0303440764546394,5.97881153225e-05
1783204889427560400,3.286560546875,-0.070461775714159,0.0430323553882539,0.0187204825609922,-0.0085281822830438,0.0251093655824661,-0.0098961731418967
1783204889437498600,3.29649853515625,-0.0930962168484926,0.0661079644188284,-0.0101239191293716,-0.0131718646734952,0.0161534082144498,-0.0246852748095989
1783204889447435500,3.306435546875,-0.0953507177770137,0.0618561521932482,-0.0465501542508602,-0.0104359984397888,0.0104731516912579,-0.0294515341520309
1783204889457372700,3.31637255859375,-0.0578764349073171,0.0451375109739601,-0.0730313339412212,-0.0116609698161482,0.0031975912861526,-0.0383813716471195
1783204889467309800,3.326309814453125,-0.0185696759134531,0.0276977158732712,-0.0769610746055841,-0.008188740350306,-0.0002908832393586,-0.037236213684082
1783204889477247700,3.336247802734375,0.0263175135612487,-0.0104712712623178,-0.0584030891299247,-0.0074581820517778,-0.0009846240282058,-0.0348974652588367
1783204889487184600,3.3461845703125,0.0651367812991142,-0.0355156961478292,-0.0414946244269609,-0.002926280722022,-0.0015990152023732,-0.0237851571291685
1783204889497121500,3.35612158203125,0.0928589009612798,-0.0664823506891727,-0.0156897365629673,0.0009169857949018,-0.0019906945526599,-0.0167487524449825
1783204889507058700,3.36605859375,0.0978659154683351,-0.0929075624085962,0.0133247609972953,0.0027159508317708,0.0017081703990697,-0.0062252720817923
1783204889516996600,3.37599658203125,0.0783545747905969,-0.1165305761888623,0.0415016386896371,-0.0052920253947377,0.0033472010400146,-0.0004364904016256
1783204889526933800,3.385933837890625,0.0499614239990711,-0.1223984453089535,0.054409635579586,-0.0039039859548211,0.0049472283571958,0.0044032726436853
1783204889536870700,3.39587060546875,0.0359440045624971,-0.1330010878659784,0.0484030886411666,-0.0070322258397936,0.0009886561892926,0.0060572922229766
1783204889546807600,3.4058076171875,0.0212783503502607,-0.1312672498106956,0.0501858804047107,-0.0101981917396187,0.0016781487502157,0.0056168055161833
1783204889556745500,3.415745361328125,0.0188438166797161,-0.1294774437844753,0.0606231032669544,-0.0061581833288073,0.0068032820709049,0.0086639337241649
1783204889566682600,3.4256826171875,0.0355196416705846,-0.1397312729038298,0.0649473962068557,-0.0007932446897029,0.0154337882995605,0.0122333690524101
1783204889576619500,3.43561962890625,0.0649520723819732,-0.1463613585680723,0.0857680659174919,-0.0081656537950038,0.0224746875464916,0.0181719101965427
1783204889586556700,3.445556640625,0.0912035349696874,-0.1518316066727042,0.1083347025126218,-0.0170371774584054,0.0281861033290624,0.0273339822888374
1783204889596493800,3.455493896484375,0.1051449665606021,-0.1433142459571361,0.0973427683770656,-0.0283350460231304,0.0274701975286006,0.0345940329134464
1783204889606431700,3.465431640625,0.1014022729009389,-0.1311922848783433,0.0651461336493492,-0.0372861959040164,0.0234967619180679,0.0409616529941558
1783204889616368600,3.47536865234375,0.093432901456952,-0.1158298805736005,0.0098591307133436,-0.0423640459775924,0.0201196074485778,0.0487772300839424
1783204889626305500,3.485305419921875,0.0607984598338604,-0.0845494839079678,-0.0369686714351177,-0.0405850522220134,0.0100928070023655,0.0525778271257877
1783204889636242700,3.49524267578125,0.026824294039607,-0.0459646094478666,-0.0827700531452894,-0.0294339973479509,0.0065806899219751,0.0545232966542243
1783204889646180600,3.5051806640625,-0.0019651625931262,-0.0049715048022568,-0.132542092052102,-0.0174313951283693,0.0093615623190999,0.0509349517524242
1783204889656117800,3.51511767578125,-0.0374456412971019,0.0329391236580908,-0.1373883630394935,-0.0010375995188951,0.0077071567066013,0.0484536178410053
1783204889666054700,3.5250546875,-0.0463438180238008,0.0583520895950496,-0.1257370882123708,0.0103468811139464,0.0093503268435597,0.0427592471241951
1783204889675991600,3.534991455078125,-0.0561076716691255,0.0832310947857797,-0.1034095210701227,0.0217437148094177,0.0102039817720651,0.0385079458355903
1783204889685929500,3.544929443359375,-0.0520920062869787,0.0957107832610607,-0.0625929420351982,0.0267858766019344,0.0069780945777893,0.0350604876875877
1783204889695866600,3.55486669921875,-0.0546171408504247,0.127108522696048,-0.010527823755145,0.0304348859935998,0.0082418117672204,0.0380943529307842
1783204889705803500,3.564803466796875,-0.0476367804437875,0.1201353226825594,0.0202975226193666,0.0370046384632587,0.0067981118336319,0.0445107072591781
1783204889715740400,3.574740478515625,-0.0647656098991632,0.1280146777555346,0.0576338583230972,0.0371323451399803,0.0209447033703327,0.0293930973857641
1783204889725678300,3.58467822265625,-0.1248860243409872,0.1854123892351984,0.1385626675158739,0.0275289863348007,0.0333752743899822,0.0126636512577533
1783204889735615500,3.594615478515625,-0.1368365743756294,0.1904365010075271,0.1992202575743198,0.0038372343406081,0.0380276702344417,-0.0036253216676414
1783204889745552600,3.604552734375,-0.1094236667931079,0.1826768267914652,0.1788847410321235,-0.0183199979364871,0.0270687621086835,-0.0148372296243906
1783204889755489500,3.614489501953125,-0.0865869810849428,0.144794401512295,0.1278431205809116,-0.0391741693019866,0.0140907894819974,-0.0244615711271762
1783204889765427700,3.624427734375,-0.0899982508331537,0.1347721891917288,0.0933148280352354,-0.060028851032257,0.0062259421683847,-0.0350638814270496
1783204889775364600,3.634364501953125,-0.0724164169132709,0.1176020048126578,0.0580628973901271,-0.0656864568591117,0.0027376469224691,-0.0424273572862148
1783204889785301500,3.644301513671875,-0.026766426372528,0.1000678094267845,-0.0207552032589912,-0.0622389987111091,0.0090727740898728,-0.0387319549918174
1783204889795238400,3.65423828125,0.0268073429048061,0.0950197322569787,-0.0748795921564102,-0.0457335039973259,0.0142294541001319,-0.0366824306547641
1783204889805176600,3.664176513671875,0.0464227284789085,0.0718546913772821,-0.138379712164402,-0.0295563992112875,0.017639897763729,-0.027654580771923
1783204889815113500,3.674113525390625,0.0712432814806699,0.0547089107871055,-0.1854267100214958,-0.0094309113919734,0.0164545252919197,-0.0231503341346979
1783204889825050600,3.684050537109375,0.0654214434593915,0.0544280480191111,-0.2227186220616102,0.0146738924086093,0.0141325136646628,-0.0112358834594488
1783204889834987500,3.693987548828125,0.0481833084106445,0.0540463552251458,-0.2224608479082584,0.0321905203163623,0.0151257142424583,-0.0075377193279564
1783204889844925400,3.703925537109375,0.0137082073569297,0.0645512364961206,-0.2009668089807033,0.0423345007002353,0.019002478569746,-0.0102288434281945
1783204889854862300,3.7138623046875,-0.0153834470927715,0.0897929375194013,-0.1521428645789623,0.0434727743268013,0.0202197879552841,-0.0189259238541126
1783204889864799500,3.723799560546875,-0.0187479550898075,0.0797327312760055,-0.1193383270859718,0.039542481303215,0.0126196593046188,-0.0304896347224712
1783204889874736600,3.733736572265625,0.0011427402943372,0.0668387629114091,-0.0840150847703218,0.0258110910654068,-0.0008872165344655,-0.0322815887629985
1783204889884674600,3.743674560546875,0.0239992997467517,0.0479791641406714,-0.0505921231180429,0.0071157002821564,-0.0098391659557819,-0.0363423787057399
1783204889894611700,3.75361181640625,0.0459843370616436,0.0246647779181599,-0.0380184727489948,-0.007131471298635,-0.0204457454383373,-0.0358253717422485
1783204889904548400,3.76354833984375,0.0642424628078937,0.0077159812048077,-0.0523053567767143,-0.0091394959017634,-0.0235957335680723,-0.0283299051225185
1783204889914485500,3.773485595703125,0.0694809479832649,-0.0142431910164654,-0.0765478176295757,-0.0053959330543875,-0.0226170681416988,-0.0222340878099203
1783204889924423400,3.78342333984375,0.0707908615380525,-0.0205412682473659,-0.0906651903092861,0.0100549291819334,-0.0196963790804147,-0.0174364019185304
1783204889934360600,3.793360595703125,0.0726759446322918,-0.02713102190122,-0.0991185458779334,0.0271113626658916,-0.015896052122116,-0.0101786693558096
1783204889944297500,3.80329736328125,0.0447200162142515,-0.0366049526892602,-0.0916337430804967,0.0354526489973068,-0.0123718902468681,-0.0078835571184754
1783204889954234600,3.813234619140625,-0.0030430209577083,-0.0276399943366646,-0.0619511370003223,0.0471010878682136,-0.0119637120515108,-0.010039797052741
1783204889964171500,3.823171630859375,-0.0371136328637599,-0.0184995332866907,-0.0387841964244842,0.0500790365040302,-0.0112489201128482,-0.013971421867609
1783204889974109400,3.833109375,-0.0673158789038658,-0.0078409227587282,0.0017149872243404,0.0475823432207107,-0.0146578755229711,-0.0254824571311473
1783204889984046300,3.84304638671875,-0.0737169781178236,-0.0097580084264278,0.0551291820257902,0.0392365269362926,-0.0149276535958051,-0.0318761765956878
1783204889993983500,3.8529833984375,-0.0640238516211509,-0.0286906724333763,0.1138029047906398,0.0282590482383966,-0.0165053270757198,-0.0346192680299282
1783204890003920600,3.862920654296875,-0.0344739320099353,-0.0380813088521361,0.1187917991191148,0.0169246345758438,-0.0183482319116592,-0.0326346829533577
1783204890013858600,3.872858642578125,-0.0091623806208372,-0.0681631433829665,0.1432768365561962,0.0093223471194505,-0.017979634925723,-0.031029911711812
1783204890023795700,3.882795654296875,0.0098591307133436,-0.0820243493445217,0.1643622946828603,0.0025193020701408,-0.0167061109095811,-0.0282437112182378
1783204890033732400,3.892732421875,0.0170060798585414,-0.1070749117098748,0.1755517972171306,0.0028329538181424,-0.0074905771762132,-0.0204478595405817
1783204890043669500,3.90266943359375,0.0386900884002447,-0.1205272446095943,0.197300687688589,0.0040231207385659,0.0066723795607686,-0.0088375434279441
1783204890053607400,3.912607421875,0.0294435366272926,-0.1363024674989283,0.2217442240715026,0.0020884191617369,0.0114531591534614,-0.0021158177405595
1783204890063544600,3.922544677734375,0.0095832363814115,-0.1394498256139457,0.2207809319972991,-0.0030203238129615,0.0204431917518377,0.0024642867501825
1783204890073481500,3.9324814453125,0.0020914193212985,-0.132945119895041,0.2120528511404991,-0.0112551879137754,0.0232222359627485,0.0042678117752075
1783204890083418600,3.942418701171875,-0.0101911391466856,-0.131735597974807,0.2206178503900766,-0.0179200153797864,0.0278833005577325,0.0080833230167627
1783204890093356500,3.9523564453125,-0.0166699797719717,-0.1299419925563037,0.2082084506720304,-0.0259282328188419,0.02817246876657,0.0076872408390045
1783204890103293400,3.96229345703125,-0.0169926358550786,-0.1346370185047388,0.2029460000991821,-0.0334758982062339,0.0366136245429515,0.0073745856061577
1783204890113230600,3.972230712890625,-0.0103477910131216,-0.1337270640529692,0.1957499511152505,-0.0374021045863628,0.0490759387612342,0.0049013784155249
1783204890123167500,3.98216748046875,0.0147813895463943,-0.1248345864146947,0.1889186437904834,-0.0496555715799331,0.0500123053789138,0.0039479662664234
1783204890133105400,3.99210546875,0.0363572615385055,-0.141942811473459,0.154090491515398,-0.058377668261528,0.0527636222541332,0.0113216843456029
1783204890143042600,4.00204248046875,0.060543608289957,-0.1613992070935666,0.1040367130577564,-0.0643343552947044,0.0470514073967933,0.0156341418623924
1783204890152979700,4.011979736328125,0.0687391897052526,-0.1533196532733738,0.0513368040055036,-0.0701381415128707,0.0405396893620491,0.0215950980782508
1783204890162916400,4.021916259765625,0.0579354716181755,-0.1401772631056606,-0.0118617027074098,-0.066208116710186,0.0334735251963138,0.0235740952193737
1783204890172854500,4.0318544921875,0.0513414801806211,-0.1296937168836593,-0.0692173286110162,-0.0593398213386535,0.0389913283288478,0.0244369581341743
1783204890182791400,4.04179150390625,0.0454980148494243,-0.1111703643299639,-0.100659930101037,-0.0419243462383747,0.0367071367800235,0.0237722322344779
1783204890192728600,4.051728515625,0.0563520018190145,-0.1091756833814084,-0.1311725572645664,-0.0221855901181697,0.0355517864227294,0.037748172879219
1783204890202665500,4.06166552734375,0.1007137061148881,-0.1072854857206344,-0.1483580853432416,0.0003575375303626,0.0524516738951206,0.0407327786087989
1783204890212603600,4.071603759765625,0.1089671551972627,-0.0713707072526216,-0.1168628768831491,0.0003456268459558,0.0583772771060466,0.0471941567957401
1783204890222540500,4.08154052734375,0.1005026937127113,-0.0614376345202326,-0.0872398920357227,0.0058458535932004,0.0514021925628185,0.0588478855788707
1783204890232477400,4.0914775390625,0.1141080252170562,-0.0493883002862334,-0.1235889702677726,0.0016148621216416,0.040543507784605,0.0649565234780311
1783204890242414600,4.10141455078125,0.1106254437983036,-0.0234912040941417,-0.1233639293402433,-0.0024930639192461,0.0295449197292327,0.0714216157793998
1783204890252352500,4.1113525390625,0.0590513239055871,0.0043628713846206,-0.1024322004705667,-0.0128864096477627,0.0295326150953769,0.063826210796833
1783204890262289400,4.121289306640625,0.0077922613114118,0.0541004234999418,-0.0800204621762037,-0.021198134869337,0.0286444537341594,0.0526025854051113
1783204890272226600,4.1312265625,-0.0113303723096847,0.0734592039644718,-0.1116501106709241,-0.0299373380839824,0.0184870846569538,0.0434880703687667
1783204890282163700,4.141163818359375,-0.0065244333326816,0.0693397859469056,-0.1610404567837715,-0.0338772162795066,0.0009965081699192,0.0379367135465145
1783204890292101600,4.1511015625,0.0116828390091657,0.0610005582772195,-0.2194008758157491,-0.0288019850850105,-0.0162586625665426,0.0346037708222866
1783204890302038500,4.16103857421875,0.0508124878704547,0.0714307668767869,-0.2474292849481105,-0.0188548117876052,-0.0217402465641498,0.0397732332348823
1783204890311975400,4.170975341796875,0.0847223562568426,0.0864205384768545,-0.2385579962283372,-0.0032723164185881,-0.0173673760145902,0.0461592376232147
1783204890321912600,4.18091259765625,0.079227265971899,0.0981846260286867,-0.2131763022124767,0.022102016955614,-0.0146197918802499,0.0538986474275589
1783204890331850500,4.1908505859375,0.0527840802043676,0.0803286513425409,-0.200557059136033,0.0422267615795135,-0.0055648628622293,0.0611353777348995
1783204890341787600,4.20078759765625,0.033721067816019,0.1083252040319144,-0.1682511188149452,0.0591394305229187,-0.0085047269240021,0.0648073405027389
1783204890351724500,4.210724609375,-0.0033399580776691,0.1561852718375623,-0.118895844015479,0.0660256221890449,-0.007749383803457,0.0625072419643402
1783204890361661400,4.220661376953125,-0.069698974648118,0.1900800887852907,-0.0553261659026145,0.0637174621224403,-0.0122988615185022,0.0544074960052967
1783204890371599400,4.230599365234375,-0.127611065390706,0.2115462167926132,0.0069797758847475,0.0609104335308074,-0.0099675999954342,0.0391272827982902
1783204890381536500,4.24053662109375,-0.1587508845418691,0.2155244727738201,0.0683913991808891,0.0471253767609596,-0.0099822478368878,0.019868366420269
1783204890391473400,4.250473388671875,-0.1585147376984357,0.2277146767832338,0.1259352411329746,0.0302265062928199,-0.0120404986664652,0.0060075083747506
1783204890401410600,4.26041064453125,-0.1457832664191722,0.2184223861724138,0.1738157672047615,0.0049640275537967,-0.0105179706588387,-0.0080401338636875
1783204890411348500,4.270348388671875,-0.1319534785091876,0.1963021781705319,0.1843207946062088,-0.0121476361528038,-0.0111034037545323,-0.0207192432135343
1783204890421285600,4.28028564453125,-0.1180003564804792,0.164277977400273,0.1786813274145126,-0.0264221802353858,-0.0103206997737288,-0.0293697230517864
1783204890431222500,4.290222412109375,-0.0958797100871801,0.1355754683986306,0.1550040992289781,-0.0299467928707599,-0.0075443927198648,-0.0314219444990158
1783204890441160400,4.300160400390625,-0.0729910019308328,0.0889371974729001,0.1065554178804159,-0.0333865322172641,-0.0042332848533988,-0.0349013619124889
1783204890451097600,4.31009765625,-0.0653173985630273,0.0683637805216014,0.0807990453332662,-0.0302438177168369,-0.0007407148368656,-0.0342322364449501
1783204890461034500,4.320034423828125,-0.0543412465184926,0.0389629139922559,0.0419932215988636,-0.0196130126714706,0.0041014445014297,-0.0367803499102592
1783204890470971600,4.3299716796875,-0.0320306305110454,0.0076664429746568,0.0062187283843755,-0.0073446221649646,0.005063752643764,-0.0332136116921901
1783204890480908500,4.339908447265625,-0.011963994038105,-0.0154895378157496,-0.0080167177170515,0.0077640223316848,0.0091032348573207,-0.0306953266263008
1783204890490846700,4.3498466796875,0.0081418054014444,-0.0361618850968778,0.000656418082118,0.0134741542860865,0.016737975180149,-0.0266933422535657
1783204890500783400,4.359783447265625,0.0176233349740505,-0.0443288249395787,0.0177905082345008,0.0180217679589986,0.0155443456023931,-0.0262081138789653
1783204890510720500,4.369720458984375,0.0311941796869039,-0.0550314207397401,0.0255529589295387,0.0120664136484265,0.0102980900555849,-0.0189056098461151
1783204890520658400,4.379658447265625,0.0424520712822675,-0.0582671877905726,0.036654783180356,0.0041773319244384,0.0115718804299831,-0.019492570310831
1783204890530595600,4.389595703125,0.032342765200138,-0.0554737576797604,0.0478980617284774,-0.0060842130333185,0.0087057389318943,-0.021753042936325
1783204890540532500,4.399532470703125,0.0276940626114606,-0.0795147046111524,0.0373638082325458,-0.0150516089051961,0.0026023061946034,-0.0163827780634164
1783204890550469600,4.4094697265625,0.0471522117972373,-0.0744572750911116,0.0138268653005361,-0.019446887075901,-0.0020745727233588,-0.0125088766217231
1783204890560407300,4.4194072265625,0.0499152467697858,-0.071536857599765,-0.014351181435585,-0.0196034796535968,-0.0001669507473707,-0.0135690802708268
1783204890570344400,4.429344482421875,0.0403244116038084,-0.067898208836466,-0.0311795666396617,-0.0158376544713974,-0.0018931468948721,-0.0089888554066419
1783204890580281600,4.439281494140625,0.0429769719392061,-0.0755308956719934,-0.068055883616209,-0.0031546158716082,0.0041482336819171,-0.0095718214288353
1783204890590218500,4.449218505859375,0.0368359849661588,-0.0684337770178914,-0.08558511056602,0.0064838328398764,0.0085321720689535,-0.0087032215669751
1783204890600156700,4.45915673828125,0.0405202264368534,-0.08628449100703,-0.0691273122400045,0.0101635223254561,0.0109034497290849,-0.0080576715990901
1783204890610093600,4.469093505859375,0.0447778838813304,-0.0924001974083483,-0.046524435287714,0.0131708784028887,0.0019922996871173,-0.0049497364088892
1783204890620030500,4.479030517578125,0.0637649084240198,-0.0870981454774737,-0.031596915268898,0.0081641357392072,0.0003019915893673,0.0018972505349665
1783204890629967400,4.48896728515625,0.0779419023364782,-0.1050352225758135,-0.0232464355528354,0.0063051907345652,-0.0056983581744134,0.0079730246216058
1783204890639905500,4.498905517578125,0.0804074156671762,-0.1170781270690262,0.0001133972465991,0.0038420325145125,-0.0125378891825675,0.0139273218810558
1783204890649842400,4.508842529296875,0.0821194802820682,-0.1121319028384983,0.0206423905342817,0.0035019470378756,-0.0077274213545024,0.0211924239993095
1783204890659779600,4.518779541015625,0.0672773004591465,-0.1083893553093075,0.0253846166253089,0.0061869462952017,-0.0042240326292812,0.0262649469077587
1783204890669716500,4.528716552734375,0.0547311226189136,-0.0821679955989122,0.0515296962291002,0.0106448195874691,0.0012788539752364,0.0289248675107955
1783204890679654100,4.538654052734375,0.0199193369567394,-0.0722546504803001,0.0506803859233856,0.0107755810022354,0.0065314066596329,0.0293949134647846
1783204890689591300,4.54859130859375,-0.0036450785040855,-0.0466081680484116,0.059262336307764,0.007440916262567,0.0092575456947088,0.0250674597918987
1783204890699528200,4.558528076171875,-0.0198573776364326,-0.035861148584634,0.0672036507010459,0.0022469535470008,0.0044018039479851,0.0219158753752708
1783204890709465000,4.568465087890625,-0.0150140292584896,-0.0307904211916029,0.0881570068806409,-0.0076564271003007,0.0043576485477387,0.0195906944572925
1783204890719403000,4.578403076171875,-0.0103571433633565,-0.0215201962821185,0.097205990254879,-0.0177934821695089,0.0036396605428308,0.0211126916110515
1783204890729340200,4.588340087890625,0.0162906250655651,-0.0194210320457816,0.0731792179793119,-0.0221847649663686,0.0027289451099932,0.0219790767878294
1783204890739277000,4.598277099609375,0.0282867678076028,-0.0137564304128289,0.0566641365081071,-0.0234612170606851,0.0054056881926953,0.0281901024281978
1783204890749214200,4.608214111328125,0.0426139838457107,-0.0037514614880084,0.0454231960475444,-0.0210437718778848,0.0124427927657961,0.032551571726799
1783204890759152000,4.618152099609375,0.0521843607455492,0.0353051221370697,0.0140910691946744,-0.0201252456754446,0.0144359022378921,0.0360568240284919
1783204890769089300,4.62808935546875,0.039532384443283,0.0535420589648187,-0.0155108728647232,-0.015682715922594,0.0156698860228061,0.0399286597967147
1783204890779026000,4.63802587890625,0.0217325238585472,0.0749793992690742,-0.0605886164754629,-0.0106160519644618,0.0157769471406936,0.0365043655037879
1783204890788963000,4.647963134765625,-0.0002045826613903,0.1135175119780003,-0.1019125605106353,-0.0037571359425783,0.0107269883155822,0.036085121333599
1783204890798901000,4.65790087890625,-0.0363689519762992,0.1275881229065358,-0.1218862580031156,0.0004581147804856,0.0083162952214479,0.0272444896399974
1783204890808838100,4.667838134765625,-0.0527484243690967,0.1520744755178689,-0.1438718798398971,0.0065454663708806,0.0022594148758798,0.0212999768555164
1783204890818775300,4.677775390625,-0.0671446139901876,0.1799032704249024,-0.1409428406506776,0.0093212788924574,-0.0027161687612533,0.0114907557144761
1783204890828712200,4.687712158203125,-0.0757873546510934,0.2055485838130116,-0.1150461828500032,0.0152974631637334,-0.007137123029679,0.000659848563373
1783204890838650000,4.697650146484375,-0.0717851332724094,0.2022913355827331,-0.1142524021238088,0.0157387498766183,-0.0077954563312232,-0.0083054173737764
1783204890848587000,4.7075869140625,-0.0698977120906114,0.1861829352162778,-0.0993248821049928,0.0152117135003209,-0.0141751486808061,-0.015687271952629
1783204890858524200,4.717524169921875,-0.0766039317309856,0.1823955256320536,-0.0903197378724813,0.0129711963236331,-0.0202926956117153,-0.0259042214602231
1783204890868461000,4.7274609375,-0.0687450349241495,0.1566049585543572,-0.080383450269699,0.0166264865547418,-0.0293090417981147,-0.029187561944127
1783204890878399200,4.737399169921875,-0.0474637619644403,0.1356812668606639,-0.0817120685249567,0.0184030830860137,-0.0315668694674968,-0.0368888899683952
1783204890888336100,4.747336181640625,-0.0460007036745548,0.1107986084081232,-0.0567237577408552,0.0195133592933416,-0.0327167324721813,-0.036292552947998
1783204890898273300,4.757273193359375,-0.0359644628286361,0.0934076208852231,-0.019537644162774,0.0295151285827159,-0.0264026448130607,-0.0426532477140426
1783204890908210000,4.7672099609375,-0.0247948340386152,0.0696818773828446,0.0113718733638525,0.0288009196519851,-0.0228644758462905,-0.0403142869472503
1783204890918148000,4.777148193359375,-0.0043412440747022,0.0395993121996521,0.0306470671981573,0.0303122624754905,-0.0194289982318878,-0.0390793792903423
1783204890928085000,4.7870849609375,0.0018488427370786,0.003927694837749,0.0773801768004894,0.0279618110507726,-0.01765988022089,-0.0410855785012245
1783204890938022100,4.797022216796875,0.0204629423141479,-0.0201059455700218,0.0980792659580707,0.0171341970562934,-0.017640171572566,-0.0337810590863227
1783204890947959300,4.806959228515625,0.028349896171689,-0.0424336588427424,0.1112701714426279,0.0089785847812891,-0.0168518908321857,-0.031315766274929
1783204890957897200,4.816897216796875,0.0329272870898246,-0.0718310182407498,0.128862526756525,0.0060251392424106,-0.0138947181403636,-0.0251963529735803
1783204890967834000,4.826834228515625,0.030785598886013,-0.0798731626600027,0.133791799852252,0.0005761515349149,-0.0146135408431291,-0.0229241773486137
1783204890977771000,4.83677099609375,0.023802900391817,-0.097554657562077,0.1193997018843889,0.0007396694272756,-0.0066661345772445,-0.0156841073185205
1783204890987709000,4.846708984375,0.0161614457279443,-0.1005098541058599,0.1103606553822755,0.0023802826181054,0.0015387572348117,-0.011172791942954
1783204890997646000,4.85664599609375,-9.11854147911e-05,-0.1042072473190724,0.118306645950675,0.0043448973447084,0.0106126796454191,-0.0135800233110785
1783204891007583200,4.866583251953125,-0.0177197810858488,-0.0933234497331082,0.1115828906536102,0.004637568257749,0.0168648995459079,-0.0128572527319192
1783204891017520000,4.87652001953125,-0.0431254404991865,-0.1009044063813984,0.0895563522845506,0.0030825491994619,0.0160318650305271,-0.0196712184697389
1783204891027458300,4.886458251953125,-0.0494926374435424,-0.0978048329308629,0.0933878932714462,-0.0037431269884109,0.0138807399198412,-0.022420234978199
1783204891037395200,4.896395263671875,-0.0352490080356597,-0.104212654146552,0.094792499372363,-0.0158266890794038,0.0147750293835997,-0.0267990045249462
1783204891047332000,4.90633203125,0.0113555067509412,-0.128371089977771,0.0948667336523532,-0.0231933072209358,0.0166083648800849,-0.0257752928882837
1783204891057269000,4.91626904296875,0.0550391656547784,-0.1403309923626482,0.0790296975731849,-0.0266074799001216,0.0149140628054738,-0.0172774121165275
1783204891067207200,4.926207275390625,0.088695936062932,-0.1576375164724886,0.045147886237502,-0.026366151869297,0.0166033785790205,-0.0121611021459102
1783204891077144000,4.93614404296875,0.114181090453267,-0.1670962496913969,0.0088028996586799,-0.0240500010550022,0.0129689620807766,0.000426061451435
1783204891087081200,4.946081298828125,0.1225660569608211,-0.17761852048859,-0.0150233816087245,-0.0186499040573835,0.0131752686575055,0.0104722008109092
1783204891097018400,4.956018310546875,0.1204278758883476,-0.1705959283754229,-0.0323813436448574,-0.0098654683679342,0.012880191206932,0.0209357608109712
1783204891106956300,4.965956298828125,0.1076724392116069,-0.1492085646927356,-0.0358966582894325,-0.0036297244951128,0.0112423617392778,0.0280642379075288
1783204891116893000,4.975892822265625,0.0919879633456468,-0.1246628831095993,-0.0417009606540203,-0.0011987909674644,0.0153430979698896,0.0338451601564884
1783204891126830000,4.985830078125,0.0822685333639383,-0.1028716148011386,-0.037408231896162,0.0029056696221232,0.0182644091546535,0.0376328155398368
1783204891136767200,4.995767333984375,0.0681172584146261,-0.0661553106918931,-0.0336146848320961,-2.235174179e-06,0.0161458645015954,0.0417266264557838
1783204891146705200,5.005705078125,0.0622632716894149,-0.039756256327033,-0.0352028308063745,-0.0030983174219727,0.0081911440938711,0.0417880043387413
1783204891156642300,5.015642333984375,0.0432990435004234,-0.0105554424144327,-0.0298994637012481,-0.0064925169572234,0.0047599272802472,0.0434519499540329
1783204891166579200,5.0255791015625,0.0045545945644378,0.0198002406217157,-0.0359761532664298,-0.0078569063916802,0.0011072410270571,0.0402346812188625
1783204891176516000,5.03551611328125,-0.0188695356428623,0.0479214426040649,-0.0473228921890258,-0.0091863563284277,-0.0021167816594243,0.0327437408268451
1783204891186454000,5.0454541015625,-0.0396773458719253,0.0698588413849473,-0.0440063149869442,-0.0093039097264409,-0.0008732266724109,0.0263283252716064
1783204891196391200,5.05539111328125,-0.0310386968642473,0.0916666224367916,-0.0714998865902423,-0.007974992506206,-0.0042732846923172,0.0253538712859153
1783204891206328000,5.065328125,-0.010839373922348,0.1042737366840243,-0.0689431878447532,-0.0047186389565467,-0.0031744986772537,0.024609487503767
1783204891216265200,5.07526513671875,-0.0077174425095319,0.1071003384120762,-0.0512350971966981,-0.0037601683288812,-0.0015289317816495,0.0219268854707479
1783204891226203100,5.085203125,-0.0163210202038288,0.1191188391163945,-0.0489747510492801,0.0023093884810805,-0.0003191283904016,0.0220940671861171
1783204891236140300,5.095140380859375,-0.009910568639636,0.1272242580302059,-0.0355254868894815,0.0067147891968488,-0.0008653425611555,0.0178812108933925
1783204891246077200,5.1050771484375,-0.0129997668266296,0.1429091722875833,-0.0385123937457799,0.0081961993128061,-1.12322159111e-05,0.0138180600479245
1783204891256014000,5.11501416015625,-0.038221301844716,0.1517792919635772,-0.0270166017413139,0.0089906211942434,-0.0022951592691242,0.0126822208985686
1783204891265952000,5.124951904296875,-0.0645323856651783,0.157110862249881,-0.0431365464150905,0.0108695868402719,-0.0019418899901211,0.0050872340798377
1783204891275889200,5.13488916015625,-0.0760486359357833,0.1533139541849494,-0.0335433731615543,0.0095505230128765,-0.0070309243164956,-0.0025576355401426
1783204891285826300,5.144826416015625,-0.0753472096681594,0.1541901524975895,-0.0373421809226274,0.0086094159632921,-0.0087482286617159,-0.0127892838791012
1783204891295763200,5.15476318359375,-0.0743868402034044,0.1495744753956794,-0.0188970081716775,0.0073433495126664,-0.0111703732982277,-0.0174665935337543
1783204891305701400,5.164701416015625,-0.054409635579586,0.1396850956745445,0.0105132107079029,0.0065129217691719,-0.0071104550734162,-0.0209135878831148
1783204891315638000,5.174637939453125,-0.0380973832041025,0.1270899641260504,0.020554127728939,0.0067613944411277,-0.0074444161728024,-0.0239115078002214
1783204891325575200,5.1845751953125,-0.0186035781830549,0.1090678390927612,0.015223872616887,0.0078842919319868,-0.0059919678606092,-0.0249526165425777
1783204891335513000,5.19451318359375,-0.015417933884263,0.0817759275414049,0.018655600631237,0.0059353909455239,-0.0039655691944062,-0.02794467844069
1783204891345450200,5.2044501953125,-0.0309252996176481,0.0708807317785918,0.014644026902318,0.0010190894827246,-0.0051113106310367,-0.0308387614786624
1783204891355387100,5.21438720703125,-0.0403279187351465,0.0467642353929579,0.0023100305080413,0.0022438773885369,-0.0028337752446532,-0.0345658548176288
1783204891365324300,5.22432421875,-0.0489490320861339,0.0361674380548298,-0.0049304421395063,0.0014612227678298,-0.0080377962440252,-0.0389912128448486
1783204891375262200,5.23426220703125,-0.0319675021469593,0.0093010584391653,0.0044306759238243,0.0028154393658041,-0.008833548054099,-0.0392386205494403
1783204891385199000,5.24419921875,-0.0036287118911743,-0.0213327108860015,0.0021346739411354,0.0045953355729579,-0.0085013005882501,-0.0391419902443885
1783204891395136000,5.254135986328125,0.0255816005021333,-0.0581372778005898,0.0265267723977565,0.006608419585973,-0.0078975614160299,-0.0351829342544078
1783204891405073200,5.2640732421875,0.0427320572674274,-0.0870994606517255,0.0466635514974594,0.0088414829224348,-0.0017027035355567,-0.0276203453540802
1783204891415011000,5.274010986328125,0.061121700438857,-0.1153220771819353,0.059711833640933,0.0077410642988979,-0.0017208126373589,-0.0228146724402904
1783204891424948200,5.2839482421875,0.0680757573604583,-0.1351458448097109,0.0663701224863529,0.0094899116083979,0.0023088385351002,-0.0135742612183094
1783204891434885000,5.293885009765625,0.0414040235340595,-0.1332487790167331,0.0835714326560497,0.0091863116249442,0.005599440075457,-0.0124386893585324
1783204891444822000,5.303822021484375,0.0186889183789491,-0.1278529113225638,0.0814303289741277,0.00464897044003,0.0085612712427973,-0.0117170568555593
1783204891454760200,5.31376025390625,-0.0023030162453651,-0.1354914433769881,0.0699170013129711,0.0018297480419278,0.0036685115192085,-0.0134853944182395
1783204891464697000,5.323697021484375,0.0038321255087852,-0.1398171976216137,0.0818149443775415,-0.0050912667065858,0.005830196198076,-0.0147501761093735
1783204891474634200,5.33363427734375,0.0205021052807569,-0.1562358329810202,0.0878968946397304,-0.0148914325982332,0.0075593865476548,-0.0103423781692981
1783204891484571100,5.343571044921875,0.0555354247391223,-0.1658488799788057,0.0894248348593711,-0.0188279058784246,0.0063903643749654,-0.0067563345655798
1783204891494509300,5.35350927734375,0.0887964738279581,-0.1661069463931024,0.0881178439140319,-0.0243499707430601,0.0081632304936647,0.0023103971034288
1783204891504446000,5.363446044921875,0.107547351527214,-0.1698743361026048,0.0611357289642095,-0.0236486531794071,0.0086872139945626,0.0114997634664177
1783204891514383000,5.373383056640625,0.1077507651448249,-0.1716466064721346,0.0235159001439809,-0.0209434144198894,0.0123477289453148,0.0235060919076204
1783204891524320000,5.383320068359375,0.1082201362222433,-0.1655348455935716,-0.0001928922235965,-0.0179953463375568,0.0164785794913768,0.0333390571177005
1783204891534258200,5.393258056640625,0.1017670145601034,-0.1406356743976473,3.68248790502e-05,-0.0113704670220613,0.0164298433810472,0.0406092219054698
1783204891544195000,5.403195068359375,0.0696902068197727,-0.1110785943932831,-0.0219844527930021,-0.0049794688820838,0.0177268162369728,0.0457616299390792
1783204891554132200,5.41313232421875,0.0446492890655994,-0.0792857181608676,-0.0283861365288496,-0.0074418280273675,0.0210911892354488,0.0422643646597862
1783204891564069000,5.423069091796875,0.0406342082053422,-0.0659919368237257,-0.0260457108825445,-0.0082302913069725,0.0158485360443592,0.0448955930769443
1783204891574007000,5.433007080078125,0.0290413855671882,-0.0292525440998375,-0.0336567704081535,-0.0131851024925708,0.0160053968429565,0.0399722084403038
1783204891583944200,5.442944091796875,0.0220317990660667,-0.0113224812641739,-0.0327893399238586,-0.0200827326625585,0.0087556783109903,0.0389772355556488
1783204891593881000,5.452881103515625,0.0148351655602455,0.0023398411244153,-0.059223173341155,-0.0206446591764688,0.002120679244399,0.0403764583170414
1783204891603819000,5.462819091796875,0.017070377266407,0.0367900999978184,-0.0904535933852195,-0.0166557244956493,0.0024368667509406,0.0388891473412513
1783204891613756200,5.472756103515625,0.0087596450388431,0.0543051522918045,-0.1006231052219867,-0.0123059833422303,0.0018376554362475,0.0379868671298027
1783204891623693300,5.482693359375,0.0211608614504337,0.0779511085562408,-0.1128992339491844,-0.0061254799365997,0.0022026486694812,0.0388472005724906
1783204891633630000,5.4926298828125,0.0074351184368133,0.0963635480813682,-0.1127607022613286,0.0043729674071073,0.0006532217375934,0.0391486696898937
1783204891643568000,5.502568115234375,-0.0140688573628664,0.1208398176901042,-0.1228659166902303,0.0123360864818096,-0.0027288114652037,0.0360486917197704
1783204891653505000,5.512505126953125,-0.048275662869215,0.1436259422548115,-0.1025169561445712,0.0159681048244237,-0.0061866594478487,0.030068565160036
1783204891663442200,5.522442138671875,-0.0681868165194988,0.1652899309217929,-0.0939034415781498,0.0202737413346767,-0.0034140846692025,0.0192001238465309
1783204891673379000,5.532379150390625,-0.0649286915063858,0.1653070281870663,-0.0627016631066799,0.0229084063321352,-0.0074668838642537,0.0120125189423561
1783204891683318000,5.542318115234375,-0.0622387217700481,0.1657018727235495,-0.0285229146510362,0.0171293467283248,-0.0095281694084405,0.0066909901797771
1783204891693254700,5.552254638671875,-0.0560351909548044,0.1756260314971208,-0.0076040452629327,0.0144965453073382,-0.0133993420749902,0.0016192661132663
1783204891703191800,5.56219189453125,-0.0546393526822328,0.1609402112796902,0.0017985738545656,0.0116228824481368,-0.0113210678100585,-0.0004436913877725
1783204891713128700,5.572128662109375,-0.0492687655597925,0.1556418126106262,0.0129173492401838,0.0094731785356998,-0.0082797389477491,-0.0047777197323739
1783204891723067000,5.58206689453125,-0.0575976179659366,0.1670117862783372,0.022950667476654,0.0112719852477312,-0.0072864135727286,-0.0056941453367471
1783204891733003800,5.592003662109375,-0.0647451516330242,0.1616004287540912,0.0245382289290428,0.0119050191715359,-0.0033294893801212,-0.0135142523795366
1783204891742941000,5.60194091796875,-0.0805517925739288,0.162449446798861,0.0173632227331399,0.0132770845666527,-0.0033022318966686,-0.0217062961310148
1783204891752877800,5.6118779296875,-0.0899520736038684,0.1476958220422267,0.0202291335582733,0.0136246271431446,-0.0033680121414363,-0.0314819626510143
1783204891762815700,5.621815673828125,-0.0873164644032716,0.1179329903326928,0.008825111490488,0.0085885934531688,-0.0076957326382398,-0.0360650494694709
1783204891772752600,5.631752685546875,-0.0760410371512174,0.1100891449645161,0.0125707277595996,0.0074285198934376,-0.0088078686967492,-0.0413197353482246
1783204891782689800,5.641689697265625,-0.0615069003641605,0.0955655295714735,0.027441549155116,0.0054344437085092,-0.0075647486373782,-0.0454397276043891
1783204891792627700,5.651627685546875,-0.0445803154826164,0.07519698754251,0.027646716338396,0.0021094866096973,-0.0076260017231106,-0.0454567708075046
1783204891802564900,5.66156494140625,-0.0233563256680965,0.0625910423390567,0.0208323601484298,0.0027482770383358,-0.0050817565061151,-0.0440004132688045
1783204891812502000,5.671501953125,-0.0247077402770519,0.071166709113121,0.0126630822181701,0.002583960071206,-0.0074013699777424,-0.0442976243793964
1783204891822438700,5.681438720703125,-0.0371107102543115,0.0562837588883936,0.0034293899267911,0.0051048574969172,-0.006719930563122,-0.0478420443832874
1783204891832376800,5.691376953125,-0.031706805384159,0.0476361959218978,-0.0224772047460079,0.0090900119394063,-0.0115439817309379,-0.0515025593340396
1783204891842313700,5.701313720703125,-0.0238332955300807,0.0467084135524928,-0.0272276141434907,0.0095045873895287,-0.0105800973251461,-0.0592419728636741
1783204891852251000,5.7112509765625,-0.0156955817818641,0.0228632814541459,-0.0128419459164142,0.0113118086010217,-0.0058588460087776,-0.0599322617053985
1783204891862187800,5.721187744140625,0.0063210197150707,-0.0033899346992373,-0.00078325933218,0.0105333384126424,-0.0049051321111619,-0.0542844049632549
1783204891872126000,5.7311259765625,0.0456581738471984,-0.0139453771136701,0.0190004685461521,0.0035111149773001,-0.0104314573109149,-0.0514060594141483
1783204891882062800,5.741062744140625,0.05104512758255,-0.0275065772153437,-0.0042003742992877,0.002111991867423,-0.0085474895313382,-0.0437814071774482
1783204891891999700,5.750999755859375,0.0514805963903665,-0.0309518953636288,0.0079676178783178,0.0033612810075283,-0.0079924864694476,-0.0407856181263923
1783204891901937000,5.76093701171875,0.0047176761716604,-0.0492578057743608,0.011915478721261,0.0080098286271095,-0.0059746094048023,-0.0425694026052951
1783204891911874800,5.770874755859375,-0.0021773440390825,-0.0522441281087696,0.0025169512569904,0.0122826043516397,0.0024127496872097,-0.0408026613295078
1783204891921811700,5.780811767578125,0.0244265852481126,-0.038297874212265,9.23544585704e-05,0.0118923867121338,-0.0007383371703326,-0.0448555648326873
1783204891931748900,5.790748779296875,8.47556740045e-05,-0.0755982618197798,0.0088385554939508,0.0118239438161253,0.0004867170937359,-0.0475871711969375
1783204891941686000,5.80068603515625,0.0162953012406826,-0.1024383379504084,0.0219487969577312,0.0060346745885908,0.0011020903475582,-0.0454129502177238
1783204891951624000,5.8106240234375,0.0587011952936649,-0.1233091304130852,0.0188204358041286,0.0027432739734649,-0.000189809128642,-0.0453961715102195
1783204891961560800,5.820560791015625,0.0723375064581632,-0.1439351543344557,0.0283487271279096,-0.0014713928103446,-0.0026053111068904,-0.036702275276184
1783204891971497700,5.830497802734375,0.0888373903602361,-0.1576154507711529,0.0365121598392724,-0.0031888643279671,-0.0016471059061586,-0.032612457871437
1783204891981435600,5.840435546875,0.1036421607822179,-0.1838951165400445,0.0209574478328227,-0.0013924548402428,-0.0010267146863043,-0.019016359001398
1783204891991372800,5.850372802734375,0.1076993272185325,-0.1861767977364361,0.02510287707448,0.002960748039186,0.0021818620152771,-0.0139792561531066
1783204892001310000,5.86031005859375,0.1127244619041681,-0.1876020082339644,0.0101484690487384,0.0081499619409441,0.0062653473578393,-0.0051782913506031
1783204892011246800,5.870246826171875,0.107752518710494,-0.1786632072359323,0.020457097095251,0.0095470556989312,0.0064861234277486,0.0030708501581102
1783204892021185000,5.88018505859375,0.0996668274104595,-0.1824650837369263,0.0180932905733585,0.0119228698313236,0.0011360170319676,0.010663466528058
1783204892031121700,5.89012158203125,0.0861018279165029,-0.1848021483823657,0.0253805249720811,0.0122826630249619,0.0039637619629502,0.0134640475735068
1783204892041058800,5.900058837890625,0.0903589008390903,-0.1783820522069931,0.0602846650928258,0.0072953384369611,0.0074265655130147,0.0200927648693323
1783204892050995700,5.90999560546875,0.0950906055361032,-0.1615051516860723,0.0631868162751197,-7.89547339081e-05,0.0080505441874265,0.0243998952209949
1783204892060934000,5.919933837890625,0.0826531487673521,-0.1502900763191282,0.0802870041579008,-0.00656065531075,0.0036061229184269,0.0290805399417877
1783204892070870800,5.929870849609375,0.0694599051952362,-0.1565123118348419,0.0685229166060686,-0.0135013852268457,0.006933209951967,0.0331660956144332
1783204892080808000,5.939807861328125,0.0646340924739837,-0.145457395465672,0.0476513934910297,-0.0166119076311588,0.0028834100812673,0.0389699824154377
1783204892090744800,5.949744873046875,0.0424608391106128,-0.1259684127502143,0.0425438412189483,-0.0167349465191364,0.0060147549957036,0.0391382947564125
1783204892100682800,5.959682861328125,0.010223872372508,-0.0962713397532701,0.0166577048122882,-0.0157432928681373,-0.0003214036114513,0.0420720688998699
1783204892110620000,5.969619873046875,-0.0100660514622926,-0.0776436500422656,-0.0102454996824264,-0.0099658323451876,0.0018733073957264,0.0407087989151477
1783204892120556800,5.979556884765625,-0.0022615151911973,-0.0617825024351477,-0.0103594814509153,0.0015340289101004,0.0027412213385105,0.0417639464139938
1783204892130494700,5.98949462890625,0.012288403686881,-0.0338131300136446,0.0015735329270362,0.0069218701682984,0.0051780138164758,0.0428936630487442
1783204892140432000,5.999431884765625,0.0144751000761985,-0.0125387251861393,0.0262286662340164,0.0100954007357358,0.0065859919413924,0.0437801964581012
1783204892150369000,6.009369140625,0.0218453365832567,0.0033683073893189,0.0542740265011787,0.0081627443432807,0.0111897988244891,0.0472689345479011
1783204892160305700,6.0193056640625,0.0243470902711153,0.0215744106873869,0.0675152008682489,0.0014180280268192,0.0117430295795202,0.0506520569324493
1783204892170243800,6.029243896484375,0.0145335522651672,0.0513702678836882,0.0930821883231401,-0.0078252721577882,0.01135447435081,0.0517042726278305
1783204892180180700,6.0391806640625,-0.0114969610482454,0.0865513252496719,0.080969141203165,-0.0147756990045309,0.0079471813514828,0.0486230179667472
1783204892190118000,6.049117919921875,-0.0350637145966291,0.1214586802408099,0.0595814852595329,-0.019320648163557,0.0058880252763628,0.0457705035805702
1783204892200054800,6.0590546875,-0.0693640436053276,0.1475660581827163,0.0436556018531322,-0.0219110455363988,0.0037288009189069,0.0353391841053962
1783204892209993000,6.068992919921875,-0.1066413425981998,0.1704815082155168,0.0127460843265056,-0.0204028990119695,0.0082135647535324,0.0240796096622943
1783204892219929600,6.0789296875,-0.1072410620570182,0.1805667027696967,-0.0048439328998327,-0.0143967848271131,0.0064021996222436,0.0121015971526503
1783204892229866800,6.08886669921875,-0.0931955855697393,0.1871774992115795,-0.0048655602097511,-0.0125466883182525,0.0112366359680891,0.005285769701004
1783204892239804000,6.098803955078125,-0.0827712221890688,0.179667123581469,-0.009852700972557,-0.0075008431449532,0.008623031899333,-4.42408490926e-05
1783204892249741800,6.108741943359375,-0.0652671296805143,0.1747619620136916,-0.0338514161974191,-0.0058720549568533,0.0040104370564222,-0.0039596203714609
1783204892259678700,6.1186787109375,-0.0501893875360488,0.1550016150109469,-0.0337257439911365,-0.0059959506615996,0.0035353535786271,-0.0080877002328634
1783204892269615900,6.128615966796875,-0.0432972899347543,0.1392259537301957,-0.0330325010299682,-0.00246646348387,0.0028522526845335,-0.0143815483897924
1783204892279552800,6.138552734375,-0.0171773447722196,0.1170190903581678,-0.0108469727069139,-0.0028116544708609,0.000986901577562,-0.0126753728836774
1783204892289490700,6.14849072265625,-0.0035837037056684,0.097326255633682,-0.0207727389156818,-0.0032409550622105,-0.0011771828867495,-0.0116527182981371
1783204892299427800,6.158427734375,-0.0047626843571662,0.0806695737347006,-0.0337608153045177,0.0047810701653361,-0.0066952742636203,-0.0157380476593971
1783204892309364700,6.16836474609375,-0.0009206219762563,0.0712093792110681,-0.0341495223611593,0.0091047119349241,-0.0021479269489645,-0.0153620084747672
1783204892319302000,6.178302001953125,0.0053583121627569,0.0577251898683607,-0.025630700340867,0.0124957133084535,-0.0024208948016166,-0.0164514612406492
1783204892329239800,6.18823974609375,0.0078939681202173,0.03886661401093,-0.0083650927633047,0.0160590223968029,-0.0009553576819598,-0.0180442985147237
1783204892339177000,6.198177001953125,0.0084235449522733,0.0242927297353744,0.0021767595171928,0.0173875484615564,-0.0005036508664488,-0.0172580573707819
1783204892349113600,6.208113525390625,0.0190641814321279,0.0101508071362972,0.0068055883616209,0.0126857385039329,-0.0018054037354886,-0.0154894506558775
1783204892359051800,6.2180517578125,0.0341080213069915,-0.0055776540018618,0.0298275675088167,0.0079529490321874,-0.001465372275561,-0.0154781155288219
1783204892368988700,6.22798876953125,0.0345072497576475,-0.0097995094805955,0.0229810626149177,0.0041992235928773,-0.0035932380706071,-0.0132826045155525
1783204892378925800,6.23792578125,0.0358119026154279,-0.0128315706528723,0.0087608140826225,0.0035381661728024,-0.0061886464245617,-0.0166020933538675
1783204892388863000,6.247863037109375,0.0240121592283248,-0.0197638541340827,0.0040706104397773,0.0047491053119301,-0.0065718754194676,-0.0156164560467004
1783204892398800000,6.2577998046875,0.0257622177660465,-0.0210797590382397,-0.0038449849903583,0.0074279634281992,-0.0050462400540709,-0.0136228743940591
1783204892408737800,6.26773779296875,0.024927520507574,-0.0427058999128639,0.0043716392129659,0.0114461407065391,-0.0054201483726501,-0.0128542855381965
1783204892418674700,6.2776748046875,0.0236567699193954,-0.0507256863698363,0.0123041857779026,0.0136928036808967,-0.00851287599653,-0.0129115879535675
1783204892428611800,6.28761181640625,0.0257341607153415,-0.0536157087229192,0.0266121125936508,0.0138541916385293,-0.0054371915757656,-0.0102561498060822
1783204892438548700,6.297548828125,0.0322229382127523,-0.0756320179589092,0.0248263982206583,0.0164538044482469,-0.0097836833447217,-0.0068206009455025
1783204892448487000,6.30748681640625,0.0337549700856208,-0.09232245599702,0.0536941807866096,0.013837780803442,-0.0063447435386478,-0.0029193363152444
1783204892458423800,6.317423828125,0.0526467175602912,-0.095670012859255,0.0940513256162405,0.009730976074934,-0.0041757938452064,0.0009854559320956
1783204892468361000,6.32736083984375,0.0574210923552513,-0.1043257591322064,0.0860275936365127,0.0084449350833892,-0.0068900878541171,0.0029908160213381
1783204892478297600,6.337297607421875,0.037408231896162,-0.0973961059994995,0.0928460414797067,0.0058925356715917,-0.0072123324498534,0.0024281330406665
1783204892488235800,6.34723583984375,0.0068429977625608,-0.0839949187651276,0.0883621740639209,0.0033604018390178,-0.007433108985424,0.0041136476211249
1783204892498172700,6.357172607421875,0.0037444472253322,-0.0911253551669418,0.0925987887203693,0.001440274529159,-0.0061705908738076,0.0040903752669692
1783204892508109800,6.36710986328125,0.0007931962043046,-0.0900888517260551,0.1044879639565944,-0.001014094799757,-0.0016032699495553,0.0028759737033396
1783204892518047000,6.377046875,0.0187719204872846,-0.0720719873897731,0.1025824225962162,-0.0065547078847885,-0.0050219180993735,0.0061972718685865
1783204892527985000,6.38698486328125,0.0558154107242822,-0.0888625248014926,0.1099807161539793,-0.0069826785475015,0.0038147161249071,0.012356630526483
1783204892537921800,6.396921875,0.0599286912620067,-0.0793593679189682,0.1092939029335975,-0.0103277135640382,0.0096952784806489,0.0170824434608221
1783204892547858700,6.406858642578125,0.0666793345659971,-0.0683827774830162,0.1074070662736892,-0.0135607905685901,0.0145171973854303,0.0237328894436359
1783204892557795800,6.4167958984375,0.0594856236696243,-0.0635688013300299,0.0858440537631511,-0.0142345027998089,0.0163401141762733,0.032753512263298
1783204892567733800,6.426733642578125,0.0545674564898014,-0.0479987456239759,0.0461865816354751,-0.0233550295233726,0.0131685566157102,0.0301129873842
1783204892577671000,6.4366708984375,0.0365197586238384,-0.0407062505282461,0.0063128364086151,-0.0272585526108741,0.0024169923271983,0.0291550643742084
1783204892587607800,6.44660791015625,0.0310994871407747,-0.0082113635063171,-0.0661760612189769,-0.0229215957224369,-0.007214596029371,0.0293651856482028
1783204892597545000,6.456544921875,0.0272322903186082,0.0095922964707016,-0.1252706397444009,-0.0145388441160321,-0.012035496532917,0.0274119563400745
1783204892607483000,6.46648291015625,0.0250555308014154,0.0196576172806322,-0.1494786138057708,-0.0058710528537631,-0.0151005275547504,0.0298668555915355
1783204892617419800,6.476419677734375,0.0297837283670902,0.0473351671487092,-0.159911160492897,0.009580586105585,-0.0156720168888568,0.0285073108971118
1783204892627356700,6.486356689453125,0.0196165546178817,0.0549023875325918,-0.1526186653971672,0.0240205116569995,-0.0155266085639595,0.0284343399107456
1783204892637293800,6.4962939453125,0.0064501990526914,0.0709362613581121,-0.1382540399581193,0.0325578153133392,-0.0196675267070531,0.0279581230133771
1783204892647231700,6.506231689453125,0.011689853271842,0.0744737878344953,-0.1132160448133945,0.0424599833786487,-0.0229453463107347,0.0276095159351825
1783204892657169000,6.5161689453125,0.0088958386391401,0.087012659151107,-0.0729307961761951,0.0446144044399261,-0.0316251665353775,0.0263456609100103
1783204892667105800,6.526105712890625,-0.0064496145308017,0.1050279160521924,-0.033875966116786,0.0437105298042297,-0.0337943136692047,0.0246476307511329
1783204892677042700,6.536042724609375,-0.022482465443015,0.1116502568013966,0.0166547822028398,0.0385954156517982,-0.036755621433258,0.0182316042482852
1783204892686979000,6.54597900390625,-0.0264694892525672,0.0915941417224705,0.0731014765679836,0.0323247388005256,-0.0322391651570797,0.0113923400640487
1783204892696917000,6.5559169921875,-0.0492675965160131,0.102288115824759,0.1260989072620868,0.0237553212791681,-0.0241370685398578,0.0070300493389368
1783204892706854100,6.565854248046875,-0.0615928250819444,0.110523006337136,0.1429343067288398,0.0192689597606658,-0.0208408758044242,0.000268017174676
1783204892716791000,6.575791015625,-0.0576338583230972,0.0908617357946932,0.1488946764379739,0.0121746445074677,-0.0179075635969638,-0.0027073624078184
1783204892726728000,6.58572802734375,-0.0561877511680126,0.082126348414272,0.1627151119977235,0.0037041949108242,-0.0177632197737693,-0.0088720479980111
1783204892736665900,6.595665771484375,-0.0473369207143783,0.0665089464351534,0.1725578760981559,-0.0008596908301115,-0.0101068187505006,-0.0130235496908426
1783204892746603000,6.60560302734375,-0.0448071099758148,0.0450251366406679,0.1546890419304371,-0.0090297367423772,-0.006933128926903,-0.0169775448739528
1783204892756540200,6.6155400390625,-0.0501823732733726,0.0404644045963883,0.146186586523056,-0.0097182150930166,-0.0074336640536785,-0.0180759988725185
1783204892766477000,6.62547705078125,-0.0466267266184091,0.0285026025153696,0.1283025547862052,-0.013260219246149,-0.0031422460451722,-0.0211860388517379
1783204892776415200,6.635415283203125,-0.0325111075043678,-0.007862696199119,0.1148322478383779,-0.0086830575019121,0.0008184597827494,-0.0198346506804227
1783204892786351900,6.645351806640625,-0.0061444941043853,-0.0171652159430086,0.1015057332754135,-0.0064944718033075,0.0100353937596082,-0.0181978717446327
1783204892796289000,6.6552890625,0.0222837280005216,-0.0149351188033819,0.0893330649226903,-0.0099687594920396,0.0132906194776296,-0.0161980371922254
1783204892806226000,6.665225830078125,0.0333341143250465,-0.006810849058628,0.067585928016901,-0.00986223295331,0.0131148509681224,-0.0167112294584512
1783204892816163000,6.6751630859375,0.0256762930482625,-0.0183753223851323,0.0291530292481183,-0.0096189845353364,0.0064768847078084,-0.0126704471185803
1783204892826101000,6.68510107421875,0.0297200154811143,-0.0280687411427497,-0.0058908116042613,-0.0080123003572225,0.0060369307175278,-0.0095769194886088
1783204892836038100,6.6950380859375,0.026805589339137,-0.0080476973772048,0.0103179803967475,-0.0084246350452303,0.0074548861011862,-0.0080019999295473
1783204892845975000,6.70497509765625,0.0158352825134992,0.0061887716375291,-0.0033218378990888,-0.0027100229635834,0.0114600136876106,-0.009668605402112
1783204892855912000,6.714911865234375,0.024377485409379,0.0030652327895164,-0.0268155262112617,0.0026690242812037,0.0112175643444061,-0.0089127942919731
1783204892865849900,6.724849853515625,0.0249660989522933,-0.0003362462170422,-0.0330360081613063,0.002119081094861,0.0058337175287306,-0.0078685684129595
1783204892875787000,6.734787109375,0.0247533329844474,-9.45464156568e-05,-0.0289198050141334,0.0046291267499327,0.0062176845967769,-0.0067612258717417
1783204892885724200,6.74472412109375,0.0139367554157972,0.0157724464103579,-0.0345084188014268,0.0076518142595887,0.0003238427452743,-0.007773227058351
1783204892895661000,6.7546611328125,0.0010883797585964,0.0136743050873279,-0.0396609792590141,0.0134151298552751,-0.0004784874618053,-0.0101116504520177
1783204892905598000,6.764597900390625,-0.0028787703067064,0.0031581717699766,-0.0373632237106561,0.0197534523904323,0.0008107488974928,-0.0153924319893121
1783204892915536000,6.774535888671875,-0.0007785831570625,0.0129800392128527,-0.0188765499055385,0.0230045653879642,0.0032195660751312,-0.0187222473323345
1783204892925473000,6.78447314453125,0.0096837741464376,-0.0010835574530065,0.0029658640682697,0.0199619028717279,0.0025812063831835,-0.020682068541646
1783204892935410000,6.794409912109375,0.0251554840445518,-0.0108569095790386,0.0151332717239856,0.0200930386781692,0.0002167513594031,-0.0173954963684082
1783204892945347000,6.80434716796875,0.0440951623141765,-0.0370630717203021,0.0240349555820226,0.015380042605102,-0.0014282832853496,-0.0153778856620192
1783204892955284200,6.8142841796875,0.0658148266911506,-0.0444517206668853,0.049038463935256,0.0098201287910342,-0.0013392209075391,-0.0127732139080762
1783204892965222100,6.82422216796875,0.0674696081608533,-0.0416509840324521,0.0611830752372741,0.0047705089673399,-0.004802661947906,-0.0113422973081469
1783204892975159000,6.834158935546875,0.0589729979723691,-0.0487574550367891,0.0486556020975112,0.0035940250381827,-0.0051755425520241,-0.0027475105598568
1783204892985096000,6.844095947265625,0.0705289957314729,-0.0546834840849041,0.0435392819970846,0.0047418475151062,-0.0039496892131865,0.0017899831291288
1783204892995033000,6.854033203125,0.0560053803384304,-0.0451458404108881,0.0524029719322919,0.0079771867021918,0.0020417410414665,0.003368038451299
1783204893004970000,6.863969970703125,0.036214638197422,-0.0471247392684221,0.0619955606639385,0.0085721369832754,0.0049935886636376,0.0055148126557469
1783204893014908200,6.873908203125,0.0222013104140758,-0.0475894341707229,0.046790977269411,0.006962823215872,0.0057980506680905,0.0062665240839123
1783204893024845000,6.883844970703125,0.0110544779777526,-0.035877076806128,0.0505740029394626,0.0054373643361032,0.0038030766882002,0.0029836453031748
1783204893034782000,6.893781982421875,-0.0107902740836143,-0.0276940626114606,0.0487970563948154,-0.000141960568726,-0.0014545698650181,-0.0002616844139993
1783204893044719000,6.903718994140625,-0.0257218857556581,-0.0385161931380629,0.048150575184822,-0.0042605400085449,-0.0021885368041694,0.0006238166242837
1783204893054657000,6.913656982421875,-0.0256534966945648,-0.0350268897175788,0.0502910943448543,-0.0017348295077681,-0.0078529678285121,-0.0043229041621088
1783204893064594000,6.923593994140625,-0.0147626848459243,-0.0318884455613791,0.033573768299818,0.0032335640862584,-0.0108168004080653,-0.005439834203571
1783204893074531000,6.933531005859375,-0.0098234748780727,-0.0391731957420706,0.0518400773525238,0.00574671337381,-0.0081190532073378,-0.0017043973784893
1783204893084468200,6.94346826171875,0.0192027131199836,-0.0351195364370942,0.0755868636429309,0.011526571586728,-0.0013439711183309,0.0012583690695464
1783204893094404900,6.95340478515625,0.0437614003151655,-0.0331169644430279,0.0993780735969543,0.0126096410676836,0.0032909961882978,0.0030495524406433
1783204893104343000,6.963343017578125,0.0429699576765298,-0.037116409342736,0.111087216091156,0.0077517689205706,0.0068753445520997,0.0062352255918085
1783204893114280000,6.973280029296875,0.0410609091848135,-0.0330193492874503,0.1177010812729597,0.0025649769231677,0.0127217313274741,0.0105760190635919
1783204893124217000,6.983217041015625,0.0478553916305303,-0.025382570798695,0.1236111820995807,-0.0060892309993505,0.016229648143053,0.0150464018806815
1783204893134154000,6.993154052734375,0.0393599504858255,-0.0030466742195188,0.1121943005502223,-0.013447287492454,0.0113548953086137,0.0166924949735403
1783204893144091100,7.003091064453125,0.0244055424600839,0.0044159167461097,0.0790004714787006,-0.020231157541275,0.0102353021502494,0.0149931330233812
1783204893154029000,7.013029052734375,0.0109545247346162,0.029133155503869,0.0325450097739696,-0.0245267786085605,0.004488505423069,0.0125380270183086
1783204893163966000,7.022966064453125,-0.0073521163284778,0.0292436301410198,4.0916532278e-05,-0.0232708342373371,0.0045289858244359,0.0055696000345051
1783204893173903000,7.032903076171875,-0.0063479077219963,0.034749680211395,-0.031656536501646,-0.0221072193235158,0.0029109613969922,0.0003996768500655
1783204893183840000,7.042840087890625,-0.0058697688162326,0.0416607747741043,-0.0636643706589937,-0.0166314914822578,-0.0031882105395197,-0.0017241940367966
1783204893193777200,7.052777099609375,0.0015980828464031,0.032574966520816,-0.0858247645407915,-0.0125564401969313,-0.0024224766530096,-0.0082074739038944
1783204893203715000,7.062715087890625,0.0139817636013031,0.0430912459686398,-0.1094230822712182,-0.0082881925627589,-0.0105741452425718,-0.0069017261266708
1783204893213652200,7.07265234375,0.0232277308523654,0.0135794664107263,-0.1496487096756696,0.0027210731059312,-0.0147269275039434,-0.006874930113554
1783204893223588900,7.0825888671875,0.0402875867247581,-0.0029383915394544,-0.1486731426417827,0.0085968058556318,-0.0194867961108684,-0.0060203215107321
1783204893233526000,7.092526123046875,0.0546487050324678,-0.0160517017431557,-0.1348626439541578,0.019052593037486,-0.0221942029893398,-0.0008581127040088
1783204893243463000,7.102462890625,0.0634410832971334,-0.0093128950074315,-0.1007277346402406,0.0280793774873018,-0.0244056917726993,0.0040010907687246
1783204893253401000,7.112401123046875,0.0796054516345262,0.0062789341390132,-0.0745049136251211,0.037545122206211,-0.0245960317552089,0.0085738059133291
1783204893263338000,7.122337890625,0.0672363839268684,0.0096719375781714,-0.0395803152382373,0.0398871079087257,-0.0230426080524921,0.0097059160470962
1783204893273275100,7.132275146484375,0.0326835414618253,0.0294157718375325,-0.0080447747677564,0.0383449643850326,-0.023133460432291,0.0072879986837506
1783204893283212000,7.1422119140625,0.0209913501024246,0.0366993529744446,0.0477308884680271,0.0346676744520664,-0.0237883310765028,0.0059905061498284
1783204893293149000,7.15214892578125,0.00397241076231,0.0408371834315359,0.0624333675593137,0.0256244279444217,-0.0241582095623016,0.0071503752842545
1783204893303086000,7.162086181640625,-0.0092459672510623,0.0429096057914197,0.0853507172882556,0.0167710147798061,-0.0307367518544197,0.0040427325293421
1783204893313024000,7.17202392578125,-0.0184960261553525,0.0504804794371128,0.0971475380659103,0.0103699620813131,-0.0294961370527744,0.0008886146824806
1783204893322961200,7.181961181640625,-0.0300420870423316,0.0565272122554481,0.0849620102316141,0.0071715055964887,-0.0377234406769275,-0.0018118306761607
1783204893332897800,7.191897705078125,-0.0183247612416744,0.0497400363333523,0.04147767329216,0.0115095190703868,-0.0452438369393348,0.0002900934778153
1783204893342835000,7.2018349609375,-0.0256073194652795,0.0528302574336528,-0.0182400055676698,0.0178236067295074,-0.0548613108694553,-0.001683308975771
1783204893352772000,7.211772216796875,-0.0459919358462095,0.0333915436007082,-0.0386029946386814,0.0260325446724891,-0.0836803838610649,0.0007411832921206
1783204893362710000,7.2217099609375,-0.0294902983784675,0.0247596165947616,-0.1315641869306564,0.0349863581359386,-0.0959599539637565,-0.0027885702438652
1783204893372647200,7.231647216796875,-0.0522556724160909,0.0591631137169897,-0.0703086309790611,0.0480946823954582,-0.0866682305932045,-0.0072853229939937
1783204893382584000,7.241583984375,-0.0475257212847471,0.0171342362828552,-0.0254997674375772,0.0511708967387676,-0.0615072138607502,-0.0136585338041186
1783204893392521000,7.25152099609375,-0.0449187536567449,0.0038648587346076,0.0036433249384164,0.0584544017910957,-0.0732834041118621,-0.0193036310374736
1783204893402457900,7.261457763671875,0.0288940860509872,0.0435892586186528,-0.1042225910186767,0.0662840902805328,-0.0962060317397117,-0.0138548035174608
1783204893412396000,7.27139599609375,0.0515787960678338,0.0007667465887963,-0.1281423957884311,0.0688856467604637,-0.1097105294466018,-0.0130741987377405
1783204893422333000,7.2813330078125,0.0316629662424325,-0.0091740710586309,-0.1331026485443115,0.0670704320073127,-0.128561720252037,-0.0142925940454006
1783204893432270000,7.29127001953125,0.083306059718132,-0.0174478322766721,-0.163072254872322,0.0645003542304039,-0.1611910164356231,-0.0015015103854238
1783204893442207000,7.30120703125,0.0989420202672481,-0.0241363701298832,-0.2767787135511637,0.0574046298861503,-0.2070772796869278,0.0063060787506401
1783204893452143900,7.311143798828125,0.0575870965719223,-0.0139824942536652,-0.3354407458782196,0.0434449426829814,-0.3039454221725464,-0.0032886895351111
1783204893462081000,7.3210810546875,0.2048638164192438,0.0195725693456828,-0.5996119067907333,0.0414148159325122,-0.4211399555206299,0.0133336959406733
1783204893472019000,7.33101904296875,0.267701088604331,-0.1062687098935246,-0.6621160014986992,0.0443571358919143,-0.5008681416511536,0.0271123703569173
1783204893481956000,7.3409560546875,0.1514648191869259,-0.095365038563311,-0.653746232560277,0.0646168664097786,-0.545818567276001,0.0261243376880884
1783204893491893000,7.35089306640625,0.0738023183137178,-0.0803930948808789,-0.6800304283738136,0.1059712320566177,-0.5610374808311462,0.0237554553896188
1783204893501830100,7.360830078125,0.0876706846684217,-0.0428194432899355,-0.6378606811642646,0.1710748672485351,-0.5407335162162781,0.0220566261559724
1783204893511766800,7.370766845703125,0.0690635993540287,0.0535354830935597,-0.6093260760754347,0.2611742615699768,-0.4952269792556762,0.019031137228012
1783204893521704000,7.380703857421875,0.0806423934668302,0.11621303467229,-0.6559247456431389,0.3555289804935455,-0.4362280964851379,0.0087364204227924
1783204893531641900,7.390641845703125,0.0668903469681739,0.1273550448030233,-0.5855576624751091,0.4254613518714905,-0.4026931226253509,-0.0033260150812566
1783204893541579000,7.4005791015625,0.0840051478981971,0.1643362834587693,-0.4792530044853687,0.4540522396564483,-0.405751496553421,-0.0152838751673698
1783204893551516200,7.41051611328125,0.1053109707772731,0.1312239951908588,-0.3243815917253494,0.4391286373138428,-0.4382410645484924,-0.0191094614565372
1783204893561453000,7.420453125,0.1193541091769933,0.0838145937621593,-0.1628407842040062,0.3963319063186645,-0.4826180934906006,-0.018519040197134
1783204893571390000,7.430389892578125,0.1642559116989374,0.0666437517959624,-0.010721885022521,0.3406785726547241,-0.5218039155006409,-0.0183005891740322
1783204893581326800,7.440326904296875,0.1618628790825605,0.0501546084836125,0.162387779739499,0.2848304808139801,-0.5356060266494751,-0.0115793040022253
1783204893591265000,7.45026513671875,0.1948340053141116,0.0690572426784783,0.2841051109164953,0.2391804456710815,-0.5445345044136047,-0.0069144610315561
1783204893601202000,7.460201904296875,0.1866547905117273,0.0270058611515909,0.3903700214177369,0.1989129185676574,-0.5225328207015991,-0.0002829239238053
1783204893611139000,7.47013916015625,0.1517594182193279,0.0202360016904771,0.5062473943948745,0.1780874580144882,-0.4746905267238617,0.0070637143217027
1783204893621076200,7.480076171875,0.1025958665996789,0.003011018384248,0.5681605374723673,0.1661945879459381,-0.415527880191803,0.0093013010919094
1783204893631012900,7.490012939453125,0.058117257925868,-0.0158287066422402,0.6189701027333736,0.1655459553003311,-0.3436507880687713,0.0183303989470005
1783204893640951000,7.499950927734375,0.0492021300643682,0.0064075289547443,0.6652554685682058,0.1649741679430008,-0.2661759555339813,0.0301066320389509
1783204893650888000,7.509887939453125,0.0536474190354347,-0.0029179332733154,0.6622574557960033,0.1605961769819259,-0.2148199826478958,0.0318266041576862
1783204893660825000,7.5198251953125,0.0195236156374216,-0.0291617970764636,0.6867559372365474,0.1322130113840103,-0.1701097786426544,0.0416510067880153
1783204893670762000,7.529761962890625,0.0390834716320037,-0.0190083595916628,0.7253636080503464,0.0850672200322151,-0.1617220044136047,0.0569787509739398
1783204893680699600,7.53969970703125,0.1130196454584598,-0.056443333364278,0.7068833639860153,0.0229316763579845,-0.178082600235939,0.0795735418796539
1783204893690636500,7.549636474609375,0.1487748494505882,-0.0894260039031505,0.6824304752528667,-0.0488134771585464,-0.213783860206604,0.0928720161318779
1783204893700574700,7.55957470703125,0.1156757129251956,-0.1069203056700527,0.6569897445261478,-0.1138611882925033,-0.2341977804899215,0.1042184084653854
1783204893710511400,7.569511474609375,0.0221738378852605,-0.0908358707010746,0.6885428206533193,-0.15823495388031,-0.2262604087591171,0.1008622050285339
1783204893720448500,7.579448486328125,-0.0922252792328596,-0.0784098121091723,0.6864794583827257,-0.1822878122329712,-0.1791765242815017,0.0908093079924583
1783204893730385700,7.5893857421875,-0.1850917789787054,-0.0838216080248355,0.6611573855996131,-0.1821769773960113,-0.1129594966769218,0.0681291967630386
1783204893740322600,7.599322509765625,-0.2401882277786731,-0.0657008449226617,0.5492974315702915,-0.1627806425094604,-0.046063020825386,0.0434355698525905
1783204893750259700,7.609259765625,-0.2274438970178365,-0.0578768002334982,0.4212082272738218,-0.1353070735931396,0.0003658607602119,0.0254702307283878
1783204893760196400,7.6191962890625,-0.1956114194273948,-0.0598046264909207,0.3259001795947551,-0.1127040237188339,0.0340631045401096,0.0084289293736219
1783204893770134500,7.629134521484375,-0.1507195537775754,-0.0671717211928218,0.2649123346686363,-0.1029713228344917,0.043212704360485,-0.0018563229823485
1783204893780071400,7.639071533203125,-0.0997328783839941,-0.1031244935836643,0.2100736600220203,-0.1019776985049247,0.0375750586390495,-0.002302136272192
1783204893790008600,7.649008544921875,-0.0401893870472907,-0.1176608953930437,0.1330991414129734,-0.0962046980857849,0.0274728238582611,-0.0031717512756586
1783204893799945500,7.658945556640625,-0.0169505502790212,-0.110754184744507,0.0388356343507766,-0.08289235830307,0.0278110448271036,-0.0013655954971909
1783204893809882600,7.668882568359375,-0.0117675946831703,-0.1077535416238009,-0.0104302085995674,-0.0595498457551002,0.0400499068200588,-0.0048582963645458
1783204893819819500,7.678819580078125,-0.000667523998022,-0.0977318407598882,-0.0112087917566299,-0.0421607308089733,0.0532954037189483,-0.0053523126989603
1783204893829757400,7.68875732421875,0.0055073652446269,-0.0763612820815295,-0.0106657709211111,-0.0353259891271591,0.063439555466175,-0.009656723588705
1783204893839694600,7.698694580078125,0.0804816499471664,-0.0711260848417878,-0.039786066943407,-0.0363515727221965,0.0579928569495677,-0.0020366213284432
1783204893849631500,7.708631591796875,0.142831430876255,-0.0970693582631647,-0.0707692342281341,-0.0439087115228176,0.0430579334497451,0.0085574006661772
1783204893859568600,7.718568603515625,0.1870709700971841,-0.0799204358678311,-0.0902104322791099,-0.0523405484855175,0.0294318720698356,0.0242559369653463
1783204893869505500,7.728505615234375,0.1930254945874214,-0.0754747815705835,-0.1058721117913722,-0.0551279857754707,0.0257044732570648,0.0343713834881782
1783204893879442400,7.7384423828125,0.1811363193511962,-0.0711976887732744,-0.1466261469841003,-0.0492149665951728,0.0261327102780342,0.0468320474028587
1783204893889380400,7.74838037109375,0.1598340036034584,-0.0495997510798275,-0.1867705258458852,-0.0389609038829803,0.0255864541977643,0.05388193577528
1783204893899317500,7.7583173828125,0.1433159995228052,-0.0218126764226704,-0.2370475916653871,-0.0237441379576921,0.0229350104928016,0.0577200837433338
1783204893909254700,7.768254638671875,0.1055190605700016,0.0050111792255193,-0.3032996407300233,-0.0097896670922636,0.0091936830431222,0.0604161173105239
1783204893919191600,7.778191650390625,0.0702671299248933,0.0254001795206218,-0.3516396010071039,0.0058470829389989,-0.0107121150940656,0.0598717629909515
1783204893929128700,7.788128662109375,0.0525958641558885,0.0518560055740177,-0.3695686409294605,0.0278626512736082,-0.0277395416051149,0.0606193728744983
1783204893939065300,7.7980654296875,0.0322901582300663,0.0488246750541031,-0.3610071488112211,0.0507330819964408,-0.0396297574043273,0.059159692376852
1783204893949002500,7.80800244140625,0.0084364044338464,0.0151176357634365,-0.3322065862625837,0.0728939250111579,-0.0385622270405292,0.0550920665264129
1783204893958940400,7.8179404296875,0.0583896451264619,0.0607628039985895,-0.249614227771759,0.0933584570884704,-0.0434230268001556,0.0563879609107971
1783204893968877600,7.827877685546875,0.1196861176103353,0.0390329104885458,-0.1889104604840278,0.0985879078507423,-0.0561641864478588,0.0710951760411262
1783204893978814700,7.837814697265625,0.1796878741085529,-0.0068912208184599,-0.1299029757201671,0.1034899875521659,-0.0706389993429184,0.0861723944544792
1783204893988751600,7.847751708984375,0.1777636280477046,-0.0049577685378491,-0.0992839655727148,0.0984504446387291,-0.0870542302727699,0.0988371074199676
1783204893998688500,7.8576884765625,0.170905432716012,-0.0246609785258769,-0.0605301642864942,0.0920388847589492,-0.100806787610054,0.11442831158638
1783204894008625400,7.86762548828125,0.1491360839784145,-0.0316438231505453,0.0142155723571777,0.0902583375573158,-0.1075573340058326,0.1221450492739677
