time,seconds_elapsed,ax,ay,az,gx,gy,gz
1783204503472064800,0.107064697265625,0.2288759756475687,-0.1823275749623775,0.1631704545497894,-0.2228652983903885,0.1371079981327057,0.0826423466205596
1783204503482002700,0.117002685546875,0.1548614758878946,-0.1283747432395816,0.2035521492987871,-0.1630757451057434,0.2385344952344894,0.1040336564183235
1783204503491939600,0.126939697265625,0.0912327610641717,-0.0828375654235482,0.2604822432667016,-0.0894976705312728,0.3589036762714386,0.1181440949440002
1783204503501877500,0.13687744140625,0.0761105952560901,-0.0054421910539269,0.2655056243866682,-0.0189382806420326,0.4798711240291595,0.12154521048069
1783204503511814700,0.146814697265625,0.0381382997363805,0.0822390150085091,0.2804272991865873,0.0484062209725379,0.5965367555618286,0.1140632033348083
1783204503521752600,0.156752685546875,-0.0326133988350629,0.1553571504503488,0.3470867600083351,0.0976912081241607,0.6864895820617676,0.0983598753809928
1783204503531690500,0.1666904296875,-0.0592050531625747,0.1404749308779835,0.416148021274805,0.1153432577848434,0.7708128690719604,0.0937305465340614
1783204503541627600,0.176627685546875,-0.0354997679263353,0.0877045869380235,0.4792237783908843,0.1010130569338798,0.8231082558631897,0.0913973450660705
1783204503551565600,0.186565673828125,-0.0374298592060804,0.0421837757349014,0.5375216535806655,0.0675775557756424,0.8555952906608582,0.105090707540512
1783204503561502700,0.196502685546875,-0.012200725403428,0.0235188227534294,0.6589537380754947,0.0104857785627245,0.8949989080429077,0.1354195922613144
1783204503571440600,0.206440673828125,0.0504939234405756,-0.058484629933536,0.8707412162780761,-0.0769389420747757,0.9425770044326782,0.1941587775945663
1783204503581378800,0.21637890625,0.1331400579452514,-0.2224953346997499,1.1664824044525623,-0.1971891969442367,1.0156749486923218,0.2709254622459411
1783204503591315700,0.226315673828125,0.3269716082185506,-0.3173299196481705,1.418767897260189,-0.346173346042633,1.097438097000122,0.3654138445854187
1783204503601253600,0.236253662109375,0.4877712419837713,-0.4151712851971387,1.6898644735217094,-0.5189474821090698,1.2567795515060425,0.4976022243499756
1783204503611190500,0.2461904296875,0.95624449377954,-0.3282973038643598,1.9260686001002787,-0.6631973385810852,1.41281259059906,0.6504811644554138
1783204503621128400,0.25612841796875,0.8620937994420528,-0.5067994753196835,1.963502550959587,-0.8141914010047913,1.4747310876846311,0.7442582845687866
1783204503631066600,0.266066650390625,0.4784492868870496,-0.7328232764065266,2.132798794913292,-0.9898467063903807,1.648534893989563,0.8529133796691895
1783204503641003500,0.27600341796875,0.8136234907835721,-0.4856029580339789,2.2743840251207352,-1.1006860733032229,1.8932892084121704,0.9773101210594176
1783204503650941700,0.285941650390625,1.1322872893840077,-0.3463257125079632,2.146968774563074,-1.1810307502746582,2.092507839202881,1.0761902332305908
1783204503660878600,0.295878662109375,1.0891238549619913,-0.2359875612184405,2.0912381195127963,-1.2786966562271118,2.2563443183898926,1.1631464958190918
1783204503670816800,0.305816650390625,1.1520990743130446,-0.1009168274715542,2.1088398271769284,-1.3829896450042725,2.3985111713409424,1.2285377979278564
1783204503680754700,0.315754638671875,1.188538168916106,-0.0028825696989893,2.172413012421131,-1.5067834854125977,2.5055744647979736,1.2737853527069092
1783204503690691600,0.325691650390625,1.2733575558066368,0.0993522085033357,2.2783505906641484,-1.6368987560272217,2.636981248855591,1.3296369314193726
1783204503700629800,0.335629638671875,1.450905495277047,0.0226664437077939,2.4461855298936364,-1.8098788261413572,2.757876396179199,1.3859707117080688
1783204503710567700,0.345567626953125,1.4752783045113085,-0.0612003186330199,2.5940783358126875,-2.002875804901123,2.84102463722229,1.4669350385665894
1783204503720504800,0.3555048828125,1.6413573399841783,-0.1034457614272832,2.573056006050109,-2.210143566131592,2.826102495193481,1.5567357540130615
1783204503730442800,0.36544287109375,1.780584608888626,0.0910216025315225,2.3883663781315088,-2.40647292137146,2.747499227523804,1.6342350244522097
1783204503740379600,0.375379638671875,1.8083584587380288,0.2089486745800823,2.0275445227593183,-2.574819326400757,2.5568859577178955,1.6842907667160034
1783204503750317600,0.385317626953125,1.6490280207425354,0.2334231906231492,1.63574066914618,-2.7252795696258545,2.3681490421295166,1.7236703634262085
1783204503760254700,0.395254638671875,1.5650971071243285,0.3159462102048099,1.5256705211430788,-2.8573131561279297,2.206922769546509,1.751875638961792
1783204503770192600,0.405192626953125,1.5273489757493135,0.1769308304853737,1.339320266535878,-2.9554100036621094,2.095696210861206,1.825855135917664
1783204503780130600,0.415130615234375,1.6315718590289354,-0.3836623404726386,0.9495517181426286,-3.0341622829437256,1.9933828115463257,1.9674090147018437
1783204503790067700,0.425067626953125,1.499449745954573,-0.8851895014125853,-0.0457715710937976,-3.074496030807495,1.68612802028656,2.0940375328063965
1783204503800005600,0.435005615234375,1.1440718352019783,-0.88320870285891,-1.6360077956497667,-3.009791135787964,1.0913668870925903,2.132049798965454
1783204503809943600,0.444943603515625,0.5339160303041338,-0.4123362079016864,-3.1839369103521107,-2.7846951484680176,0.6308385729789734,2.060734748840332
1783204503819880700,0.454880615234375,0.2179527228340506,0.2583472770646214,-3.562684883037209,-2.3678696155548096,0.8405342698097229,1.9518914222717283
1783204503829818600,0.464818603515625,0.462547661139071,0.1912517629131674,-2.7634844698816536,-1.927135944366455,1.089198350906372,1.8840728998184204
1783204503839755500,0.474755615234375,-0.4426695329755544,0.4074471206858754,-3.6410780362725257,-1.474823832511902,1.13665771484375,1.6824829578399658
1783204503849693400,0.484693359375,-2.321520747087896,0.6768135121539235,-4.659292956274747,-0.9666632413864136,1.2273521423339844,1.3611552715301514
1783204503859631600,0.494631591796875,-2.608719440105557,1.182038577763736,-3.8196108951270578,-0.4729339480400085,1.5205658674240112,1.0645499229431152
1783204503869568500,0.504568603515625,-1.608679351480305,1.2390109034381809,-2.385307575082779,-0.1065338999032974,1.912725567817688,0.8601489663124084
1783204503879506700,0.514506591796875,-1.069521036608517,1.074598924394697,-1.806769435980916,0.1366955339908599,2.3284151554107666,0.7195878624916077
1783204503889443600,0.524443603515625,-1.1433536039300265,1.243671734856069,-1.428423029834032,0.233674019575119,2.3165442943573,0.557439386844635
1783204503899381800,0.5343818359375,-1.227141601946205,1.720317187191546,-2.023861450332403,0.2509757578372955,2.144042491912842,0.3537887334823608
1783204503909319700,0.544319580078125,-0.9244476720243692,2.037879746551812,-2.016778798595071,0.2180815041065216,1.7963320016860962,0.1735651493072509
1783204503919256600,0.554256591796875,-0.3389119291201233,2.0621837283335624,-1.9153291794210672,0.1049166023731231,1.4208667278289795,0.0557892397046089
1783204503929194800,0.56419482421875,-0.1111941835969686,1.9909521372906864,-1.7063713716864586,-0.0527720190584659,1.0779781341552734,-0.0086693512275815
1783204503939132700,0.574132568359375,0.1052178856663405,1.9368790401890872,-1.5366104328304528,-0.1906609088182449,0.7663864493370056,-0.0355246700346469
1783204503949069800,0.58406982421875,0.1584288129806518,1.8501659485064448,-1.3947849641263483,-0.2641081511974334,0.5651115775108337,-0.0511557422578334
1783204503959007700,0.5940078125,0.1472341958798468,1.8810821880348023,-0.9655091657310724,-0.2631869614124298,0.5687984824180603,-0.0743343010544776
1783204503968944600,0.603944580078125,0.0786985659226775,1.922676619574428,-0.4868909520179033,-0.2066079527139663,0.802133321762085,-0.0644827187061309
1783204503978882600,0.613882568359375,-0.1052232924938201,1.7656112039014695,-0.2089946326136589,-0.10220617800951,1.1097747087478638,-0.0213006325066089
1783204503988820500,0.623820556640625,-0.3098446784593164,1.568874579836428,-0.3994166667044163,0.0437305532395839,1.365903615951538,0.0231653936207294
1783204503998757600,0.633757568359375,-0.5728972836706787,1.5023083502560852,-0.9681675712853668,0.2211351692676544,1.4058194160461426,0.0630765855312347
1783204504008695600,0.643695556640625,-0.8840369703765958,1.4097557387650013,-1.720119326531887,0.417015790939331,1.275700330734253,0.1570756584405899
1783204504018632700,0.6536328125,-1.0777125994358212,1.0970625390067696,-2.0936673924863336,0.603590726852417,1.194247841835022,0.2516695261001587
1783204504028570600,0.663570556640625,-1.0566994028277694,1.0525945978574454,-1.8812077141106127,0.7483572363853455,1.1323825120925903,0.2337963581085205
1783204504038508500,0.673508544921875,-1.179333556588739,1.0954356684572994,-1.544831148687005,0.8741558790206909,1.0290484428405762,0.1619578599929809
1783204504048445700,0.68344580078125,-1.1739137234970929,1.1691922479331494,-1.2806103034138678,0.9649208784103394,0.9924190044403076,0.1411804556846618
1783204504058383600,0.693383544921875,-0.8855909948855638,1.1970302490599454,-1.0581938791692256,1.0109096765518188,0.9772528409957886,0.1323960125446319
1783204504068320800,0.70332080078125,-0.7924771693151443,0.988906407931447,-0.6910252851188182,1.0092285871505735,0.9062560796737672,0.1301573365926742
1783204504078258700,0.7132587890625,-0.7414938549224287,0.7466777603663504,-0.4312199182003736,0.981183648109436,0.8182770013809204,0.1144758462905883
1783204504088196900,0.72319677734375,-0.5368118978761136,0.5060172389008104,-0.3202396696150302,0.9765740633010864,0.7408374547958374,0.1179600581526756
1783204504098133500,0.733133544921875,-0.2282755620690062,0.3074124828763306,-0.2824129200458526,0.966679871082306,0.66107577085495,0.1311690658330917
1783204504108071700,0.74307177734375,-0.1277831705546006,0.2354150220274925,-0.1658972491651773,0.9483582377433776,0.5570307374000549,0.1162890195846557
1783204504118009600,0.753009521484375,-0.0658008712310344,0.2524460901968181,-0.0777653767257928,0.8936617374420166,0.3962732851505279,0.0349731333553791
1783204504127946500,0.762946533203125,0.1558055883375927,0.4085428069680929,0.0586877512902021,0.7908945679664612,0.172442615032196,-0.1084180250763893
1783204504137884700,0.772884765625,0.4097629598801955,0.3919207579910755,0.2495972766369581,0.6447166204452515,-0.0659616962075233,-0.2500792741775512
1783204504147821600,0.782821533203125,0.558631113637425,0.1105251252289861,0.2981570171445608,0.4639919102191925,-0.2917491495609283,-0.3834652006626129
1783204504157759700,0.792759765625,0.5887456448614597,-0.1166199349727481,0.1821264994323253,0.3108420372009277,-0.4947786927223205,-0.4931916892528534
1783204504167697700,0.80269775390625,0.4649084719862789,-0.3480699988920241,0.0685357760876417,0.2280952930450439,-0.5826473832130432,-0.53624027967453
1783204504177634800,0.812634765625,0.2953708935573697,-0.7011424822464585,0.1187795241594314,0.2094909846782684,-0.5720306634902954,-0.5398246049880981
1783204504187572700,0.82257275390625,0.2286898054257035,-0.9106321318354456,0.2081120045602321,0.2442935556173324,-0.508784294128418,-0.5188327431678772
1783204504197510700,0.8325107421875,0.3347870312098413,-0.9914631797421724,0.1373451084196567,0.3206655383110046,-0.467719167470932,-0.4845048785209656
1783204504207447800,0.84244775390625,0.5830412592073903,-1.0461604731567202,-0.1186550209969282,0.3956867754459381,-0.5134970545768738,-0.4375539720058441
1783204504217385700,0.8523857421875,0.8164144366763532,-1.0894164081677793,-0.3940840735048055,0.4300034642219543,-0.648861289024353,-0.3900966942310333
1783204504227322600,0.862322509765625,0.9285758578702809,-1.1639200066186488,-0.6093734223484992,0.4121222198009491,-0.8427020311355591,-0.3359569609165191
1783204504237260500,0.872260498046875,1.011124011893198,-1.215234160400927,-0.8346540038526058,0.3834671378135681,-1.082542896270752,-0.2836804389953613
1783204504247198500,0.882198486328125,1.042281878157705,-1.2035822279866784,-1.0846394030243158,0.3732978701591491,-1.4096890687942505,-0.2452334314584732
1783204504257135600,0.892135498046875,0.999915585462749,-1.0572476112950593,-1.4160954631805418,0.3809509873390198,-1.7952772378921509,-0.2176138013601303
1783204504267073500,0.902073486328125,1.0757588350195435,-0.7130836799308657,-1.5508587384134531,0.3935391902923584,-2.1646900177001958,-0.1986911296844482
1783204504277010700,0.9120107421875,1.1087149828776717,-0.634565585141629,-1.2878233035326003,0.3802332282066345,-2.456655502319336,-0.1932265907526016
1783204504286949000,0.92194921875,0.9802290343485772,-0.6553074174623936,-0.9249258109301328,0.3327437341213226,-2.677907466888428,-0.1588864922523498
1783204504296887000,0.931886962890625,0.941160321894288,-0.6711828127905726,-0.5474783994495869,0.2657929360866546,-2.8244545459747314,-0.1215716078877449
1783204504306824200,0.94182421875,0.9403510513380168,-0.8545042210958897,-0.0878594852387905,0.1784060299396515,-2.837315797805786,-0.0701641961932182
1783204504316762000,0.95176220703125,1.034242802478373,-0.9079187081582843,0.2486392452597618,0.087860956788063,-2.777445077896118,0.0076712127774953
1783204504326700300,0.9617001953125,1.1528431706786155,-0.8237917605113237,0.3386252211332321,0.0310061126947402,-2.667708158493042,0.0946971699595451
1783204504336637200,0.97163720703125,1.204179974684119,-0.6934735550537705,0.4186643880099058,-0.0005848379805684,-2.5277395248413086,0.1820286214351654
1783204504346575400,0.981575439453125,1.24016343447417,-0.5489696974532678,0.5624100111216306,-0.0186129044741392,-2.359691381454468,0.2678886651992798
1783204504356512000,0.991511962890625,1.1454860859140754,-0.4476543356508016,0.5749871686220168,-0.000936172902584,-2.1782963275909424,0.3726837933063507
1783204504366450200,1.0014501953125,1.0918120711326598,-0.338853915322572,0.4479465965956449,0.0361956730484962,-2.0082030296325684,0.4654943346977234
1783204504376388000,1.01138818359375,1.025072530812025,-0.193990905553475,0.3965536784887313,0.0780200809240341,-1.8441694974899288,0.5314877033233643
1783204504386325200,1.0213251953125,0.948193289270997,0.0028647417813539,0.4946837978512048,0.1132044121623039,-1.68941068649292,0.5843141078948975
1783204504396263200,1.03126318359375,0.8598509889513254,0.1494858472641557,0.6045031859636306,0.1328960955142974,-1.539362907409668,0.6285135746002197
1783204504406201000,1.041201171875,0.7852016984194516,0.1719218432169407,0.7343874569833279,0.1213570386171341,-1.3812716007232666,0.6740319728851318
1783204504416138200,1.05113818359375,0.6947218015491962,0.142747551985085,0.8343968142211436,0.0950519293546676,-1.2294961214065552,0.7162334322929382
1783204504426076200,1.061076171875,0.5565636231809854,0.1595228918276727,0.910567030709982,0.0651067495346069,-1.0646147727966309,0.7376378774642944
1783204504436013300,1.071013427734375,0.466723193258047,0.2424920477416366,0.9896312150746585,0.0351927950978279,-0.9148834943771362,0.7534503936767578
1783204504445951200,1.080951171875,0.3882052445992827,0.324253216105327,1.0281693277835846,-0.0023847660049796,-0.7860739231109619,0.7612939476966858
1783204504455889200,1.09088916015625,0.3335492330431938,0.3572572947584092,1.0850795480072497,-0.0421761199831962,-0.6425988078117371,0.7608798742294312
1783204504465826000,1.100825927734375,0.2509828857764601,0.3671126260794699,1.171608076903224,-0.079127050936222,-0.4878120124340057,0.7841094136238098
1783204504475764000,1.110763916015625,0.2129395708471536,0.4866705142002552,1.1349077010154724,-0.103205494582653,-0.3405162990093231,0.749947726726532
1783204504485702100,1.1207021484375,-0.1474994226872921,0.2780187767401337,1.1177923155635594,-0.1124873831868171,-0.1833403557538986,0.6876199245452881
1783204504495639000,1.13063916015625,-0.3989318057969212,0.2357092557337134,1.1739315514147282,-0.1116322427988052,-0.0048132170923054,0.6274535059928894
1783204504505577000,1.140576904296875,-0.5009522105962038,0.3419352224640548,1.202380816307664,-0.0989295467734336,0.1724157631397247,0.5851746797561646
1783204504515514000,1.15051416015625,-0.5679945332556963,0.3390214539092034,1.1837030038446188,-0.0884494706988334,0.3651332855224609,0.5445165038108826
1783204504525452000,1.1604521484375,-0.6714528619036078,0.2103281462397426,1.158787758296728,-0.0963449478149414,0.5105018615722656,0.5157632827758789
1783204504535390200,1.17039013671875,-0.7116057163327932,0.1257431526269763,1.0481272431850432,-0.1199898198246955,0.6087767481803894,0.4747996032238006
1783204504545327000,1.1803271484375,-0.7492778598621487,0.15130546390675,0.9254483734995126,-0.1884764730930328,0.6316410899162292,0.419146180152893
1783204504555265300,1.190265380859375,-0.7931038498461246,0.2071944513238966,0.7724538605272769,-0.2675220370292663,0.6183396577835083,0.3534478843212127
1783204504565203200,1.200203125,-0.8287254905864596,0.1980907420877367,0.6036117900818586,-0.3479194939136505,0.5409951210021973,0.2887245714664459
1783204504575140400,1.210140380859375,-0.8463868194833397,0.2481324647814035,0.3393324926197528,-0.4205564260482788,0.4415002167224884,0.2173800617456436
1783204504585078300,1.220078369140625,-0.8029740864753723,0.294482420285046,0.1744300997108221,-0.4688828289508819,0.3401500284671783,0.142822653055191
1783204504595016200,1.23001611328125,-0.7204705753117799,0.3202940301507711,0.1203717617869377,-0.5025249719619751,0.2646600604057312,0.0772396475076675
1783204504604953000,1.239953125,-0.6283814896792173,0.3075643124371767,0.1394108087778091,-0.5072919130325317,0.2478008866310119,0.0188385546207427
1783204504614891000,1.24989111328125,-0.4933762223839759,0.2607046538457274,0.1983130796015262,-0.4977434277534485,0.2633060812950134,-0.0246966741979122
1783204504624828200,1.259828125,-0.41856326572299,0.236206756927073,0.2739566418677568,-0.4840816855430603,0.3105782568454742,-0.0625577718019485
1783204504634766000,1.26976611328125,-0.3358224386721849,0.2342962471306323,0.3269517344743013,-0.4691565036773681,0.3885476291179657,-0.0891845822334289
1783204504644704000,1.2797041015625,-0.2491433953896164,0.1947510032057762,0.3964122241914272,-0.4507476091384887,0.4839273393154144,-0.1043011397123336
1783204504654641200,1.28964111328125,-0.1646194843143224,0.170802849124372,0.3946393693000078,-0.430373340845108,0.577621340751648,-0.1160763055086135
1783204504664579000,1.2995791015625,-0.0785685098022222,0.1787652063056826,0.3892617679148912,-0.4141430854797363,0.6802502274513245,-0.1189117208123207
1783204504674517200,1.309517333984375,-0.0450835888296365,0.1812856646940112,0.3456161029338837,-0.4023617804050445,0.758802056312561,-0.1249965056777
1783204504684454100,1.3194541015625,-0.0457701097890734,0.186156339470297,0.2687316006958484,-0.3858552575111389,0.8304882645606995,-0.1342547684907913
1783204504694392300,1.329392333984375,-0.0395291695728898,0.1883946199163794,0.1480447816103696,-0.3634655177593231,0.8860836625099182,-0.1400482058525085
1783204504704329200,1.3393291015625,0.0033659693017601,0.1795639554679393,0.0472960041821002,-0.3425162136554718,0.9383299350738524,-0.1408148258924484
1783204504714267100,1.34926708984375,0.0546755930393934,0.1384922326281666,-0.0080143796294927,-0.3250812888145447,0.9878061413764954,-0.1305616647005081
1783204504724205300,1.359205322265625,0.0389925784781575,0.0904259747259318,-0.1087666641891002,-0.3048253059387207,1.0083929300308228,-0.1259892731904983
1783204504734142000,1.369141845703125,-0.0147457337111234,0.0961550198972225,-0.3106874128937721,-0.2837834060192108,0.9861480593681335,-0.1191092655062675
1783204504744080100,1.379080078125,-0.0390314491838216,0.0885292011938989,-0.4485901551961898,-0.2675788998603821,0.9430341124534608,-0.1123807579278945
1783204504754018000,1.38901806640625,-0.0341170813962817,0.1245597149960696,-0.5430354485660791,-0.2294605374336242,0.909307301044464,-0.1045617163181305
1783204504763955200,1.398955078125,0.0362134691536426,0.2672274797432124,-0.6540344018518924,-0.1792096048593521,0.8496715426445007,-0.1365784704685211
1783204504773893000,1.40889306640625,-0.2408908230900764,0.069394000352174,-0.6465040063470602,-0.1442809253931045,0.7742548584938049,-0.1638340651988983
1783204504783830300,1.418830322265625,-0.3539040388077497,0.059584992390871,-0.6708031658232212,-0.119576908648014,0.7096824645996094,-0.1776050925254821
1783204504793768200,1.428768310546875,-0.2866203086078167,0.1614446536704897,-0.6974877591311931,-0.0956854224205017,0.6706666350364685,-0.2017413228750229
1783204504803706000,1.4387060546875,-0.2583303259298205,0.1742836769774556,-0.7263654785692691,-0.0725720301270484,0.5998294353485107,-0.2242856919765472
1783204504813643300,1.448643310546875,-0.2217097372800111,0.1475432618290185,-0.7205886487334966,-0.0750863179564476,0.5238443613052368,-0.2252473533153534
1783204504823581200,1.458581298828125,-0.0886059196919202,0.0956767348609864,-0.6817395703792571,-0.1088171675801277,0.4275520741939544,-0.2107750624418258
1783204504833519000,1.46851904296875,0.0839013952627778,0.0378444313563406,-0.6094026484429836,-0.168129488825798,0.3041779398918152,-0.1813694983720779
1783204504843456300,1.478456298828125,0.2657470319271087,-0.0316777254201471,-0.5135328752279281,-0.2400392144918441,0.1876412332057953,-0.1379482150077819
1783204504853394200,1.488394287109375,0.3791360952198505,-0.0981111224010586,-0.4656593634188175,-0.3044709265232086,0.0735122561454773,-0.0836644768714904
1783204504863332000,1.49833203125,0.4471218362092971,-0.11741145067662,-0.4705570723325014,-0.3613279461860657,-0.0349691584706306,-0.0412840694189071
1783204504873269000,1.50826904296875,0.4339087188929319,-0.0841604845903813,-0.4843371758818626,-0.3968438804149627,-0.1443819254636764,-0.025923753157258
1783204504883207200,1.518207275390625,0.4049906674444675,-0.0188676359467208,-0.530305146330595,-0.3978295922279358,-0.2324072569608688,-0.0176329053938388
1783204504893144000,1.52814404296875,0.3028650487050414,-0.0395044735230505,-0.5496323626130819,-0.3589890003204345,-0.2678432762622833,-0.0030252002179622
1783204504903082200,1.538082275390625,0.2644099381044507,-0.1023258174866437,-0.6237053145617246,-0.2874327898025512,-0.2755211889743805,0.0106663769111037
1783204504913020200,1.548020263671875,0.2165925403967499,-0.1335213123477995,-0.6188993755847215,-0.2118059396743774,-0.2582015693187713,0.0194865018129348
1783204504922957000,1.55795703125,0.1078615320429205,-0.1207360650546848,-0.5132867915123701,-0.1329923570156097,-0.2152705043554306,0.0192375537008047
1783204504932895200,1.567895263671875,0.0278749721363186,-0.1203726385697722,-0.4515741394430398,-0.0473794564604759,-0.1460243165493011,0.0205294527113437
1783204504942833200,1.577833251953125,-0.0212526313871145,-0.122241647312045,-0.3866980549067259,0.0329464524984359,-0.0682884529232978,0.0260996390134096
1783204504952770300,1.587770263671875,-0.0498158780485391,-0.1061022672854363,-0.2956803978979587,0.0968399420380592,0.0023234009277075,0.0234527215361595
1783204504962708200,1.597708251953125,-0.0314212664410471,-0.0682509677968919,-0.1677075134575366,0.1319229751825332,0.0598474368453025,0.0175040569156408
1783204504972646100,1.607646240234375,0.0055281157717108,-0.0435359209962189,-0.0825999572753906,0.1364950835704803,0.0754469037055969,0.012571882456541
1783204504982583000,1.6175830078125,0.0424009256169199,-0.0427723892778158,-0.0510293454915285,0.1245662942528724,0.059383288025856,0.0124338138848543
1783204504992521000,1.62752099609375,0.056942368927598,-0.0623050650045275,-0.0068938511669635,0.0862050577998161,0.0276794228702783,0.018415005877614
1783204505002459100,1.637459228515625,0.0627934330433607,-0.0897735021665692,0.0165828860104084,0.0421940386295318,-0.0230075120925903,0.0223903767764568
1783204505012396000,1.64739599609375,0.0513952561944723,-0.0719591746650636,-0.0045738837867975,-0.0002697966992855,-0.0783991292119026,0.0195328053086996
1783204505022334200,1.657334228515625,0.0397159243166446,-0.0348749140262603,-0.0157867671966552,-0.0343491621315479,-0.1286308467388153,0.0180442482233047
1783204505032271000,1.66727099609375,0.0245516729325056,-0.0445873297452926,0.0269160639762878,-0.0641621872782707,-0.1551689803600311,0.023821709677577
1783204505042209000,1.677208984375,0.0310401581689715,-0.0752886113487184,0.0722135878175497,-0.0877090990543365,-0.1623176634311676,0.0313681364059448
1783204505052147200,1.687147216796875,0.0275865105837583,-0.0820920077532529,0.0764326668173074,-0.0994078367948532,-0.1669259965419769,0.0378609225153923
1783204505062084000,1.697083984375,0.013784195202589,-0.0801359052494168,0.0264952082157135,-0.1011398658156395,-0.1705172210931778,0.0503054708242416
1783204505072022300,1.707022216796875,-0.0091997900217771,-0.0859897458441555,-0.0280728327959775,-0.0981917455792427,-0.1777088195085525,0.0547590740025043
1783204505081960200,1.716960205078125,-0.0358370370566844,-0.0724202163055539,-0.0732715724378824,-0.0873063132166862,-0.1933424025774002,0.0610808059573173
1783204505091897300,1.7268974609375,-0.0651873424425721,-0.0387998323850333,-0.1110913077443838,-0.0838418081402778,-0.218514859676361,0.0628206506371498
1783204505101835300,1.736835205078125,-0.1049900682598352,0.0038603286899626,-0.083678984683752,-0.0792232006788253,-0.2247904390096664,0.0628152936697006
1783204505111773200,1.746773193359375,-0.0711500502392649,0.002790945892781,-0.0151636668622493,-0.0779808312654495,-0.2135649472475052,0.0653410404920578
1783204505121710000,1.7567099609375,-0.0551975710868835,0.0177973763667047,0.0394856226921081,-0.0726443529129028,-0.1998656839132309,0.0668411031365394
1783204505131648000,1.76664794921875,-0.0408218397319316,0.0256204712077975,0.0664876113861799,-0.0749666318297386,-0.1831594109535217,0.0694395527243614
1783204505141586200,1.776586181640625,-0.0580000612869858,0.0380835008092224,0.092580668541789,-0.0718852430582046,-0.1689767986536026,0.069314457476139
1783204505151523000,1.786523193359375,-0.069180503731966,0.0460584252111613,0.0642091450601816,-0.0737172365188598,-0.158056765794754,0.06213403865695
1783204505161461000,1.7964609375,-0.092813892775774,0.0759163878582418,0.0356464829206466,-0.0712605118751525,-0.1489607691764831,0.052945353090763
1783204505171398100,1.806398193359375,-0.1062470825836062,0.0957832639753818,0.0190232648998498,-0.0668860077857971,-0.138101726770401,0.0383325889706611
1783204505181336000,1.816336181640625,-0.1166132860362529,0.1165709081992506,0.0162134681761264,-0.0608157701790332,-0.1140262261033058,0.0198051314800977
1783204505191274200,1.826274169921875,-0.1187745557233691,0.1385559455141425,-0.0139782564699649,-0.0432322472333908,-0.1024907454848289,0.0049414979293942
1783204505201211100,1.836211181640625,-0.108735392268002,0.1388097741447389,-0.0590022240668535,-0.0366156026721,-0.0957135707139968,-0.0108577879145741
1783204505211149300,1.8461494140625,-0.1205678688809275,0.0893416866205632,-0.0691419252872467,-0.0321785062551498,-0.0852707847952842,-0.0206672754138708
1783204505221087200,1.856087158203125,-0.0984863854542374,0.0889350055158138,-0.0932955388128757,-0.027949895709753,-0.0916568785905838,-0.0246503688395023
1783204505231024400,1.8660244140625,-0.0801245070725679,0.0554945082068443,-0.0957622211873531,-0.0186525322496891,-0.0883401781320571,-0.0289231445640325
1783204505240962300,1.87596240234375,-0.082739073485136,0.0419189873188734,-0.0887386061608791,-0.0074594430625438,-0.0807952433824539,-0.0316426828503608
1783204505250900200,1.885900146484375,-0.0685296386078,0.0619547902621328,-0.0765250212758779,0.0094436397776007,-0.0626364797353744,-0.0371357165277004
1783204505260837000,1.895837158203125,-0.0535848751932382,0.0948733095236122,-0.0430015218585729,0.0286936331540346,-0.0354910492897033,-0.047143068164587
1783204505270775000,1.905775146484375,-0.0446592259377241,0.0824899210296571,-0.0467506452590227,0.0435777753591537,-0.0183346979320049,-0.0532411746680736
1783204505280713000,1.915712890625,-0.0294154795765876,0.0662939885102212,-0.0531640194326639,0.0530466176569461,-0.0017111338675022,-0.0528229996562004
1783204505290650000,1.925650146484375,-0.0186421566277742,0.0290842017956078,-0.049980128699541,0.0639677047729492,0.0096009094268083,-0.0568680763244628
1783204505300588000,1.935588134765625,0.0002492985859513,0.0527082384891808,-0.0772474903315305,0.0610599629580974,-0.0033254851587116,-0.0555224493145942
1783204505310526200,1.945526123046875,-0.0146107091546058,0.0363813730664551,-0.079217913621664,0.0673458203673362,-0.00237926421687,-0.0532070957124233
1783204505320463000,1.955463134765625,-0.0536032876327633,0.0052868543617427,-0.1039905358284711,0.0682579576969146,-0.007758583407849,-0.0466269589960575
1783204505330401300,1.9654013671875,-0.0365866863802075,0.0487220914624631,-0.0551473022043704,0.0693557113409042,-5.88521361351e-05,-0.0536678209900856
1783204505340338200,1.975338134765625,-0.0454600209265947,0.039182694222778,-0.0502612837284803,0.0595596656203269,-0.0052103018388152,-0.0469292402267456
1783204505350276400,1.9852763671875,0.0046335050195455,0.0188347565904259,0.0083680153727531,0.0434089303016662,-0.0018728282302618,-0.0343215689063072
1783204505360214300,1.99521435546875,0.015061667792499,-0.0363499550148844,0.0336918417215347,0.0316115021705627,0.0003553824499249,-0.0221351385116577
1783204505370151200,2.005151123046875,0.0646253246456384,-0.0346964887194335,0.0276069688498973,0.023363959044218,-0.0034116595052182,-0.0108430702239274
1783204505380089000,2.015089111328125,0.0504971383109688,-0.0131998194433748,0.0267114813148975,0.0174387581646442,-0.0015519252046942,-0.0050731925293803
1783204505390027000,2.025027099609375,0.0295785611838102,-0.0118909288018941,0.045008185505867,0.0185050871223211,0.0113968960940837,-0.0051589463837444
1783204505399964200,2.034964111328125,0.0105313308864831,0.0080329381994903,0.051582303199172,0.0216471087187528,0.0304309278726577,-0.0083625214174389
1783204505409902000,2.044902099609375,-0.0223714062839746,-0.007103694525361,0.0539741667717695,0.028767604380846,0.0385051034390926,-0.0038601814303547
1783204505419840000,2.054840087890625,-0.030787352451682,-0.0322116861663758,-0.0029541736304759,0.0317019782960414,0.0372424386441707,0.0016789981164038
1783204505429777200,2.064777099609375,-0.039506373219192,-0.0427935781963169,-0.0720008218497037,0.0324106439948082,0.0219931788742542,0.0034675770439207
1783204505439715000,2.074715087890625,-0.0619496756955981,-0.0237029471486806,-0.1035977371186017,0.0263558663427829,-0.0039815595373511,-0.0016503245569765
1783204505449653200,2.0846533203125,-0.0984346552670002,-0.0221305832654237,-0.1173725799709558,0.0221376847475767,-0.0239824317395687,-0.0056258914992213
1783204505459590100,2.094590087890625,-0.1059501454636454,0.0209583246156573,-0.087013682064414,0.0122393500059843,-0.0334271192550659,-0.0240975059568882
1783204505469528300,2.1045283203125,-0.1079506716310977,0.0512814205564558,-0.0838613555133342,0.0120422756299376,-0.0410083420574665,-0.0357352532446384
1783204505479466200,2.11446630859375,-0.0990621395155787,0.0345722778178751,-0.065855158701539,0.017281299456954,-0.0343103781342506,-0.0439999811351299
1783204505489403100,2.124403076171875,-0.0620493366777896,0.0203273332357406,-0.0383978274554014,0.0243959333747625,-0.0204339791089296,-0.0417072661221027
1783204505499341300,2.13434130859375,-0.0375330273196101,0.0202881702691316,0.0048398412466049,0.0277414359152317,-0.0053207175806164,-0.0365825891494751
1783204505509278000,2.14427783203125,-0.0106888595357537,0.0069246846966445,0.0079758011847734,0.0400665439665317,0.0102505180984735,-0.0324336513876915
1783204505519216000,2.154216064453125,0.012586802111566,0.0052821781866252,0.0054582654058933,0.0496446676552295,0.0248774476349353,-0.026807053014636
1783204505529154000,2.164154052734375,0.0265343711823225,0.0454372245728969,0.020846973195672,0.0510116666555404,0.0433065220713615,-0.0280808415263891
1783204505539091200,2.17409130859375,0.0194569801419973,0.0763398739673197,0.0301952317774295,0.0509843751788139,0.0593216083943843,-0.0345182456076145
1783204505549029000,2.184029052734375,0.0141790397390723,0.0579953851118683,0.0140618431001901,0.0489462576806545,0.0615738444030284,-0.028446240350604
1783204505558967000,2.193967041015625,0.0030111645147204,0.038508594353497,-0.0109147772461175,0.0407943949103355,0.0673445016145706,-0.029238948598504
1783204505568904200,2.203904296875,-0.0227253342881798,0.0348262525789439,-0.0052507601350545,0.0421366281807422,0.075161412358284,-0.0314528346061706
1783204505578842000,2.213842041015625,-0.0219397368684411,0.0469740787513554,-0.0364390946030616,0.0446053706109523,0.0716414526104927,-0.0308365635573864
1783204505588780300,2.2237802734375,-0.0043640404284,0.0525673687137663,-0.051671735048294,0.0473095439374446,0.0696885511279106,-0.0277275908738374
1783204505598717200,2.23371728515625,-0.0139905314296483,0.0232595872953534,-0.0871001913040876,0.0417104959487915,0.0644207298755645,-0.0235216170549392
1783204505608655000,2.243655029296875,-0.011523849055171,-0.0137801035493612,-0.1446837807446718,0.0313675776124,0.0310798194259405,-0.0145329143851995
1783204505618593300,2.25359326171875,-0.0027770634979009,0.0002861234650015,-0.1889531305819749,0.0165390968322753,-0.0065732826478779,-0.0131760332733392
1783204505628530200,2.2635302734375,-0.029769115319848,-0.0024359949752688,-0.1996685858637094,0.008289155550301,-0.0364499539136886,-0.011454033665359
1783204505638468400,2.27346826171875,-0.0238642751902341,0.0029413141489028,-0.1934790835738181,0.008924338966608,-0.0500423833727836,-0.0133821964263916
1783204505648406300,2.28340625,-0.0154845693796873,0.0022147534400224,-0.149933371835947,0.0097267497330904,-0.0516669116914272,-0.014732152223587
1783204505658343200,2.29334326171875,-0.0068903440356254,-0.0162587686225771,-0.1105044477671384,0.0191657282412052,-0.0447435304522514,-0.0102246357128024
1783204505668281000,2.303281005859375,0.0060240825951099,-0.0115650578483939,-0.0758253485739231,0.0303262397646904,-0.0312341153621673,-0.0073598735034465
1783204505678219000,2.313218994140625,0.0123038935169577,-0.004060089045763,-0.0572258620440959,0.0420452803373336,-0.0160915330052375,-0.0056468034163117
1783204505688156200,2.32315625,0.0115431382775306,-0.0259739608205854,-0.032919103783369,0.0491037219762802,-0.0143660707399249,4.2980536818504333e-07
1783204505698094000,2.333093994140625,0.005753448960185,-0.0389082611955702,-0.0311456643700599,0.048548050224781,-0.0151997385546565,0.0047392472624778
1783204505708032300,2.3430322265625,0.0122390115872025,-0.0233113174825906,-0.0185322665125131,0.0444739535450935,-0.0253772735595703,0.003818325465545
1783204505717969200,2.35296923828125,0.0057972881019115,-0.0081619714066386,-0.0061368953198194,0.0384218394756317,-0.021473541855812,0.0025042309425771
1783204505727907000,2.362906982421875,-0.0170630707427859,-0.017811697153002,0.0329179347395896,0.0286373868584632,-0.0194354243576526,0.0022933087311685
1783204505737844200,2.37284423828125,-0.0265320330947637,-0.0170548874363303,0.0428846174806356,0.0259599648416042,-0.0171761754900217,-0.0021032819058746
1783204505747782100,2.3827822265625,-0.0359682622209191,-0.0178631350792944,0.0205523741632699,0.0236752368509769,-0.0150981098413467,-0.0047049238346517
1783204505757720300,2.39272021484375,-0.0415893169730901,-0.0270826527148485,-0.0112239893257617,0.0253195837140083,-0.012987732887268,-0.0057675028219819
1783204505767657000,2.402656982421875,-0.0590881487846374,-0.0247767138600349,-0.0123036012560129,0.031357504427433,-0.0098209679126739,-0.0048202164471149
1783204505777595100,2.41259521484375,-0.0754839877903461,-0.0011810264781117,-0.0043126025021076,0.0391428545117378,0.0006911582313477,-0.0147916125133633
1783204505787533000,2.422532958984375,-0.0611637860149145,0.0141577046900987,0.0020639467924833,0.0484966784715652,0.0145095027983188,-0.0200087446719408
1783204505797470200,2.43247021484375,-0.0506201801687479,0.0094650168292224,0.0032528643161058,0.0534100979566574,0.0139824468642473,-0.0208359695971012
1783204505807408000,2.442408203125,-0.0324029709547758,-0.0343213717967271,-0.0033832126975059,0.0451335273683071,0.0069927144795656,-0.0117703024297952
1783204505817346000,2.452345947265625,-0.0136374802082777,-0.057649055892229,-0.0357867681741714,0.0326275154948234,-0.0115954726934432,-0.003549505257979
1783204505827283200,2.462283203125,-0.0128998135834932,-0.0437628616198897,-0.0426093076705932,0.0218891203403472,-0.0241533424705266,0.0017038462683558
1783204505837221000,2.47222119140625,-0.0179553434073925,-0.0374392115563154,-0.0343862537264823,0.0102934697642922,-0.0293288491666317,0.0033065024763345
1783204505847159000,2.482158935546875,-0.0057511108726263,-0.0025838790133595,-0.0213204359263181,0.0068832924589514,-0.0313680320978164,0.0041147717274725
1783204505857096200,2.49209619140625,-0.0005912438914179,0.0062619830042123,0.0052887540578842,0.0076853753998875,-0.0232174023985862,0.0009062981698662
1783204505867034000,2.5020341796875,-0.0172650230556726,0.0061406947121024,0.0030664018332958,0.0074627348221838,-0.0156140765175223,0.0009821981657296
1783204505876972300,2.51197216796875,-0.0284881355985999,0.016277765583992,0.0004442366361618,0.0097905090078711,-0.0050442651845514,0.0036908427719026
1783204505886909200,2.5219091796875,-0.0229287479057908,0.0336444954484701,-0.0041343233257532,0.0147354658693075,0.0023952752817422,0.0009070404339581
1783204505896847400,2.531847412109375,-0.0181850605100393,0.0103901688501238,-0.0193950208216905,0.019863273948431,0.0100909955799579,0.0064346515573561
1783204505906785300,2.541785400390625,-0.0293739785224199,0.0029598727189004,-0.0168149412006139,0.0243238024413585,0.0205918401479721,0.0071347965858876
1783204505916722200,2.55172216796875,-0.0413467403888702,0.0315000307656824,-0.0198971251249313,0.0264937058091163,0.0234953220933675,0.0002825511619448
1783204505926660000,2.56166015625,-0.0513669068828225,0.0452324957810342,-0.0167798698872327,0.0263224653899669,0.0183255933225154,-0.0028517229948192
1783204505936598000,2.571597900390625,-0.0538964253604412,0.0190536600381135,-0.0487894576102495,0.0220930278301239,0.0108547806739807,0.0028185548726469
1783204505946535200,2.58153515625,-0.0459267616555094,0.0020835282757878,-0.0662087944447994,0.0160899963229894,0.0029577095992863,0.0053357752040028
1783204505956473000,2.59147314453125,-0.0370078344017267,0.0141996441356837,-0.0622843144774436,0.0067687928676605,-0.0002845996059477,-0.0007087800186127
1783204505966411000,2.601410888671875,-0.0211447870984673,0.0396422745585441,-0.0581441459327936,0.001533817499876,-0.0023546745069324,0.0010531672742217
1783204505976348200,2.61134814453125,-0.011613280904293,0.0275853415399789,-0.062587681338191,0.0006146039813756,-0.0035448255948722,0.0039099864661693
1783204505986286000,2.6212861328125,-0.0015156652599573,0.0086804423227906,-0.1071329255074262,-0.0031827976927161,-0.0183855574578046,0.0032090430613607
1783204505996224300,2.631224365234375,-0.0024240122765302,0.0101969843655824,-0.1317857207268476,-0.0046252282336354,-0.0364053510129451,0.0044336915016174
1783204506006161200,2.6411611328125,0.0017614567145705,0.0105891985535621,-0.1411485923558473,-0.0050393501296639,-0.0450526364147663,0.0037047839723527
1783204506016099300,2.651099365234375,-0.0069417819619178,0.0050961540952324,-0.1366220548421144,-0.0064274668693542,-0.0600668638944625,0.004512139596045
1783204506026037200,2.661037353515625,-0.0136681676074862,-0.0051921618156135,-0.1430371825814247,-0.0073177628219127,-0.0722726583480835,0.014387140981853
1783204506035974100,2.67097412109375,-0.0078010291397571,-0.0249373112492263,-0.151205291467905,-0.0091774640604853,-0.0890485271811485,0.0217673275619745
1783204506045912300,2.680912353515625,-0.0149257664531469,-0.0256502818241715,-0.1460883868455886,-0.0155634572729468,-0.1100105345249176,0.0297277830541133
1783204506055850200,2.690850341796875,-0.0242640881627798,-0.0333680165946483,-0.1334475164592266,-0.01933004707098,-0.1287862211465835,0.0347866155207157
1783204506065787100,2.700787109375,-0.0189411395743489,-0.0082363518171012,-0.1295113460540771,-0.0267591997981071,-0.152643620967865,0.0364814512431621
1783204506075725000,2.71072509765625,-0.039530630877614,-0.0111225747779011,-0.1119926404982805,-0.0347253531217575,-0.168555736541748,0.0378814227879047
1783204506085662200,2.720662109375,-0.032883740209043,-0.0018966274015605,-0.0975894366145133,-0.0349911376833915,-0.1729411631822586,0.0309063363820314
1783204506095600000,2.73060009765625,-0.0579012770876288,0.0403211967334151,-0.0185533093005418,-0.0303126871585845,-0.1578164249658584,0.0227201599627733
1783204506105538000,2.7405380859375,-0.0677446257099509,0.0354524216532707,0.0471183095276355,-0.0283318273723125,-0.1383625566959381,0.0148707590997219
1783204506115475200,2.75047509765625,-0.0910965674638748,0.0540144987821578,0.0876449657052755,-0.0321888700127601,-0.1181568205356597,0.0027930329088121
1783204506125413000,2.7604130859375,-0.099574472951889,0.0654255351126193,0.1157505317270755,-0.027176534757018,-0.0987250655889511,-0.0020342129282653
1783204506135351300,2.770351318359375,-0.0770136815756559,0.0287780584558844,0.1057072766184806,-0.029672335833311,-0.0804195329546928,-0.0064403768628835
1783204506145288200,2.7802880859375,-0.0781742497876286,0.029446459236741,0.0934212110191583,-0.0368146672844886,-0.0755217149853706,-0.0153893968090415
1783204506155226000,2.79022607421875,-0.0452247508659958,0.0388785967096686,0.074484455358982,-0.04243840649724,-0.0706912353634834,-0.0188124757260084
1783204506165164300,2.800164306640625,-0.0363239437907934,0.0148033091172575,0.0487988099604845,-0.0502063147723674,-0.0682698860764503,-0.0221435576677322
1783204506175101000,2.810100830078125,-0.0346387671828269,0.0051679041571915,0.0560363599985837,-0.0526444390416145,-0.0629797726869583,-0.0253396276384592
1783204506185039000,2.8200390625,-0.0345148485422134,-0.0048453942045569,0.0495581038951873,-0.0510502681136131,-0.0556805841624736,-0.0227550286799669
1783204506194977000,2.82997705078125,-0.0324929873257875,-0.0345616102933883,0.0318745631664991,-0.0529990755021572,-0.0488776043057441,-0.0180941484868526
1783204506204914200,2.8399140625,-0.0043017888471484,-0.0241445534363389,0.0156008892357349,-0.0407501310110092,-0.0382827520370483,-0.0092953313142061
1783204506214852000,2.84985205078125,0.0111401104345917,-0.0249821733042597,-0.0013116671204566,-0.0202424935996532,-0.0197694152593612,-0.005703723989427
1783204506224790000,2.8597900390625,0.0213607679367065,-0.0340102600209414,-0.0157207162231206,-0.0016594855114817,0.0015180297195911,0.0043315989896655
1783204506234727200,2.86972705078125,-0.0076727265849709,-0.0338512700669467,-0.0211094235241413,0.0152504835277795,0.0226133149117231,0.010196728631854
1783204506244665000,2.8796650390625,-0.0140200497850775,-0.0093669632822275,0.015546528699994,0.0261691771447658,0.0455063804984092,0.0060536488890647
1783204506254603300,2.889603271484375,-0.0235799052909016,0.0387616923317313,0.0475900186926126,0.0328017547726631,0.0699303373694419,0.0023974627256393
1783204506264540200,2.8995400390625,-0.0404863241672515,0.0086120532616972,0.0354015682488679,0.0271689034998416,0.0738766118884086,0.0047136140055954
1783204506274478000,2.90947802734375,-0.0493795324578881,-0.0149736972481012,0.0061807344615459,0.017807375639677,0.0577067658305168,0.0044621871784329
1783204506284415700,2.919415771484375,-0.0399915263876318,-0.0137466396711766,-0.0203781866401433,0.0012710094451904,0.0327585376799106,0.0032648299820721
1783204506294353000,2.929352783203125,-0.0556660653814673,0.0147600544974207,-0.0454617744922637,-0.0109697077423334,0.0079845953732728,-0.0032345559448003
1783204506304290800,2.939290771484375,-0.0696530896797776,0.0222311210304498,-0.0435638319164514,-0.0219877399504184,0.0038236728869378,-0.0083622066304087
1783204506314228700,2.949228759765625,-0.070374097430706,0.0252010767519474,-0.0259632932960987,-0.0257993005216121,-0.0070422585122287,-0.0160306859761476
1783204506324166000,2.959165771484375,-0.0516965772286057,-0.0128638654872775,-0.0410164855211973,-0.0254882425069808,-0.0085661187767982,-0.0103195365518331
1783204506334103800,2.969103759765625,-0.0307312383502721,-0.0326921631596982,-0.0642044688850641,-0.0228450074791908,-0.0094859190285205,-0.0074208220466971
1783204506344041700,2.979041748046875,-0.0055643561288714,-0.0308943199574947,-0.0657727411150932,-0.0137021103873848,-0.0061564347706735,0.0008730608969926
1783204506353979000,2.988978759765625,0.0057666007027029,-0.0297366743549704,-0.0741881027609109,-0.0034496458247303,-0.0093286782503128,0.0064298696815967
1783204506363916800,2.998916748046875,-0.0032288989186286,-0.0266913153097033,-0.0799503195494413,-0.005185761488974,-0.0183040648698806,0.0133761931210756
1783204506373855000,3.00885498046875,-0.0130927058070898,-0.0285141468226909,-0.0863327140629291,-0.0105749182403087,-0.0335849337279796,0.0176955386996269
1783204506383791900,3.0187919921875,-0.0197875272706151,-0.0112907709516584,-0.073641574794054,-0.0127773527055978,-0.0411994457244873,0.0172958001494407
1783204506393730000,3.02872998046875,-0.0379436539471149,0.0246449041739106,-0.0280254865229129,-0.0175163075327873,-0.037063118070364,0.0119313821196556
1783204506403668000,3.03866796875,-0.0528024926438927,0.0454369323119521,0.0258785376220941,-0.030443824827671,-0.0271854549646377,0.007510800845921
1783204506413604900,3.04860498046875,-0.0580246112063527,0.0179008367411792,0.0231517430067062,-0.0394510589540004,-0.0303218439221382,0.0070067103952169
1783204506423542800,3.058542724609375,-0.0346206470042467,0.0327621596559882,-0.0213572608053684,-0.0408774465322494,-0.0320704765617847,0.004859403707087
1783204506433480700,3.068480712890625,-0.0174593765839934,0.0399381887651979,-0.0380102894425392,-0.0396256670355796,-0.0267364885658025,0.0013907076790928
1783204506443417900,3.07841796875,-0.0278583132624626,0.0189662740156054,-0.030748189485073,-0.0449946001172065,-0.0151703786104917,0.002997126430273
1783204506453355800,3.088355712890625,-0.0517228807136416,0.0145014035612344,-0.0279465760678052,-0.0664595961570739,-0.0009684190154075,0.0093028070405125
1783204506463293700,3.098293701171875,-0.0861529735818505,-0.0030265082143247,-0.0648205549567937,-0.0885899364948272,-0.0370068475604057,0.0082926703616976
1783204506473230800,3.10823095703125,-0.0764624774336814,-0.0027520751871168,-0.1729372308045625,-0.1218621134757995,-0.0884890556335449,0.0026946372818201
1783204506483168800,3.118168701171875,-0.0857552064359188,0.0574739915862679,-0.1687356874614954,-0.1612049788236618,-0.1334101855754852,-0.0176713541150093
1783204506493107000,3.12810693359375,-0.0951867593869566,0.078018766964972,-0.1483411342084407,-0.1865435391664505,-0.2014292478561401,-0.0366454944014549
1783204506503043800,3.1380439453125,-0.0881555455759167,0.0652529550246894,-0.1560106459230184,-0.1953948140144348,-0.2264264822006225,-0.0505493283271789
1783204506512982000,3.14798193359375,-0.0362158072412014,0.045147886237502,-0.1564566361248493,-0.1899999231100082,-0.2362143099308014,-0.0632991939783096
1783204506522920000,3.157919921875,-0.0363885334596037,0.0454040529556572,-0.1137842000901699,-0.1701215654611587,-0.2232875823974609,-0.0665381252765655
1783204506532856600,3.167856689453125,-0.0157706928446888,0.0307391293957829,-0.0840448953866958,-0.1490910798311233,-0.195973515510559,-0.0670636370778083
1783204506542794800,3.177794677734375,0.0131219319015741,0.0106356680437922,-0.1013975967258214,-0.1318732053041458,-0.206214427947998,-0.0652881115674972
1783204506552732700,3.187732666015625,0.0480284101098775,-0.017035744344443,-0.1320195294827222,-0.1067582070827484,-0.2206556499004364,-0.0494437552988529
1783204506562669800,3.197669921875,0.0765220986664295,-0.0322498262196779,-0.1702887621223926,-0.0950221940875053,-0.2422586679458618,-0.0429696105420589
1783204506572607700,3.207607666015625,0.0696016517534852,-0.0366220499545335,-0.1595347283959388,-0.0786834955215454,-0.2484047561883926,-0.0341554880142211
1783204506582545700,3.217545654296875,0.0586307604059576,-0.012722995711863,-0.1109586212754249,-0.0682380422949791,-0.2470910102128982,-0.0324185751378536
1783204506592482800,3.22748291015625,0.0320803148716688,0.0065802551731467,-0.0429582672387361,-0.0559619925916194,-0.2273909598588943,-0.0247321091592311
1783204506602420700,3.237420654296875,0.0608317775815725,-0.0049796881087124,-0.0152063369601964,-0.0490585453808307,-0.2096689641475677,-0.0170598085969686
1783204506612359000,3.24735888671875,0.0822995130240917,-0.021523849543929,0.0549661004185676,-0.0486292839050293,-0.1979593783617019,0.023596154525876
1783204506622295800,3.2572958984375,0.2168187503680586,0.070472881630063,0.1002846670478582,-0.0480138249695301,-0.1738692224025726,0.0147848185151815
1783204506632234000,3.26723388671875,0.0879641146570444,-0.2358572128370404,0.1738736348718404,-0.0662747845053672,-0.1242333650588989,0.0347003191709518
1783204506642172000,3.277171875,0.1523357568025589,-0.1383893567755818,0.2610346164524555,-0.0772163793444633,-0.0894080102443695,0.0635998770594596
1783204506652108800,3.28710888671875,0.1489566357582807,-0.0760312464095652,0.208833889093995,-0.0754823759198188,-0.0574388019740581,0.070149078965187
1783204506662047000,3.297046875,0.0937204862266778,-0.0683558894760906,0.1274082362949848,-0.0662119090557098,-0.0336599722504615,0.0737411528825759
1783204506671985000,3.30698486328125,0.0458797076433897,-0.030799481280893,0.0545148495197296,-0.047017004340887,-0.0223526582121849,0.0714294463396072
1783204506681921800,3.316921875,-0.0287780584558844,-0.0185313897296786,-0.0037900399327278,-0.0364839360117912,-0.0141775514930486,0.0597440302371978
1783204506691859700,3.326859619140625,-0.1225029285967349,-0.0036743045985698,-0.0301484700262546,-0.0272091161459684,-0.0182045828551054,0.0436298549175262
1783204506701797600,3.336797607421875,-0.2132306627482175,-0.0030637714847922,-0.0810188255637884,-0.0118035282939672,-0.0231897551566362,0.0249192826449871
1783204506711734800,3.34673486328125,-0.2710065598905086,0.0313680749490857,-0.1094505548000335,-0.0019350908696651,-0.0291326604783535,0.0006947182118892
1783204506721672700,3.356672607421875,-0.2953571572929621,0.0497574258595705,-0.1098193881124258,0.0011416589841246,-0.0352177172899246,-0.0233224667608737
1783204506731609900,3.36660986328125,-0.2673006911098957,0.0596478284940123,-0.0974134955257177,-0.0016319956630468,-0.0516753606498241,-0.0459005460143089
1783204506741547800,3.3765478515625,-0.223091839288175,0.0707015758194029,-0.0975040964186191,-0.0051993001252412,-0.0646803826093673,-0.0636782124638557
1783204506751486000,3.38648583984375,-0.1577969448179006,0.0683731328718364,-0.0750619629859924,-0.0061493106186389,-0.0679774209856987,-0.0689154639840126
1783204506761424000,3.396423828125,-0.1019166521638631,0.0374497329503297,-0.0379711264759302,-0.0084239169955253,-0.061140552163124,-0.0725903585553169
1783204506771360800,3.40636083984375,-0.0466004231333732,0.0285021641239523,0.0016308160722255,-0.0076039768755435,-0.0523225255310535,-0.066957414150238
1783204506781299000,3.416298828125,-0.0135229139178991,0.0506559821344912,0.0148158763378858,-0.0018057432025671,-0.039577167481184,-0.0615179017186164
1783204506791236900,3.42623681640625,0.0080170099779963,0.0664371963731944,0.0034323125362396,0.0100496327504515,-0.0210149679332971,-0.0628724843263626
1783204506801174000,3.436174072265625,-0.0192260939955711,0.1152250465482473,-0.0079664488345384,0.0180729385465383,0.0015678382478654,-0.0644136518239975
1783204506811112000,3.44611181640625,-0.065728317451477,0.1164845450900495,-0.0152653736710548,0.0325271263718605,0.0192236024886369,-0.0660364031791687
1783204506821049900,3.4560498046875,-0.0837102566048502,0.1200172492608428,-0.0285772751867771,0.0358230546116828,0.0330763012170791,-0.0726133435964584
1783204506830986800,3.46598681640625,-0.0800569947943091,0.1396316119216382,-0.0476245054841041,0.0306928120553493,0.0226625017821788,-0.0749580785632133
1783204506840924700,3.475924560546875,-0.0597179711207747,0.1171212355583906,-0.1088262854218482,0.0187123157083988,-0.0068168258294463,-0.0701843649148941
1783204506850862800,3.48586279296875,-0.0294610722839832,0.1139864446640014,-0.1437649123340845,0.0008253986015915,-0.0380775891244411,-0.0720428526401519
1783204506860799700,3.4957998046875,-0.0485550643324851,0.1189003740601241,-0.1696399428248405,-0.0134169198572635,-0.080267384648323,-0.0820669904351234
1783204506870737700,3.505737548828125,-0.0911737243533134,0.1318476800471544,-0.2026549081981182,-0.0249526351690292,-0.1260826587677002,-0.0895212441682815
1783204506880675800,3.51567578125,-0.1104459955781698,0.13811287792176,-0.1769306843549013,-0.0293891951441764,-0.1348868161439895,-0.1017536744475364
1783204506890612700,3.52561279296875,-0.1146598138809204,0.0891689604021608,-0.1658265220165252,-0.0122618600726127,-0.1285585165023803,-0.1084688678383827
1783204506900551000,3.535551025390625,-0.053318625472486,0.0891645764879882,-0.1568774918854236,0.0014257235452532,-0.1126123070716857,-0.1083157360553741
1783204506910488800,3.54548876953125,-0.0264388018533587,0.0717760731831193,-0.056179567861557,0.0192593950778245,-0.0880202949047088,-0.1088397353887558
1783204506920426000,3.555426025390625,-0.0077606971293687,0.0650768678054213,-0.0454302103102207,0.0381888784468174,-0.055325198918581,-0.1085475832223892
1783204506930364000,3.565364013671875,-0.0511094249904155,0.0364200976416468,-0.0465109912842512,0.050535898655653,-0.0370865873992443,-0.1100404858589172
1783204506940301800,3.5753017578125,-0.0329427769199013,0.0103531978406012,-0.1172708731621503,0.0806810185313224,-0.0295311994850635,-0.1054223030805587
1783204506950238700,3.58523876953125,0.0294672097638249,-0.0320496274724602,-0.2763771470129489,0.1147069931030273,-0.040206104516983,-0.0999206230044364
1783204506960176600,3.5951767578125,0.0386594010010361,-0.0301870484709739,-0.2908341269105672,0.1575753539800644,-0.0319146178662776,-0.0812718346714973
1783204506970114800,3.60511474609375,0.136533207514882,-0.1008908162474632,-0.2416144611895084,0.2006495594978332,-0.0128555921837687,-0.0510092079639434
1783204506980051700,3.6150517578125,0.1681792226225137,-0.1769105183497071,-0.1197100830078125,0.222443550825119,0.0436332523822784,-0.007688368204981
1783204506989989600,3.62498974609375,0.2521568979918956,-0.2365574700608849,0.0622130028069019,0.2167245745658874,0.0951303243637085,0.0554348602890968
1783204506999927800,3.634927734375,0.4148439529389143,-0.3096500326700508,0.0947153424829244,0.2186500281095504,0.1311613023281097,0.1348426043987274
1783204507009864700,3.64486474609375,0.5507803636044264,-0.3871890532940626,0.0062637365698814,0.2055252194404602,0.1192723885178566,0.2150425314903259
1783204507019803000,3.654802978515625,0.6095242289960384,-0.3518126194864511,-0.0245803145051002,0.1727472990751266,0.0811500400304794,0.2739447057247162
1783204507029740800,3.66474072265625,0.5089090148195624,-0.2782357804916799,-0.0772866532981395,0.1550778299570083,0.0487934686243534,0.3164654374122619
1783204507039678000,3.674677978515625,0.4668336678951978,-0.2312406589522957,-0.166261406302452,0.1403332501649856,0.0072902371175587,0.3472720980644226
1783204507049616000,3.684615966796875,0.3439607369422912,-0.1573942092359065,-0.1597182682693004,0.1206367686390876,-0.0330052562057971,0.357255756855011
1783204507059553800,3.6945537109375,0.2113473332196473,-0.1231556934170424,-0.1144195753842592,0.0919992700219154,-0.0622579492628574,0.3521874845027923
1783204507069491000,3.704490966796875,0.1101312305405736,-0.0708838005185127,-0.0575093551605939,0.0686249434947967,-0.0770251750946044,0.3291844129562378
1783204507079428900,3.714428955078125,0.0044996495068073,-0.0550413576118648,-0.0519797780841588,0.0531027130782604,-0.09662576764822,0.2971364557743072
1783204507089367000,3.724366943359375,-0.0779752200841903,-0.0084263214312493,-0.0778793584942817,0.0153114106506109,-0.160838320851326,0.2803995907306671
1783204507099303700,3.7343037109375,-0.0580368861660361,0.285847570669651,0.1685913105547428,-0.1609054207801818,-0.3098349869251251,0.2329417765140533
1783204507109241600,3.74424169921875,-0.329134339210391,-0.0087405019469559,0.348023164075613,-0.1670974493026733,-0.2389598190784454,0.1443621963262558
1783204507119179800,3.7541796875,-0.3387228362888098,-0.129890116238594,-0.4128384583353996,-0.1086778193712234,-0.3343068361282348,0.1222616881132125
1783204507129116700,3.76411669921875,-0.1193637537881732,0.2364427576400339,-0.5104723186135292,-0.0913597643375396,-0.436456948518753,0.0403640680015087
1783204507139054800,3.774054931640625,-0.4665206564232707,0.3262076381087303,-0.314001652008295,-0.0851892232894897,-0.4585702419281006,-0.0372729375958442
1783204507148992800,3.78399267578125,-0.5535299545735121,0.245336842713505,-0.1392629247397184,-0.0708293244242668,-0.447569340467453,-0.0966356173157692
1783204507158930000,3.793929931640625,-0.4746931492239236,0.1477678643651306,-0.0393710564017295,-0.0427854359149932,-0.3955170512199402,-0.1360173821449279
1783204507168867800,3.803867919921875,-0.3747594875708222,0.1823072628267109,0.0698415979892015,-0.0144744012504816,-0.336092472076416,-0.1717192381620407
1783204507178805800,3.8138056640625,-0.333835941030085,0.1697922107771038,0.152057524383068,0.0166081506758928,-0.2555928230285644,-0.1919153183698654
1783204507188743000,3.823742919921875,-0.2819979095041752,0.1379281690046191,0.1953232501357793,0.0551252961158752,-0.1818805038928985,-0.1980621218681335
1783204507198680800,3.833680908203125,-0.2278922253072261,0.1682198468938469,0.1685100620120763,0.0827025920152664,-0.1344711780548095,-0.2071080803871154
1783204507208618800,3.84361865234375,-0.1968050131261348,0.2072974733069539,0.150061966651678,0.0952401608228683,-0.0991116315126419,-0.2227795869112014
1783204507218556000,3.853555908203125,-0.1821843670994043,0.2530539929620921,0.1384153679996728,0.0922901779413223,-0.0853920951485633,-0.2391910552978515
1783204507228493800,3.863493896484375,-0.1952718122094869,0.2966787612855434,0.0982096143394708,0.1081980615854263,-0.0706819593906402,-0.2583557665348053
1783204507238432000,3.873431884765625,-0.2199094098597764,0.3234428495705127,0.0523275686085224,0.1271951794624328,-0.0485276579856872,-0.2738867998123169
1783204507248368600,3.88336865234375,-0.2073421892315149,0.3432975968584418,0.0897965907812118,0.1437424123287201,-0.0231006424874067,-0.2783005833625793
1783204507258306800,3.893306884765625,-0.1944254245132207,0.2498693715766072,0.1373942082583904,0.1383950561285019,0.0074652549810707,-0.2790641188621521
1783204507268244700,3.90324462890625,-0.1494952726796269,0.1504294847898185,0.2379477553755044,0.124314397573471,0.0398325100541114,-0.2594586908817291
1783204507278182000,3.913181884765625,-0.0344070042535662,0.0840657920442521,0.3025970454186201,0.1062171533703804,0.07605442404747,-0.220402106642723
1783204507288120600,3.92312060546875,0.0854120920866727,0.0179985980272293,0.3317196795284748,0.0905719771981239,0.110158622264862,-0.1758047938346862
1783204507298058500,3.93305859375,0.1619146092697977,-0.0279886616438627,0.3294049728453159,0.0766258016228675,0.1275807619094848,-0.1264686584472656
1783204507307995600,3.94299560546875,0.1914133832156658,-0.0572610794879496,0.2944236758351325,0.0544926673173904,0.1371887326240539,-0.0831216946244239
1783204507317933600,3.95293359375,0.1661152758300304,-0.0937773309804499,0.182166246920824,0.0327269211411476,0.1148685216903686,-0.0469184182584285
1783204507327871500,3.96287158203125,0.0994581530958414,-0.0986060663111507,0.0649491497725248,-0.0080844108015298,0.0741762742400169,-0.0261003691703081
1783204507337808600,3.97280859375,0.0196136320084333,-0.0712049952968955,-0.0318891762137413,-0.0437649115920066,0.0094995442777872,-0.0253315139561891
1783204507347746600,3.98274658203125,-0.0502384873747825,-0.0521888907901942,-0.1150444292843341,-0.0704280585050582,-0.052455436438322,-0.0372988954186439
1783204507357684700,3.992684814453125,-0.1113259932830929,-0.038357495445013,-0.1573041928648948,-0.0829326584935188,-0.1004804819822311,-0.0525713264942169
1783204507367621600,4.00262158203125,-0.1480126329064369,-0.0316904387712478,-0.1168862577587366,-0.0885813757777214,-0.1223542615771293,-0.0677039250731468
1783204507377559600,4.0125595703125,-0.1549649362623691,-0.0646178719915449,-0.0367027139753103,-0.0797812268137931,-0.1065667793154716,-0.0821201503276825
1783204507387497700,4.022497802734375,-0.091411332501471,-0.0918529387891292,0.0356821387559175,-0.0622238293290138,-0.0703087970614433,-0.0905327424407005
1783204507397434400,4.032434326171875,-0.0302063376933336,-0.129294342302531,0.0798421829998493,-0.031981237232685,-0.0242696665227413,-0.0899052992463111
1783204507407372500,4.04237255859375,0.0186634916767477,-0.1714943385198712,0.0558832152634859,0.0094341598451137,0.0180600024759769,-0.0804914310574531
1783204507417310500,4.052310546875,0.0663324208244681,-0.190692959986627,0.0683376231670379,0.0370375588536262,0.0602990686893463,-0.0665329992771148
1783204507427247600,4.06224755859375,0.0757990450888872,-0.2141502618111669,0.1092693530142307,0.0580439008772373,0.097645379602909,-0.0553857535123825
1783204507437185500,4.072185546875,0.0940057329088449,-0.1913226361922919,0.142566642460227,0.0629355907440185,0.1242743283510208,-0.0419905856251716
1783204507447123500,4.08212353515625,0.1279880820095539,-0.1685831272482872,0.155371763497591,0.0580765604972839,0.1393974125385284,-0.0344435349106788
1783204507457060600,4.092060546875,0.1521674144983291,-0.1582116630986332,0.1349058985739946,0.0466334894299507,0.1439183950424194,-0.021251568570733
1783204507466998500,4.10199853515625,0.1452247557535767,-0.16100114768669,0.1381511641055345,0.0289874449372291,0.1541181057691574,-0.0042508738115429
1783204507476936700,4.111936767578125,0.1473576761290431,-0.1724342497184872,0.1464542975485324,0.0124982167035341,0.1666783690452575,0.0150658320635557
1783204507486873600,4.12187353515625,0.1592974125087261,-0.1806698708832264,0.1491483589380979,-0.0036466652527451,0.1769453883171081,0.0381607674062252
1783204507496811500,4.1318115234375,0.1529673327043652,-0.1750125757738947,0.1292763682544231,-0.010492586530745,0.1971550434827804,0.0589177124202251
1783204507506749700,4.141749755859375,0.1420475870221853,-0.1383551622450351,0.1160860472917556,-0.0116337407380342,0.2173549383878708,0.0724396109580993
1783204507516686600,4.1516865234375,0.1024924062252044,-0.1053543715275824,0.0747878222197294,-0.0076770819723606,0.2394104301929474,0.0942421108484268
1783204507526624800,4.161624755859375,0.063272156471014,-0.0788823980569839,0.0447381363928318,-0.0061674574390053,0.2492760270833969,0.1002019867300987
1783204507536562700,4.171562744140625,0.0207224700331687,-0.0480702034249901,-0.0078811086386442,-0.0184880383312702,0.2391626685857772,0.1078492552042007
1783204507546499600,4.18149951171875,-0.0158966573119163,-0.0283352831244468,-0.1006651907980442,-0.0336640365421772,0.2013497501611709,0.1056283414363861
1783204507556437500,4.1914375,-0.0454796024098992,-0.0082557871699333,-0.1595025796920061,-0.0511032119393348,0.1541398912668228,0.1070640459656715
1783204507566375400,4.20137548828125,-0.0819347713649272,0.0131653326518833,-0.224404967713356,-0.0699211582541465,0.0949780642986297,0.0958567634224891
1783204507576312600,4.2113125,-0.1083656821727752,0.0423071098536253,-0.2417518238335847,-0.0877512842416763,0.04310954362154,0.0840552300214767
1783204507586250500,4.22125048828125,-0.1174722409531474,0.067977557682991,-0.2426280221462249,-0.1018187701702117,-0.0064793061465024,0.0694838017225265
1783204507596188700,4.231188720703125,-0.1141723226249217,0.0954711292862892,-0.197561968973279,-0.1066020727157592,-0.0324866697192192,0.0585917383432388
1783204507606125600,4.24112548828125,-0.1155716680288314,0.0870072523236274,-0.1544078869014978,-0.1060166135430336,-0.0478593036532402,0.0496300160884857
1783204507616063500,4.2510634765625,-0.1064160094097256,0.0922672186784446,-0.1133779573768377,-0.098977081477642,-0.0429678745567798,0.0466568619012832
1783204507626001700,4.261001708984375,-0.0973129577606916,0.1159606673464179,-0.0707774175345897,-0.0908572301268577,-0.0300254505127668,0.0365194827318191
1783204507635939600,4.270939697265625,-0.1024134957700967,0.1492971197590231,-0.0310100552916526,-0.0855969563126564,-0.0102887656539678,0.0260431412607431
1783204507645876700,4.280876708984375,-0.0903299670055508,0.1661940401546657,0.0225467628508806,-0.0866660848259925,0.0118948426097631,0.0147995967417955
1783204507655814700,4.290814697265625,-0.0677501786679029,0.1518459274590015,0.005695581293106,-0.0824572220444679,0.0300493463873863,0.0044588083401322
1783204507665752600,4.300752685546875,-0.0652180298417806,0.1248702422499656,-0.0170353059530258,-0.0813127681612968,0.0340883955359458,0.0032990060281008
1783204507675689500,4.310689453125,-0.0677688833683729,0.1081502858564257,-0.0576122310131788,-0.0783848911523819,0.0322702601552009,0.0017511767800897
1783204507685627400,4.32062744140625,-0.0838525876849889,0.1167937571696937,-0.0800800834089517,-0.0746487453579902,0.0268255062401294,-0.0071294335648417
1783204507695565600,4.330565673828125,-0.1017246367231011,0.1203551029130816,-0.0955377647817134,-0.0762644782662391,0.0136662945151329,-0.0163186714053154
1783204507705502500,4.34050244140625,-0.1091024720147252,0.1127547109119594,-0.1279109251201152,-0.0840151607990264,-0.0113235805183649,-0.0245433151721954
1783204507715440400,4.3504404296875,-0.0886164410859346,0.1116784599825739,-0.1381248606204986,-0.090061604976654,-0.0327481776475906,-0.0330092385411262
1783204507725378600,4.360378662109375,-0.0803030785098671,0.0927608474142849,-0.1096013614475727,-0.0993611812591552,-0.0531607381999492,-0.0435960181057453
1783204507735315500,4.3703154296875,-0.0718769032090902,0.090009795140475,-0.0830588069587945,-0.1125052124261856,-0.0647396296262741,-0.0497670955955982
1783204507745253600,4.380253662109375,-0.0667582450211048,0.0749183167316019,-0.0381213486015796,-0.1323972195386886,-0.0771218612790107,-0.0636688992381095
1783204507755191600,4.390191650390625,-0.0840139157265424,0.061930240342766,-0.0174988318115472,-0.1480179876089096,-0.0900855958461761,-0.07524885982275
1783204507765128700,4.400128662109375,-0.0782572518959641,0.0607337240345776,0.0113718733638525,-0.1647389382123947,-0.0948525443673133,-0.0893744677305221
1783204507775066600,4.410066650390625,-0.0697147567391395,0.051373336623609,0.0254418997704982,-0.1814097911119461,-0.0944224447011947,-0.1051640808582305
1783204507785004500,4.420004638671875,-0.0822375537037849,0.0361804436668753,0.0396633173465728,-0.1977051347494125,-0.0931933224201202,-0.1180420890450477
1783204507794941700,4.429941650390625,-0.0869441239595413,0.035379064156115,0.0714788438022136,-0.2065726667642593,-0.0832253769040107,-0.1340397000312805
1783204507804879600,4.439879638671875,-0.0490396329790353,0.0247965876042842,0.0922656112432479,-0.2059145867824554,-0.0618390440940856,-0.1364661455154419
1783204507814817800,4.44981787109375,-0.0021127543702721,-0.030773470056802,0.0653103843003511,-0.1943884193897247,-0.0399816818535327,-0.1294937282800674
1783204507824754400,4.45975439453125,0.0217155727237462,-0.0780352797083556,0.0258107330828905,-0.1891052573919296,-0.0343766063451767,-0.1173589900135994
1783204507834692400,4.4696923828125,0.0372965882152318,-0.1177770691186189,-0.0442272642612457,-0.1764722764492035,-0.0393804162740707,-0.1014471352100372
1783204507844630500,4.479630615234375,0.0568093901976943,-0.1082040618702769,-0.0900982040762901,-0.1657953709363937,-0.0474161878228187,-0.086216390132904
1783204507854567400,4.4895673828125,0.079163845346868,-0.1028229533538222,-0.1055810198903083,-0.1516390740871429,-0.0460108369588851,-0.0698331519961357
1783204507864505600,4.499505615234375,0.0917293124094605,-0.1175654721945524,-0.1211123510211706,-0.1370788216590881,-0.0480002649128437,-0.0461756363511085
1783204507874443500,4.509443603515625,0.0920785642385482,-0.1292386665925383,-0.1403437057137489,-0.1210950687527656,-0.0481235720217227,-0.0307018719613552
1783204507884380700,4.519380615234375,0.0944850408583879,-0.1143050090938806,-0.1340881524503231,-0.1068221852183342,-0.0428692810237407,-0.020561458542943
1783204507894318600,4.529318603515625,0.1112175644725561,-0.0650374125778675,-0.1197737958937883,-0.0860002562403678,-0.0255052056163549,-0.007597723044455
1783204507904256500,4.539256591796875,0.1332891110271215,-0.0699108638331294,-0.130602648422122,-0.0619341470301151,-0.0051783039234578,0.009721539914608
1783204507914193700,4.549193603515625,0.1287447455957532,-0.0740580466404557,-0.169849786183238,-0.0373803339898586,0.0090208714827895,0.0287285204976797
1783204507924131600,4.559131591796875,0.1176771158754825,-0.0706166740149259,-0.1918254711478948,-0.0142277954146265,0.0158327277749776,0.0385361798107624
1783204507934069800,4.56906982421875,0.0943386181250214,-0.0364734352640807,-0.1961076785117387,0.0014813933521509,0.0181206502020359,0.0487563274800777
1783204507944006700,4.579006591796875,0.0523389667853713,0.012562544453144,-0.1842535745888948,0.0098140481859445,0.0227800998836755,0.0484236516058445
1783204507953944600,4.588944580078125,0.0125648825407028,0.037784956254065,-0.1590162574797868,0.0141201140359044,0.0148159172385931,0.0455503687262535
1783204507963882800,4.5988828125,-0.0028778935238718,0.0438803505197167,-0.1621422805458307,0.0119261089712381,-0.0016353316605091,0.0439095944166183
1783204507973819400,4.6088193359375,-0.0277460850596427,0.0470309235051274,-0.1794704319655895,0.0052000293508172,-0.0217842757701873,0.0408602729439735
1783204507983757600,4.618757568359375,-0.0428138903319835,0.0686034344963729,-0.1521457871884107,0.0035980734974145,-0.029757659882307,0.0305192675441503
1783204507993695500,4.628695556640625,-0.0616746581465005,0.0875318607196211,-0.1035047981381416,0.0035860892385244,-0.0295648463070392,0.0225617438554763
1783204508003633400,4.63863330078125,-0.0658273939117789,0.0924513430736958,-0.0728162298858165,0.0081583894789218,-0.0230798069387674,0.015289144590497
1783204508013570600,4.648570556640625,-0.0637733839914202,0.0941109468489885,-0.0345569341182708,0.0172293819487094,-0.0099275205284357,0.0107979895547032
1783204508023508500,4.658508544921875,-0.0595437835976481,0.0908273951336741,-0.0050268882513046,0.0258136168122291,0.0044720550067722,0.0100737158209085
1783204508033446700,4.66844677734375,-0.0655403936639428,0.0620760785542428,-0.0012391864061355,0.0261307992041111,0.0066225575283169,0.0156418532133102
1783204508043383600,4.678383544921875,-0.0719759796693921,0.0580164278998971,-0.0098959555923938,0.0195153895765543,-0.0072821695357561,0.0131999868899583
1783204508053321500,4.688321533203125,-0.0746630267962813,0.0774076493293046,-0.0314747501939535,0.000919334590435,-0.0260630473494529,0.0067652575671672
1783204508063259600,4.698259765625,-0.0731824328497052,0.1010161961928009,-0.0055143795073032,-0.011806895956397,-0.0346407890319824,0.0020643391180783
1783204508073196500,4.708196533203125,-0.0772381379812955,0.0755216894522309,0.012081482937932,-0.0153997670859098,-0.0330418273806571,-0.0017296003643423
1783204508083134700,4.718134765625,-0.0603150602310895,0.0707683574452996,0.042555531656742,-0.0163921974599361,-0.0198328252881765,5.9271696954e-06
1783204508093072600,4.72807275390625,-0.0564963787257671,0.0747920600034296,0.0590887333065271,-0.0120464507490396,-0.0073327464051544,-0.0006486778147518
1783204508103009500,4.738009521484375,-0.0540536617487669,0.0374628846928477,0.0382879373401403,-0.0100553352385759,-0.0003818874247372,0.0029812653083354
1783204508112947500,4.747947509765625,-0.0469558124423027,0.0253437000930309,-0.0154921681642532,-0.0098231080919504,-0.0101479655131697,0.0012113281991332
1783204508122885400,4.757885498046875,-0.0440910706609487,0.0322767142266035,-0.0645838235914707,-0.0036619771271944,-0.0218886323273181,0.0030067178886383
1783204508132822500,4.767822509765625,-0.0515235587492585,0.0233032803066074,-0.0625637159407138,-0.0019144099205732,-0.0265824552625417,0.0017896529752761
1783204508142760400,4.777760498046875,-0.0707499450057745,0.028982056595385,-0.0194832836270332,0.0054954611696302,-0.0177849829196929,-0.006149276625365
1783204508152698600,4.78769873046875,-0.0823994662672281,0.0356673795782029,0.0205535432070493,0.0132500538602471,0.0029400025960057,-0.0111980969086289
1783204508162635500,4.797635498046875,-0.0684434216290712,0.052878480489552,0.0565577535241842,0.0205707587301731,0.023397559300065,-0.0176774412393569
1783204508172573400,4.807573486328125,-0.0473436427161097,0.0370522580653429,0.0698030195444822,0.0250541903078556,0.0432109422981739,-0.0198841355741024
1783204508182511600,4.81751171875,-0.0261947639644145,0.0132762456804513,0.0512327591091394,0.0260097905993461,0.0557283796370029,-0.0155691429972648
1783204508192448500,4.827448486328125,-0.0043073418051004,-0.006576894172281,0.0266600433886051,0.020908772945404,0.0501314811408519,-0.0135938767343759
1783204508202386700,4.83738671875,0.0078007368788123,-0.0127471072398126,-0.0071270754009485,0.010978864505887,0.0394464582204818,-0.0050501306541264
1783204508212324600,4.84732470703125,0.0204340084806084,-0.0222217686802148,-0.0276379485100507,0.0070024994201958,0.0246874876320362,-0.0016447466332465
1783204508222261800,4.85726171875,0.0022694062367081,-0.0268016438163816,-0.0245779764175415,0.009372173808515,0.0232495665550231,0.0022373769897967
1783204508232199700,4.86719970703125,-0.0081628481894731,-0.0068855217300355,-0.0077852470487356,0.0093101216480135,0.0290600527077913,0.0007220383267849
1783204508242137600,4.8771376953125,-0.0219902980118989,-0.0008770750954747,-0.0030617256581783,0.0044442350044846,0.0232895389199256,-0.0031136111356317
1783204508252074500,4.887074462890625,-0.0349397959560155,-0.0102720954284071,-0.057080316093564,-0.0049905469641089,0.0049680569209158,0.0051504438742995
1783204508262012400,4.897012451171875,-0.0297717456683516,-0.0330240254625678,-0.1037935519516468,-0.0129882162436842,-0.0130662089213728,0.0029366638045758
1783204508271950600,4.90695068359375,-0.0282522810161113,-0.0122433955013751,-0.1051613331735134,-0.0156902596354484,-0.0232844911515712,-0.0027246840763837
1783204508281888500,4.916888427734375,-0.0227960614368319,0.0240476689331233,-0.0652086774915456,-0.0152354920282959,-0.0203126054257154,-0.0085698701441288
1783204508291825700,4.92682568359375,-0.0067655486121773,0.010501812531054,-0.0466962847232818,-0.0069171087816357,-0.0076090609654784,-0.0036864317953586
1783204508301763800,4.936763916015625,0.003396072179079,-0.0238639829292893,-0.0299415492773056,0.002758321352303,0.0013160547241568,0.0012576465960592
1783204508311701800,4.94670166015625,0.0192117732092738,-0.0310864815287292,-0.0213531691521406,0.0086990343406796,0.0120733613148331,0.0082945171743631
1783204508321639000,4.956638916015625,0.0303434080764651,-0.002790945892781,-0.0326098917037248,0.0085194138810038,0.0080773774534463,0.0112184230238199
1783204508331576800,4.966576904296875,0.0312608151823282,0.0090390465021133,-0.0518476761370897,0.007560409605503,0.0063702911138534,0.0153441913425922
1783204508341514800,4.9765146484375,0.0277758956760168,0.0050289340779185,-0.0611053338259458,0.0056749582290649,0.0030886069871485,0.0189147982746362
1783204508351452000,4.986451904296875,0.0153852006584405,0.0025749650545418,-0.0455640658229589,0.0051961219869554,0.0019157510250806,0.0151448268443346
1783204508361389800,4.996389892578125,0.0079413143932819,0.0283425896480679,-0.0318494287252426,0.0050789481028914,0.0074434881098568,0.0151429288089275
1783204508371328000,5.006327880859375,-0.02199760453552,0.0270795839749276,-0.016406360399723,0.0123222135007381,0.0168633554130792,0.0152284167706966
1783204508381264600,5.0162646484375,-0.044301206280291,0.0272863585934042,-0.0136433254271745,0.0117754731327295,0.013070560991764,0.0204460471868515
1783204508391202800,5.026202880859375,-0.0495627800703048,0.0327688816577196,-0.0514934558719396,0.0128623088821768,0.0085511766374111,0.0173570476472377
1783204508401140700,5.036140625,-0.0647416445016861,0.038445173728466,-0.0645914223760366,0.0131973288953304,0.0006473674438893,0.0126318335533142
1783204508411077600,5.04607763671875,-0.072056351429224,0.0551695140361785,-0.0388823961019516,0.0115208681672811,0.0016007791273295,0.0051233181729912
1783204508421015800,5.056015869140625,-0.0839578016251325,0.0559632947623729,-0.0291699803829193,0.0124486638233065,-0.0017217486165463,-0.0029118787497282
1783204508430953700,5.06595361328125,-0.071847384853661,0.0490006161428987,-0.0110796124190092,0.0109836589545011,0.0035750123206526,-0.0002135639078915
1783204508440891000,5.075890869140625,-0.0666167907238006,0.0401607454746961,0.0012181436181068,0.0111393546685576,0.0063941124826669,-0.003781514475122
1783204508450828800,5.085828857421875,-0.0416723190814256,0.0293225405961275,-0.0028144728988409,0.0102674355730414,0.0030113654211163,-0.0011330007109791
1783204508460766700,5.0957666015625,-0.0361079629525542,0.0132329910606145,-0.0211386496186256,0.0102202892303466,0.0022122571244835,0.0033611508551985
1783204508470703900,5.105703857421875,-0.0313470321610569,0.0243519125767052,0.0050245501637458,0.0099747460335493,0.0085774781182408,0.003259950550273
1783204508480641800,5.115641845703125,-0.0393093893423676,0.0541942392632365,0.0180342538625001,0.0065458309836685,0.0140961185097694,-0.0002105950843542
1783204508490580000,5.125580078125,-0.0405032753020524,0.0464105996496975,0.0501473019599914,0.0101661318913102,0.0200110003352165,-0.0029547163285315
1783204508500516900,5.135516845703125,-0.0499897733107209,0.0387539474166929,0.0314566300153732,0.0050259511917829,0.0249300710856914,-0.005233715288341
1783204508510454800,5.145454833984375,-0.0423193848133087,0.0365383171938359,-0.0005348375290632,-0.0032652672380208,0.0148899517953395,-0.0026475198101252
1783204508520393000,5.15539306640625,-0.045509705287218,0.0304682034999132,-0.0418646267831325,-0.0087969694286584,0.0027387798763811,-0.0039353314787149
1783204508530329600,5.16532958984375,-0.0350233825862407,0.0266904385268688,-0.056287704411149,-0.015318252146244,-0.001745184417814,-0.0049651758745312
1783204508540267800,5.175267822265625,-0.0187660752683877,0.0295312149107456,-0.0799573338121175,-0.0151347108185291,-0.0068973680026829,-0.0070441323332488
1783204508550205700,5.185205810546875,-0.0141354928582906,0.0264440625503659,-0.0743704735904932,-0.0125711522996425,-0.0049125137738883,-0.004490693565458
1783204508560143600,5.1951435546875,-0.0088490768879652,0.0020614625744521,-0.0650607934534549,-0.0033795488998293,0.0031823758035898,-0.0061952476389706
1783204508570080800,5.205080810546875,-0.008463292440772,0.0101605978779494,-0.0828343505531549,0.0037723695859313,0.0043890541419386,-0.0037392806261777
1783204508580018700,5.215018798828125,-0.0026373627662658,0.0104679102614521,-0.0907668971180915,0.0110406056046485,0.0085382722318172,-0.0008242006879299
1783204508589956900,5.224956787109375,-0.0022515783190727,0.0012507307134568,-0.0947585971027612,0.0134547604247927,0.0017312318086624,0.0003446605987846
1783204508599893800,5.234893798828125,-0.0074102762565016,0.0089870240539312,-0.1026765306204557,0.011996753513813,-0.0047793304547667,-0.0019861557520926
1783204508609832000,5.24483203125,-0.0021276596784591,0.0273575241334736,-0.0676385349869728,0.0064019849523901,-0.0126154152676463,-0.0048370696604251
1783204508619769900,5.254769775390625,0.0041691023781895,0.0266081670708954,-0.0496545500069856,0.002429679967463,-0.0145732443779706,-0.0071083740331232
1783204508629706800,5.264706787109375,0.0051601592421531,0.0043479660764336,-0.0475309819817543,0.0016240738332271,-0.0092605035752058,-0.0059610838070511
1783204508639645000,5.27464501953125,0.0046513329371809,-0.0065799629122018,-0.0301034618407487,0.0031661447137594,-0.0069625261239707,-0.0002336096949875
1783204508649582800,5.284582763671875,0.0067529813915491,-0.0094005732908844,-0.0219686707019805,0.0069795246236026,-0.0001179357059299,0.002476955531165
1783204508659519700,5.294519775390625,-0.0075119830653071,-0.008334697625041,-0.0060176528543233,0.0060935989022254,-0.0002295058220624,0.0065748086199164
1783204508669457700,5.304457763671875,0.0031806758627295,-0.0130912445023655,-0.0375339041024446,0.0053135589696466,-0.0068424008786678,0.0102989729493856
1783204508679395600,5.3143955078125,0.0042523967474699,0.0008380582593381,-0.0571118802756071,0.0030309837311506,-0.0143453497439622,0.0115518886595964
1783204508689332700,5.324332763671875,-0.0156555420324206,0.016665595857799,-0.0393693028360605,0.0004687570035457,-0.0163254104554653,0.0100748995319008
1783204508699270700,5.334270751953125,-0.0420472898736596,0.0109539402127265,-0.0072094929873943,0.0022191954776644,-0.0117490831762552,0.0080409040674567
1783204508709208800,5.344208740234375,-0.0504620669975876,0.0293305777721107,0.0236789817512035,0.0020812442526221,-0.0004013534635305,0.0005630140658468
1783204508719145700,5.354145751953125,-0.0623868980690836,0.0368282400511205,0.0252612825065851,0.0059727053157985,0.0048695430159568,0.0004478723276406
1783204508729084000,5.364083984375,-0.0648112026065588,0.0161494630292057,0.0220879131674766,0.0002519693225622,0.0070578623563051,0.0006689147558063
1783204508739021800,5.374021728515625,-0.0560351909548044,0.0103436993598937,0.0209895965367555,-0.0022649746388196,-0.0007375827990472,-0.000564994988963
1783204508748958700,5.383958740234375,-0.0508411294430494,0.0234656312614679,0.0086596917957067,-0.0043718023225665,-0.0039019505493342,-0.0029077776707708
1783204508758897000,5.39389697265625,-0.039966976468265,0.0253362474389374,0.0178606508612632,-0.0068991081789135,0.0034124148078262,-0.0033256199676543
1783204508768834800,5.403834716796875,-0.0244736392602324,0.0279841315992176,0.022344518277049,-0.0105596212670207,0.0069695990532636,-0.0013737892732024
1783204508778772700,5.413772705078125,-0.0103057054370641,0.0279588510274887,0.0146481185555458,-0.0085064321756362,0.0122333206236362,-0.0032857190817594
1783204508788710000,5.4237099609375,0.0001543137788772,0.023137129959464,-0.0066547817140817,-0.0087527744472026,0.01082344353199,0.0030243748333305
1783204508798647800,5.433647705078125,-0.0077726798281073,0.0135886726304888,-0.0315846403092145,-0.0039502261206507,0.0123501755297183,0.0041951723396778
1783204508808586000,5.4435859375,-0.0148988784462213,0.0042328152641654,-0.0486392354846,-0.0022047907114028,0.014427175745368,0.0078777922317385
1783204508818522600,5.453522705078125,-0.0262485399782657,0.0216965757623314,-0.0688794749587774,-0.0066739888861775,0.0086045553907752,0.0029691755771636
1783204508828460800,5.463460693359375,-0.0253314251333475,0.0314174670487642,-0.1002110172897577,-0.0083270138129591,-0.0058939601294696,-0.0009110502433031
1783204508838398700,5.473398681640625,-0.0218660871103405,0.0303688347786664,-0.1337239953130483,-0.0100682182237505,-0.016602337360382,-0.0026327585801482
1783204508848335600,5.483335693359375,-0.024140461783111,0.0191509829327464,-0.1226145722776651,-0.0091883102431893,-0.0216373112052679,-0.0049337297677993
1783204508858273800,5.493273681640625,-0.0141267250299453,0.0193678405538201,-0.0974742858022451,-0.0013945465907454,-0.0153679074719548,-0.007622058968991
1783204508868211700,5.503211669921875,0.000171557174623,0.0268007670335471,-0.0583417143315076,0.0038992846384644,-0.005573334172368,-0.0049202819354832
1783204508878148900,5.51314892578125,0.0109779056102037,0.0088002693101763,-0.0537719221979379,0.0094709321856498,-0.0052903522737324,0.0012150488328188
1783204508888086800,5.523086669921875,0.0216243873089551,-0.0044464580148458,-0.0860883839130401,0.013871805742383,-0.0113274734467267,0.009108392521739
1783204508898024700,5.533024658203125,0.0106572953537106,-0.0049734044983983,-0.0687894585877657,0.0203098282217979,-0.0108405239880085,0.013251319527626
1783204508907961900,5.5429619140625,-0.0016670564293861,0.0157432203158736,-0.0350865109503269,0.0184884909540414,-0.0028499760664999,0.0096805533394217
1783204508917899800,5.552899658203125,-0.028927988320589,0.0433744468241929,0.0007423427999019,0.0168709568679332,0.0029221817385405,0.0087857693433761
1783204508927838000,5.562837890625,-0.0549061869248747,0.0345543037697672,0.0238800572812557,0.0152853112667799,0.0093949949368834,0.0074131758883595
1783204508937774600,5.572774658203125,-0.0647188481479883,0.0352491541661322,0.0145166011303663,0.0087109617888927,0.0094554256647825,0.0049624964594841
1783204508947712800,5.582712646484375,-0.0625651772454381,0.0483618798479437,0.0212397719055414,-0.0002926532179117,0.0080431513488292,-0.003363343887031
1783204508957650700,5.592650634765625,-0.0608808774203062,0.0493193267032504,0.0256125801622867,-0.0033398298546671,0.007193231023848,-0.0044686230830848
1783204508967587600,5.602587646484375,-0.056336219727993,0.0291093362368643,0.0066986208558082,-0.007185966707766,0.0011321427300572,-0.0056870193220674
1783204508977525800,5.61252587890625,-0.0393827468395233,-0.0022907412856817,-0.0209895965367555,-0.011531725525856,-0.0120264291763305,-0.0033950353972613
1783204508987463700,5.622463623046875,-0.0286839504316449,-0.0042236090444028,-0.0448731609493494,-0.0146329756826162,-0.0140094198286533,-0.0022365604527294
1783204508997400800,5.63240087890625,-0.0164379245817661,0.0250204594880342,-0.0270142636537551,-0.0158834308385849,-0.0143499746918678,-0.0037945897784084
1783204509007338800,5.6423388671875,-0.0144008657962083,0.0221034029975533,-0.016855857732892,-0.0083410935476422,-0.005551422946155,-0.0035578347742557
1783204509017276700,5.652276611328125,-0.0016983283504843,-0.0126589905649423,-0.0328916312545537,-0.0026902332901954,-0.0005472782067954,-0.0008838349021971
1783204509027214800,5.66221484375,-0.0030237317353487,-0.0134891577787697,-0.0552811577171087,-0.0009200302883982,-0.0032487888820469,0.0007255130913108
1783204509037151700,5.67215185546875,-0.0055216860309243,-0.0007329904496669,-0.0666489394277334,0.0052252691239118,-0.0009352527558803,0.0056482404470443
1783204509047090000,5.68208984375,-0.0141121119827032,-0.0097144615456461,-0.0607744944363832,0.0077659250237047,0.0017806384712457,0.0045789806172251
1783204509057027800,5.69202783203125,-0.0168862528711557,-0.0055833530902862,-0.0570323852986097,0.0094515867531299,-0.0022443733178079,0.0060690399259328
1783204509066965000,5.701965087890625,-0.0050146132916212,0.0208551565021276,-0.0509913515686988,0.0085935164242982,-0.0071975863538682,0.0016607095021754
1783204509076903000,5.71190283203125,-0.0074725278377532,0.0290589212238788,-0.0379506682097911,0.0043902546167373,-0.0052416804246604,0.0007701145950704
1783204509086840800,5.7218408203125,-0.0061360185369849,0.0127576286338269,-0.0209790751427412,0.0014240257441997,-0.0013223066926002,-0.0015556237194687
1783204509096777700,5.73177783203125,-0.0100543610244989,0.0122419341966509,-0.0258043033421039,0.0055163484066724,0.0008852039463818,0.0020050692837685
1783204509106715600,5.741715576171875,-0.0288578456938266,0.0081824296727776,-0.026600422155857,6.48573040962e-05,0.0021552653051912,0.0052501307800412
1783204509116653600,5.751653564453125,-0.0265559984922409,0.0152171506151556,-0.0284761528998613,-0.0009363386780023,-0.0027178828604519,0.0033241200726479
1783204509126590700,5.7615908203125,-0.0270329683542251,0.014478022685647,-0.0410112248241901,-0.0044722184538841,-0.0108461156487464,0.0022007988300174
1783204509136528600,5.771528564453125,-0.0327826179221272,0.0052025370791554,-0.0404547599852085,-0.0040492983534932,-0.0103995911777019,0.0025928583927452
1783204509146466800,5.781466796875,-0.0444029130890965,0.0067097267717123,-0.0274362884581089,-0.0027195820584893,-0.0032889521680772,-0.0018138742307201
1783204509156403700,5.79140380859375,-0.0321142171412706,0.033944939699769,0.0063069911897182,0.0019319346174597,-0.0001988317817449,-0.0044332286342978
1783204509166342000,5.801341796875,-0.0139148358449339,0.0189691966250538,0.0055336687296628,0.0050137443467974,0.0074020964093506,-0.0049418923445045
1783204509176279800,5.81127978515625,-0.0086772274523973,-0.0144064187541604,-0.020229718080163,0.0066969357430934,0.0063951779156923,0.0038473769091069
1783204509186216700,5.821216796875,-0.0103337624877691,-0.0279521290257573,-0.0395288773119449,0.0065683051943778,-0.0001822970807552,0.0092583876103162
1783204509196155000,5.83115478515625,-0.0193453364610672,-0.0057025955557823,-0.0474140776038169,0.001589567400515,-0.0075895395129919,0.0100583750754594
1783204509206092800,5.8410927734375,-0.0235004103139042,0.0309158011369407,-0.0373790058016777,-0.002221149392426,-0.0115235615521669,0.0059858690947294
1783204509216030000,5.851030029296875,-0.0374389192953705,0.0337868265286087,-0.0144324299782514,0.0007143449038267,-0.0044084098190069,0.0024315679911524
1783204509225967900,5.8609677734375,-0.0322933731004595,0.0329170579567551,-0.003483750462532,0.0008525624871253,0.0054471502080559,0.0002773369196802
1783204509235905800,5.87090576171875,-0.0313794731259346,0.0445975588783621,0.0144756845980882,0.0013376763090491,0.0110793728381395,-0.0042167603969573
1783204509245844000,5.880843994140625,-0.0408548652186989,0.0324396497033536,-0.0042962358891963,0.0023238454014062,0.0124218724668025,-0.0013575905468314
1783204509255780600,5.890780517578125,-0.0338648602008819,0.0026204116314649,-0.0392950685560703,-0.001743147149682,0.0003588763065636,0.0017361319623887
1783204509265718800,5.90071875,-0.0275865105837583,0.0052865621007978,-0.0759679719150066,-0.0041328007355332,-0.0137532148510217,0.0017734160646796
1783204509275656700,5.91065673828125,-0.0215691499903798,0.0263857564918696,-0.0757896927386522,-0.0068422053009271,-0.021857563406229,-0.0017965802690014
1783204509285593000,5.920593017578125,-0.0215057293653488,0.0315045608103275,-0.0493874235033988,-0.0058874618262052,-0.0149474591016769,-0.004737242590636
1783204509295531000,5.930531005859375,-0.0187017778605222,0.0362261825047433,-0.0491711504042148,-0.0003487458452582,-0.0091039407998323,-0.0029850946739315
1783204509305469000,5.940468994140625,-0.0136702134341001,0.0242547358125448,-0.0225625449419021,0.0002126479521393,0.0078422855585813,-0.0032372961286455
1783204509315406000,5.950406005859375,-0.0146612702980637,0.0073214289292693,-0.0264367560267448,0.0068201231770217,0.011028635315597,-0.0046017472632229
1783204509325344000,5.960343994140625,-0.0197989254474639,-0.0060778586089611,-0.0238917477190494,0.0062534022144973,0.0122755272313952,-0.0020847939886152
1783204509335282200,5.9702822265625,-0.0168885909587144,-0.0134030869305133,-0.0562649080574512,0.0096180466935038,0.0018096510320901,0.003041491145268
1783204509345219000,5.980218994140625,-0.0148033091172575,-0.0175549459129571,-0.0741559540569782,0.0046901330351829,-0.0076586860232055,0.0048654908314347
1783204509355157200,5.9901572265625,-0.0211655376255512,-0.0066712944574654,-0.0408925668805837,0.0022421432659029,-0.018055560067296,0.0019358142744749
1783204509365095200,6.00009521484375,-0.027087328889966,0.012073884153366,-0.0266290637284517,-0.0029568802565336,-0.0150267463177442,-0.0007209554314613
1783204509375032000,6.010031982421875,-0.0210196994140744,0.0209781983599066,0.0053840311259031,-0.0010370006784796,-0.0092390850186347,0.0003594553563743
1783204509384970000,6.019969970703125,-0.0305444836065173,0.009268032952398,0.0308048881083726,-0.0009666932746767,0.0030655176378786,-0.003502660896629
1783204509394908000,6.029907958984375,-0.0299552855417132,0.0180339616015553,0.0437087933450937,0.0021961275488138,0.010486383922398,-0.0036990288645029
1783204509404845000,6.039844970703125,-0.0170446583032608,0.0047279053047299,0.018735680130124,0.0017868001013994,0.0134603362530469,-0.0011248174123466
1783204509414783000,6.049782958984375,-0.0156663556873798,-0.0041623803764581,-0.0118441670507192,-0.0016267206519842,0.0126046519726514,0.0032813283614814
1783204509424721000,6.059720947265625,-0.0225502699822187,-0.0020315058276057,-0.0195522572100162,-0.0053559448570013,0.0053051942959427,0.0010722363367676
1783204509434659000,6.0696591796875,-0.0219540576547384,0.0121899117484688,-0.0265232652664184,-0.0098129054531455,-0.0043568187393248,0.0002611177042126
1783204509444596000,6.079595947265625,-0.0065785016074776,0.023961598084867,-0.0520142648756504,-0.0136704938486218,-0.007239690516144,0.0015831105411052
1783204509454534100,6.0895341796875,-0.0145896663665771,0.0155209558673202,-0.0522626866787672,-0.0113253258168697,-0.0091088563203811,0.0030513785313814
1783204509464472000,6.09947216796875,-0.0286523862496018,-0.0012993921607732,-0.0487017793267965,-0.0078917108476161,-0.0058776433579623,0.002525137970224
1783204509474409200,6.1094091796875,-0.0360161930158734,0.0051430619768798,-0.0555886162310838,-0.0007202848792076,0.0013576545752584,0.0020692439284175
1783204509484347100,6.11934716796875,-0.0255737094566225,0.0171817286863923,-0.0433019661098718,0.0036124121397733,0.0076022348366677,0.0006963841151446
1783204509494285000,6.12928515625,-0.0280687411427497,0.0355354237616062,-0.0472901589632034,0.0022408179938793,0.0044615464285016,-0.0006213868036866
1783204509504222200,6.13922216796875,-0.0190752873480319,0.0166067052774131,-0.0568342323780059,0.0049926619976758,0.0070850262418389,-0.0003212485462427
1783204509514160000,6.14916015625,-0.0170960962295532,0.0192626266136765,-0.0507867689073085,0.0030400417745113,0.0056058005429804,-0.0002619272563606
1783204509524098000,6.15909814453125,-0.0032779987573623,0.0325447175130248,-0.0280658185333013,0.0005883360281586,0.0051157791167497,-0.0015527615323662
1783204509534035000,6.169034912109375,-0.0068041270568966,0.0203225109301507,-0.0338631066352128,-0.0049052285030484,-0.0014716554433107,0.0005617216229438
1783204509543972900,6.178972900390625,-0.0157540339708328,0.0072319970801472,-0.0497761305600404,-0.0074285743758082,-0.0101255979388952,-0.0016252663917839
1783204509553911000,6.1889111328125,0.0013826865300536,0.0206368375763297,-0.067470192682743,-0.0122598726302385,-0.0180329978466033,-0.0014884525444358
1783204509563848000,6.198847900390625,-0.0078717562884092,0.0135968559369444,-0.0698193861573934,-0.0076829642057418,-0.0141112264245748,0.0021779211238026
1783204509573786000,6.2087861328125,-0.0165785020962357,0.009445143084973,-0.0801502260357141,-0.002445800229907,-0.0096356570720672,-0.0003104305360466
1783204509583724000,6.21872412109375,-0.0203387314125895,0.0243904910214245,-0.0634668022602796,0.0017465474084019,-0.0017513679340481,-0.0031722635030746
1783204509593661200,6.2286611328125,-0.0090767481639981,0.0266617969542741,-0.065756374502182,0.012154976837337,0.0071150138974189,-0.0022939192131161
1783204509603599000,6.23859912109375,-0.0168888832196593,0.0171364282399415,-0.076517422491312,0.0169902127236127,0.0085350116714835,-0.0030025863088667
1783204509613537000,6.248537109375,-0.00787964733392,0.0098971246361732,-0.0863853210330009,0.0180856976658105,-0.0012272223830223,-0.0011345231905579
1783204509623475200,6.25847509765625,-0.0084410806089639,0.0055845221340656,-0.1114081186085939,0.0167695619165897,-0.0160583667457103,0.0002314122393727
1783204509633412000,6.268412109375,-0.0120677466735243,0.0128914841465651,-0.1342120710909366,0.0162683706730604,-0.0304667055606842,0.004023952409625
1783204509643350000,6.27835009765625,-0.0298871887415647,0.0047037937767803,-0.099624741834402,0.0149309318512678,-0.0345509313046932,0.0049587218090891
1783204509653288200,6.2882880859375,-0.0412549704521894,0.0182350371316075,-0.0309375745773315,0.0149187901988625,-0.0245933532714843,0.0004151489119976
1783204509663225000,6.29822509765625,-0.036938276296854,0.0380099971815943,0.0221808521479368,0.0169651638716459,-0.0121731702238321,-0.004638198763132
1783204509673163300,6.308163330078125,-0.0379494991660118,0.0285956876263022,0.0407610494554042,0.0200236458331346,0.0009280000813305,-0.0041478644125163
1783204509683101200,6.31810107421875,-0.0472337526008486,0.0344165027342736,0.0522036499679088,0.0233073234558105,0.0134762823581695,-0.0064536295831203
1783204509693038000,6.3280380859375,-0.0431511594623327,0.0423563558228313,0.0445955130517482,0.0203371159732341,0.0105471005663275,-0.0088126258924603
1783204509702976000,6.33797607421875,-0.0354638198301196,0.0280561739221215,0.0301975698649883,0.013793995603919,0.0076772784814238,-0.0073726549744606
1783204509712914000,6.347913818359375,-0.0315545374318957,0.0078565587192773,0.0237818576037883,0.006553535349667,-0.0017852443270385,-0.0037963737268
1783204509722851000,6.35785107421875,-0.0267605811536312,0.0034402035817503,0.015595044016838,-0.0027078744024038,-0.0091707222163677,-0.0028647999279201
1783204509732789000,6.3677890625,-0.0213806416809558,0.0002454991936683,0.008002689191699,-0.0056447917595505,-0.0123404432088136,-0.0026989858597517
1783204509742727200,6.37772705078125,-0.0375415028870105,0.0095014033168554,0.0170142631649971,-0.0066464068368077,-0.0039597409777343,-0.0030177664011716
1783204509752664000,6.3876640625,-0.0542331099689006,0.0090352471098303,0.021814941444993,-0.0016091903671622,0.0019152276217937,-0.0043398700654506
1783204509762602000,6.39760205078125,-0.0441261419743299,0.0119829909995198,0.0076180737882852,0.0013589030131697,0.0078170588240027,-0.0034897890873253
1783204509772540200,6.4075400390625,-0.0475800818204879,0.0035870647065341,0.0140630121439695,0.0008526807650923,0.0156363137066364,-0.0012337611988186
1783204509782478000,6.41747802734375,-0.0398082787752151,0.006491992367804,0.0083469725847244,0.0059662163257598,0.0155313853174448,-0.0049371533095836
1783204509792415200,6.427415283203125,-0.0328816943824291,0.0099611297830939,0.0092886373490095,0.0031076893210411,0.0181296616792678,-0.0097766369581222
1783204509802353200,6.437353271484375,-0.0196621473252773,0.0052335167393088,0.0035299276918172,-0.0019102385267615,0.0191696267575025,-0.0084261475130915
1783204509812291000,6.447291015625,-0.0093067575275897,0.0023085692033171,0.0015939911931753,-0.0051124356687068,0.0174282118678092,-0.0048403665423393
1783204509822228000,6.45722802734375,-0.0019961422532796,-0.0003751169227063,-0.0160369425654411,-0.0101639200001955,0.0119674000889062,-0.0061863278970122
1783204509832166000,6.467165771484375,0.0031441432446241,-0.0123079851701855,-0.0243693021029233,-0.0127806216478347,0.0102564692497253,0.0024440570268779
1783204509842104000,6.47710400390625,0.0063537529408931,-0.0142792852431535,-0.0344534737437963,-0.0106354467570781,0.0121121602132916,0.0013548240531235
1783204509852041000,6.487041015625,-0.0077037062451243,-0.00206073192209,-0.0377887556463479,-0.0056658340618014,0.0134151745587587,0.0027432169299572
1783204509861979000,6.496978759765625,-0.0155982588872313,0.0015188801303505,-0.0538064089894294,-0.0068767750635743,0.0128037128597497,0.0035134034696966
1783204509871917000,6.5069169921875,-0.0090665190309286,-0.0169815299391746,-0.0633171646565198,-0.0004013497382402,0.0082324286922812,0.0081508588045835
1783204509881854000,6.51685400390625,-0.0107458504199981,-0.0201157363116741,-0.0662093789666891,-0.0035444125533103,0.0014381725341081,0.0077359387651085
1783204509891792100,6.526792236328125,-0.0113774263218045,-0.0201879247650504,-0.0636491730898618,-0.0053273094817996,-0.0006566289812326,0.0116072567179799
1783204509901730000,6.53672998046875,-0.0029342998862266,-0.0145770991459488,-0.0404167660623788,-0.0048167807981371,0.0011236942373216,0.008832243271172
1783204509911667200,6.546667236328125,-0.0094134327724575,0.0108501875773072,-0.0290659354865551,-0.0032076779752969,0.0091446572914719,0.0101658198982477
1783204509921605000,6.556605224609375,-0.0168386143371462,0.0238566764056682,0.0048427638560533,-0.0023730443790555,0.01327655185014,0.008630241267383
1783204509931543000,6.56654296875,-0.0280523745298385,0.0286525323800742,-0.0041413375884294,-0.0025864178314805,0.013487160205841,0.0109925912693142
1783204509941480200,6.576480224609375,-0.0304243643581867,0.0188636904239654,-0.0255699100643396,-0.0039430325850844,0.0119832726195454,0.0119095174595713
1783204509951418000,6.586418212890625,-0.0492018378034234,0.0178729258209466,-0.0317681801825761,-0.0049642994999885,0.0101864859461784,0.0121778380125761
1783204509961356300,6.596356201171875,-0.0640060237035155,0.0369900064840912,-0.0287941328078508,-0.0037253964692354,0.0143908187747001,0.0081418175250291
1783204509971294200,6.606294189453125,-0.074111530393362,0.0399187534123659,0.0059551090121269,0.0029672356322407,0.0251863040030002,0.0083295833319425
1783204509981230800,6.61623095703125,-0.0846951759889721,0.0479014227293431,0.0288894098758697,0.0029629739001393,0.0317299589514732,0.0063183638267219
1783204509991169000,6.6261689453125,-0.0740165455862879,0.0652225598864257,0.0348795902013778,0.0057422402314841,0.0300327502191066,-0.001086987555027
1783204510001107000,6.63610693359375,-0.0633726942360401,0.0758951989397406,0.0247007260143756,-0.003409712575376,0.0284111518412828,-0.0110520040616393
1783204510011044000,6.646044189453125,-0.0550546554848551,0.063332800617069,0.0053992286950349,-0.0109838042408227,0.023499621078372,-0.011055838316679
1783204510020982000,6.65598193359375,-0.0418491369530558,0.0426139838457107,-0.0167447985738515,-0.0185386594384908,0.0147516708821058,-0.0133413625881075
1783204510030920000,6.665919921875,-0.0120744686752557,0.0264297417640686,-0.0340063144981861,-0.0196804255247116,0.0096225598827004,-0.0144472131505608
1783204510040857000,6.675857177734375,0.0037806875824928,0.0141771400429308,-0.0622574264705181,-0.0232674367725849,0.014524906873703,-0.0144844967871904
1783204510050795000,6.685794921875,0.0072726213514804,0.009654109660536,-0.081916651186347,-0.0124140307307243,0.019958134740591,-0.0101085985079407
1783204510060733200,6.695733154296875,0.0160486330032348,0.0209502874396741,-0.1046931311398744,-0.0057244356721639,0.0195605251938104,-0.0117256697267293
1783204510070670000,6.705670166015625,0.0305097045540809,0.0101774028822779,-0.126661801841855,-0.0031987335532903,0.0178618859499692,-0.0064983908087015
1783204510080608300,6.715608154296875,0.040172143651545,0.0004899754740297,-0.15457155303061,0.000155784189701,0.0074145724065601,-0.0056043677031993
1783204510090546200,6.725546142578125,0.0415294034793972,-0.0023303426437079,-0.1708808827966451,0.0026409979909658,0.00090519990772,-0.0037332049105316
1783204510100483000,6.735483154296875,0.0498182161360979,-0.0058230070650577,-0.1685638380259275,0.0038838954642415,-0.0078153209760785,-0.0007560569792985
1783204510110421200,6.745421142578125,0.051921618156135,-0.0030516426555812,-0.1593961967080831,0.0009755073115229,-0.0124160442501306,-0.0009345486760139
1783204510120359200,6.755359130859375,0.0399608389884233,0.0066962827682495,-0.1406558404028415,0.0070102303288877,-0.016195336356759,-0.0018530728993937
1783204510130297000,6.765297119140625,0.0404494992882013,-0.006367927596718,-0.127963532090187,0.0163878463208675,-0.0163883753120899,0.0045061707496643
1783204510140234000,6.77523388671875,0.031798283059895,-0.0123478787891566,-0.1338508365631103,0.0178110394626855,-0.017772153019905,0.0092551195994019
1783204510150172000,6.785171875,0.0277142286166548,-0.0197718913100659,-0.1051315225571394,0.0211456008255481,-0.0168172735720872,0.0102531043812632
1783204510160110000,6.795110107421875,0.0115253103598952,-0.0006567103430628,-0.0818593680411577,0.0212731659412384,-0.019608799368143,0.0061049647629261
1783204510170047000,6.805046875,-0.012639116820693,0.0125258657045662,-0.0524450575083494,0.0206904076039791,-0.0182193703949451,0.0066572315990924
1783204510179985200,6.814985107421875,-0.0122229372352361,-0.002584755796194,-0.0059831660628318,0.0183729268610477,-0.0146736372262239,0.0067586982622742
1783204510189923000,6.824923095703125,-0.0112289577618241,0.0022927871122956,0.031626725885272,0.0174276679754257,-0.0097991088405251,0.0087482314556837
1783204510199860000,6.83485986328125,-0.0187792270109057,-0.0067870297916233,0.053020227047801,0.0127727277576923,-0.0070467330515384,0.0076249106787145
1783204510209798100,6.844798095703125,-0.0296729614689946,-0.0115448918431997,0.0531324552506208,0.0062237395904958,-0.0075931879691779,0.0117822056636214
1783204510219736000,6.854736083984375,-0.0433101494163274,-0.0142062200069427,0.0449403809666633,-0.0027883974835276,-0.0149467084556818,0.0098223853856325
1783204510229673200,6.864673095703125,-0.057099020794034,0.0047317046970129,0.0276607448637485,-0.0062590762972831,-0.0184441246092319,0.0097769051790237
1783204510239611100,6.874611083984375,-0.0663134238630533,0.0164981303364038,0.0297977568924427,-0.0050510670989751,-0.0149061167612671,0.0084269484505057
1783204510249549000,6.884549072265625,-0.0755284114539623,0.0105200788401067,0.0519043747603893,-0.0062555065378546,-0.0057885013520717,0.0050767380744218
1783204510259486000,6.89448583984375,-0.080724811053276,0.0175489545635879,0.0555909543186426,-0.001590714789927,0.0016390546225011,0.0018860050477087
1783204510269423900,6.904423828125,-0.0845654121294617,0.0264599907718598,0.0582516979604959,0.0047896318137645,0.0086505766957998,0.0009196707978844
1783204510279362000,6.914362060546875,-0.0858066443622112,0.0267985750764608,0.0527747278541326,0.0009986218065023,0.0194302536547184,-0.0020414979662746
1783204510289300500,6.924300537109375,-0.0736556033194065,0.0248842658877372,0.059760348957777,-0.0005615688860416,0.0216893181204795,-0.0073763551190495
1783204510299237400,6.9342373046875,-0.0516588755667209,0.0443371543765068,0.0392225878417491,-0.0117180831730365,0.0188021846115589,-0.0117372814565896
1783204510309175600,6.944175537109375,-0.0314510770574212,0.0265540987960994,-0.0024649288088083,-0.0202037580311298,0.010294109582901,-0.006630377843976
1783204510319113500,6.954113525390625,-0.0206067346990108,-0.0030599720925092,-0.0363327116191387,-0.0240672081708908,-0.0041950843296945,-0.00463726837188
1783204510329050600,6.964050537109375,-0.0249959095686674,0.0006122866794466,-0.0526958173990249,-0.0231763254851102,-0.0017772582359611,-0.0044622253626585
1783204510338988500,6.973988525390625,-0.0166118198439478,0.0219531808719038,-0.0627291356354951,-0.0185706559568643,-0.0003721746616065,-0.0053935330361127
1783204510348926500,6.983926513671875,-0.0146378894224762,0.0166061207555234,-0.0748468589305877,-0.0139507101848721,0.0009565413929522,-0.0012638489715754
1783204510358863600,6.993863525390625,-0.0138230659082531,0.0076397010982036,-0.1000169560223817,-0.0041276412084698,0.0027206190861761,-0.0030529606156051
1783204510368801500,7.003801513671875,-0.0113835638016462,0.0054445291414856,-0.093412443190813,0.0023349467664957,0.0074192178435623,-0.0025206415448337
1783204510378739700,7.01373974609375,0.0038557986453175,0.0053323009386658,-0.0895218654930591,0.0067280968651175,0.0102403042837977,0.0001688848715275
1783204510388676600,7.023676513671875,0.0139107441917061,0.0145353058308362,-0.0751034640401601,0.003909564577043,0.0069032926112413,-0.0033312204759567
1783204510398614500,7.033614501953125,0.0140299866572022,0.0029481822811067,-0.0882400089889764,0.0034317933022975,-0.0021647703833878,0.0011799079366028
1783204510408552400,7.043552490234375,0.0248076935201883,-0.0123205523908138,-0.0810053815603256,0.0038814954459667,-0.007803417276591,0.0077469171956181
1783204510418489300,7.0534892578125,0.0129743401244282,-0.0066708560660481,-0.0528887096226215,0.0059726098552346,-0.0062952688895165,0.0083866082131862
1783204510428427500,7.063427490234375,0.0053796472117304,0.0228141816154122,-0.044551089388132,0.0041434448212385,-0.0041317329742014,0.0082286363467574
1783204510438365400,7.073365478515625,-0.0039309097081422,0.0223480254083871,-0.0315431392550468,0.0077672079205513,0.0066913533955812,0.007720504887402
1783204510448303400,7.083303466796875,-0.0185071320712566,0.0157034728273749,-0.0371761767059564,0.0101932408288121,0.0049589509144425,0.0082802549004554
1783204510458240500,7.093240478515625,-0.038872166968882,0.0042899522788822,-0.0485772761642932,0.0115826120600104,0.0004307781346142,0.0103774946182966
1783204510468178400,7.103178466796875,-0.0534890136033296,0.0044400282740592,-0.0298199687242507,0.0096901711076498,-0.0053782942704856,0.0080381399020552
1783204510478116600,7.11311669921875,-0.0697574268370866,0.0244920516997575,-0.0012105448335409,0.0090459529310464,-0.0017124530859291,0.0032867945265024
1783204510488053500,7.123053466796875,-0.0664458180710673,0.0440044152908027,0.0292705181479454,0.0076164207421243,0.0053028129041194,-0.0060878922231495
1783204510497991700,7.13299169921875,-0.0593427080675959,0.0510476118005812,0.062990416920185,0.0031383158639073,0.0112387333065271,-0.0112349838018417
1783204510507929600,7.1429296875,-0.042303894983232,0.0329188115224242,0.0468617044180631,-0.0045100720599293,0.0132714752107858,-0.006554084829986
1783204510517866500,7.152866455078125,-0.0322772987484931,-0.0025448621772229,0.027989830687642,-0.0103514483198523,0.0098032411187887,-0.0058238459751009
1783204510527804700,7.1628046875,-0.0144075877979397,-0.0087839026972651,-0.0045294601231813,-0.0193857550621032,0.0004340317100286,-0.0016893609426915
1783204510537742600,7.17274267578125,-0.0093964816376566,0.0012348024919629,-0.0288157601177692,-0.0196328945457935,-0.0013412311673164,-0.0001612391788512
1783204510547679500,7.182679443359375,-0.006400514692068,0.0046408115431666,-0.0331377149701118,-0.0159587860107421,0.0020799203775823,-0.0010319605935364
1783204510557617400,7.192617431640625,-0.0064551674887537,0.0006371288597583,-0.0413888259649276,-0.0110817374661564,0.0052054063417017,-0.0012657861225306
1783204510567555300,7.202555419921875,-0.0047813890576362,0.0117599958986043,-0.041574703925848,-0.0056170998141169,0.0115972999483346,7.76592642068e-05
1783204510577493500,7.212493408203125,-0.0021893267378211,0.007031944463402,-0.0603027852714061,0.0007529156282544,0.0167627669870853,-0.0007527144625782
1783204510587430400,7.222430419921875,-0.0009045476242899,-0.0113112292177975,-0.0828764361292123,0.0019217832013964,0.0153613053262233,0.0005074264481663
1783204510597368600,7.23236865234375,-0.0016343232035636,0.0059524786636233,-0.0882008460223674,0.0026818495243787,0.0116509906947612,-0.0026939595118165
1783204510607306500,7.242306396484375,-0.0028954291805624,0.0022583003208041,-0.0918950243651866,-0.0006513614207506,0.0065951398573815,0.0016485240776091
1783204510617243600,7.25224365234375,-0.0005421440526843,0.006813625537604,-0.0726122317463159,0.0007414724677801,0.0003529568202793,0.0030908922199159
1783204510627181600,7.262181640625,-0.0008487257838249,0.0014351473696529,-0.0816904412150383,-0.0029909685254096,-0.0038579828105866,0.0026082622352987
1783204510637119500,7.272119384765625,0.0030018121644854,0.0123180681727826,-0.0671481211215257,-0.0055390801280736,-0.0081917438656091,0.0043068267405033
1783204510647056600,7.282056640625,-0.0002805705070495,0.0025973230168223,-0.0573597175568342,-0.0021257968619465,-0.0105885509401559,0.002887446898967
1783204510656994600,7.29199462890625,-0.0042021278649568,0.0045502106502652,-0.0657300710171461,0.0017381841316819,-0.0088332612067461,0.0059668598696589
1783204510666932500,7.301932373046875,-0.023043898718059,0.0070379358127713,-0.0531914919614791,0.0017103254795074,-0.0094189550727605,0.0022699399851262
1783204510676869600,7.31186962890625,-0.028795594112575,0.0144862059921026,-0.0424742831140756,0.0021891621872782,-0.0067845559678971,0.0035754214040935
1783204510686807600,7.3218076171875,-0.0224886029228568,0.0214722654871642,-0.0197784671813249,0.0024323565885424,-0.0005488763563334,0.0031343426089733
1783204510696745700,7.331745849609375,-0.0188745040789246,0.0075929393470287,-0.0060123921573162,-0.0006337407976388,-0.0049968878738582,0.0026240807492285
1783204510706682400,7.341682373046875,-0.0343804085075855,0.0158925656586885,-0.0300508548706769,-0.0002942327409982,-0.0105882678180933,0.0021205027587711
1783204510716620500,7.35162060546875,-0.0409282227158546,0.015026304218173,-0.0511474189132451,0.0002328064292669,-0.015538552775979,0.0029652575030922
1783204510726558500,7.361558349609375,-0.0558460981234908,0.0311766440302133,-0.0543576131314039,0.0058631035499274,-0.014185038395226,0.0005178260616958
1783204510736496400,7.371496337890625,-0.0785544812768697,0.0357858913913369,-0.0437543860524892,0.0136951934546232,-0.0111756650730967,-0.0039506922475993
1783204510746433500,7.38143359375,-0.0984521909236907,0.0484828758791089,-0.0496083727777004,0.0245526321232318,-0.0045397616922855,-0.0085483063012361
1783204510756371500,7.391371337890625,-0.0985726024329662,0.0510987574659287,-0.0132639707207679,0.0306257046759128,0.0047887591645121,-0.0116242570802569
1783204510766309400,7.401309326171875,-0.0893313113570213,0.06264554900527,0.0207826757878065,0.0328689403831958,0.0137798795476555,-0.0147076258435845
1783204510776246500,7.41124658203125,-0.0813438197344541,0.0711664168521761,0.0563467411220073,0.0310968719422817,0.0223818905651569,-0.0195678956806659
1783204510786184400,7.421184326171875,-0.0715524935603141,0.0749114485993981,0.0827846661925315,0.0182477477937936,0.0234586745500564,-0.0203141309320926
1783204510796122600,7.43112255859375,-0.0477153986379504,0.0655573447987437,0.0810533123552799,0.0026328349485993,0.0167951788753271,-0.0262953247874975
1783204510806059500,7.4410595703125,-0.0039829321563243,0.0488917489409446,0.0573188010245561,-0.0174947902560234,0.0067652352154254,-0.025016875937581
1783204510815997700,7.450997802734375,0.0190925307437777,0.0339404096551239,0.0227887549132108,-0.0325174145400524,0.000796026084572,-0.0235063303261995
1783204510825935600,7.460935546875,0.0203819860324263,0.0152164199627935,-0.0135316817462444,-0.0357447937130928,-0.0011665215715765,-0.0209916941821575
1783204510835872500,7.47087255859375,0.0291492298558354,-0.0089893621414899,-0.0730132137626409,-0.0291771739721298,-0.003759641200304,-0.0154701620340347
1783204510845810400,7.480810546875,0.0277943081155419,0.0002133504897356,-0.1233902328252792,-0.0157259386032819,0.0002659223973751,-0.0142831029370427
1783204510855748400,7.490748291015625,0.0195189394623041,-0.0114909696988761,-0.1592038890063762,0.0009515760466456,0.0077214417979121,-0.0110992938280105
1783204510865685500,7.500685546875,0.0222553786888718,-0.0218592189781367,-0.164107443138957,0.0222489442676305,0.0116454195231199,-0.0058106174692511
1783204510875623400,7.51062353515625,0.0149792502060532,-0.025105653553456,-0.1603565661728382,0.0335327573120594,0.0145226996392011,-0.0022907173261046
1783204510885561300,7.520561279296875,0.0088283263608813,-0.0182370829582214,-0.1403992352932691,0.0371384620666503,0.0149899972602725,-0.0008072960190474
1783204510895499500,7.53049951171875,0.0081941201105713,-0.0046463645011186,-0.0919283421128988,0.0377800203859806,0.0102754030376672,-0.0033623329363763
1783204510905436400,7.5404365234375,0.0021957564786076,0.0051952305555343,-0.0567722730576992,0.0350168347358703,0.0082266237586736,-0.005479865707457
1783204510915374600,7.55037451171875,-0.0067430445194244,-0.0015191723912954,-0.0300847571402788,0.0309730898588895,0.0095142628997564,-0.005128595046699
1783204510925312500,7.5603125,-0.0152951842874288,-0.018935294355452,-0.0096703301429748,0.0254488419741392,0.0019313958473503,-0.0042267218232154
1783204510935249700,7.570249755859375,-0.0229942143574357,-0.006023790334165,-0.0141331547707319,0.0216351952403783,-0.0045949462801218,-0.0032719788141548
1783204510945187600,7.5801875,-0.0205637723401188,-0.004454495190829,-0.0188297881543636,0.0195705518126487,-0.0122668854892253,-0.0021076318807899
1783204510955125500,7.59012548828125,-0.0373524100556969,0.0079050740361213,-0.0137333417981863,0.0250766389071941,-0.0196739342063665,0.0032360008917748
1783204510965062700,7.600062744140625,-0.089749536769092,-0.0364060691162943,-0.0973030208885669,0.0359429754316806,-0.0409367568790912,0.0109379757195711
1783204510975000600,7.61000048828125,-0.1213534663006663,-0.0306228095397353,-0.2235018813937902,0.0563268102705478,-0.0660066902637481,-0.0080500952899456
1783204510984938500,7.6199384765625,-0.1517810455292463,0.0891220525205135,-0.2589268305182456,0.0840829610824585,-0.084359161555767,-0.0194793306291103
1783204510994875400,7.62987548828125,-0.1730439060494303,0.033055297383666,-0.3545248010545969,0.1237267851829528,-0.1033786609768867,-0.0199280735105276
1783204511004813300,7.639813232421875,-0.1740419771760702,0.0308409823350608,-0.4687281033396721,0.1656771004199981,-0.1291035115718841,-0.0268463063985109
1783204511014751500,7.64975146484375,-0.1566504051312804,0.0581723491139709,-0.5334580574035644,0.1928717046976089,-0.1779394894838333,-0.036807857453823
1783204511024689400,7.659689453125,-0.1884694387182593,0.1008329485803842,-0.5566349348515272,0.2207706421613693,-0.2418413460254669,-0.0451880358159542
1783204511034626600,7.66962646484375,-0.2368734041422605,0.0634235476404428,-0.6738333272993564,0.2628746926784515,-0.2909013032913208,-0.060485765337944
1783204511044564500,7.679564453125,-0.2900105355679989,0.1271706281468272,-0.6872673938900232,0.3257240951061249,-0.3027971088886261,-0.0742450356483459
1783204511054502400,7.68950244140625,-0.3113064215749502,0.3094586017511785,-0.7306400871485471,0.3808776140213012,-0.3218043744564056,-0.1093292534351348
1783204511064439600,7.699439453125,-0.4432999398335814,0.2314751983605325,-0.76532386251688,0.4530821442604065,-0.3808507025241852,-0.1525027602910995
1783204511074377500,7.70937744140625,-0.4587812943428754,0.3501854566760361,-1.050992569488287,0.5224609375,-0.4779522120952606,-0.2096576541662216
1783204511084315600,7.719315673828125,-0.5048687995180487,0.462012239088118,-1.2429039653539655,0.582710325717926,-0.5953518152236938,-0.2657445669174194
1783204511094252500,7.72925244140625,-0.6329200098916888,0.4582417806386947,-1.366748956209421,0.67566978931427,-0.6655135750770569,-0.3351313769817352
1783204511104190500,7.7391904296875,-0.730013771943748,0.5505867407284677,-1.58760529153049,0.7686049938201904,-0.7789904475212097,-0.4181274771690368
1783204511114128600,7.749128662109375,-0.777517281396687,0.7678966356143355,-1.769638851982355,0.888271689414978,-0.8605723977088928,-0.5207284092903137
1783204511124065500,7.7590654296875,-0.8780161757171153,0.8305911383278668,-1.9996429548770187,1.015125393867493,-0.9940571188926696,-0.6245249509811401
1783204511134003700,7.769003662109375,-0.830640092036128,0.9776590377300978,-2.2317197723925117,1.163710117340088,-1.1288490295410156,-0.7525135278701782
1783204511143941600,7.778941650390625,-0.9013757162556052,1.1659329538762568,-2.399891980752349,1.3282041549682615,-1.2623308897018433,-0.8899145126342773
1783204511153878500,7.78887841796875,-0.8007818371281027,1.308666915727407,-2.459368836593628,1.5000414848327637,-1.4008219242095947,-1.0129939317703247
1783204511163816400,7.79881640625,-0.5403191753447055,1.489394946538657,-2.295615029197932,1.630620360374451,-1.5597121715545654,-1.1320806741714478
1783204511173754400,7.80875439453125,-0.3688631230086088,1.5672292968474328,-2.025066149947047,1.7131881713867188,-1.7108625173568726,-1.2257972955703735
1783204511183691500,7.81869140625,-0.1916974608540534,1.6304264883860944,-1.6730004324823615,1.7563403844833374,-1.8131356239318848,-1.3083678483963013
1783204511193629400,7.82862939453125,-0.1061357311636209,1.7198187361501156,-1.4405729018330573,1.801014065742493,-1.891398787498474,-1.3958792686462402
1783204511203567600,7.838567626953125,0.0767366181999445,1.836835926812142,-1.318169341957569,1.8477050065994265,-1.992629647254944,-1.4623866081237793
1783204511213504500,7.84850439453125,0.351202963155508,2.008507229334116,-1.1591565916091202,1.8684101104736328,-2.098759174346924,-1.5319441556930542
1783204511223442400,7.8584423828125,0.3556657877832651,1.951530812006444,-1.0297288321852685,1.8427287340164185,-2.206509828567505,-1.6069889068603516
