time,seconds_elapsed,ax,ay,az,gx,gy,gz
1783204479567615700,0.10461572265625,0.2064806039661169,-0.1497939633652567,0.4765256253480911,0.1034857705235481,0.300104558467865,0.1427155286073684
1783204479577553000,0.114552978515625,0.1520376506388187,-0.1735845887973904,0.7269824414238333,0.0355799607932567,0.41767618060112,0.1721913963556289
1783204479587489800,0.12448974609375,0.1956143420368432,-0.186871648132801,0.9966849329784512,0.0008584670722484,0.9454798102378844,0.2860292792320251
1783204479597428000,0.134427978515625,1.138392035999894,0.0893535231888294,1.1150395097240804,0.0171793326735496,0.8454319834709167,0.31748828291893
1783204479607364900,0.14436474609375,0.1664806020110845,-0.4320525696322321,1.1020920576065778,-0.0992799028754234,0.8010104894638062,0.3848196566104889
1783204479617302000,0.154302001953125,-0.0692962390661239,-0.4543754605993628,1.4392358080103993,-0.28916996717453,0.8548890352249146,0.4049941301345825
1783204479627238700,0.16423876953125,0.1639168890029191,-0.2939712558925151,1.7259557776004075,-0.4526230692863464,0.88975590467453,0.4124102294445038
1783204479637176800,0.1741767578125,0.077201897624135,-0.2575616796448827,1.7366387919172643,-0.5975896716117859,0.9076511263847352,0.4292262494564056
1783204479647113700,0.18411376953125,0.0291302328944206,-0.225098795196414,1.6991414204329252,-0.7189124226570129,1.010607123374939,0.4619199931621551
1783204479657051000,0.19405078125,0.1875128686457872,-0.1722697068065404,1.64476744068861,-0.7960312962532043,1.1214158535003662,0.502403974533081
1783204479666988800,0.20398876953125,0.3398053708285093,-0.1509942790657281,1.5420429792732,-0.8493618965148926,1.229244351387024,0.5568629503250122
1783204479676926000,0.213926025390625,0.3935919060736894,-0.1513110899299383,1.4467527595117686,-0.8914376497268677,1.3667259216308594,0.6113216876983643
1783204479686862800,0.22386279296875,0.5277881950736045,-0.1198243570372462,1.4535790984004735,-0.930204212665558,1.517533302307129,0.6812922358512878
1783204479696799700,0.2337998046875,0.5795242275297642,-0.1600195893034338,1.4986112493038175,-0.988030970096588,1.677334547042847,0.7449890971183777
1783204479706737700,0.243737548828125,0.6837900731682777,-0.2021530961558222,1.6097952037677168,-1.068366527557373,1.866215944290161,0.8212191462516785
1783204479716674800,0.2536748046875,0.7833195379346609,-0.1972787681177258,1.875295275196433,-1.176719069480896,2.091756582260132,0.900946319103241
1783204479726612000,0.263612060546875,0.9316589185774324,-0.2225985028132796,2.2056460044592616,-1.2921137809753418,2.382264375686645,0.9942253828048706
1783204479736550000,0.2735498046875,1.1220815371900796,-0.2564806064099073,2.5357529880940914,-1.4252547025680542,2.6975743770599365,1.0825159549713137
1783204479746486800,0.28348681640625,1.3066150977641344,-0.2188401731930673,2.839483421456813,-1.566378474235535,3.023492813110352,1.1725590229034424
1783204479756424000,0.293423828125,1.486295957610011,-0.1637163979947566,3.0328327411711213,-1.739256739616394,3.325887680053711,1.2479699850082395
1783204479766361900,0.30336181640625,1.6349790371239183,0.0137483932368457,3.240795108127594,-1.920287489891052,3.634643793106079,1.3513855934143066
1783204479776298800,0.313298828125,1.9501929875314237,0.2517022860921919,3.4162831924587485,-2.0985658168792725,3.918537378311157,1.4131819009780884
1783204479786236000,0.32323583984375,2.1346996600985526,0.2580047472372651,3.4419466260254383,-2.272233486175537,4.204773426055908,1.4952632188796997
1783204479796172800,0.3331728515625,2.4047446814805267,0.3545207094013691,3.421895187121629,-2.4220638275146484,4.437817573547363,1.5790334939956665
1783204479806111000,0.343111083984375,2.6546879950761797,0.5529568308606744,3.2837352551877497,-2.557694911956787,4.548460483551025,1.6450759172439575
1783204479816047900,0.3530478515625,2.6965648968189955,0.6291449483323842,2.851214191260934,-2.683069229125977,4.5676679611206055,1.7059389352798462
1783204479825985000,0.362985107421875,2.717119609069824,0.6699418728187679,2.293378063926101,-2.777179718017578,4.439009666442871,1.7664169073104858
1783204479835923000,0.3729228515625,2.529718968626857,0.5249992950074375,1.5380746601641178,-2.840563535690308,4.153226375579834,1.828124403953552
1783204479845859800,0.38285986328125,2.212106140384078,0.2500277770087122,0.5288812510073184,-2.8847155570983887,3.7487173080444336,1.8655263185501096
1783204479855796700,0.392796630859375,1.8290327057152984,0.1335337334379553,-0.4275035280257463,-2.9010884761810303,3.2734646797180176,1.8855977058410645
1783204479865734000,0.40273388671875,1.4012225959584117,0.019693930703029,-1.262170975881815,-2.8558132648468018,2.793668270111084,1.898176670074463
1783204479875671800,0.412671875,1.0282499918043613,-0.0391734880030155,-2.0779630428761244,-2.7359535694122314,2.3131096363067627,1.8911478519439695
1783204479885609000,0.42260888671875,0.6493395220339298,-0.1284618370011448,-2.8629765252470967,-2.5396008491516118,1.8409632444381716,1.8782932758331297
1783204479895545900,0.4325458984375,0.2661328163743019,-0.2146998585179448,-3.6101042213380334,-2.271573543548584,1.426591396331787,1.8283220529556277
1783204479905484000,0.442484130859375,-0.1461836639136076,-0.1870429130464792,-4.1822494445323946,-1.9546066522598269,1.0788166522979736,1.72458016872406
1783204479915420700,0.452420654296875,-0.5346642183229326,-0.0132211544923484,-4.559850000748038,-1.58956778049469,0.8351224660873413,1.5475822687149048
1783204479925357800,0.46235791015625,-0.8435705930188298,0.2981079173058271,-4.757505493223666,-1.2115345001220703,0.6848783493041992,1.325145244598389
1783204479935295700,0.472295654296875,-1.0404036631956697,0.6069409345045685,-4.702571541509032,-0.8425707817077637,0.6374624967575073,1.0964796543121338
1783204479945233000,0.48223291015625,-1.1255290472954511,0.8025418325379491,-4.480163300570846,-0.509313702583313,0.627484917640686,0.8735225200653076
1783204479955169800,0.492169677734375,-1.1137918477505444,0.9123340403825044,-4.24303796749413,-0.2246146649122238,0.6014169454574585,0.6737948656082153
1783204479965108000,0.50210791015625,-0.9606672786578536,1.081430962371826,-4.037091032013297,0.0001441445201635,0.5278292298316956,0.500171959400177
1783204479975044600,0.512044677734375,-0.7197405074715614,1.2349214421674608,-3.8014147287011135,0.1621628701686859,0.4059999883174896,0.3544909358024597
1783204479984981800,0.521981689453125,-0.3841965934798121,1.3705398729249834,-3.505933652767539,0.2462796121835708,0.2514452934265136,0.2397150844335556
1783204479994919000,0.5319189453125,-0.0502893407791852,1.4831278489679098,-3.09518252210021,0.2744073569774627,0.0935452431440353,0.1668106615543365
1783204480004856800,0.54185693359375,0.2575555421650409,1.5402102108880875,-2.624746445798874,0.2650993466377258,-0.0477604828774929,0.1397742480039596
1783204480014794000,0.5517939453125,0.5524003660216927,1.5614683952331545,-2.138330125555396,0.2342077940702438,-0.1558706909418106,0.1489614844322204
1783204480024731000,0.56173095703125,0.7716022121340036,1.5552587269380689,-1.6643004086762665,0.2047130167484283,-0.2265494018793106,0.1884668171405792
1783204480034668800,0.571668701171875,0.8992512714475392,1.513789821474254,-1.2843676101207733,0.1890710294246673,-0.2739617526531219,0.2502286732196808
1783204480044605700,0.581605712890625,0.9316168330013752,1.4658365224272012,-0.993347020727396,0.1809664964675903,-0.2895508408546448,0.3209212124347687
1783204480054542800,0.59154296875,0.8559075120225548,1.4475167296215892,-0.7884650841295718,0.1881392002105713,-0.2735673487186432,0.3809656500816345
1783204480064480800,0.601480712890625,0.6655097355902194,1.4795324548244475,-0.5942886659413575,0.2091922760009765,-0.2460819333791732,0.4239498674869537
1783204480074418000,0.61141796875,0.4428334913656115,1.460094471643865,-0.5005231715291738,0.2407906353473663,-0.2222201824188232,0.448821097612381
1783204480084354800,0.621354736328125,0.2065603912040591,1.4534265381872653,-0.4321382020890712,0.2795335352420807,-0.1943701654672622,0.4598662853240967
1783204480094293000,0.63129296875,-0.0286228678941726,1.4216265015617011,-0.3930027080088853,0.3265150487422943,-0.1667356938123703,0.4474230110645294
1783204480104230000,0.64122998046875,-0.2760030530035495,1.3779039719522,-0.3524666994810104,0.3754919171333313,-0.1397884935140609,0.4112743139266968
1783204480114166800,0.651166748046875,-0.5056698867678642,1.3702622250273824,-0.2775081968694925,0.4149677455425262,-0.1027770787477493,0.3655527234077453
1783204480124104700,0.661104736328125,-0.718103846180439,1.3059043191462754,-0.1847393122792243,0.4393913149833679,-0.0812057331204414,0.2918348312377929
1783204480134041900,0.671041748046875,-0.8942652997285128,1.18376583994776,-0.1289928751379251,0.4611157476902008,-0.0807770043611526,0.2091205716133117
1783204480143978800,0.680978759765625,-1.0108137038350105,1.1498808137416838,-0.0617407091200351,0.465404748916626,-0.0773367285728454,0.12476547062397
1783204480153917000,0.6909169921875,-1.1399649844050406,1.02353406919837,0.0320937588751316,0.453377217054367,-0.0761139988899231,0.0332505069673061
1783204480163853800,0.700853759765625,-1.2151920748248697,0.9126376995041966,0.1690150889247655,0.43286794424057,-0.0875472202897071,-0.0695680156350135
1783204480173791000,0.710791015625,-1.182872398239374,0.8594929692938923,0.2317453936040401,0.3949835002422333,-0.1205661222338676,-0.1677755415439605
1783204480183729000,0.72072900390625,-1.096114444501698,0.7114512564234435,0.3001607581824064,0.3498482406139374,-0.1671802401542663,-0.2557362914085388
1783204480193665800,0.730665771484375,-1.0116489856153723,0.539025920663774,0.3533826452821493,0.3043002188205719,-0.2152406573295593,-0.3343682885169983
1783204480203602700,0.740602783203125,-0.8722057358726859,0.3806748490944504,0.4263116878926754,0.2585510909557342,-0.2807908952236175,-0.4093730449676513
1783204480213540900,0.750540771484375,-0.7678665327370167,0.2661480139434337,0.4406611157625913,0.2185751497745514,-0.3522236347198486,-0.4878568351268768
1783204480223477800,0.760477783203125,-0.6553638968899845,0.1793682867653667,0.4042249437689781,0.1768588572740554,-0.4144257307052612,-0.5431216955184937
1783204480233415000,0.770414794921875,-0.5061331203654408,0.0219048116855323,0.4122802399307489,0.1335304528474807,-0.4677651524543762,-0.6001274585723877
1783204480243352800,0.780352783203125,-0.4843143795281648,-0.1153875436335802,0.4674176052629947,0.1047302260994911,-0.5095754265785217,-0.6482552886009216
1783204480253290000,0.7902900390625,-0.3769391696974635,-0.1798096007920801,0.4441787684947252,0.1058034151792526,-0.4967049658298492,-0.6864893436431885
1783204480263227000,0.800226806640625,-0.2827770771831274,-0.240552092655003,0.563203791847825,0.1147297993302345,-0.4220658838748932,-0.6980664134025574
1783204480273165000,0.8101650390625,-0.0993421255007386,-0.3930969621635973,0.6783084268867969,0.121777094900608,-0.3499418795108795,-0.7035524249076843
1783204480283102000,0.82010205078125,0.0498363363146781,-0.4810527473837137,0.6340712257534266,0.124056227505207,-0.3298611044883728,-0.6905903220176697
1783204480293039000,0.8300390625,0.1681725006207823,-0.4536652665033936,0.5961152968466281,0.1107565984129905,-0.3475119173526764,-0.6875160336494446
1783204480302977000,0.83997705078125,0.1335997844114899,-0.5372361146375536,0.4751052371561527,0.1064633131027221,-0.3173436522483825,-0.668060839176178
1783204480312914200,0.8499140625,0.3152911072969436,-0.7216625615753233,0.3907078750699758,0.106493167579174,-0.2393132448196411,-0.6249790191650391
1783204480322851000,0.85985107421875,0.4729600418210029,-0.7867841453053057,0.3882891234904527,0.0780130624771118,-0.2435362190008163,-0.601749837398529
1783204480332789200,0.869789306640625,0.3506134728297591,-0.729201432647556,0.329348858743906,0.0423848032951355,-0.2514318823814392,-0.5896450877189636
1783204480342726000,0.879725830078125,0.3589785655930638,-0.5633510913640261,0.3105015349328517,0.0266665592789649,-0.2194568961858749,-0.5846372842788696
1783204480352663000,0.8896630859375,0.4013485115498304,-0.4636771035604178,0.3292062354028224,0.0165506601333618,-0.1481223404407501,-0.5940441489219666
1783204480362601000,0.89960107421875,0.3607090426474809,-0.4160720334291458,0.3778653446316719,0.0121697597205638,-0.0614851862192153,-0.5954815149307251
1783204480372538000,0.9095380859375,0.2164835270643234,-0.4357353497982025,0.3707727560222149,0.0028328169137239,0.0257473960518836,-0.5837141871452332
1783204480382476000,0.91947607421875,0.2147387292236089,-0.4000780532225966,0.323871304115653,-0.0035004476085305,0.0921453237533569,-0.5589126944541931
1783204480392413200,0.9294130859375,0.2820245052501559,-0.3689790044732391,0.1791366699665784,0.0044140797108411,0.1305910050868988,-0.5278711318969727
1783204480402350000,0.93935009765625,0.3782832777827978,-0.3748901282131672,-0.020298691663146,0.0197887755930423,0.1569485664367675,-0.4865114390850067
1783204480412288300,0.949288330078125,0.4417448193460702,-0.3501942245043814,-0.1152361524641513,0.0299310833215713,0.1658412218093872,-0.446742445230484
1783204480422225000,0.959224853515625,0.4550567208617925,-0.2442760816141962,-0.1344306822776794,0.0377253554761409,0.1553741991519928,-0.4163419306278229
1783204480432162000,0.969162109375,0.4992316704139113,-0.1532901349179446,-0.2101841346591711,0.0429655872285366,0.1247221753001213,-0.3717886209487915
1783204480442100000,0.979099853515625,0.5538108173415065,-0.1281061554312706,-0.2387894668966531,0.0394480861723423,0.0936012789607048,-0.3145037591457367
1783204480452037000,0.989037109375,0.6885951353624463,-0.0838552180334925,-0.3055471273958682,0.0350987017154693,-0.0196819938719272,-0.2782981991767883
1783204480461974000,0.99897412109375,0.8341440085038542,0.1513300868913531,-0.5705307737350463,0.0458075404167175,-0.3153645098209381,-0.3726593255996704
1783204480471912200,1.008912109375,0.8291413779109716,0.8319543895050883,-1.3654478104829788,0.06067406386137,-0.6917504668235779,-0.5100506544113159
1783204480481849000,1.01884912109375,0.4713906005471944,1.173902325320244,-2.147128933560848,0.0696268081665039,-1.0791666507720947,-0.4743933379650116
1783204480491787300,1.028787353515625,0.1756792229890823,0.7846737290225922,-2.2076818942010403,0.1281231194734573,-1.272730827331543,-0.4297923445701599
1783204480501724000,1.038723876953125,0.2240238594412803,0.6387979620143771,-1.6897370477497575,0.2038365304470062,-1.1514475345611572,-0.4920274913311004
1783204480511661000,1.0486611328125,-0.8308528580039739,-0.5350953032165765,-0.9212181885838508,0.2561084926128387,-0.8423028588294983,-0.4646799862384796
1783204480521599000,1.058598876953125,-0.2894923569127917,-0.538461710909754,0.0826595785081386,0.2986029386520386,-0.4917706251144409,-0.4145137667655945
1783204480531536100,1.0685361328125,0.2456549687519669,0.3460461649142206,0.6787742908328771,0.309817373752594,-0.191098466515541,-0.4123088717460632
1783204480541473000,1.07847314453125,0.3674205229848623,0.6268088335350156,0.754613083410263,0.3278264701366424,0.0159596465528011,-0.3985131680965423
1783204480551411200,1.0884111328125,0.2853697240248322,0.5424138095363974,0.5032622411042451,0.3736563920974731,0.1736004054546356,-0.3661081790924072
1783204480561348000,1.09834814453125,0.1787988163143396,0.3933222953520715,0.2030178962916135,0.3983857035636902,0.2584772109985351,-0.3286660015583038
1783204480571285000,1.108284912109375,0.0951654243379831,0.3446409012261778,0.0875923587352037,0.3905044794082641,0.25668466091156,-0.3079972863197326
1783204480581223000,1.118222900390625,-0.0104798929601907,0.3328965412881225,-0.0261661223918199,0.3615298271179199,0.184352695941925,-0.3020632565021515
1783204480591160000,1.12816015625,-0.0400678064942359,0.3735291420582681,-0.1781651945859193,0.3273458182811737,0.0677444115281105,-0.2968622148036957
1783204480601098000,1.138097900390625,-0.0909165347218513,0.3143513422288,-0.2866659013152122,0.2806033492088318,-0.0605768039822578,-0.2818060517311096
1783204480611035100,1.14803515625,-0.0864516642674803,0.2274579986084252,-0.2726362069189548,0.2180018872022628,-0.1706186085939407,-0.2657258212566376
1783204480620972000,1.157971923828125,-0.0924088191062211,0.2137633083201944,-0.143691262575984,0.1553318500518798,-0.2520125210285187,-0.2558614611625671
1783204480630910200,1.16791015625,-0.0728036626651883,0.1194002133410424,0.0147743752837181,0.1139311790466308,-0.3085846304893493,-0.2450593709945678
1783204480640847000,1.17784716796875,-0.0195417358160018,0.0470979973919689,0.0607353314697742,0.084506444633007,-0.3491283357143402,-0.2350546866655349
1783204480650785300,1.187785400390625,0.0080319152861833,0.0198253750629723,0.0515045617878437,0.0633823126554489,-0.3745608627796173,-0.2291361987590789
1783204480660722000,1.197721923828125,0.04075958815068,-0.001971300072968,0.0810328540891408,0.0452493801712989,-0.3863959610462188,-0.225019484758377
1783204480670659000,1.2076591796875,0.0506564205259084,-0.0635372371479868,0.1497042392551898,0.0391018949449062,-0.385665088891983,-0.220290407538414
1783204480680597000,1.217596923828125,0.0600108165875077,-0.1082414712712168,0.1684393348634243,0.0441754832863807,-0.3661513328552246,-0.222120001912117
1783204480690534100,1.2275341796875,0.0680494538754224,-0.1175999589860439,0.198326523604989,0.0571653209626674,-0.3301678001880646,-0.2266066074371338
1783204480700471000,1.237470947265625,0.0791764125674963,-0.146982997597754,0.2469762804836034,0.0725184455513954,-0.2836903035640716,-0.2349119335412979
1783204480710409200,1.2474091796875,0.0793722274005413,-0.1799941635787487,0.2516378425538539,0.0913626030087471,-0.2344236373901367,-0.2423116564750671
1783204480720345900,1.257345947265625,0.0755856945991516,-0.2159751391507685,0.2642553320646286,0.1034778505563736,-0.2023178935050964,-0.2530093193054199
1783204480730284000,1.267283935546875,0.0564618919342756,-0.2449955549951642,0.2583253574937582,0.1146447733044624,-0.1681015491485595,-0.2621927559375763
1783204480740221000,1.277220947265625,0.0445674560010433,-0.2532810797162353,0.2115858181506395,0.1162035167217254,-0.1454423069953918,-0.2755871415138244
1783204480750158000,1.287157958984375,0.0451788658976554,-0.22332506352216,0.1723755052685737,0.1225619465112686,-0.1204737946391105,-0.2812850773334503
1783204480760096000,1.297095947265625,0.0948427682548761,-0.2544032156139612,0.145932904022932,0.1221315786242485,-0.1028079763054847,-0.271936297416687
1783204480770033200,1.307033203125,0.1668406674951315,-0.2849009374693036,0.1749532468020916,0.1093495115637779,-0.0871870517730712,-0.261989563703537
1783204480779970000,1.316969970703125,0.2534481068462133,-0.2733331031419336,0.221275437515974,0.0899222865700721,-0.0642324686050415,-0.2356532961130142
1783204480789908200,1.326908203125,0.3455535590916871,-0.2729291985161602,0.2383621813952922,0.0738735496997833,-0.0347845666110515,-0.1980534493923187
1783204480799844900,1.336844970703125,0.4489204100638628,-0.2855885544072836,0.2664379368007183,0.0763731896877288,-0.0018242187798023,-0.1556167900562286
1783204480809783000,1.346782958984375,0.5437339522242546,-0.2820382415145635,0.2377472643673419,0.0559003949165344,0.0359343066811561,-0.1198508888483047
1783204480819720000,1.356719970703125,0.4765162729978561,-0.392068240170367,0.3001309475660323,0.0388665497303009,0.0726931169629097,-0.0642811059951782
1783204480829657000,1.366656982421875,0.5463005878418684,-0.3424506246402859,0.2952402529150247,0.0312309507280588,0.1073015481233596,-0.0102627053856849
1783204480839595000,1.376594970703125,0.5863993739962577,-0.3404247083032503,0.2271621574670076,0.021701093763113,0.12819404900074,0.0480615869164466
1783204480849532200,1.3865322265625,0.5738748234659433,-0.3237678437411785,0.1707142940580844,0.0106038497760891,0.1466220170259475,0.100295603275299
1783204480859470000,1.396469970703125,0.5292062451779842,-0.2852031352862715,0.1212754326283931,-0.0002884790301322,0.1666998565196991,0.1478785723447799
1783204480869407200,1.4064072265625,0.5029068517953157,-0.2377627541974186,0.0724620096206665,-0.0191243402659893,0.1577628552913665,0.1906773000955581
1783204480879343900,1.41634375,0.4072901765584945,-0.2423873452581465,0.0359486807376146,-0.046624407172203,0.1231276616454124,0.2176567316055297
1783204480889282000,1.426281982421875,0.2986912701517343,-0.2141457317665219,0.0070060793697834,-0.0772018134593963,0.0884605348110199,0.2407649606466293
1783204480899219000,1.436218994140625,0.2641857739597559,-0.1983205322556197,-0.0981295348405838,-0.0877146422863006,0.0503352545201778,0.2551652193069458
1783204480909157000,1.4461572265625,0.227476630243659,-0.1719943969964981,-0.2411263854116201,-0.0932172611355781,0.0071627870202064,0.2644075155258178
1783204480919094000,1.456093994140625,0.1841191345542669,-0.1130785360388457,-0.305176540517807,-0.0905844569206237,-0.0190448500216007,0.2709746062755584
1783204480929031200,1.46603125,0.127512281191349,-0.0694649466965347,-0.2996615764886141,-0.0915260016918182,-0.0420965813100338,0.2724789083003998
1783204480938969000,1.475968994140625,0.0843172825872898,-0.0262241361893713,-0.2694020473033189,-0.0847429260611534,-0.0605424307286739,0.2579862475395202
1783204480948906200,1.48590625,0.0119867903918027,0.0158900814406573,-0.3202870158880949,-0.0693113654851913,-0.0779198035597801,0.2439346611499786
1783204480958844200,1.49584423828125,-0.0166904380381107,0.0428990843974053,-0.3309983795166015,-0.0491381920874118,-0.0878360867500305,0.227449432015419
1783204480968781000,1.505781005859375,-0.0464443557888269,0.0597337532117962,-0.3533084110021591,-0.0319531857967376,-0.0905023515224456,0.2109484374523162
1783204480978718000,1.515718017578125,-0.0674596712887287,0.1057936397276818,-0.3066401833295822,-0.0164133757352828,-0.0923801511526107,0.1970909386873245
1783204480988656000,1.52565625,-0.0832265647411346,0.1290519849140197,-0.267397137221694,-0.0090188113972544,-0.0992549210786819,0.1771334260702133
1783204480998593000,1.535593017578125,-0.0927437501490116,0.1694482196450233,-0.2315045705854892,-0.0013566315174102,-0.0992927327752113,0.1523164957761764
1783204481008531200,1.54553125,-0.1305798520684242,0.2255270305458456,-0.2047878285735845,-0.0001756707206368,-0.1018449664115905,0.1311714500188827
1783204481018468000,1.555468017578125,-0.1179991874366998,0.2417670214027166,-0.1465676947951316,0.003606017678976,-0.09392099827528,0.108894906938076
1783204481028406000,1.565406005859375,-0.1297229429781436,0.2456960314147174,-0.1180611467570066,0.0061863870359957,-0.0829699262976646,0.1042869314551353
1783204481038343200,1.57534326171875,-0.1050736548900604,0.236980663909018,-0.0935293475687503,0.0045275036245584,-0.0758020281791687,0.0847867354750633
1783204481048280000,1.585280029296875,-0.1242658466160297,0.2527081021338701,-0.0493558593213558,-0.0047459313645958,-0.0752754434943199,0.0758830681443214
1783204481058218000,1.595218017578125,-0.1146802721470594,0.2727127792865038,-0.0530161353945732,-0.0081494515761733,-0.0786121189594268,0.0675274059176445
1783204481068155100,1.605155029296875,-0.1286696345329284,0.2501993341833353,-0.0489005167692899,-0.0040162578225135,-0.0783657729625701,0.057420689612627
1783204481078093000,1.615093017578125,-0.134537649783492,0.2166267349272966,-0.0961538508534431,-0.0140281450003385,-0.0816846042871475,0.0470748394727706
1783204481088030200,1.6250302734375,-0.1579980203479528,0.2581082076117396,-0.0481686953634023,-0.0065500112250447,-0.0782844275236129,0.0294845644384622
1783204481097967000,1.634967041015625,-0.1812427023351192,0.2739344300359487,-0.0777472565472126,-0.0050471881404519,-0.0752337798476219,0.0161040443927049
1783204481107905000,1.644905029296875,-0.1631856521189212,0.2630526782765984,-0.0811643715143203,0.0062770470976829,-0.0734612047672271,-0.0012277313508093
1783204481117842200,1.65484228515625,-0.1945388217598199,0.2468068422008305,-0.0940934111922979,0.0173366218805313,-0.0657012909650802,-0.0167393125593662
1783204481127780000,1.664780029296875,-0.1650923625230789,0.2395152969531714,-0.1151350301772356,0.0267643816769123,-0.0656111016869545,-0.0277526751160621
1783204481137717000,1.674717041015625,-0.171727855014801,0.1849563160307705,-0.0720294634222984,0.0351940840482711,-0.0568389147520065,-0.0368172787129879
1783204481147654100,1.684654052734375,-0.1543470966249704,0.1528046164233237,-0.056835985943675,0.044651098549366,-0.0466472841799259,-0.0452571474015712
1783204481157592000,1.694592041015625,-0.1545844125121832,0.1389589002918451,-0.0276718507796525,0.054146334528923,-0.0347014106810092,-0.0602824352681636
1783204481167529200,1.704529296875,-0.1413233644008636,0.1471777164522558,-0.0067974050551652,0.0599716454744339,-0.023959768936038,-0.0686439871788024
1783204481177467100,1.714467041015625,-0.1109720652788877,0.1226917291671037,-0.0085685063809156,0.0586805492639541,-0.029264785349369,-0.0734470039606094
1783204481187404000,1.724404052734375,-0.1076560725986957,0.0586795679837465,0.0262508780658245,0.056820273399353,-0.0309879146516323,-0.0785781294107437
1783204481197342200,1.73434228515625,-0.0788870742321014,0.044506373463571,0.0450420877754688,0.0576200261712074,-0.0269670747220516,-0.0796093046665191
1783204481207279000,1.744279052734375,-0.0255570505827665,0.0350676601193845,0.0473790062904357,0.0541266314685344,-0.0273907296359539,-0.0772906243801117
1783204481217216000,1.754216064453125,0.0054711248874664,0.0006542261250317,0.0690776278793811,0.056733600795269,-0.0222114119678735,-0.0730008035898208
1783204481227154000,1.76415380859375,0.0168096805036067,-0.0262235516674816,0.0997650270879268,0.0631689950823783,-0.0034113791771233,-0.064464084804058
1783204481237091000,1.774091064453125,0.0590998392224311,-0.0370009662695229,0.110052027824521,0.0580549240112304,0.0069371322169899,-0.0598344467580318
1783204481247029000,1.784029052734375,0.0718453390270471,-0.033482290624082,0.1619774453729391,0.0508519932627677,0.0212829932570457,-0.0498186983168125
1783204481256967000,1.793966796875,0.0861170254856348,-0.0546514815114438,0.1825900252908468,0.0374826602637767,0.0329234041273593,-0.0440396405756473
1783204481266904800,1.80390478515625,0.1250444297730922,-0.0441474770233035,0.1564490373402834,0.0181449837982654,0.0309267416596412,-0.0430521219968795
1783204481276841700,1.813841796875,0.1101619179397821,-0.04446165753901,0.1457809283316135,-0.0013789152726531,0.0253263786435127,-0.037470668554306
1783204481286778600,1.823778564453125,0.1041775828331708,-0.0605466770298779,0.1037841996014118,-0.012507976964116,0.0149430073797702,-0.0327886380255222
1783204481296716800,1.833716796875,0.1162654955118894,-0.0636000732511282,0.0343248789280653,-0.0225901715457439,0.0074387523345649,-0.0337772034108638
1783204481306653700,1.84365380859375,0.1111684646338224,-0.0646263475589454,-0.0067050505965948,-0.0379340052604675,0.0007980610243976,-0.032946404069662
1783204481316591600,1.853591552734375,0.0939782603800296,-0.0570117809019982,-0.0389548768162727,-0.0441237241029739,-0.0099951978772878,-0.0318947210907936
1783204481326528800,1.86352880859375,0.0910603271067142,-0.069180503731966,-0.0794727651655674,-0.0479333437979221,-0.0190738141536712,-0.0296461079269647
1783204481336466700,1.873466796875,0.0838853209108114,-0.0574799829356372,-0.1270084233224392,-0.0477783493697643,-0.0177395716309547,-0.0342128947377204
1783204481346403600,1.883403564453125,0.0751209996968507,-0.0367749754939228,-0.1189560497701168,-0.0484409630298614,-0.0225649420171976,-0.0345307141542434
1783204481356340700,1.8933408203125,0.0644090515464544,-0.0318702523175627,-0.141324533444643,-0.0435948111116886,-0.0306857209652662,-0.0323847383260726
1783204481366278700,1.903278564453125,0.0752057553708553,-0.0865044173680245,-0.1878290949881076,-0.0384017638862133,-0.0458343774080276,-0.0299857966601848
1783204481376215800,1.9132158203125,0.0656242725551128,-0.083545567562431,-0.1958849756717681,-0.0301326476037502,-0.0483867488801479,-0.0293098874390125
1783204481386153700,1.92315380859375,0.081193013086915,-0.0458529657669365,-0.1687725123405456,-0.0191925056278705,-0.0434063300490379,-0.0203478466719388
1783204481396090600,1.933090576171875,0.0872930835276842,-0.0569429534494876,-0.1447165139704942,0.0008312687277793,-0.0340019091963768,-0.0128118991851806
1783204481406028800,1.94302880859375,0.0834159498333931,-0.0782549138084054,-0.1196463701218366,0.0169142056256532,-0.0225724168121814,0.0017241849564015
1783204481415965700,1.952965576171875,0.0839724146723747,-0.0757053754560649,-0.0893090995252132,0.0301386639475822,-0.0132628055289387,0.0114077050238847
1783204481425902600,1.962902587890625,0.0797872379422187,-0.0442200308028608,-0.0268418296962976,0.0303482562303543,0.0040261703543365,0.0152032412588596
1783204481435840500,1.972840576171875,0.0743921009004116,0.0059742521040141,0.0443681340366601,0.0309669077396392,0.0172474347054958,0.0206528678536415
1783204481445777700,1.982777587890625,0.0732253952085971,0.003270253842324,0.0463297894984483,0.0287379976361989,0.0153704453259706,0.0289844460785388
1783204481455715600,1.992715576171875,0.0691045158863067,-0.0184271987028419,0.0240022223562002,0.0210787467658519,0.0128092831000685,0.0353158451616764
1783204481465652700,2.00265283203125,0.0360509720683097,-0.0209546713538467,0.0534744005560874,0.0098710758611559,0.011023074388504,0.0403450354933738
1783204481475590700,2.012590576171875,0.0109901805698871,0.0128159346923232,0.0619569822192192,0.0009806454181671,0.0067710718140006,0.0375314056873321
1783204481485527800,2.02252783203125,-0.0162093765228986,0.0242697872512042,0.0427379024863243,-0.0081527726724743,0.0036189139354974,0.0362923927605152
1783204481495465700,2.0324658203125,-0.0461982720732688,0.0239649590857326,0.0363309580534696,-0.0226840451359748,-0.0019159340299665,0.0248479917645454
1783204481505403000,2.04240283203125,-0.059273442223668,0.0557385460957884,0.0324848040193319,-0.0303346402943134,-0.0059851892292499,0.0137845575809478
1783204481515339500,2.052339599609375,-0.0673889441400766,0.0776779907032847,0.0113742114514112,-0.0313274636864662,-0.0058123506605625,0.0069602075964212
1783204481525277700,2.062277587890625,-0.0753524703651666,0.0591931435290724,-0.0268926831007003,-0.0255007371306419,-0.0034889718517661,-0.0004669916816055
1783204481535214600,2.072214599609375,-0.0705962157487869,0.049241219965741,-0.07116846267879,-0.0160731468349695,-0.0043995073065161,-0.0047387019731104
1783204481545152800,2.08215283203125,-0.0497241081118583,0.0607493599951267,-0.0746983903706073,-0.0066907005384564,0.0039918413385748,-0.0079021519050002
1783204481555089700,2.092089599609375,-0.0316734876364469,0.0723215782366692,-0.0363794733703136,-0.0017998050898313,0.0139416772872209,-0.0086989700794219
1783204481565027800,2.10202783203125,-0.0082329908162355,0.0636005116425454,-0.0506371313035488,0.0048525054007768,0.0163364857435226,-0.0082280151546001
1783204481574964700,2.11196484375,0.0193517662018537,0.0519470448583364,-0.056884501260519,0.0008756071329116,0.0232188925147056,-0.0079790102317929
1783204481584902700,2.121902587890625,0.0111094230353832,0.0656701575234532,-0.033064649733901,-0.0011164378374814,0.0207998491823673,-0.0131754772737622
1783204481594839800,2.13183984375,0.0249503168612718,0.0749570413067936,-0.0364051923334598,-0.0060265092179179,0.0198554918169975,-0.009468357078731
1783204481604776700,2.141776611328125,0.030061960786581,0.0527123301424086,-0.0701344434559345,-0.0055031944066286,0.0131840677931904,-0.007032879628241
1783204481614714600,2.151714599609375,0.0397229385793209,0.0343142114035785,-0.0905728358507156,-0.0102755799889564,0.0044731344096362,-0.008267787285149
1783204481624651800,2.16165185546875,0.0298743292599916,0.0535942275434732,-0.0909761559545993,-0.0166455917060375,-0.0035797683522105,-0.0079413745552301
1783204481634589700,2.171589599609375,0.0337719212204217,0.0592133825995028,-0.0962239934802055,-0.0180599987506866,-0.0160478893667459,-0.0116674024611711
1783204481644526800,2.18152685546875,0.0347433966010808,0.045843101960048,-0.1396305890083312,-0.0108120720833539,-0.026227418333292,-0.0128251295536756
1783204481654464800,2.19146484375,0.0203998139500617,0.0402589451521635,-0.1704448294669389,-0.0070018880069255,-0.03229196742177,-0.016997504979372
1783204481664401700,2.201401611328125,0.0113923316299915,0.0660745005406439,-0.1618365755975246,-6.52847811579e-05,-0.032500971108675,-0.0213455110788345
1783204481674339800,2.21133984375,0.0008580781340599,0.0709900373719632,-0.1378869602113962,0.0053782160393893,-0.0310559403151273,-0.0284132733941078
1783204481684276700,2.22127685546875,0.0053057051926851,0.0783358700901269,-0.1291425127416849,0.0136409392580389,-0.0401620529592037,-0.0365446135401725
1783204481694213600,2.231213623046875,0.0059872577160596,0.0804557848535478,-0.1531026495218277,0.0193172004073858,-0.0420811250805854,-0.0401880852878093
1783204481704151600,2.241151611328125,-0.0336515097111463,0.0683855539619922,-0.1133878942489624,0.0269557945430278,-0.0377821736037731,-0.0509653016924858
1783204481714088700,2.251088623046875,-0.0537310056656599,0.061877925633639,-0.0721995592921972,0.0309958085417747,-0.0359440594911575,-0.0526923611760139
1783204481724026600,2.261026611328125,-0.0625473493278026,0.0685511197872459,-0.0485293453693389,0.0320011600852012,-0.0311784036457538,-0.0566638521850109
1783204481733963800,2.2709638671875,-0.0527127685338258,0.0602205138154327,-0.0182756614029407,0.0295486561954021,-0.0245905444025993,-0.0614708550274372
1783204481743901700,2.280901611328125,-0.0491512766599655,0.0573513881199061,0.0149608377665281,0.0230769030749797,-0.0107181016355752,-0.0634465664625167
1783204481753838800,2.2908388671875,-0.040998365342617,0.0657931993812322,0.0461035795271396,0.018003050237894,-0.0038343630731105,-0.0662884265184402
1783204481763776800,2.30077685546875,-0.022814473876357,0.0578330341570079,0.0505178888380527,0.0087938383221626,-0.0001560049131512,-0.063860684633255
1783204481773714000,2.3107138671875,0.0026753566890954,0.0422147553950548,0.0368032517403364,0.0079928943887352,0.0041316663846373,-0.060564536601305
1783204481783650600,2.320650634765625,0.0213110835760831,0.0252490075469017,0.031031682601571,0.0006963489577174,0.0031627209391444,-0.0543011277914047
1783204481793588700,2.330588623046875,0.0362789356052875,-0.0002652268074452,0.019310265147686,-8.74195247888e-05,0.0028761648572981,-0.0439214557409286
1783204481803525600,2.340525634765625,0.0490770423799753,-0.0216442610532045,-0.0085930563002824,-0.0071314545348286,-0.0087230242788791,-0.0406801402568817
1783204481813463800,2.3504638671875,0.0355307475864887,-0.0121377431698143,-0.0206663559317588,-0.0127406036481261,-0.008397851139307,-0.0396090149879455
1783204481823400700,2.360400634765625,0.0373357511818409,-0.0040714872226119,0.0084592007875442,-0.0110873533412814,-0.0007951618172228,-0.0344696231186389
1783204481833338600,2.370338623046875,0.0553249968588352,-0.0275925019331276,-0.0058498950719833,-0.0128719368949532,-0.0036476734094321,-0.0384649001061916
1783204481843275800,2.38027587890625,0.0310714300900697,-0.0244675017803907,-0.0370639485031366,-0.0355589799582958,-0.0257593318819999,-0.0542636290192604
1783204481853213700,2.390213623046875,-0.0350865109503269,0.021317951708287,0.0077092592030763,-0.0440720431506633,-0.0343256555497646,-0.0543294064700603
1783204481863150800,2.40015087890625,-0.0169809454172849,-0.0235616389818489,-0.0069523033559322,-0.030569665133953,-0.0273815058171749,-0.0472709387540817
1783204481873088800,2.4100888671875,0.0265600901454687,-0.0954414648003876,-0.0429097519218921,-0.032407246530056,-0.0203414373099803,-0.0503618046641349
1783204481883025700,2.420025634765625,0.0256353765159845,-0.0452679324205964,-0.0073415949344635,-0.0289387591183185,-0.015693437308073,-0.0440827645361423
1783204481892962800,2.429962890625,0.0396007735043764,-0.0487003180220723,0.0293850844383239,-0.0171052701771259,0.000561699271202,-0.0323073305189609
1783204481902900700,2.439900634765625,0.0740904876053333,-0.1219549393251538,0.0087906246989965,-0.0083340425044298,0.0124463234096765,-0.0230143498629331
1783204481912837600,2.449837646484375,0.1022211880683898,-0.0966527402862906,0.0049035541325807,-0.0061166938394308,0.0227285213768482,-0.0106583461165428
1783204481922775800,2.45977587890625,0.1309358258992433,-0.0786373372547328,0.0259434195518493,0.0018959818407893,0.031465608626604,0.0024782153777778
1783204481932712700,2.469712646484375,0.1384644678384065,-0.1187296936683356,0.0089829324007034,0.0036352919414639,0.0353940352797508,0.019012451171875
1783204481942651000,2.47965087890625,0.1397971777468919,-0.1198807633996009,-0.0025128596037626,0.0032647009938955,0.0304329562932252,0.0271026529371738
1783204481952587500,2.48958740234375,0.1158142446130514,-0.0932953926824033,0.0040326165169477,-0.000797152519226,0.0314638689160347,0.035719309002161
1783204481962525700,2.499525634765625,0.0886520969212055,-0.0673019965089857,0.0018400749087333,-0.0063569275662302,0.0334081724286079,0.037093736231327
1783204481972462600,2.509462646484375,0.0707931996256113,-0.0395000896088778,-0.0017424597531557,-0.0088720163330435,0.0308150500059127,0.0345797128975391
1783204481982400800,2.51940087890625,0.061229836988449,-0.0331711788482964,-0.0267132348805665,-0.0183706879615783,0.0280995145440101,0.034634917974472
1783204481992337700,2.529337646484375,0.048275662869215,-0.0376415291953831,-0.0548433508217334,-0.0203084051609039,0.0255628526210784,0.0348037630319595
1783204482002275600,2.539275634765625,0.0227910930007696,-0.0217268247701227,-0.0532464370191097,-0.0191249214112758,0.0251366589218378,0.032730147242546
1783204482012212700,2.549212646484375,0.0113292032659053,-0.0029221710570156,-0.0582546205699443,-0.0166042372584342,0.0249427799135446,0.0306688584387302
1783204482022150000,2.55914990234375,0.0144920512109994,0.0094761958103626,-0.0868394945412874,-0.0104021169245243,0.0209881290793418,0.0315223522484302
1783204482032087800,2.569087890625,0.0124257663309574,0.0146009184129536,-0.108007954776287,-0.0043420940637588,0.0190466828644275,0.0326414108276367
1783204482042024700,2.579024658203125,0.0072726213514804,0.0117021282315254,-0.1115992572665214,-0.0030686184763908,0.0097818309441208,0.0327507928013801
1783204482051962600,2.588962646484375,-0.0130336690962314,0.022199629913643,-0.1095961007505655,7.31134787201e-05,0.0104572083801031,0.0309275966137647
1783204482061899800,2.598899658203125,-0.0321639015018939,0.0429850091151893,-0.0752221219837665,0.0039119375869631,0.0132798394188284,0.0244549140334129
1783204482071837700,2.608837646484375,-0.0323901114732027,0.0732357704721391,-0.0619002835959196,0.0048605557531118,0.0159941334277391,0.022323053330183
1783204482081774600,2.618774658203125,-0.032741993650794,0.0692122140444815,-0.0601566547989845,-0.0008778646588325,0.0306173916906118,0.0195825174450874
1783204482091712800,2.628712646484375,-0.0432955363690853,0.0531429766446351,-0.0032253917872905,0.0010406766086816,0.037056915462017,0.0136404717341065
1783204482101649700,2.638649658203125,-0.0634849224388599,0.0550331012401729,0.0364969622701406,-0.0004303343594074,0.0340606793761253,0.0105413114652037
1783204482111587800,2.648587890625,-0.0068254621058702,0.1303036654755473,-0.0384650474727153,-0.0061574624851346,0.0193275399506092,0.0109799336642026
1783204482121524700,2.658524658203125,-0.0153834470927715,0.0595610269933939,-0.0258878899723291,-0.0141256405040621,3.64012084901e-05,0.0151911908760666
1783204482131463000,2.668462890625,-0.0153711721330881,0.0432305083088576,-0.0566483544170856,-0.0176804289221763,-0.0123904412612319,0.0144894486293196
1783204482141399600,2.678399658203125,-0.0178156426757574,0.0652383419774472,-0.0657926148593425,-0.0197608582675457,-0.0165909919887781,0.0123256174847483
1783204482151337700,2.688337646484375,-0.0287029473930597,0.0641194209501147,-0.0466267266184091,-0.0163930244743824,-0.0059340870939195,0.0112515641376376
1783204482161274600,2.698274658203125,-0.036205285847187,0.0896850932307541,-0.0071750061959028,-0.0108968494459986,0.009639635682106,0.0051104249432682
1783204482171211800,2.708211669921875,-0.0488286205768585,0.0900010273121297,-0.0014718261182308,-0.0084794992581009,0.0175582785159349,0.0039511509239673
1783204482181149700,2.718149658203125,-0.0574368744462728,0.0682653616484254,-0.0084808280974626,-0.0036391718313097,0.0163247920572757,-0.0030614070128649
1783204482191086800,2.7280869140625,-0.0543617047846317,0.0876573867954313,-0.0346224005699157,-0.0047619612887501,0.0159277133643627,-0.0074958363547921
1783204482201024800,2.738024658203125,-0.0444254171818494,0.0805877406701445,-0.0614268208652734,-0.006971213966608,0.0096966102719306,-0.0139035256579518
1783204482210962000,2.7479619140625,-0.0294540580213069,0.076263739991188,-0.0818991155296564,-0.001714133657515,0.008396454155445,-0.0194815155118703
1783204482220899800,2.75789990234375,-0.0198830965995788,0.064902095760405,-0.1090104098170995,0.000395736657083,0.0084127886220812,-0.0177608877420425
1783204482230836700,2.767836669921875,-0.0022837270230054,0.0569851851560175,-0.1205132160842418,0.002095365896821,0.0081752343103289,-0.0198812950402498
1783204482240774700,2.777774658203125,0.0141565356463193,0.0374802742190659,-0.1030330889731645,0.002701386809349,0.0050227623432874,-0.01870041154325
1783204482250711600,2.787711669921875,0.0102086748033761,0.042977994852513,-0.1150251400619745,0.0069129099138081,0.0023550735786557,-0.0196471642702817
1783204482260650000,2.79764990234375,0.008963058656454,0.0372722574915736,-0.1137649108678102,0.0083533246070146,0.0044451220892369,-0.0210875514894723
1783204482270586600,2.807586669921875,0.0225847567737102,0.007885565618053,-0.1063017353802919,0.0132008101791143,0.0010589128360152,-0.016479218378663
1783204482280524800,2.81752490234375,0.0304395619273185,0.0038677813440561,-0.094311437857151,0.0135191092267632,-0.0019124657846987,-0.0181702524423599
1783204482290461700,2.827461669921875,0.0265133283942937,-0.0031385902866721,-0.0859223796963691,0.016144985333085,-0.003129796590656,-0.0146913658827543
1783204482300399900,2.83739990234375,0.0339899478852748,-0.0069452890932559,-0.057971711975336,0.0137299569323658,-0.0041207438334822,-0.0105467587709426
1783204482310336800,2.847336669921875,0.0356914911061525,-0.0266883927002549,-0.0383680168390274,0.0133893378078937,-0.0058494014665484,-0.0110253281891345
1783204482320275000,2.85727490234375,0.0361789823621511,-0.0402948932483792,-0.0071416884481906,0.0142930233851075,-0.0023361747153103,-0.0054983999580144
1783204482330211800,2.8672119140625,0.0375374112337827,-0.0321367212340235,0.0010211597412824,0.0098894871771335,-0.0040658977814018,-0.00220193923451
1783204482340149000,2.87714892578125,0.0326420404076576,-0.0438363652475178,0.028027240088582,0.0105935595929622,0.0020656941924244,0.0020526610314846
1783204482350087000,2.8870869140625,0.0196375974059104,-0.0498237690940499,0.0394628263384103,0.0093871485441923,0.0094674173742532,0.003978126682341
1783204482360023800,2.89702392578125,0.0184948571115732,-0.027125468943268,0.0596563040614128,0.0028728805482387,0.0127633102238178,0.0017371354624629
1783204482369961700,2.906961669921875,0.0179793088048696,-0.0206895176116377,0.0881932472378015,-0.0045879641547799,0.0169964041560888,-0.0038496439810842
1783204482379899000,2.91689892578125,0.017385434564948,-0.0256093652918934,0.0841331581920385,-0.0132858213037252,0.0211095288395881,-0.0041830893605947
1783204482389836800,2.9268369140625,0.0305056129008531,-0.0309602248005568,0.0798421829998493,-0.0214534681290388,0.0205388143658638,-0.0025452454574406
1783204482399774000,2.93677392578125,0.0357785848677158,-0.043100671384111,0.0514525393396615,-0.0217866003513336,0.0261143036186695,0.0045821657404303
1783204482409711900,2.9467119140625,0.0484656324833631,-0.0513688796442002,0.0255570505827665,-0.0220209583640098,0.0248527638614177,0.0059734005481004
1783204482419648800,2.956648681640625,0.0575976179659366,-0.0610598872490227,-0.0214992996245622,-0.0179546773433685,0.0292423292994499,0.0068804202601313
1783204482429587000,2.9665869140625,0.0536842439144849,-0.055560266919434,-0.0541267269849777,-0.0128762954846024,0.0268361624330282,0.0067818835377693
1783204482439523800,2.97652392578125,0.0371726695746183,-0.0425989324070513,-0.0916483561277389,-0.0134806288406252,0.0222490653395652,0.0065684989094734
1783204482449462000,2.9864619140625,0.0412327586203813,-0.0072922028347849,-0.0916051015079021,-0.013728036545217,0.0050863232463598,0.007181292399764
1783204482459398700,2.996398681640625,0.0383843834519386,-0.0258097101695835,-0.1169967323958873,-0.0176791511476039,-0.011337942443788,0.0062210615724325
1783204482469336800,3.0063369140625,0.0295335529983043,-0.0136727707173675,-0.1168967791527509,-0.0194211266934871,-0.0170264542102813,0.0045352801680564
1783204482479273700,3.016273681640625,0.021218144595623,0.0140161042623221,-0.0854278741776943,-0.0180484130978584,-0.0156024098396301,0.0055466182529926
1783204482489212000,3.0262119140625,0.0255891992866992,0.0171707689009606,-0.0650865124166011,-0.0170364119112491,-0.0077732484787702,0.0091658541932702
1783204482499148800,3.036148681640625,0.0361696300119161,0.0126642512619495,-0.0564034397453069,-0.0147966463118791,-0.0052455882541835,0.0131621798500418
1783204482509086700,3.046086669921875,0.0268365689992904,0.0094120445329695,-0.0496674094885587,-0.0090309027582407,-0.0067678508348762,0.0181580055505037
1783204482519023900,3.05602392578125,0.0164104520529508,0.0167988668486475,-0.0493079285264015,-0.0096893878653645,7.84257426857e-05,0.0211265906691551
1783204482528961800,3.0659619140625,-0.0008645078748464,0.0360438116751611,-0.0249169991135597,-0.012244158424437,0.0014041471295058,0.0116025945171713
1783204482538899000,3.07589892578125,-0.0256722013950347,0.0856684049353003,0.0041577042013406,-0.0199468676000833,0.0012576184235513,0.0057234140112996
1783204482548836900,3.0858369140625,-0.0533043046861886,0.0926254575315862,-0.0087695819109678,-0.0187969151884317,-0.0041171726770699,0.0021992533002048
1783204482558773800,3.095773681640625,-0.0445750547856092,0.0438790353454649,-0.046153263887763,-0.0173993818461895,-0.0047509572468698,-0.0010473853908479
1783204482568711700,3.105711669921875,-0.0502682979911565,0.0364640829138457,-0.0442348630458116,-0.0234112031757831,-0.006097984034568,-0.00431934511289
1783204482578648800,3.11564892578125,-0.0372153396725654,0.038916152241081,-0.0227086754143238,-0.0205392856150865,-0.0015842583961784,-0.002422974910587
1783204482588586800,3.125586669921875,-0.0162584763616323,0.0347545755822211,-0.0214162975162267,-0.0173738505691289,0.0014501474797725,-0.001498059136793
1783204482598524000,3.13552392578125,-0.0058230070650577,0.0262378724537789,-0.0451636683285236,-0.0079665118828415,0.002371635986492,-0.0018721421947702
1783204482608460800,3.145460693359375,-0.0084252985179424,0.0157365713793784,-0.0601806201964616,-0.0055393064394593,0.0076239220798015,-0.0004825047217309
1783204482618399000,3.15539892578125,-0.0217599963873624,0.015778730020672,-0.0446317534089088,-0.000614552758634,0.0041355728171765,-0.0006746163126081
1783204482628335900,3.1653359375,-0.0214098677754402,0.0161327310901135,-0.0552647911041975,0.0045458544045686,0.0054748766124248,-0.000460764626041
1783204482638274000,3.175274169921875,-0.011564765587449,0.0201389710567891,-0.0576443797171115,0.0059578265063464,0.0063203051686286,-0.000394354108721
1783204482648210700,3.185210693359375,-0.0080056118011474,0.0228021989166736,-0.0577191985189914,-0.0001719715073704,0.0042835194617509,-0.0015661448705941
1783204482658148900,3.19514892578125,0.0038671968221664,0.0276589912980794,-0.0350865109503269,-0.004177426919341,-0.000120872631669,-0.0034050431568175
1783204482668085800,3.205085693359375,0.0120429044932127,0.0265502994038164,-0.0015390461355447,-0.013382377102971,-0.001846601255238,-0.0052077369764447
1783204482678024000,3.21502392578125,0.0176893859475851,0.0178670806020498,-0.0134510177254676,-0.0175072941929101,0.0011825701221823,-0.0030017639510333
1783204482687960800,3.2249609375,0.0280687411427497,0.014158143081516,-0.0112000239282846,-0.0183637682348489,0.0038031204603612,-0.0003753544297069
1783204482697898800,3.234898681640625,0.0271399358600378,0.0125002928718924,-0.0260953952431678,-0.0192787535488605,0.0032837300095707,-0.0053395181894302
1783204482707836000,3.2448359375,0.0423275681197643,0.0101585520513355,-0.0546656561672687,-0.0153892068192362,0.0030504371970891,-0.0046604117378592
1783204482717773800,3.25477392578125,0.0259907658249139,0.0027558745793998,-0.0793435858279466,-0.0117708751931786,0.0040844557806849,-0.0014296928420662
1783204482727710700,3.264710693359375,0.0192027131199836,-0.0101870474934577,-0.0837298380881547,-0.0047489190474152,0.0074954321607947,-0.0012347495649009
1783204482737648600,3.274648681640625,0.0189221426129341,0.0090005411226302,-0.0835404529958963,-0.0023866640403866,0.0111683588474988,-0.0025588802527636
1783204482747585800,3.284585693359375,0.0233317757487297,0.0301273541729897,-0.103106738731265,0.003998264670372,0.017360208556056,-3.68666369467e-05
1783204482757523700,3.294523681640625,0.0091623806208372,0.03382883903943,-0.1292208386749029,0.0107579752802848,0.0111861284822225,0.0038041791412979
1783204482767460900,3.3044609375,0.0171346746742725,0.0338531697630882,-0.1647095006853342,0.0121153881773352,0.0054379613138735,0.0060169994831085
1783204482777398800,3.314398681640625,0.0030126258194446,0.0526883647449314,-0.1882780077993869,0.0138144958764314,0.0027603844646364,0.0043897172436118
1783204482787336000,3.3243359375,-0.011212298887968,0.0444815312832593,-0.1925537854224443,0.0201096758246421,-0.0055694510228931,-0.0010023850481957
1783204482797273900,3.33427392578125,-0.0071697454988956,0.0392110435344278,-0.2066471927046775,0.0282754823565483,-0.015014155767858,0.0008224970661103
1783204482807211000,3.3442109375,0.0196790984600782,0.0245450970612466,-0.2236199548155069,0.030108269304037,-0.030342511832714,0.0036078970879316
1783204482817149000,3.35414892578125,0.0500596236765384,0.0085427874177694,-0.2384942833423614,0.0307834465056657,-0.0588697418570518,0.0046743876300752
1783204482827085800,3.3640859375,0.080372344353795,0.0185511173434555,-0.2121393603801727,0.0136934090405702,-0.088884100317955,0.0021723480895161
1783204482837023700,3.374023681640625,0.0907540376365184,0.0861098650924861,-0.1000666403830051,0.0125383092090487,-0.0982458516955375,0.0148370312526822
1783204482846961000,3.3839609375,0.1441834300071001,0.0643785102777183,-0.0139870242983102,0.0195123292505741,-0.0804450213909149,0.0321377255022525
1783204482856898800,3.39389892578125,0.1215139175593852,0.0495678946368396,0.0841319891482591,0.0313507057726383,-0.0606815814971923,0.0382710397243499
1783204482866835700,3.403835693359375,0.04545008405447,0.107432639106363,0.1287725103855133,0.0326838828623294,-0.0181133486330509,0.0268916171044111
1783204482876774000,3.41377392578125,-0.0015361235260963,0.2143389162510633,0.2285568266957998,0.03088865801692,0.0291896816343069,0.0113306753337383
1783204482886710800,3.423710693359375,-0.0878290901005268,0.1488859086096286,0.2816425201952457,0.0095218513160943,0.0528372228145599,-0.0076041333377361
1783204482896649000,3.43364892578125,-0.1594452965468168,0.0897075242582708,0.2401099018454551,-0.0124721191823482,0.0531370565295219,-0.0304450914263725
1783204482906585900,3.4435859375,-0.2237006188362836,0.0058811669930815,0.1469645851582288,-0.0337249413132667,0.0341902635991573,-0.04918123036623
1783204482916524000,3.45352392578125,-0.2522504214942455,-0.0965152315117418,0.0198199682354927,-0.0473292954266071,0.0007436070591211,-0.0675672069191932
1783204482926460700,3.463460693359375,-0.2336824991464614,-0.1367081256903708,-0.0744260031700134,-0.0469402074813842,-0.0276725869625806,-0.0771383419632911
1783204482936398800,3.47339892578125,-0.1880693334847688,-0.1741045210182666,-0.1243874271690845,-0.0309062115848064,-0.0367379747331142,-0.0836319997906684
1783204482946335700,3.483335693359375,-0.1292179160654544,-0.2103429784826934,-0.0979717139303684,-0.0097465990111231,-0.0271596498787403,-0.0818761736154556
1783204482956274000,3.49327392578125,-0.0382908599495887,-0.2342208438068628,-0.0254635270804166,0.014042199589312,-0.0036220490001142,-0.0708803758025169
1783204482966210800,3.5032109375,0.0645575201064348,-0.2317106145516037,0.0670125120431184,0.0244511645287275,0.0167149137705564,-0.0544292293488979
1783204482976148700,3.513148681640625,0.1584668069034814,-0.1964323804214596,0.1490858150959015,0.0283358562737703,0.0243939496576786,-0.0233562383800745
1783204482986086000,3.5230859375,0.2507645668506622,-0.2066458775304257,0.1694084721565246,0.021649457514286,0.0242067296057939,0.0140475938096642
1783204482996023800,3.53302392578125,0.3266419378727674,-0.2071113030850887,0.1648731668144464,0.0067008561454713,0.0190743189305067,0.0517966635525226
1783204483005961000,3.5429609375,0.3478554062932729,-0.1233184096980839,0.1876665979027748,-0.0097963605076074,0.0224354937672615,0.0892457664012909
1783204483015899000,3.55289892578125,0.3177718181967735,-0.0563363658584654,0.1952531075090169,-0.0227147862315177,0.0271254833787679,0.114918366074562
1783204483025835800,3.562835693359375,0.2597480837732553,0.0275045313887298,0.1346422792017459,-0.0325346589088439,0.0239448696374893,0.1353290975093841
1783204483035773700,3.572773681640625,0.16594810256958,0.1080428799591958,0.0443318936794996,-0.0338286682963371,0.0082787554711103,0.1631594747304916
1783204483045710800,3.5827109375,0.0585614945620298,0.1751291878908872,-0.0578887098670005,-0.030611302703619,-0.0064338785596191,0.184741735458374
1783204483055648800,3.592648681640625,-0.1116658927619457,0.2319892853625118,-0.1181143382489681,-0.0155593687668442,-0.0030872854404151,0.1924761682748794
1783204483065586000,3.6025859375,-0.2670645442664623,0.320451704930514,-0.1478910523533821,0.0084487628191709,0.0125907436013221,0.1717056334018707
1783204483075522800,3.612522705078125,-0.4006137675344944,0.4460333103202283,-0.1927723966091871,0.029060423374176,0.0302829388529062,0.1235075294971466
1783204483085461000,3.6224609375,-0.523535213804245,0.5336674623705446,-0.2075572932869195,0.0422433391213417,0.0546995997428894,0.0498372949659824
1783204483095399000,3.63239892578125,-0.5998188275396823,0.6025473757207394,-0.169243636983633,0.0478138476610183,0.0714844092726707,-0.0372824035584926
1783204483105336000,3.642336181640625,-0.6111597212433815,0.6115916829198599,-0.191556591078639,0.0348413214087486,0.0649130567908287,-0.1228542923927307
1783204483115274000,3.65227392578125,-0.5285077415198087,0.5187585739869625,-0.2068149504870176,0.0150164365768432,0.0398023128509521,-0.1963248699903488
1783204483125211000,3.6622109375,-0.3540951774656772,0.3873474587261676,-0.2310679327338934,-0.0155712999403476,0.0094305602833628,-0.2468924522399902
1783204483135148800,3.672148681640625,-0.1829530133843422,0.2184698785759508,-0.1959077720254659,-0.0605891048908233,-0.0191816426813602,-0.2784149646759033
1783204483145085700,3.682085693359375,-0.0027262100934982,0.014783362307772,-0.1507324132591486,-0.0984360873699188,-0.0412712320685386,-0.2888361811637878
1783204483155024000,3.69202392578125,0.1871808602124452,-0.1781046965703368,-0.1519067177355289,-0.1320125460624694,-0.0373569726943969,-0.272460788488388
1783204483164960800,3.701960693359375,0.3303501447409391,-0.3691891400925814,-0.1467190859645605,-0.1373953223228454,-0.0364610850811004,-0.2505512237548828
1783204483174898000,3.71189794921875,0.3720511053949594,-0.5545353322237729,-0.1084527759343385,-0.1283439695835113,-0.061934657394886,-0.2163053154945373
1783204483184835800,3.7218359375,0.5467401483029127,-0.5294776094652712,-0.3562450489759445,-0.1137008294463157,-0.0888581499457359,-0.1704427450895309
1783204483194774000,3.73177392578125,0.5936883619606494,-0.6586572393469512,-0.3749327983111143,-0.0766891911625862,-0.1272027939558029,-0.1194232776761055
1783204483204711000,3.7417109375,0.6802782656550407,-0.6344666548117995,-0.4174094195127487,-0.0280191227793693,-0.1314846277236938,-0.0531316027045249
1783204483214648800,3.75164892578125,0.7355354579746722,-0.5844776852186769,-0.3511591240137815,0.0320842415094375,-0.1098037660121917,0.0319209583103656
1783204483224585700,3.761585693359375,0.7360644502848386,-0.5898636160407215,-0.1711877567887306,0.0855426713824272,-0.0570454858243465,0.1146951988339424
1783204483234523600,3.771523681640625,0.7013479416906834,-0.533626691968739,-0.0099415482997894,0.1333823651075363,0.0110661946237087,0.1853802949190139
1783204483244460800,3.781460693359375,0.5918365966141224,-0.4490435980521142,0.1519394509613514,0.1598941385746002,0.0761796832084655,0.2265522330999374
1783204483254398000,3.79139794921875,0.4412345317363739,-0.2835505457736552,0.2532277420938015,0.1592647135257721,0.1151082143187522,0.2381540387868881
1783204483264336400,3.80133642578125,0.3021317659944296,-0.101887133808434,0.322541516816616,0.1286282390356063,0.1268876492977142,0.2313121110200882
1783204483274274300,3.8112744140625,0.1602495986670255,-0.0116140115566551,0.3373398574978113,0.0871985703706741,0.1136771291494369,0.206571951508522
1783204483284211500,3.82121142578125,0.0513549241840839,0.005908712587133,0.29705811599195,0.0336450710892677,0.0783401727676391,0.176853209733963
1783204483294149400,3.8311494140625,-0.0356727864056825,-0.0040654228080064,0.2343915241986513,-0.0244654417037963,0.0364584140479564,0.1386056095361709
1783204483304086500,3.84108642578125,-0.1216577099442482,-0.0587898964904248,0.17935761924088,-0.0863517150282859,-0.0153611060231924,0.0969393998384475
1783204483314024400,3.8510244140625,-0.1736789890825748,-0.1132942246161401,0.1376455526709556,-0.1376806646585464,-0.0628458335995674,0.0602129846811294
1783204483323961600,3.860961669921875,-0.1902355716079473,-0.2159621335387229,0.0794978996068239,-0.1788419485092163,-0.1056369766592979,0.0422813855111599
1783204483333899500,3.8708994140625,-0.1481739609479904,-0.3294986424781382,-0.0141197107672691,-0.1890096962451934,-0.1399761736392974,0.0409648157656192
1783204483343836400,3.88083642578125,-0.069269935581088,-0.4352131525550037,-0.0847597656577825,-0.1823270320892334,-0.1519473493099212,0.0562721341848373
1783204483353774300,3.8907744140625,0.0031628479450941,-0.4983376441836357,-0.09132920717597,-0.1540485173463821,-0.1495590806007385,0.0858248993754386
1783204483363711200,3.900711181640625,0.0838619400352239,-0.5365872953400016,-0.1198667348742485,-0.113874465227127,-0.1274436563253402,0.1230857223272323
1783204483373649400,3.9106494140625,0.1485994928836822,-0.4900353875234722,-0.1041115318596363,-0.0694506764411926,-0.1068986877799034,0.1591423004865646
1783204483383586300,3.92058642578125,0.1914513771384954,-0.3943959159329533,-0.0921259105116128,-0.0286292098462581,-0.0851433202624321,0.2028522342443466
1783204483393524500,3.9305244140625,0.2067266876816749,-0.2816835828579962,-0.0213438168019056,0.0030304742977023,-0.0720696076750755,0.2519267201423645
1783204483403461400,3.94046142578125,0.1854892538636922,-0.1590504520103335,0.0382312387168407,0.0284604653716087,-0.0523696728050708,0.2936339378356933
1783204483413399600,3.950399658203125,0.1309527770340442,0.0043511809468269,0.1136246256142854,0.0404663905501365,-0.0277322214096784,0.321657657623291
1783204483423336200,3.960336181640625,0.042574236357212,0.1929375240430235,0.2244423771142959,0.0425777435302734,-0.0020723966881632,0.3355082273483276
1783204483433274400,3.9702744140625,-0.076498717790842,0.3905255042403936,0.2790735464900732,0.0307574104517698,0.0204183161258697,0.3363336622714996
1783204483443211300,3.980211181640625,-0.2020224555134773,0.5788803766682744,0.2844353657841682,0.0155733982101082,0.0398929454386234,0.3225326240062713
1783204483453149400,3.9901494140625,-0.3194143247067928,0.7316925188109278,0.2462789458692073,-0.0087165432050824,0.056393701583147,0.2801010608673095
1783204483463086300,4.00008642578125,-0.4372141901791095,0.8898338931523263,0.2002688898444175,-0.0318868421018123,0.0571247413754463,0.2289060354232788
1783204483473024300,4.010024169921875,-0.4852063599318265,0.948623351251334,0.0662947191625833,-0.0646244436502456,0.0313009470701217,0.1670861989259719
1783204483482961400,4.01996142578125,-0.6235930863589048,1.0059440519720315,-0.0136865800470113,-0.0911993235349655,0.0097080366685986,0.1025016084313392
1783204483492899300,4.0298994140625,-0.6255331145107745,1.0524616191275418,-0.1333896487921476,-0.0988845378160476,-0.0024639847688376,0.056928239762783
1783204483502836500,4.03983642578125,-0.6391647495001554,0.9412048916883766,-0.2324117485582828,-0.0914564430713653,0.0023044047411531,0.0197148229926824
1783204483512774400,4.0497744140625,-0.6545651477277279,0.8568693427920341,-0.2758656903594732,-0.0660621672868728,0.0159720834344625,-0.0204675663262605
1783204483522711300,4.059711181640625,-0.6460095008283853,0.8191079135440289,-0.3707838619381189,-0.0292506255209445,0.0481521226465702,-0.068532295525074
1783204483532649200,4.069649169921875,-0.6169137547254562,0.8081833455562591,-0.431027025976777,0.0083688423037529,0.0786284431815147,-0.1290111541748047
1783204483542586400,4.07958642578125,-0.5924573588609695,0.7855095953248441,-0.4600608127593993,0.0341205447912216,0.1095424145460128,-0.1893128454685211
1783204483552524300,4.089524169921875,-0.5244371310800313,0.7319203362174331,-0.4619651850759982,0.0655417069792747,0.0960564613342285,-0.2537461221218109
1783204483562461400,4.09946142578125,-0.3809194715052842,0.6611359044201671,-0.5527227298438548,0.0716898813843727,0.0726616531610488,-0.296551376581192
1783204483572399400,4.1093994140625,-0.2145183644711971,0.5035874544706195,-0.5150082084774971,0.0664890855550766,0.0434500277042388,-0.3240621089935303
1783204483582336500,4.11933642578125,-0.0682967066347599,0.2886046873580664,-0.4509498700648546,0.0529674217104911,0.0113629326224327,-0.3381017744541168
1783204483592274400,4.1292744140625,0.0830658212214708,0.1420171918839216,-0.3707996440291404,0.0402448214590549,-0.0136465039104223,-0.3295409977436065
1783204483602211600,4.139211669921875,0.1832838527739048,-0.0686046766053885,-0.3047948477238416,0.0385736897587776,-0.0346026495099067,-0.3022835552692413
1783204483612149500,4.1491494140625,0.2698188114106655,-0.2641069365698844,-0.2493739892750978,0.0371634736657142,-0.0511985272169113,-0.2648718059062958
1783204483622086400,4.15908642578125,0.3282996419519186,-0.4210872312426567,-0.1991922005236148,0.0532340481877327,-0.0710289552807807,-0.2188134789466858
1783204483632024300,4.1690244140625,0.3438742277026176,-0.5288918454665691,-0.1731979275673627,0.0735677853226661,-0.0820362567901611,-0.16346375644207
1783204483641961200,4.178961181640625,0.3394721933513879,-0.5897961768276989,-0.1255436114668846,0.1020164713263511,-0.0877639204263687,-0.1078146174550056
1783204483651899400,4.1888994140625,0.3228799549907445,-0.6118406892448663,-0.0242716869473457,0.1296254098415374,-0.0720136240124702,-0.0595639869570732
1783204483661836300,4.198836181640625,0.3011392478257417,-0.5600246503550559,0.127083242124319,0.1468739062547683,-0.0409087017178535,-0.0286699868738651
1783204483671774500,4.2087744140625,0.2854986111015081,-0.4269303312476724,0.2876695253998041,0.1606470197439193,-0.021378269419074,-0.000826891278848
1783204483681711400,4.21871142578125,0.2458715341120958,-0.3775770292095839,0.371160294035077,0.1651477664709091,-0.0084542147815227,0.0294417981058359
1783204483691649500,4.2286494140625,0.2356160975575447,-0.3289304872013628,0.4430716840356588,0.149945929646492,-0.0020714253187179,0.0634688958525657
1783204483701586400,4.23858642578125,0.250679226654768,-0.1944949826180934,0.5498375297963619,0.1274462044239044,0.0101479571312665,0.1084161251783371
1783204483711524600,4.248524658203125,0.1828174043059349,-0.1697457412868738,0.6665367405503988,0.0986853539943695,0.0407800041139125,0.1502711772918701
1783204483721461200,4.258461181640625,0.0685860449701547,-0.1349072868134826,0.7142530159711837,0.072830319404602,0.0676315948367118,0.1752031594514846
1783204483731399400,4.2683994140625,-0.0625152006238699,-0.0324134192835539,0.6954787573963404,0.0356879234313964,0.0863689482212066,0.1722369939088821
1783204483741336300,4.27833642578125,-0.2252723981976509,0.1026717083148658,0.6347726520210504,-0.0051753539592027,0.0921030044555664,0.1386883556842804
1783204483751274200,4.288274169921875,-0.3498965567320585,0.24689400902763,0.543581976532936,-0.0491150096058845,0.0900018438696861,0.0761641040444374
1783204483761211400,4.29821142578125,-0.4618722460955381,0.3533799418684095,0.4430132318466901,-0.0838130712509155,0.0874473378062248,-0.0034084897488355
1783204483771149300,4.3081494140625,-0.53408174225986,0.3697117026619613,0.3189320941478014,-0.11702561378479,0.0745496526360511,-0.0844293013215065
1783204483781087500,4.31808740234375,-0.538619385689497,0.3056608169034123,0.191791568878293,-0.1378856301307678,0.062791533768177,-0.1586601287126541
1783204483791024400,4.3280244140625,-0.4543354208499193,0.1661954283941537,0.0733043056637048,-0.1574533730745315,0.054109152406454,-0.2190228104591369
1783204483800962600,4.337962646484375,-0.3102303167760372,0.0244372527725994,-0.0099462244749069,-0.1770622283220291,0.0449337624013423,-0.2686438858509063
1783204483810899500,4.3478994140625,-0.1162660800337791,-0.1054223952624946,-0.0490057307094335,-0.1966854929924011,0.0465357229113578,-0.2943930327892303
1783204483820837400,4.35783740234375,0.0977536872655153,-0.2531624948378652,-0.0959802478522062,-0.2156008630990982,0.0441641770303249,-0.3044688403606415
1783204483830774300,4.367774169921875,0.322131182450056,-0.3860561037413775,-0.157300101211667,-0.2378633767366409,0.0604589432477951,-0.2815548777580261
1783204483840712200,4.377712158203125,0.5259259083330631,-0.5088379954099654,-0.2112415347576141,-0.2330459952354431,0.0459034368395805,-0.243763267993927
1783204483850649300,4.3876494140625,0.6837976719528436,-0.595559708790481,-0.3626537469744682,-0.2175156623125076,0.0203658938407897,-0.1855063438415527
1783204483860587300,4.397587158203125,0.8676783215761185,-0.5934571835532784,-0.549958525827527,-0.1804359406232834,-0.0151572125032544,-0.1064373478293418
1783204483870524400,4.4075244140625,0.9868722717553376,-0.5959785187244415,-0.6906459304124116,-0.1270999014377594,-0.0613252073526382,-0.0099829761311411
1783204483880462300,4.41746240234375,1.0581851113408802,-0.5209085185624659,-0.7635515921473502,-0.057728823274374,-0.0856233537197113,0.1068110167980194
1783204483890399500,4.4273994140625,1.00359719658494,-0.4426425719033926,-0.7269704587250948,0.0223391652107238,-0.0727680996060371,0.2293346673250198
1783204483900337400,4.43733740234375,0.8213584689497947,-0.3716381406798958,-0.5813350763440132,0.1047504171729087,-0.0233419556170701,0.34105184674263
1783204483910274300,4.4472744140625,0.5770499463707208,-0.196745099632442,-0.3797890061706304,0.1847291737794876,0.0437366217374801,0.4138482511043548
1783204483920212200,4.457212158203125,0.2942074027359485,0.0597356529079377,-0.2298287463277578,0.2407737970352172,0.1033578664064407,0.4438114762306213
1783204483930149400,4.4671494140625,-0.0213444013237953,0.3127431763797998,-0.1202548574090004,0.2642657160758972,0.136181503534317,0.4368045032024383
1783204483940087300,4.47708740234375,-0.3142617642492055,0.5286234768539667,-0.0468248795390129,0.2551212310791015,0.1571067571640014,0.3913435339927673
1783204483950024400,4.4870244140625,-0.5238368270993232,0.6587901450116187,0.011790391036868,0.2307398021221161,0.1479586213827133,0.323765367269516
1783204483959962400,4.49696240234375,-0.7408335643827915,0.6741548143386841,0.0205196409374475,0.1933144032955169,0.1260980665683746,0.2334240227937698
1783204483969899500,4.5068994140625,-0.8475766137897968,0.6838394652679562,-0.0032628011882305,0.1466917544603347,0.0828403756022453,0.1212315410375595
1783204483979837400,4.51683740234375,-0.9128338065981864,0.6911148630984127,0.0160918876230716,0.0810150131583213,0.0366353280842304,-0.002283745445311
1783204483989774600,4.526774658203125,-0.9179875360995532,0.6274745309021323,0.0640279432743787,0.0059366673231124,-0.0145382173359394,-0.1224814429879188
1783204483999712500,4.53671240234375,-0.8447112874865531,0.5234307305164635,0.1242091479927301,-0.0740617662668228,-0.0582348331809043,-0.2284257262945175
1783204484009649200,4.546649169921875,-0.675736530572176,0.3666498308733105,0.1676157435208559,-0.144118919968605,-0.0982846170663833,-0.300344318151474
1783204484019587300,4.55658740234375,-0.4315039958387613,0.1627978218451142,0.1609381654530763,-0.192794844508171,-0.1141900792717933,-0.3376048803329468
1783204484029524200,4.566524169921875,-0.1481067409306764,-0.042695524649322,0.1252069268584251,-0.2116831094026565,-0.1128661558032035,-0.3487725555896759
1783204484039462400,4.57646240234375,0.1166916119694709,-0.1902946083188056,0.0551513938575983,-0.2187210321426391,-0.1109707802534103,-0.3281333446502685
1783204484049399300,4.5863994140625,0.3481453291505575,-0.2995812047287821,-0.024907062241435,-0.2103757560253143,-0.1020963340997695,-0.2836652994155884
1783204484059337500,4.59633740234375,0.5587456433951854,-0.3779283268652856,-0.0919359408974647,-0.1801230311393737,-0.1102306917309761,-0.2125099003314972
1783204484069274400,4.6062744140625,0.7322615508705377,-0.4024775886449963,-0.2031628577202558,-0.1406949311494827,-0.1078541129827499,-0.1183468922972679
1783204484079212500,4.616212646484375,0.8335510110467672,-0.410414007667452,-0.2654997791677713,-0.0811575576663017,-0.1047238335013389,-0.0023326722439378
1783204484089149400,4.6261494140625,0.858176918259263,-0.4067496399410069,-0.2951882304668426,-0.0093749640509486,-0.0805732682347297,0.1182273626327514
1783204484099087400,4.63608740234375,0.8039981688261032,-0.3258279911413788,-0.279127907025814,0.0679850727319717,-0.0304954573512077,0.2323685735464096
1783204484109025500,4.646025634765625,0.6364578286290168,-0.1943338737722486,-0.2064689135283231,0.1422083377838134,0.0421552173793315,0.315987229347229
1783204484118962200,4.655962158203125,0.3525239826261997,-0.0339253582164645,-0.1066033486753702,0.1927623301744461,0.1020808741450309,0.3569597005844116
1783204484128900400,4.665900390625,0.0149836341202259,0.1722903112031519,-0.0609808306634426,0.2160052508115768,0.1425230205059051,0.3500309884548187
1783204484138837200,4.675837158203125,-0.2989402764767408,0.3619812545403837,-0.0392716876804828,0.2181751877069473,0.1607222557067871,0.2950069010257721
1783204484148775400,4.685775390625,-0.5480319416791201,0.5015862707160413,-0.0742214205086231,0.2121108770370483,0.1524401605129242,0.2223512530326843
1783204484158712300,4.69571240234375,-0.6894272022724152,0.5607506996072829,-0.1323439391314983,0.188631922006607,0.118662491440773,0.1230081394314765
1783204484168650500,4.705650390625,-0.7759393645554781,0.5499983463812619,-0.1502729790538549,0.1528954207897186,0.0740405321121215,0.0198298376053571
1783204484178587400,4.71558740234375,-0.774011026841402,0.5182644337944686,-0.1383838038176298,0.0999994501471519,0.0243057310581207,-0.0867149829864502
1783204484188525300,4.725525390625,-0.7079577152192592,0.4440471049390733,-0.0691840108633041,0.040553942322731,-0.0272383410483598,-0.1797679215669632
1783204484198462500,4.73546240234375,-0.5684662424206733,0.3215587893895805,0.0235498024135828,-0.0306786894798278,-0.0767273306846618,-0.2517822086811065
1783204484208400400,4.745400390625,-0.3601186755388975,0.170896080365777,0.1156219369113445,-0.0852751955389976,-0.1081092730164527,-0.2850633263587951
1783204484218337300,4.755337158203125,-0.1293739834100007,-0.0404806250788271,0.1599625984191894,-0.1116588711738586,-0.1211148202419281,-0.2895763218402862
1783204484228275200,4.765275146484375,0.1004424879580736,-0.2436533466059714,0.1952618753373622,-0.1192380636930465,-0.1119445413351059,-0.2652934789657593
1783204484238212400,4.77521240234375,0.2997843260854482,-0.3980536347229033,0.1843377457410097,-0.1117279529571533,-0.0888629257678985,-0.2212884724140167
1783204484248150300,4.785150390625,0.4580594098091125,-0.5111486104398966,0.202377260300517,-0.0993782877922058,-0.0669225826859474,-0.1606010198593139
1783204484258087400,4.79508740234375,0.572957708621025,-0.5860808095663785,0.257077987781167,-0.0819478929042816,-0.0321198664605617,-0.091130331158638
1783204484268024800,4.80502490234375,0.6364362013190984,-0.5896862867124378,0.2935048074245452,-0.0577375255525112,-0.0019419272430241,-0.0171663798391819
1783204484277961700,4.814961669921875,0.6653004767537116,-0.5938540739163756,0.2188911727279424,-0.0333067514002323,0.0245884824544191,0.066318392753601
1783204484287899600,4.824899658203125,0.647282004982233,-0.5927867369458079,0.2058312001466751,-0.0114573799073696,0.0445286333560943,0.1384146958589553
1783204484297836800,4.8348369140625,0.555486349338293,-0.5390462327994406,0.1529892522752285,0.0034581869840621,0.0554710328578949,0.1928430497646331
1783204484307774700,4.844774658203125,0.4164917201459407,-0.3974837989456951,0.1060328553110361,0.0180128067731857,0.0595378503203392,0.2302273660898208
1783204484317713000,4.854712890625,0.2558160050213336,-0.2699342544838786,0.0599473959624767,0.0153251439332962,0.0629251226782798,0.24220971763134
1783204484327649800,4.86464990234375,0.0639963790923357,-0.1016167924344539,0.0744014532506466,0.0088636241853237,0.0640450417995452,0.2369515597820282
1783204484337587700,4.874587646484375,-0.082446228018403,0.0377026847980916,0.0570323852986097,-0.0017615901306271,0.0665928870439529,0.2161895632743835
1783204484347524900,4.88452490234375,-0.1917681880027055,0.1753711799532175,0.0300794964432716,-0.0150054274126887,0.0607060827314853,0.186639592051506
1783204484357462800,4.894462890625,-0.272025966066122,0.2765020155016333,-0.0347504108637571,-0.033401746302843,0.044017918407917,0.1490999460220337
1783204484367400000,4.90439990234375,-0.3363450012415647,0.3714297586262226,-0.0846843623340129,-0.0463816300034523,0.0323783978819847,0.1124000623822212
1783204484377337900,4.914337890625,-0.3701543318629264,0.4323151660911739,-0.1573404332220554,-0.0548289120197296,0.0192111991345882,0.0708057433366775
1783204484387274800,4.924274658203125,-0.3598287526816129,0.4627512208871543,-0.222303026998043,-0.0548226609826087,0.0062938202172517,0.0365197211503982
1783204484397212700,4.934212646484375,-0.3326034766256809,0.488361024570465,-0.2927396682709455,-0.0486459881067276,-0.0030765119008719,0.0043769660405814
1783204484407149800,4.94414990234375,-0.2815735466122627,0.4852943304762244,-0.3456511742472648,-0.0336571708321571,-0.0039330190047621,-0.0165803395211696
1783204484417087700,4.954087646484375,-0.2229787343025207,0.4544771674081683,-0.370835884386301,-0.0100746117532253,-0.0052933609113097,-0.0296535305678844
1783204484427025000,4.96402490234375,-0.1561690513551235,0.4225989509798586,-0.4036030124783515,0.0113582778722047,-0.004487024154514,-0.0377393364906311
1783204484436962800,4.973962890625,-0.082847210034728,0.4031435052078217,-0.4223188188642263,0.0345283113420009,-0.010131862014532,-0.0358152016997337
1783204484446900000,4.98389990234375,-0.0412216527044773,0.3867157366938888,-0.3897802388310432,0.0482872687280178,-0.0112645030021667,-0.0314180552959442
1783204484456838000,4.993837890625,0.0049321957051753,0.351799760004878,-0.3522352288126945,0.0597894601523876,-0.0123417526483535,-0.026304256170988
1783204484466775000,5.003775146484375,0.0241460147410631,0.3493958406683057,-0.317336349388957,0.0733841881155967,-0.0106915719807147,-0.0240659061819314
1783204484476713000,5.013712890625,-0.0045861587464809,0.3254126152735203,-0.2699649418830871,0.0810018926858902,-0.0129126477986574,-0.0229511074721813
1783204484486651000,5.02365087890625,-0.0518137738674879,0.2917294683150947,-0.2307639813512563,0.0804467648267746,-0.0187617652118206,-0.0318106897175312
1783204484496587800,5.033587890625,-0.0983668507277965,0.268970231757313,-0.1923246528416872,0.079450212419033,-0.025028983131051,-0.0493494682013988
1783204484506525700,5.043525634765625,-0.1343289754688739,0.2667423996400088,-0.1409931095331907,0.0755249038338661,-0.0314055196940898,-0.06815767288208
1783204484516462800,5.053462890625,-0.1676250958710908,0.2218203580476343,-0.117858902183175,0.0743357986211776,-0.0367395654320716,-0.078395664691925
1783204484526400800,5.06340087890625,-0.1857896981149912,0.1448627175081521,-0.0904027399808168,0.0750764906406402,-0.0431182496249675,-0.0985384359955787
1783204484536338000,5.073337890625,-0.1775222205072641,0.0901423354789614,-0.0481447299659252,0.0761180445551872,-0.0437821745872497,-0.1067263260483741
1783204484546275800,5.08327587890625,-0.1532972953110933,0.0397994378816336,0.0232727390378713,0.0810101702809333,-0.0355690829455852,-0.1141302511096
1783204484556213000,5.093212890625,-0.1198562134802341,-0.0358840910688042,0.106570030927658,0.0856438055634498,-0.0226764529943466,-0.1137566119432449
1783204484566151000,5.10315087890625,-0.075323828792572,-0.0785126148965209,0.1769973198503255,0.0810828208923339,-0.0097812786698341,-0.1175932139158248
1783204484576088000,5.113088134765625,-0.017051672565937,-0.1237006139487028,0.2509960375189781,0.0783269852399826,0.0012862854637205,-0.1125513166189193
1783204484586026000,5.12302587890625,0.0257101953178644,-0.167448058803752,0.2804705538064241,0.0688774660229682,0.0115151349455118,-0.106990061700344
1783204484595963000,5.132962890625,0.0576134000569582,-0.2129516996763646,0.3313841639637946,0.0558982864022254,0.0170502495020627,-0.0916760861873626
1783204484605900800,5.14290087890625,0.0986748937636613,-0.2639567875094711,0.3369365373939275,0.039351288229227,0.0168776419013738,-0.0769726037979126
1783204484615837700,5.152837646484375,0.1224105741381645,-0.2793199224665761,0.3525415182828903,0.0214891992509365,0.0150389950722455,-0.060662604868412
1783204484625775900,5.16277587890625,0.1392109022915363,-0.2948351792454719,0.3394634255230426,0.0043486021459102,0.0215093437582254,-0.0441477298736572
1783204484635712800,5.172712646484375,0.1388695415079593,-0.3041543578632176,0.3678063074320554,-0.0170482993125915,0.0293624736368656,-0.0332751087844371
1783204484645651000,5.18265087890625,0.1368330672442912,-0.2807613534465432,0.3662193305015563,-0.0261902548372745,0.0364767797291278,-0.0184623226523399
1783204484655588900,5.1925888671875,0.1181774666130542,-0.2925748330980539,0.3219289378762245,-0.0413708053529262,0.0431373454630374,-0.0111378319561481
1783204484665526000,5.202526123046875,0.1007581297785043,-0.296894888254255,0.2720347338944673,-0.0487218052148819,0.0430316813290119,-0.0100550074130296
1783204484675464000,5.2124638671875,0.0847556740045547,-0.2619669288665056,0.2053255887120962,-0.0480461604893207,0.0482751801609993,-0.0078006414696574
1783204484685400800,5.22240087890625,0.0951361982434988,-0.2488444124430417,0.1318997024953365,-0.0497349761426448,0.0542962700128555,-0.0058284420520067
1783204484695338800,5.2323388671875,0.1199976677775382,-0.2395641045309603,0.0571025279253721,-0.0530695207417011,0.0503225661814212,-0.0017900245729833
1783204484705275600,5.242275634765625,0.1513011530578136,-0.2288187655676156,0.0225339033693075,-0.0591739788651466,0.047438733279705,0.0090769464150071
1783204484715213800,5.2522138671875,0.1849275283277034,-0.2110856135435402,-0.0197661922216415,-0.0673480182886123,0.0374417603015899,0.0153372390195727
1783204484725150700,5.262150634765625,0.2146305926740169,-0.1861125733938068,-0.058615270575881,-0.0706619918346405,0.0306234341114759,0.0251403264701366
1783204484735089000,5.2720888671875,0.2348912904143333,-0.1628188646331429,-0.0970446622133255,-0.0754261165857315,0.0263029895722866,0.0353772528469562
1783204484745025800,5.28202587890625,0.2336760694056749,-0.1461763573899865,-0.1266156246125698,-0.0779370367527008,0.0406254306435585,0.0435592532157897
1783204484754964000,5.2919638671875,0.2154676280200481,-0.0949757469847798,-0.1338876614421606,-0.0642100349068641,0.0416494160890579,0.0557291023433208
1783204484764900900,5.30190087890625,0.1941232266962528,-0.0617076836332678,-0.186970432332158,-0.0565374158322811,0.0363275185227394,0.0670531243085861
1783204484774839000,5.311839111328125,0.2031295399725437,-0.0197019678790122,-0.29245149897933,-0.0401477888226509,0.0229746922850608,0.0795590579509735
1783204484784775700,5.321775634765625,0.1501484758913517,-0.0253584592707455,-0.3233949187755584,-0.0296815149486064,0.0102925635874271,0.0878608748316764
1783204484794713900,5.3317138671875,0.0925841756731271,0.0325300314005464,-0.3567056522250175,-0.0196616351604461,0.0013438095338642,0.0900848805904388
1783204484804651800,5.34165185546875,0.0388093308657407,0.0736547265365719,-0.3428746952712536,-0.0045596798881888,-0.0023702471517026,0.0873632878065109
1783204484814588700,5.351588623046875,-0.0192559046119451,0.1169689676061272,-0.3081821520745754,0.0089076589792966,-0.0049876016564667,0.0785010829567909
1783204484824526800,5.36152685546875,-0.056962827193737,0.1648431370023638,-0.2675204713404178,0.0119153410196304,-0.0102111306041479,0.0706562772393226
1783204484834463700,5.371463623046875,-0.0982692355722189,0.1980655345812439,-0.2309621342718601,0.0156514905393123,-0.015121467411518,0.0657643154263496
1783204484844402000,5.38140185546875,-0.1210217501282691,0.2029139975257217,-0.195001178574562,0.0182847380638122,-0.0232298597693443,0.0542406514286994
1783204484854338800,5.3913388671875,-0.1338981828361749,0.2375545182742178,-0.1565624345868825,0.0174375865608453,-0.0229808539152145,0.0382084213197231
1783204484864277000,5.401277099609375,-0.1434369955539703,0.2771934318318962,-0.0898573810577392,0.0110089592635631,-0.0229287967085838,0.0267543978989124
1783204484874214000,5.4112138671875,-0.1564391004681587,0.2659169816665351,-0.0245791454613208,0.0072056986391544,-0.0238675605505704,0.0197279136627912
1783204484884151800,5.42115185546875,-0.1587351024508476,0.247432207557559,-0.0037046997368335,-0.0008606007322669,-0.0239957217127084,0.0086715510115027
1783204484894088700,5.431088623046875,-0.1542658480823039,0.2228217901751399,0.001008884781599,-0.0054612103849649,-0.0265563502907753,0.0009260131046175
1783204484904026600,5.441026611328125,-0.1620604474812746,0.2244168042816221,0.0237210673272609,-0.0050244741141796,-0.0245456285774707,-0.0063328733667731
1783204484913963800,5.4509638671875,-0.1708165853887796,0.2066393016591668,0.0353320101439952,-0.0033735800534486,-0.0135896513238549,-0.0107260234653949
1783204484923901700,5.460901611328125,-0.1837882951647043,0.1910695382140576,0.0368266326159238,0.0015227803960442,-0.0081885568797588,-0.0207770429551601
1783204484933838800,5.4708388671875,-0.1794067190796136,0.1728724950052797,0.0368336468786001,-0.0005222614854574,-0.0029107038863003,-0.0321788340806961
1783204484943776800,5.48077685546875,-0.1655950513482093,0.1766024753138423,0.0712029494702815,-0.0053186509758234,0.0026887061540037,-0.0398651324212551
1783204484953715000,5.49071484375,-0.1397352184265851,0.1612456239670515,0.072535659378767,-0.005617456510663,0.0050240322016179,-0.0448345877230167
1783204484963651800,5.50065185546875,-0.1065355441361665,0.1228115561544895,0.0572673630982637,-0.0087745143100619,0.006311465986073,-0.0495004616677761
1783204484973590000,5.510590087890625,-0.0649240153312683,0.083510203988105,0.0526186605095863,-0.0078035248443484,0.0092553244903683,-0.0477571561932563
1783204484983527000,5.52052685546875,-0.0246785141825675,0.0524621547736227,0.043835050073266,-0.0106262722983956,0.0143265714868903,-0.042166844010353
1783204484993464800,5.53046484375,0.0013373860836029,0.0264371944181621,0.0332522812604904,-0.0101136127486824,0.0180794987827539,-0.0372178927063941
1783204485003401700,5.540401611328125,0.0218172795325517,-0.0081223700486123,0.013030746486783,-0.0105401063337922,0.0191248171031475,-0.0343484468758106
1783204485013339600,5.550339599609375,0.0385188234865665,-0.0302520765312016,-0.011672902137041,-0.0113241402432322,0.0183429140597581,-0.0325074009597301
1783204485023276800,5.56027685546875,0.039004561176896,-0.0257584183737635,-0.0176560681998729,-0.0135557390749454,0.0192232467234134,-0.0343941710889339
1783204485033214700,5.570214599609375,0.0571346766293048,-0.0284687002457678,-0.0419224944502115,-0.0186192076653242,0.0174197535961866,-0.031904648989439
1783204485043152000,5.58015185546875,0.0587742605298757,-0.0548472963444888,-0.0760614954173564,-0.0186289474368095,0.0081653650850057,-0.0287186354398727
1783204485053089800,5.59008984375,0.0867822113960981,-0.0699766225457191,-0.1217939035445451,-0.0144850714132189,-0.0007160101085901,-0.0258554704487323
1783204485063028000,5.600028076171875,0.0994172365635633,-0.075159212815389,-0.1421598152250051,-0.0084395399317145,-0.0022405819036066,-0.0187004581093788
1783204485072964900,5.60996484375,0.110766313573718,-0.0853267518907785,-0.1458212603420019,-0.0004942649975419,-0.0015345779247581,-0.0131222009658813
1783204485082902800,5.61990283203125,0.1172059912323951,-0.0876425545524805,-0.131219903537631,0.0107068577781319,0.0032041287049651,-0.006467749364674
1783204485092840000,5.62983984375,0.118336456567049,-0.0820103208191692,-0.1361181969732046,0.0121034197509288,0.0024832112248986,0.0009427627082914
1783204485102777900,5.63977783203125,0.1291185473442077,-0.0649053836960345,-0.1079512561529874,0.0160416346043348,0.0048167742788791,0.0054043643176555
1783204485112714800,5.64971484375,0.1258510699808597,-0.0529192508913576,-0.1044318498551845,0.0156083386391401,0.0041211564093828,0.0117520093917846
1783204485122652700,5.659652587890625,0.1145581070721149,-0.071228741498664,-0.1052472578912973,0.0147489141672849,-0.0042224922217428,0.0170536544173955
1783204485132589800,5.66958984375,0.0968307272017002,-0.0675432579189539,-0.0787117176651954,0.0092396326363086,-0.0036078351549804,0.0211349502205848
1783204485142527700,5.67952783203125,0.081163202470541,-0.0562388968333601,-0.0623024346560239,0.00501951854676,-0.0072392206639051,0.0238742865622043
1783204485152465000,5.68946484375,0.0590676905184984,-0.0423244993798434,-0.0470855763018131,0.0071439226157963,-0.0137533126398921,0.0227568242698907
1783204485162402800,5.69940283203125,0.0285153158664703,-0.0393079280376434,-0.0289759191155433,0.0020858580246567,-0.0170527566224336,0.0267405733466148
1783204485172340000,5.709340087890625,0.0031774609923362,-0.0188411863312125,-0.0080319152861833,0.0025401934981346,-0.0143890641629695,0.0252777002751827
1783204485182278000,5.71927783203125,-0.0154448218911886,0.0087875559590756,0.0220756382077932,0.0012343153357505,-0.0073432018980383,0.0209154598414897
1783204485192215800,5.7292158203125,-0.0247743757724761,0.0110724520258605,0.043844402423501,0.0026476550847291,-0.0005201832391321,0.0220662113279104
1783204485202152700,5.739152587890625,-0.0455249028563499,0.008707622590661,0.0543435846060514,0.0036362400278449,-0.0006339107640087,0.0173919238150119
1783204485212090600,5.749090576171875,-0.0624088176399469,0.0245063724860548,0.0660766924977302,0.0030538067221641,0.005623985081911,0.0143854795023798
1783204485222027800,5.75902783203125,-0.0749725311368703,0.0347166547246277,0.0712421124368906,-0.0002683624625205,0.0094131240621209,0.0115831643342971
1783204485231965700,5.768965576171875,-0.0975420903414487,0.034070758036524,0.0853764362514019,-0.0051869545131921,0.0145679377019405,0.0068014590069651
1783204485241902800,5.77890283203125,-0.0985264252036809,0.0505753181137144,0.0797907450735568,-0.008376401849091,0.0119222607463598,0.0066702933982014
1783204485251840800,5.7888408203125,-0.0957657283186912,0.0586336830154061,0.0822007288247346,-0.01743621006608,0.0099288839846849,-0.0010696514509618
1783204485261779000,5.798779052734375,-0.0896615662246942,0.0612641776494681,0.1021247419565916,-0.0318831130862236,0.0075603127479553,-0.0095494221895933
1783204485271716900,5.808716796875,-0.072878773728013,0.0692950700223445,0.0916208835989236,-0.037167090922594,0.0089289108291268,-0.0098338481038808
1783204485281653800,5.81865380859375,-0.0527817421168088,0.0640611148916184,0.0533224248647689,-0.0402929335832595,0.0072289882227778,-0.0111512681469321
1783204485291592000,5.828592041015625,-0.0376508084803819,0.044370179863274,0.0158832133084535,-0.0399896055459976,0.0024755122140049,-0.011412258259952
1783204485301529900,5.83852978515625,-0.0159685535043478,0.0402710739813745,-0.0245434896260499,-0.0389422997832298,0.0092342281714081,-0.005894711241126
1783204485311467000,5.848467041015625,0.00037292496562,0.0416619438178837,-0.0422153399169445,-0.0360482409596443,0.0118997860699892,-0.0053841834887862
1783204485321405000,5.858405029296875,0.0117044663190841,0.0452643522240221,-0.0812426974475383,-0.0224624145776033,0.0143190352246165,-0.0049577197059988
1783204485331341800,5.868341796875,0.0134703069478273,0.0392414386726915,-0.1106844805091619,-0.0188346561044454,0.0166991017758846,-0.0069590853527188
1783204485341279700,5.87827978515625,0.0181201785802841,0.052408524890244,-0.1080032786011695,-0.0168146174401044,0.0148921590298414,-0.0046233818866312
1783204485351217000,5.888216796875,0.024466917258501,0.0490241431489586,-0.1221943010389804,-0.015168784186244,0.0105261728167533,-0.0033157696016132
1783204485361154800,5.89815478515625,0.0312578925728797,0.0320190862037241,-0.1408370421886444,-0.014942592009902,0.0004378575831651,-0.0035294205881655
1783204485371092000,5.908092041015625,0.0327647900044918,0.0096519177034497,-0.1611339802861213,-0.0147788077592849,-0.0059180427342653,-0.0017445699777454
1783204485381030000,5.91802978515625,0.0419534741103649,0.0371262000843882,-0.155106975081563,-0.0113067980855703,-0.007465036585927,-0.001399662811309
1783204485390966800,5.927966796875,0.0511608629167079,0.0276530730139464,-0.141246207511425,-0.0079935602843761,-0.0108150262385606,-0.0027549455408006
1783204485400905000,5.937905029296875,0.0452186133861541,0.0160525785259902,-0.1431196001678705,0.0019388487562537,-0.0143921207636594,0.0062936581671237
1783204485410843000,5.9478427734375,0.0441974536448717,0.0080699092090129,-0.1350643040060997,0.0085512110963463,-0.0162696484476327,0.0068028541281819
1783204485420780000,5.957780029296875,0.0535176551759243,0.0283045957252383,-0.1195557692289352,0.0141423121094703,-0.0162100158631801,0.0058462657034397
1783204485430718000,5.967718017578125,0.0350946942567825,0.0358501157339662,-0.0731219348341226,0.0182987079024314,-0.0077273147180676,0.0081954402849078
1783204485440654800,5.97765478515625,0.0010813654959201,0.0170178433615714,-0.0423901119619607,0.031461052596569,-0.0007354305125772,0.0126053495332598
1783204485450592800,5.9875927734375,-0.0160386961311101,0.0140280869610607,-0.03629296413064,0.0319835692644119,0.0025634272024035,0.0080042062327265
1783204485460530000,5.997530029296875,-0.0375800813317298,0.0374244523786008,0.0055003509819507,0.0209594145417213,0.0003352868370711,0.0023854342289268
1783204485470467800,6.0074677734375,-0.0325736513465642,0.041944852412492,0.0450035093307495,0.0134343868121504,-0.0001842956990003,0.0022165896371006
1783204485480404700,6.01740478515625,-0.0357435135543346,0.0249709212578833,0.0611947656750678,0.0061249262653291,-0.0057765110395848,-0.0012837881222367
1783204485490343000,6.027343017578125,-0.0420212786495685,0.0162405023135244,0.0702571930527687,-0.0017279367893934,-0.0078971870243549,-0.0036042004358023
1783204485500279800,6.03727978515625,-0.0441693965941667,0.0347697731513529,0.0816150378912687,-0.0094556044787168,-0.0063908090814948,-0.0095255998894572
1783204485510218000,6.047218017578125,-0.0434913512021303,0.0324739903643727,0.0905804346352815,-0.0165553260594606,-0.0074201207607984,-0.0113812908530235
1783204485520156000,6.057156005859375,-0.0295458279579877,0.0133227151706814,0.0873392607569694,-0.0179611258208751,-0.00613155355677,-0.0106684621423482
1783204485530093000,6.067093017578125,-0.0204921684086322,0.0089078213378787,0.0799170018017292,-0.0202764794230461,-0.0015184259973466,-0.0107954954728484
1783204485540031000,6.077031005859375,-0.0132797528117895,0.0064155661307275,0.0618774872422218,-0.0155750466510653,-0.0006013754755258,-0.0087736342102289
1783204485549968000,6.0869677734375,-0.0031938276052474,-0.012223229496181,0.0480102899312973,-0.0093919867649674,0.0076887784525752,-0.0032430479768663
1783204485559905800,6.09690576171875,-0.0124555769473314,-0.0227172971121966,0.0384270535498857,-0.0069578038528561,0.0115748411044478,-0.0050806091167032
1783204485569842700,6.1068427734375,-0.0089162969052791,-0.0239861480042338,0.0272486569315195,-0.0061308937147259,0.0129514290019869,-0.00600818824023
1783204485579780900,6.11678076171875,-0.0034685528934001,-0.0087954470045864,0.0136702134341001,-0.009836790151894,0.0076822680421173,-0.0058066612109541
1783204485589717800,6.1267177734375,0.0079050740361213,-0.0013346096046268,0.0045446576923131,-0.0120112607255578,0.0044537177309393,-0.0084192231297492
1783204485599656000,6.136656005859375,0.0238689513653516,-0.0221481189221143,-0.0016021744996309,-0.0177919566631317,0.0036728661507368,-0.0094225462526083
1783204485609592800,6.1465927734375,0.0519295092016458,-0.0192450909569859,-0.0199690213173627,-0.0151706067845225,-0.0014736927114427,-0.0038770455867052
1783204485619531000,6.156531005859375,0.067304188466072,-0.0212232591621577,-0.0498883587628602,-0.014118711464107,-0.000279780011624,-0.0010905577801167
1783204485629467600,6.166467529296875,0.0895265416681766,-0.0415146443016827,-0.0734919371902942,-0.0104944156482815,-0.0032406821846961,0.0071726981550455
1783204485639405800,6.17640576171875,0.1044213284611702,-0.0456004523105919,-0.0770247874915599,-0.0043124072253704,-0.0028271824121475,0.0100224064663052
1783204485649343700,6.18634375,0.0984673884928226,-0.0379180811144411,-0.086232176297903,0.0047609824687242,0.000702304765582,0.0156110497191548
1783204485659281000,6.196281005859375,0.0837841986238956,-0.0270735926255583,-0.1012719245195388,0.0098375584930181,0.0013848249800503,0.0237294714897871
1783204485669218800,6.20621875,0.0727875883132219,-0.0062841948360204,-0.107215343093872,0.0177876278758049,-0.0070406170561909,0.0308960359543561
1783204485679155700,6.21615576171875,0.046964580270648,0.0088685853060334,-0.0931318726837635,0.0187889747321605,-0.0096681024879217,0.0320615880191326
1783204485689094000,6.226093994140625,0.0136556003868579,0.0161827077116817,-0.0815635999649763,0.0214569307863712,-0.0128641612827777,0.0285779107362031
1783204485699030800,6.23603076171875,-0.0113847328454256,0.0330925606541335,-0.0420177715182304,0.0208048708736896,-0.0117148030549287,0.0256026424467563
1783204485708969000,6.245968994140625,-0.038044191712141,0.0502758967757225,0.0124292734622955,0.0177800524979829,-0.0090122260153293,0.0199716556817293
1783204485718905900,6.25590576171875,-0.061893853855133,0.0708389384634792,0.0259825825184583,0.0194730162620544,-0.0183649379760026,0.0139003843069076
1783204485728844000,6.265843994140625,-0.0595090045452117,0.0812174168758094,-0.0054839843690395,0.0187662150710821,-0.0217490158975124,0.0102715604007244
1783204485738780700,6.27578076171875,-0.0475812508642673,0.0798854376196861,-0.0071849430680274,0.0157084614038467,-0.0214306749403476,0.0088897217065095
1783204485748718800,6.28571875,-0.0383428823977708,0.068751464664936,0.0193067580163478,0.018518628552556,-0.0188644528388977,0.0136461276561021
1783204485758655700,6.29565576171875,-0.0214379248261451,0.0357036199353635,0.0291430923759937,0.018682163208723,-0.0129637289792299,0.0171043053269386
1783204485768593700,6.30559375,-0.0031570027261972,0.0444552277982234,0.0350882645159959,0.0206236075609922,-0.0071460544131696,0.0161564853042364
1783204485778530800,6.31553076171875,-0.027607553371787,0.0541878095224499,0.0737970576167106,0.0174410436302423,0.0025237982627004,0.0166737083345651
1783204485788468700,6.32546875,-0.0500070167064666,0.0477592377796769,0.0742798726975917,0.0150303496047854,0.0030961115844547,0.0121271610260009
1783204485798406000,6.335406005859375,-0.0636222850829362,0.0626934798002243,0.053570262145996,0.0079599693417549,-0.0023549408651888,0.0054017179645597
1783204485808343800,6.34534375,-0.0785959823310375,0.0609410831749439,0.0477063385486602,0.0035646883770823,-0.0082471836358308,-0.0007656307425349
1783204485818281000,6.355281005859375,-0.0858119050592184,0.0687400664880871,0.0573714079946279,-0.0011706370860338,-0.0076480596326291,-0.0110447760671377
1783204485828219000,6.365218994140625,-0.0822328775286674,0.0614808891400694,0.0531143350720405,-0.0076546352356672,-0.0121107175946235,-0.0188603550195693
1783204485838157000,6.375156982421875,-0.0751028795182705,0.0653004474282264,0.0478501309335231,-0.0074691362679004,-0.0056674745865166,-0.0213186517357826
1783204485848093700,6.38509375,-0.0492085598051547,0.0490192477781325,0.0427115990012884,-0.0086832698434591,-0.0074331504292786,-0.0243573188781738
1783204485858030800,6.39503076171875,-0.0229611888706684,0.0358088338755071,0.0499357050359249,-0.0111012794077396,-0.0053375260904431,-0.0222713090479373
1783204485867968800,6.40496875,0.0033276831179857,0.0157434395115822,0.0288689516097307,-0.0063033290207386,-0.0042008887976408,-0.0147686526179313
1783204485877906700,6.41490673828125,0.0223474408864974,-0.0006382979035377,0.0103290863126516,-0.0074087101966142,-0.0008678832091391,-0.0126163018867373
1783204485887843800,6.42484375,0.0407236400544643,-0.0066705638051033,0.0124082306742668,-0.0004895525053143,0.0050073163583874,-0.0104767177253961
1783204485897781800,6.43478173828125,0.0436181924521923,-0.001738075838983,0.0149210902780294,-0.0008855648338794,0.0045298114418983,-0.0084386011585593
1783204485907719000,6.444718994140625,0.04088087644279,-0.0193666715100407,0.0022311200529336,0.0031560491770505,0.0034147461410611,-0.0033980361185967
1783204485917656800,6.45465673828125,0.0329717107534408,-0.0052224838886409,-0.0180623109132051,0.0037356158718466,0.0012950249947607,-0.0002297945320606
1783204485927594000,6.464593994140625,0.0364145446836948,-0.0041153994295746,-0.0071165540069341,0.00466825440526,0.0027443172875791,-0.0042849900200963
1783204485937532000,6.474531982421875,0.0197211840361356,0.0031828678198158,0.0138508306980133,0.0032360851764678,0.0066083911806344,-0.0055371327325701
1783204485947468800,6.48446875,0.0124327805936336,0.0127465227179229,0.0232499426841735,0.0019106296822428,0.0038128709420561,-0.0013232131022959
1783204485957406700,6.49440673828125,0.0155740012288093,-0.0077910922676324,0.0105880295097827,-0.0005299728363752,0.0047485851682722,-0.0022439211606979
1783204485967343900,6.50434375,0.0197884040534496,-0.0049155368313193,-0.0019809446841478,-0.0038850232958793,0.0012116408906877,-0.0025014488492161
1783204485977281800,6.51428173828125,0.0203495450675487,-0.0026750644281506,0.0083329440593719,-0.0025393133983016,-0.0036257593892514,0.0014894728083163
1783204485987219000,6.524218994140625,0.0053922144323587,-0.0228659118026494,-0.0029816461592912,0.000298018567264,-0.0028963196091353,0.0005533716175705
1783204485997156900,6.534156982421875,0.0021212299376726,-0.0109388157088309,-0.0013356325179338,0.0021838685497641,-0.0009734244085848,-0.0004889131523668
1783204486007094000,6.544093994140625,-0.0066571198016405,0.0027693185828626,0.0047346273064613,0.0023764157667756,0.0006545656360685,-0.0047017675824463
1783204486017032000,6.554031982421875,-0.0089192195147275,0.0052525137007236,0.0130178870052099,0.0031910883262753,0.0006310949102044,-0.001228830544278
1783204486026968800,6.56396875,-0.0105833533346652,-0.0017155717462301,0.017258593314886,0.0014871982857584,0.0022982337977737,-0.0023177969269454
1783204486036907000,6.573906982421875,-0.001126373681426,0.0155212481282651,0.0301017082750797,0.0019994126632809,0.0016938182525336,-0.0053188600577414
1783204486046843600,6.58384375,0.0087216511160135,0.0200596952755004,0.0392687650710344,3.0537135899e-05,-0.0015560369938611,-0.00018375297077
1783204486056781800,6.59378173828125,0.0097504096418619,-0.0047753977082669,0.0304950915068387,-0.002202651463449,-0.0017852215096354,0.0001160898245871
1783204486066718700,6.60371875,0.0132429279327392,0.0029981589026749,0.0311240370601415,0.0005912706255912,-0.0028981571085751,-0.0002604811452329
1783204486076657000,6.613656982421875,0.0004383914172649,-2.33078103512e-05,0.0336269597917795,-0.0007280316203832,0.0011981171555817,0.0024541460443288
1783204486086593800,6.62359375,-0.0077805708736181,0.0027193419612944,0.0354161812961101,-0.0019621402025222,0.0057979286648333,0.0005803459789603
1783204486096532000,6.633531982421875,-0.0204904148429632,0.0178682496458292,0.0453296725451946,0.001377522945404,0.0102497600018978,0.0003114433493465
1783204486106468900,6.64346875,-0.0211105925679206,0.0295834565546363,0.0557283169627189,-0.0008672559633851,0.008376226760447,-0.0035674506798386
1783204486116407000,6.653406982421875,-0.0206762928038835,0.0198894532751292,0.0231307002186775,-0.0005199247971177,0.0038962175603955,-0.0028419455047696
1783204486126343700,6.66334375,-0.0165957454919815,0.0044388592302799,0.0164244805783033,-0.0065826103091239,-0.0002149040810763,0.0005170993972569
1783204486136281900,6.67328173828125,-0.0108779523670673,0.0061054772682487,0.023840309792757,-0.0093913115561008,-0.0013940380886197,-0.0035253413952887
1783204486146218800,6.68321875,-0.0036918402552604,0.0087485391229391,0.0320738851308822,-0.0045739188790321,0.0008448814041912,-0.0048175072297453
1783204486156156700,6.69315673828125,-0.0075590370774269,-0.0005040039993822,0.0316419234544038,-0.0063428664579987,-0.0009202831424772,-0.0050957021303474
1783204486166093800,6.70309375,-0.0105535427182912,-1.73895262181e-05,0.0185071320712566,-0.0036765085533261,0.001621704082936,-0.002273017540574
1783204486176031700,6.71303173828125,-0.0149433021098375,0.0105050274014472,0.0247936649948358,-0.0039049331098794,0.0049032722599804,-0.0044774212874472
1783204486185969000,6.722968994140625,-0.0082417586445808,0.0113669779930263,0.0318535203784704,-0.0018987730145454,0.0057650711387395,-0.0060990201309323
1783204486195906800,6.73290673828125,0.0016302315503358,0.0038995647218078,0.0132692314177751,-0.0010424200445413,0.0051812538877129,-0.0014785723760724
1783204486205844000,6.742843994140625,0.0159434190630912,0.0058544981818646,0.0221574712723493,-0.0008935490623116,0.005223864223808,0.0009470346849411
1783204486215782000,6.752781982421875,0.0256178408592939,0.0103185649186372,0.0190980837017297,-0.0053476365283131,0.0025687476154416,0.0027457198593765
1783204486225718800,6.76271875,0.0295259542137384,0.0138488579366356,0.0165437230437993,-0.0061836028471589,0.0014877705834805,0.0096441060304641
1783204486235656700,6.77265673828125,0.0178799400836229,0.0066828387647867,0.0169517193228006,-0.0050307353958487,0.0010875677689909,0.011832607910037
1783204486245593900,6.78259375,0.0037906244546175,0.0078122811861336,0.0181447284996509,-0.0071868309751152,0.0063936500810086,0.0103537542745471
1783204486255530800,6.79253076171875,-0.0061538464546203,0.0353499841921031,0.0291261412411928,-0.0079481434077024,0.0072460551746189,0.0041067455895245
1783204486265467400,6.80246728515625,-0.0187812728375196,0.0594032060831785,0.0431055667549371,-0.0134329237043857,0.0058343135751783,-0.0023048147559165
1783204486275404500,6.812404541015625,-0.0209720608800649,0.0511073791638016,0.0294657484591007,-0.0167247969657182,0.0048833186738193,-0.009029135107994
1783204486285342500,6.822342529296875,-0.0151209967643022,0.0472424473639577,0.0104284550338983,-0.0219011828303337,0.0013469071127474,-0.0138310808688402
1783204486295279600,6.832279541015625,-0.0049158290922641,0.0445198174670338,-0.0136959323972463,-0.0222110711038112,-0.0076997284777462,-0.0115324547514319
1783204486305217300,6.84221728515625,0.0110439565837383,0.0003982055373489,-0.0415349564373493,-0.021236352622509,-0.013112336397171,-0.0091081783175468
1783204486315154400,6.852154541015625,0.0365180050581693,-0.0156237586546689,-0.0722831459224224,-0.0192582868039608,-0.0179835427552461,-0.0051837898790836
1783204486325092400,6.86209228515625,0.0450017557650804,-0.0094432433888316,-0.0629208588153123,-0.017100591212511,-0.0179734211415052,-0.0026857447810471
1783204486335029200,6.872029296875,0.0441068527519702,-0.0015082126058638,-0.0452723894000053,-0.0162936318665742,-0.019019616767764,0.0056768404319882
1783204486344967400,6.881967529296875,0.0441378324121236,0.0043762423228472,-0.0290969151467084,-0.0360984951257705,-0.0445398911833763,0.0020333698485046
1783204486354904300,6.891904296875,0.0377168594539165,0.0057394204348325,0.0105085345327854,-0.0144541636109352,-0.0294502601027488,0.0048200944438576
1783204486364842500,6.901842529296875,0.0556681112080812,-0.0013005612045526,-0.103546883714199,-0.0012728478759527,-0.0301168486475944,0.0084148291498422
1783204486374779400,6.911779296875,0.0199117381721735,0.0152986914187669,-0.0644388621628284,-0.0129287056624889,-0.0400283373892307,0.0132703045383095
1783204486384717600,6.921717529296875,0.0016144494593143,0.0363300082053989,0.0286643689483404,-0.0041346810758113,-0.0309770517051219,0.0107877058908343
1783204486394654200,6.931654296875,0.0235714297235012,-0.0303051218926906,0.0218611186742782,0.0087218787521123,-0.0142266545444726,0.0181023851037025
1783204486404592400,6.94159228515625,-0.0074608373999595,0.0142520319100469,0.0440314494282007,0.0175718292593956,-0.0042760199867188,0.0115608610212802
1783204486414529300,6.951529296875,-0.0515922400712966,0.0431210565850138,0.0774900669157505,0.0163726489990949,0.0107788108289241,0.0118341725319623
1783204486424467200,6.96146728515625,-0.0360661696374416,0.0313613529473543,0.1085948147535324,-0.0041842926293611,-0.0065767434425652,0.0043906373903155
1783204486434404400,6.971404296875,-0.0477969394415616,0.0234342862751334,0.1313566816598176,-0.0008252207189798,-0.0024049580097198,0.0011306442320346
1783204486444341500,6.981341552734375,-0.0287666602790355,0.0169653094567358,0.0679454089790582,-0.0081808725371956,-0.0049924850463867,-0.0014425020199269
1783204486454279400,6.991279541015625,-0.0384855057388544,0.0342056364625692,0.0701379505872726,-0.0080750389024615,0.0017720181494951,-0.0101389912888407
1783204486464216600,7.001216552734375,-0.0630681583315134,0.021608751348406,0.0826958188652992,-0.0079999370500445,0.0034396897535771,-0.0118838949128985
1783204486474154500,7.011154541015625,-0.0237783504724502,0.0081781918890774,0.0509983658313751,-0.0091741262003779,0.0020836081821471,-0.0106945261359214
1783204486484091400,7.02109130859375,-0.0026934768676757,-0.006991393257305,0.0241875157952308,-0.0016328524798154,-0.0016195173375308,-0.0027918624691665
1783204486494029300,7.031029296875,0.0078220719277858,-0.0227126209370791,0.0191343240588903,0.0060005108825862,0.0042296727187931,-0.0013954569585621
1783204486503966200,7.04096630859375,0.0122276134103536,-0.0140182962194085,0.0069055416047573,0.0109507944434881,0.0096473414450883,0.0004767451900988
1783204486513904400,7.050904296875,0.0118844990611076,-0.018284429231286,0.0240519067168235,0.0143819227814674,0.0129065178334712,0.0041237953118979
1783204486523841300,7.06084130859375,0.0144844524264335,-0.0161621763803064,0.0264367560267448,0.0106401816010475,0.0119983796030282,0.002962923143059
1783204486533779500,7.070779541015625,0.0194219088286161,0.0062571606986224,0.0337076238125562,0.0035215513780713,0.0106217917054891,0.0033789090812206
1783204486543716400,7.08071630859375,0.0135141460895538,0.0109612467363476,0.0311363120198249,-8.250400424e-05,0.0035985030699521,0.0038809147663414
1783204486553653500,7.090653564453125,0.0210720141232013,0.0042836686685681,0.028232407271862,-0.0030183307826519,0.0024186454247683,0.0022665618453174
1783204486563591400,7.10059130859375,0.0222165079832077,0.0050697044797241,0.0153314246445894,-0.0072205327451229,0.0006998409517109,0.0017341959755867
1783204486573528300,7.1105283203125,0.0164028532683849,0.0126091600738465,0.0146580554276704,-0.0066275810822844,-0.0005867863073945,0.0016427133232355
1783204486583466200,7.12046630859375,0.0122796358585357,0.0029630875892937,0.0010030395627021,-0.0036608194932341,-0.003118120599538,0.0019875927828252
1783204486593403400,7.1304033203125,0.0113064069122076,-0.0142081927683204,-0.0135848732382059,0.0014900006353855,-0.0014186492189764,0.003819853067398
1783204486603341300,7.14034130859375,0.0061100073128938,-0.0035410336077213,-0.019213234513998,0.0050839371979236,-0.0025542210787534,0.0008054212667047
1783204486613278500,7.150278564453125,-0.001303483814001,0.0183060565412044,-0.0169587335854768,0.005884070880711,-0.000442752148956,0.0003678870853036
1783204486623216400,7.16021630859375,0.0011649521261453,-0.0020421002868562,0.0124497317284345,0.0078883655369281,0.0013852412812411,0.0053746299818158
1783204486633153500,7.170153564453125,-7.54033237695e-05,-0.0077631082821637,0.0220990190833807,0.0035353079438209,0.0002552201040089,0.0048637269064784
1783204486643091500,7.180091552734375,-0.001889174747467,-0.0069853288426995,0.0317331088691949,8.14544036984e-05,-0.0045917332172393,0.0066560348495841
1783204486653028600,7.190028564453125,0.0093488431036472,-0.0146498721212148,0.034112697482109,0.0008300682529807,-0.0113993054255843,0.0072334073483943
1783204486662965200,7.19996533203125,0.0022726211071014,-0.0176573833741247,0.0406295320302248,0.0005203429609537,-0.0062026791274547,0.0066547030583024
1783204486672903400,7.2099033203125,-0.0095160163640975,0.0028701486088335,0.0623977117240428,7.5195915997e-05,-0.0026896363124251,0.007269128691405
1783204486682840300,7.21984033203125,-0.0145037416487932,0.02460172261931,0.0793961927980184,-0.0009298808872699,0.0056340731680393,0.0036200652830302
1783204486692778200,7.2297783203125,-0.0261012404620647,0.019432284092158,0.0893739814549684,-0.0062210485339164,0.0089210923761129,-0.0002038714010268
1783204486702715400,7.23971533203125,-0.016602175232768,0.0296823138192296,0.0843301420688629,-0.0071574170142412,0.0058960071764886,-0.001671006786637
1783204486712653300,7.2496533203125,-0.017021861949563,0.026124913598597,0.0759527743458747,-0.0133640607818961,0.0026752585545182,0.000162778655067
1783204486722590500,7.259590576171875,-0.0226747731447219,0.0139170278020203,0.0490647674202919,-0.0166490711271762,0.0041381330229341,-0.0029232923407107
1783204486732528400,7.2695283203125,-0.0217424607306718,0.0317148425601422,0.030052608436346,-0.0165357626974582,-0.0027784910053014,-0.0033081693109124
1783204486742465500,7.279465576171875,-0.0031593408137559,0.0190804019145667,0.0099783731788396,-0.015626560896635,-0.0018370635807514,-0.0059944996610283
1783204486752402400,7.28940234375,-0.0045984337061643,0.0125698509767651,-0.0015676877081394,-0.0124186528846621,-5.19650056958e-05,-0.0045766783878207
1783204486762340400,7.29934033203125,0.0031201778471469,0.0176684892900288,-0.0233411280989646,-0.0092159351333975,-0.0005683521740138,-0.0053175697103142
1783204486772277200,7.30927734375,-0.0008984101444482,0.0213670515470206,-0.0156400522023439,-0.0030258037149906,0.0006379215046763,-0.004862917587161
1783204486782215400,7.31921533203125,0.0064075289547443,0.0063454235039651,-0.0185807818293571,-0.00213258061558,0.0019766925834119,-0.0040940633043646
1783204486792152300,7.32915234375,0.019056582647562,0.0130070733502507,-0.0204319626539945,-0.0043311649933457,0.0010428605601191,-0.0076371831819415
1783204486802090500,7.339090576171875,0.0133183312565088,0.0234092979643493,-0.0150789111882448,-0.0056105488911271,-0.0072006885893642,-0.0072803199291229
1783204486812027400,7.34902734375,0.0132347446262836,0.0091699794054031,-0.0124760352134704,-0.0098070353269577,-0.0099843153730034,-0.0053667980246245
1783204486821964500,7.358964599609375,0.0384480963379144,0.0193097536910325,0.0062649056136608,-0.0107974652200937,-0.0112780788913369,-0.0044157830998301
1783204486831902200,7.368902099609375,0.0461304675340652,-0.0069333063945174,0.0062508770883083,-0.0077669089660048,-0.0072321132756769,-0.0018213720759376
1783204486841839400,7.37883935546875,0.0419119730561971,-0.0043526422515511,0.0004430675923824,-0.0066113648936152,-0.0074741947464644,0.0033992226235568
1783204486851777300,7.38877734375,0.0294996507287025,0.003309416808933,0.004384498694539,-0.0036831051111221,-0.0018558893352746,0.0034406273625791
1783204486861714400,7.39871435546875,0.0294125569671392,0.0128429688297212,-0.0052688803136348,-0.0036910958588123,-0.0036077164113521,0.0005473694764077
1783204486871652400,7.40865234375,0.0245300456225872,0.025862901661545,-0.01055588080585,0.0020063240081071,0.001936359796673,0.0020800586789846
1783204486881589500,7.418589599609375,0.009382745373249,0.0009862345583736,-0.0265343711823225,0.0042404495179653,-0.0031372280791401,0.0008217152208089
1783204486891526400,7.4285263671875,0.0177396548300981,0.0022681641276925,-0.0416185430675744,0.0092805121093988,-0.0053231967613101,0.0034124483354389
1783204486901464600,7.438464599609375,0.0091880995839834,0.0013654431343078,-0.0325450097739696,0.0083417482674121,-0.0053642094135284,0.0047485558316111
1783204486911401200,7.448401123046875,0.0065489832520484,-0.0051661505915224,-0.022206571111083,0.0126657830551266,-0.0081757633015513,0.0026652959641069
1783204486921339400,7.45833935546875,0.0054611880153417,0.0053540013138204,-0.009412555989623,0.0141912419348955,-0.0069741448387503,0.0029968593735247
1783204486931276300,7.4682763671875,0.0085597385525703,0.0260663152791559,0.0251537304788827,0.0104122906923294,-0.0056405188515782,0.0050461022183299
1783204486941214200,7.478214111328125,-0.0033785365223884,0.0289874634228646,0.0534931052565574,0.0116093819960951,0.0025697404053062,0.0027469953056424
1783204486951151400,7.4881513671875,-0.0200602067321538,0.0224096924677491,0.06219780523777,0.0099338497966527,0.0057639172300696,-0.0039495681412518
1783204486961088500,7.498088623046875,-0.0266606279104948,0.0321009192682802,0.076849430924654,0.0049223136156797,0.0024437543470412,-0.0068255155347287
1783204486971026400,7.5080263671875,-0.032633857101202,0.0550773787733167,0.0793868404477834,-0.0039040632545948,0.000815249979496,-0.0157047156244516
1783204486980963600,7.517963623046875,-0.0205710788637399,0.049313992941007,0.0698579646021127,-0.0029535815119743,-0.0052144126966595,-0.0089828977361321
1783204486990901500,7.527901611328125,0.0111193599075078,-0.005199614469707,0.0430120432525873,-0.0047905007377266,-0.0104067958891391,-0.0039149466902017
1783204487000838400,7.53783837890625,0.0183165779352188,-0.0256840379633009,0.0291004222780466,-0.0024386635050177,-0.0110912285745143,0.0051152999512851
1783204487010775300,7.547775390625,0.0025467618733644,-0.0047287820875644,0.0438403107702732,0.0049785831943154,-0.0013637435622513,0.0073365890420973
1783204487020713200,7.557713134765625,-0.0073538698941469,0.0075357292670756,0.0598059416651725,0.0096811931580305,0.0057652723044157,0.0065200631506741
1783204487030650400,7.567650390625,-0.030248423269391,0.0191242410562932,0.0801958187431097,0.0098726833239197,0.0118271969258785,0.0075806239619851
1783204487040588300,7.57758837890625,-0.0469131423443555,0.0224422795630991,0.0764788440465927,0.0107659082859754,0.0134269576519727,0.0070626391097903
1783204487050525400,7.587525390625,-0.0673152943819761,0.0294819689415395,0.0802992791175842,0.0080068912357091,0.0116602918133139,-0.0044164694845676
1783204487060462600,7.597462646484375,-0.0791454329073429,0.0464734357528388,0.0805728353619575,0.0021130498498678,0.0104379002004861,-0.0107617173343896
1783204487070400500,7.607400390625,-0.0841337427139282,0.044151130285114,0.0941261444181203,-0.0064956871792674,0.0113146174699068,-0.0144297871738672
1783204487080337400,7.61733740234375,-0.0736719699323177,0.0299962020739912,0.1003337668865919,-0.0146806454285979,0.0100584048777818,-0.021967863664031
1783204487090275300,7.627275390625,-0.0499374586015939,0.0371025269478559,0.1151245087832212,-0.0221295170485973,0.0079033374786376,-0.0248276554048061
1783204487100212200,7.637212158203125,-0.0224386263012886,0.0371776380106806,0.1002834980040788,-0.0270750075578689,0.009540382772684,-0.0295078959316015
1783204487110150400,7.647150390625,0.0095756375968456,0.0116764092683792,0.0816787507772445,-0.0338764302432537,0.0072414875030517,-0.027194108814001
1783204487120087300,7.65708740234375,0.0467938998788595,-0.0131133102037012,0.0604220277369022,-0.0309919603168964,0.0071892892010509,-0.0253509357571601
1783204487130024400,7.6670244140625,0.0740098235845565,-0.0388943788006901,0.0134206225872039,-0.0282721333205699,0.007441964931786,-0.0207463670521974
1783204487139962400,7.67696240234375,0.0841641378521919,-0.0509757156081497,-0.0255073662221431,-0.0255506485700607,0.007693899795413,-0.0103781474754214
1783204487149899500,7.6868994140625,0.1074865612506866,-0.0539889990147203,-0.0431757093816995,-0.0177182294428348,0.0060398690402507,-0.0054778940975666
1783204487159837400,7.69683740234375,0.1076753618210554,-0.0756461926147341,-0.0635942280322313,-0.0103311548009514,0.0085120815783739,0.0027547357603907
1783204487169774300,7.7067744140625,0.0954857423335313,-0.0642686201624572,-0.0678513009548187,-0.0076261302456259,0.0074485023505985,0.0078556425869464
1783204487179711200,7.716711181640625,0.0977607015281915,-0.048942821541056,-0.0549666849404573,-0.003403422422707,0.0127569809556007,0.0089211734011769
1783204487189649400,7.7266494140625,0.0776291831254959,-0.0471656558007001,-0.0657218877106905,-0.0008198097348213,0.0124387945979833,0.0065456703305244
1783204487199586300,7.73658642578125,0.0643137744784355,-0.0361420113526284,-0.0725607938200235,-0.0003705341368913,0.0049864705651998,0.0057869357988238
1783204487209524500,7.7465244140625,0.0578150601089,-0.0327859058577567,-0.0947995136350393,0.0021330099552869,-0.00329519668594,0.0117700714617967
1783204487219461400,7.75646142578125,0.0576443797171115,-0.0474660269867628,-0.1056084924191236,0.0050257351249456,-0.0118500683456659,0.0152188651263713
1783204487229398500,7.7663984375,0.0531476528197526,-0.0505805788107216,-0.0908615896642208,0.0098747415468096,-0.014818524941802,0.024565901607275
1783204487239336400,7.77633642578125,0.047065118035674,-0.0299945946387946,-0.0488461562335491,0.0148167693987488,-0.0079347854480147,0.0253342222422361
1783204487249273300,7.7862734375,0.0139577982038259,-0.0055167175948619,-0.0214390938699245,0.0188080761581659,-0.0018745511770248,0.0244780499488115
1783204487259211300,7.796211181640625,-0.026003625306487,0.0256458979099988,0.0181032274454832,0.0283150281757116,0.0040664281696081,0.0215301979333162
1783204487269148000,7.80614794921875,-0.0572170942157506,0.0382804846860468,0.0390706121504306,0.0287449620664119,0.0052358582615852,0.0178339183330535
1783204487279084800,7.816084716796875,-0.0689332509726285,0.0522509962409734,0.0600888502597808,0.0289763920009136,0.0026829522103071,0.0150493159890174
1783204487289023000,7.82602294921875,-0.0837228238254785,0.0523825136661529,0.1008089831829071,0.0248466040939092,0.0013853851705789,0.0089441053569316
1783204487298959600,7.835959716796875,-0.0944482159793376,0.0656304100349545,0.1233241818517446,0.0148272598162293,0.007991355843842,0.0032872853334993
1783204487308897800,7.845897705078125,-0.0931307036399841,0.0882068373717367,0.1573451093971729,0.0030274558812379,0.0095606446266174,-0.0058485232293605
1783204487318834700,7.855834716796875,-0.0911854147911071,0.1062583346299827,0.1720943502396345,-0.0084963086992502,0.0037054184358567,-0.0126574272289872
1783204487328771800,7.865771728515625,-0.090262454727292,0.0780804340243339,0.143830963307619,-0.0155259035527706,-0.0021004108712077,-0.0088539235293865
1783204487338709800,7.875709716796875,-0.0667968234658241,0.0545965364538133,0.125565238776803,-0.0223004519939422,-0.0044527808204293,-0.0117088314145803
1783204487348647000,7.88564697265625,-0.046731356036663,0.0505287755582481,0.1196136368960142,-0.0178900063037872,0.0043636756017804,-0.0117618888616561
