time,seconds_elapsed,ax,ay,az,gx,gy,gz
1783197224920664600,0.09866455078125,-0.5266691279157996,0.2254690898135304,0.4872627079397439,0.3022935688495636,0.3954783678054809,-0.2930436432361603
1783197224930601500,0.1086015625,-0.11429441463463,-0.0056286535367369,0.4656137707114219,0.1920748502016067,0.3641107082366943,-0.2691090106964111
1783197224940538600,0.11853857421875,0.0946425695076584,-0.0543225418180227,0.3631710488468408,0.0904904305934906,0.3199323415756225,-0.2477622032165527
1783197224950476500,0.1284765625,0.070867287775129,0.0063116673648357,0.2953220859795809,0.0355874970555305,0.2591127753257751,-0.2278261035680771
1783197224960413400,0.138413330078125,0.0536556023418903,0.0766477708727121,0.0896054521232843,0.0343227609992027,0.2246245741844177,-0.2088710665702819
1783197224970350600,0.1483505859375,0.0395988738082349,0.0560457123488187,-0.1422270352423191,0.0575847215950489,0.2170544415712356,-0.1807857751846313
1783197224980287500,0.15828759765625,0.0660321227036416,0.0197536250010132,-0.0627852497369051,0.0923235267400741,0.1626266241073608,-0.1536726653575897
1783197224990224600,0.168224609375,0.1021142936278134,0.0333460970237851,-0.0464800116240978,0.1067633330821991,0.0540006682276725,-0.1243350803852081
1783197225000162600,0.17816259765625,0.1679876455731689,0.0165156659930944,-0.0802151079654693,0.1141165867447853,-0.0677915439009666,-0.096314899623394
1783197225010099700,0.188099609375,0.2453377194963395,-0.0707648503139615,-0.1325976216316223,0.1281135231256485,-0.1174922585487365,-0.0686211958527565
1783197225020036400,0.198036376953125,0.2459288903225213,-0.1419043791592121,-0.143487848958373,0.1397776305675506,-0.1083118095993995,-0.0510475262999534
1783197225029973500,0.207973388671875,0.121133978331089,-0.1208916940078139,-0.1403325997978448,0.1476889699697494,-0.0503705739974975,-0.0497502125799655
1783197225039910700,0.21791064453125,-0.0873560657612979,-0.0707595896169543,-0.2815145099014043,0.1485238671302795,0.0413630753755569,-0.0681907385587692
1783197225049848600,0.2278486328125,-0.280120132933557,-0.0301201207146048,-0.3478162433266639,0.1325485110282898,0.1358094662427902,-0.1086427196860313
1783197225059785700,0.23778564453125,-0.4137938593640923,-0.0375982015103101,-0.3396633320093155,0.0985215678811073,0.2063560783863067,-0.1549545675516128
1783197225069722600,0.24772265625,-0.4297160164434462,-0.1215580489620566,-0.2904512650728225,0.0511824861168861,0.2317845523357391,-0.1968861073255539
1783197225079659500,0.257659423828125,-0.2917295413803309,-0.1918351157590746,-0.2274520803242921,0.0065210089087486,0.1643703579902649,-0.2191349565982818
1783197225089596400,0.267596435546875,-0.1102934353649616,-0.2549626030623912,-0.4316226537823677,-0.013640021905303,0.0984771102666854,-0.2263350784778595
1783197225099534600,0.27753466796875,0.0173985132422298,-0.289950622074306,-0.6228069044172764,0.0027703773230314,0.073267363011837,-0.2147130519151687
1783197225109471500,0.287471435546875,0.1075260164782404,-0.3055810296654701,-0.7535287953048944,0.0328360833227634,0.1136462986469268,-0.1796707361936569
1783197225119408600,0.29740869140625,0.1045250810965895,-0.2642591314569115,-0.7684598224550485,0.0629114285111427,0.1653659343719482,-0.1499147117137909
1783197225129345500,0.307345458984375,-0.0394013054095208,-0.1465814310595393,-0.7218740123689175,0.0849135443568229,0.234846755862236,-0.1365064531564712
1783197225139282400,0.317282470703125,-0.1162188798911869,-0.0379810633480548,-0.6309884573072194,0.088309608399868,0.2727624475955963,-0.1382724046707153
1783197225149220400,0.327220458984375,-0.0940383930694311,0.0321849442899227,-0.4792424830913543,0.0739668756723404,0.2553799450397491,-0.1485664546489715
1783197225159157500,0.337157470703125,-0.0484836795967072,0.0542334022298455,-0.3896732713252305,0.0434758141636848,0.222156211733818,-0.1576600819826126
1783197225169094400,0.347094482421875,0.0538441106513142,0.0641357875630259,-0.2831879960715771,0.0170812979340553,0.1920098960399627,-0.1671617031097412
1783197225179031300,0.35703125,0.190045894254744,0.0614192220807075,-0.1987918030291795,0.0001025814563035,0.1960227340459823,-0.16846664249897
1783197225188968400,0.366968505859375,0.2578672384627163,0.0817997468084096,-0.1239087037414312,-0.0093674277886748,0.2180924862623214,-0.1655566096305847
1783197225198906400,0.37690625,0.2382254032731056,0.1323337099984288,-0.0686211162835359,-0.0081141432747244,0.2911155819892883,-0.1496729850769043
1783197225208843500,0.386843505859375,0.1524468159615993,0.2002501851439476,-0.045802550753951,0.0048262309283018,0.3756865262985229,-0.1330828219652176
1783197225218780400,0.396780517578125,0.0613813012231141,0.271292975616455,0.1174888998270034,0.0307971127331256,0.4105430543422699,-0.1219792962074279
1783197225228717300,0.40671728515625,0.021036212157458,0.3113663350686431,0.2103723507076501,0.0634082555770874,0.3872775733470917,-0.1127968728542327
1783197225238654500,0.416654541015625,0.0992288378519937,0.3036667204767465,0.3246200766563415,0.1009519025683403,0.3064655661582947,-0.1050183176994323
1783197225248592400,0.42659228515625,0.2071888253007084,0.2915700399696826,0.3825309983551502,0.1435734778642654,0.2097238004207611,-0.0820549950003624
1783197225258529500,0.436529541015625,0.3422197019612416,0.2578539405897259,0.4531254605382681,0.1730562597513198,0.1207633018493652,-0.0582053177058696
1783197225268466400,0.446466552734375,0.4159748931976035,0.2650523276612162,0.5520844319403171,0.1877085864543914,0.0842621475458145,-0.0262295268476009
1783197225278403600,0.456403564453125,0.4311803899075835,0.2618663911014795,0.6237684429258108,0.1680603176355362,0.0837686583399772,-0.0112654902040958
1783197225288340200,0.46634033203125,0.2806571989523246,0.2551537417203188,0.7619049939841032,0.1293130367994308,0.1077518984675407,-0.0152772907167673
1783197225298278400,0.4762783203125,0.102561233677715,0.3029834143877029,0.8455062372565268,0.0804916992783546,0.1631488353013992,-0.0209085457026958
1783197225308215300,0.48621533203125,0.0461492452997714,0.327959450212121,1.0311053812354802,0.0254207774996757,0.21285942196846,-0.0222504865378141
1783197225318152400,0.49615234375,0.0243560772951692,0.2906628619968891,1.111099539926648,-0.0333434715867042,0.2323510944843292,-0.0126218283548951
1783197225328089600,0.506089599609375,0.052118821228668,0.2341390107423067,1.1405343087255957,-0.1016459316015243,0.2397347837686538,-0.0013138933572918
1783197225338026500,0.516026611328125,0.0527386336274445,0.1598635219588875,1.1891291205465793,-0.1887419670820236,0.2446429878473281,0.0097462143748998
1783197225347964400,0.52596435546875,0.0274068431679159,0.0587806902706623,1.302176823055744,-0.2782961428165436,0.1998058855533599,0.004053961019963
1783197225357901300,0.5359013671875,-0.0154757284861057,-0.0113519996196031,1.3104361173570156,-0.3447249829769134,0.0461867526173591,-0.0156595557928085
1783197225367838500,0.54583837890625,-0.061186143977195,0.0083554481521248,1.012392497459054,-0.3691509068012237,-0.1374246031045913,-0.0482635460793972
1783197225377775400,0.555775390625,-0.0612929288199171,0.0487482488170266,0.6834305922061205,-0.3664278388023376,-0.2398196756839752,-0.0865832418203353
1783197225387712500,0.56571240234375,-0.1284626407187432,0.0670350161358714,0.5271101496815681,-0.3387115597724914,-0.2316556721925735,-0.1206060051918029
1783197225397649400,0.5756494140625,-0.1654326273281127,0.1205871581032872,0.5261082791626454,-0.2961065769195556,-0.1578570753335952,-0.1362978965044021
1783197225407587600,0.585587646484375,-0.1512110270889476,0.2199874435320496,0.344364057046175,-0.2522370219230652,-0.0398811846971511,-0.1354238539934158
1783197225417524200,0.595524169921875,-0.0877883562313392,0.2827349916070699,0.0889466959536075,-0.2025000751018524,0.0695462375879287,-0.1191564798355102
1783197225427461400,0.60546142578125,0.0096294501433148,0.2931137622803449,-0.1820382366269826,-0.1705944389104843,0.1789474636316299,-0.0836007893085479
1783197225437398500,0.6153984375,0.1788013005323707,0.2914280011504888,-0.147810972854495,-0.1530269086360931,0.2058376669883728,-0.0120834633708
1783197225447335400,0.62533544921875,0.3591242942066863,0.2031359697133302,-0.1197106675297021,-0.1438106298446655,0.163295105099678,0.0755254402756691
1783197225457273600,0.635273681640625,0.540340473861061,0.0125409171432256,-0.1657365056455135,-0.1213844120502471,0.0867625176906585,0.1669576168060302
1783197225467210500,0.64521044921875,0.6721983465086668,-0.1514241949155926,-0.2360895602881908,-0.0757220014929771,0.0032781679183244,0.2456346303224563
1783197225477147400,0.6551474609375,0.6065999025145545,-0.2064806039661169,-0.4083265338689089,-0.0132988365367054,-0.0382498353719711,0.2865410447120666
1783197225487084300,0.665084228515625,0.3365206135367974,-0.1279670392215252,-0.4304816670536994,0.0561364665627479,-0.0492817461490631,0.2890597879886627
1783197225497021400,0.675021484375,0.0893271101059392,-0.0003054126873612,-0.5110065716207027,0.1239040568470954,-0.0352162644267082,0.2910193204879761
1783197225506959400,0.68495947265625,-0.0884154020885005,-0.0217845463067293,-0.5146119026362895,0.199084460735321,0.1062627360224723,0.2763206362724304
1783197225516896500,0.694896484375,-0.1994076333725825,-0.0107110713675618,-0.1912953097939491,0.2035790830850601,0.0553540140390396,0.2142212986946106
1783197225526833400,0.70483349609375,0.1774392914641648,0.078093293505907,1.2076368371397257,0.1202319860458374,-0.372858315706253,0.1735388487577438
1783197225536770300,0.714770263671875,0.8060499137241393,-0.165782098352909,0.4033715418100357,-0.0151918847113847,-0.6944988965988159,0.1866663694381714
1783197225546707500,0.72470751953125,0.8600318984761833,-0.5506368634805083,0.1650590447753668,-0.1232820749282836,-0.677053689956665,0.2134716957807541
1783197225556645400,0.734645263671875,0.3536086360577494,-0.522375230114162,0.2572702954828739,-0.1737031787633896,-0.4748590588569641,0.1870523393154144
1783197225566582500,0.74458251953125,-0.2284250170096755,-0.246063257291913,-0.0239320797294378,-0.1658558845520019,-0.2006318122148513,0.1177070215344429
1783197225576519400,0.75451953125,-0.5878754378981887,-0.1408186297491192,-0.3315677038371563,-0.1227222606539726,0.0373282805085182,0.0233994293957948
1783197225586456600,0.76445654296875,-0.6617150194823741,-0.1441772925272584,-0.502807483074069,-0.067833587527275,0.1763782054185867,-0.0431167110800743
1783197225596393500,0.7743935546875,-0.5801898518316447,-0.1874944562062621,-0.5152408481895924,-0.0250022411346435,0.2134768366813659,-0.063901349902153
1783197225606331400,0.784331298828125,-0.5110683848105371,-0.2110629633203148,-0.506095418703556,0.0099743343889713,0.1656437814235687,-0.0461953468620777
1783197225616268300,0.794268310546875,-0.3167628603499383,-0.1981514592990279,-0.3624386429190635,0.0272057857364416,0.0627940967679023,-0.0059344777837395
1783197225626205400,0.804205322265625,-0.0718810313949361,-0.2166378408432006,-0.1652782404839992,0.0176417734473943,-0.0571711622178554,0.0317192077636718
1783197225636142600,0.814142578125,0.1001482907844707,-0.2627446352407336,0.0258604174435138,-0.0091813178732991,-0.1208795681595802,0.0417212434113025
1783197225646079500,0.82407958984375,0.0741906600441783,-0.243694774594903,0.2682598915308714,-0.0459390804171562,-0.18877574801445,0.0336828306317329
1783197225656017700,0.834017578125,0.01121091064848,-0.1296186058208346,0.3679904318273067,-0.0869600176811218,-0.2775469124317169,0.0356650203466415
1783197225665954300,0.843954345703125,0.0757069828912615,-0.130710784971714,0.1776619212388992,-0.1317511200904846,-0.3103331327438354,0.0401078499853611
1783197225675891500,0.853891357421875,0.1081097346503287,-0.1624260659232735,0.167324651619792,-0.1967871040105819,-0.3137411773204803,0.0469479113817215
1783197225685828400,0.863828369140625,0.0562669538840651,-0.1358648067340254,0.192408823993802,-0.2649852931499481,-0.3020398914813995,0.0438887737691402
1783197225695765500,0.873765625,-0.0346585678618401,-0.09632745385468,0.0844838713258504,-0.3188605308532715,-0.2656895816326141,0.0319088101387023
1783197225705703400,0.883703369140625,-0.1136515866864472,-0.0942526934072375,-0.0044973114192485,-0.3467366695404053,-0.2240106165409088,0.0048971427604556
1783197225715640600,0.893640625,-0.1439806009113788,-0.0757163352414965,-0.0686924279540777,-0.3486142158508301,-0.2015098482370376,-0.0235816352069377
1783197225725577500,0.903577392578125,-0.1352592420563101,-0.074139587444067,-0.2280576450020074,-0.3142605423927307,-0.1669985949993133,-0.0484155751764774
1783197225735514400,0.913514404296875,-0.1087967670664191,-0.0564510782793164,-0.3301110752880573,-0.2628532946109772,-0.152508333325386,-0.0603609159588813
1783197225745451500,0.923451416015625,-0.073009779696539,-0.030599136403203,-0.358030763348937,-0.1989618688821792,-0.1507488191127777,-0.0601796582341194
1783197225755388400,0.933388427734375,-0.0746856770195067,0.0109705990865826,-0.4172580283433199,-0.1298376619815826,-0.1309929639101028,-0.0530098974704742
1783197225765326600,0.94332666015625,-0.0662676119599491,0.048932080951333,-0.3814280055493116,-0.0781124681234359,-0.1189292892813682,-0.0432111471891403
1783197225775263500,0.953263427734375,-0.0390286727048456,0.0924102804109454,-0.2996083849966526,-0.0382563918828964,-0.1225623711943626,-0.0334762297570705
1783197225785200400,0.963200439453125,0.0170260997332632,0.0934820012956857,-0.2296136422723531,-0.0237202495336532,-0.1394672840833664,-0.0342705771327018
1783197225795137300,0.97313720703125,0.0883312674690037,0.0477174444645643,-0.1979424927234649,-0.0251117497682571,-0.1425437778234481,-0.0406885296106338
1783197225805074400,0.983074462890625,0.0833504833817481,0.0129155956745147,-0.1712725124627351,-0.0338338017463684,-0.1112444698810577,-0.0492708832025527
1783197225815012400,0.993012451171875,0.0183982648693025,0.0378702964499592,-0.1113894139081239,-0.0567199476063251,-0.0650703161954879,-0.0637853741645813
1783197225824949500,1.002949462890625,-0.0327250425159931,0.064480655477941,-0.029955577802658,-0.0806719064712524,-0.044662095606327,-0.0724422335624694
1783197225834886700,1.01288671875,-0.0061905252031981,0.0743397861912846,0.0252349790215492,-0.1052078753709793,-0.0558867827057838,-0.070886418223381
1783197225844823300,1.0228232421875,0.0509436399694532,0.0556242720663547,0.0213683667212724,-0.1294839680194854,-0.0736952573060989,-0.0733472630381584
1783197225854760400,1.032760498046875,0.0924951822154223,0.0405117508694529,0.0254839853465557,-0.1432330757379531,-0.0956021547317504,-0.0649953261017799
1783197225864698400,1.042698486328125,0.124408396891877,0.0361664151415228,0.0467003763765096,-0.15314482152462,-0.1146274507045745,-0.055124457925558
1783197225874635500,1.052635498046875,0.1544423006277531,0.0644964375689625,0.0187549693524837,-0.1524614542722702,-0.1486224383115768,-0.0391838438808918
1783197225884572400,1.062572509765625,0.1710902877636253,0.067712769266963,-0.0440659362196922,-0.126757875084877,-0.1498949229717254,-0.0220754779875278
1783197225894509600,1.072509521484375,0.1275600658558309,0.0698138331994414,-0.2166623907625675,-0.0858410745859146,-0.1024642959237098,-0.0083841672167181
1783197225904446500,1.082446533203125,0.0723624947689473,0.1009540907420217,-0.2624801390856504,-0.0411995910108089,-0.0604539439082145,-0.0048183859325945
1783197225914384400,1.09238427734375,0.045761999547854,0.1508037249296903,-0.3082265757381915,-0.0169403236359357,-0.0374530255794525,-0.0074304142035543
1783197225924321500,1.102321533203125,0.0503399019226431,0.1351794548183679,-0.3010527385860681,-0.0067546004429459,-0.0341938212513923,-0.0080641955137252
1783197225934258400,1.112258544921875,0.110312286195904,0.074045333289355,-0.257068635430932,-0.0231154635548591,-0.0416253730654716,0.0062473649159073
1783197225944195600,1.122195556640625,0.1339724901814013,0.0583816079504787,-0.2370890927195549,-0.0374898239970207,-0.0281892716884613,0.0166194010525941
1783197225954132500,1.132132568359375,0.0748726509589701,0.0700882662266492,-0.1931090812176465,-0.0601796917617321,-0.0059910267591476,0.0220325421541929
1783197225964070400,1.1420703125,0.0555121899940073,0.0988145944952964,-0.1070224508702755,-0.0833231508731842,-0.0014496170915663,0.0204041339457035
1783197225974007300,1.15200732421875,0.0620008213609456,0.1035433765828609,-0.0783650961846113,-0.1055669412016868,-0.0089107295498251,0.0216241292655468
1783197225983944400,1.1619443359375,0.1172962267991155,0.0823424753829836,-0.0820838244467973,-0.1241081953048706,-0.0271114874631166,0.0285019185394048
1783197225993881300,1.17188134765625,0.1439350812692195,0.0822612268403172,-0.11807342171669,-0.1270962506532669,-0.0201534461230039,0.0423956289887428
1783197226003818500,1.181818603515625,0.090762220942974,0.1037193176716566,-0.172843122780323,-0.1254717856645584,0.0018661860376596,0.0506697185337543
1783197226013756400,1.19175634765625,0.0473470037169754,0.1470284441746771,-0.1867740329772234,-0.1129735708236694,0.0029191998764872,0.0540428794920444
1783197226023693300,1.201693359375,0.0493919535480439,0.1340738316640257,-0.2061842513680458,-0.1024261191487312,-0.0264544021338224,0.0466635264456272
1783197226033630500,1.21163037109375,0.0548961769875138,0.0987362685620784,-0.3051204264163971,-0.0787884294986724,-0.0442272722721099,0.0323351845145225
1783197226043567400,1.2215673828125,-0.0229612619359046,0.0502981086075305,-0.4530418739080429,-0.0483584962785244,0.0194109808653593,0.0165035296231508
1783197226053504500,1.23150439453125,-0.1926619219720363,0.0281928059138357,-0.4940349785536527,-0.0315361060202121,0.101948469877243,-0.0100013148039579
1783197226063441400,1.24144140625,-0.2855317827187478,0.063720630890876,-0.3682669106811285,-0.0178208258002996,0.1384281814098358,-0.0235855672508478
1783197226073379600,1.251379638671875,-0.2581280082907528,0.0925239699184894,-0.3662544018149375,-0.0163590181618928,0.1417795121669769,-0.028096430003643
1783197226083316200,1.261316162109375,-0.1285723116382956,0.0237739665582776,-0.3078665102541446,-0.020990939810872,0.1172808185219764,-0.0139907570555806
1783197226093253400,1.27125341796875,-0.0007951689656823,-0.0240412391923367,-0.2280471236079931,-0.0199991781264543,0.0728955045342445,0.0039919721893966
1783197226103190500,1.2811904296875,0.0787812027048319,-0.0264984230861067,-0.2126309432893991,-0.005686274729669,0.0391363725066185,0.0139045864343643
1783197226113127400,1.29112744140625,0.0965992565333843,-0.0194723238416016,-0.1943856770247221,0.0170904099941253,0.0356585532426834,0.0183717738837003
1783197226123065300,1.3010654296875,0.0604703969232738,-0.0268638953976333,-0.1904670422762632,0.0447720475494861,0.0563846826553344,0.0216151475906372
1783197226133002500,1.31100244140625,-0.0182134098216891,-0.037558307891339,-0.1821656623989343,0.0595613792538642,0.0804375559091568,0.0252807233482599
1783197226142939400,1.320939453125,-0.0753167414646595,-0.0486303215257823,-0.1226075580149888,0.0762820988893508,0.0849026963114738,0.0308021400123834
1783197226152876500,1.33087646484375,-0.0764890731796622,-0.1007654363021254,-0.067460840332508,0.0914985984563827,0.0765385031700134,0.0378387458622455
1783197226162813700,1.340813720703125,-0.0492160124592483,-0.1833412820495664,0.0001204115092754,0.1004205793142318,0.0569598972797393,0.0370483547449111
1783197226172751600,1.350751708984375,-0.0891769245129078,-0.2368812951877713,0.0802232912719249,0.0997830182313919,0.0279285125434398,0.0278423428535461
1783197226182688800,1.360688720703125,-0.1292665775127708,-0.2425200317271053,0.1513812325567007,0.0892624929547309,-0.008559076115489,0.0095059340819716
1783197226192625700,1.370625732421875,-0.1618476815134286,-0.2421643501572311,0.1162842002123594,0.0794343575835228,-0.0062834052368998,-0.0031866917852312
1783197226202562800,1.380562744140625,-0.1961466953478753,-0.2565843590453266,0.1104804823696613,0.0626727789640426,0.0034908093512058,-0.0121264047920703
1783197226212499700,1.390499755859375,-0.1925650374688208,-0.2562766082704067,0.1219493863672018,0.0478160716593265,0.002352041658014,-0.0128662306815385
1783197226222437600,1.400437744140625,-0.175648973981291,-0.2701733239367604,0.0600906038254499,0.0348270535469055,-0.005756695754826,-0.0113347861915826
1783197226232374800,1.410374755859375,-0.1461954274166375,-0.2741482189171016,0.0543681345254182,0.0257707089185714,-0.0313922837376594,-0.0097302310168743
1783197226242311700,1.420311767578125,-0.1260790335178375,-0.2363492341376841,0.0299304433614015,0.0306877270340919,-0.061512254178524,-0.0169314313679933
1783197226252248800,1.430248779296875,-0.1396433023594319,-0.1827289953701198,-0.0578834491699934,0.0411616750061512,-0.0736205801367759,-0.0244913473725318
1783197226262185700,1.440185791015625,-0.1560661755025386,-0.1182119534045457,-0.0826911426901817,0.0545555055141449,-0.0853242725133895,-0.0429881289601326
1783197226272124000,1.4501240234375,-0.1550577291123568,-0.0348195305772125,-0.1499345408797264,0.0719249099493026,-0.0777933821082115,-0.0568128637969493
1783197226282060500,1.460060546875,-0.1543433702979236,0.0550987868875265,-0.198550395488739,0.0803712457418441,-0.0529925376176834,-0.0625777691602706
1783197226291997700,1.469997802734375,-0.1462437235377728,0.1349113054014742,-0.1684749906986951,0.0675822123885154,-0.043642982840538,-0.0607420541346073
1783197226301934600,1.4799345703125,-0.0864648160099983,0.2094604965597391,-0.1538233650118112,0.0418997295200824,-0.0387496389448642,-0.0558066107332706
1783197226311871700,1.489871826171875,-0.0282044963516294,0.2491252752110362,-0.1359071845710277,0.0071276356466114,-0.0265012308955192,-0.0508145131170749
1783197226321809700,1.4998095703125,0.0573976384144276,0.1973930421471595,-0.1199082359284162,-0.0179882328957319,-0.0087246829643845,-0.0456076003611087
1783197226331746800,1.509746826171875,0.0775052644848823,0.1963920484110713,-0.2362596561580896,-0.0202021207660436,0.0289848782122135,-0.0419148616492748
1783197226341683700,1.51968359375,0.0426755047746002,0.246725228331983,-0.3630781098663806,-0.0026969527825713,0.0817574635148048,-0.0334738604724407
1783197226351620600,1.52962060546875,0.0489004437040537,0.3116156336545944,-0.3995014223784208,0.0241684839129447,0.1177482232451438,-0.0193183608353137
1783197226361557800,1.539557861328125,0.114586894775182,0.3346253378421068,-0.4504495193272829,0.056112315505743,0.124616838991642,0.0009902350138872
1783197226371495700,1.54949560546875,0.2163912456709891,0.3011129443407058,-0.4403331989824771,0.0857919156551361,0.1171288266777992,0.0228832829743623
1783197226381432800,1.559432861328125,0.2949488687530159,0.2872328875482082,-0.4162555733025074,0.1182720735669136,0.1067673116922378,0.0498904734849929
1783197226391369700,1.56936962890625,0.3455945486892015,0.2845964015647769,-0.3565057457387447,0.1394226253032684,0.0823328122496604,0.0747420340776443
1783197226401306600,1.579306640625,0.3340435924313962,0.2698126739308238,-0.295942848226428,0.1662912666797638,0.057082749903202,0.1058981418609619
1783197226411243800,1.589243896484375,0.3103674602244049,0.2346563126146793,-0.2506745504796505,0.1998034119606018,0.0289264768362045,0.1220944300293922
1783197226421181700,1.599181640625,0.2607460087694228,0.2154354793161153,-0.2142979997187852,0.229659229516983,0.0099765630438923,0.1266863793134689
1783197226431118800,1.609118896484375,0.1876714202083647,0.1869382836282253,-0.1967950762540102,0.2497668862342834,0.0105960145592689,0.1229291930794715
1783197226441055700,1.6190556640625,0.107275987239927,0.1235708500891923,-0.1296878716647624,0.2611410021781921,0.0253627672791481,0.1083663552999496
1783197226450993000,1.628992919921875,0.0280279707409441,0.0720385235115885,-0.094468089723587,0.2540585994720459,0.0764267519116401,0.0872783809900283
1783197226460929500,1.638929443359375,-0.056804787087813,0.0416956999570131,-0.0486538485318422,0.2313110530376434,0.1352104395627975,0.0704764649271965
1783197226470867700,1.64886767578125,-0.1133946162506937,0.0067357379958033,0.0649690235167741,0.2020245343446731,0.1639784425497055,0.0524404756724834
1783197226480804600,1.6588046875,-0.1279137015990913,-0.0016521511211991,0.1156710367500782,0.172956109046936,0.1775344908237457,0.0432273708283901
1783197226490741800,1.66874169921875,-0.0871256910715252,-0.0062049921199679,0.1947691233843564,0.1355413496494293,0.1686507165431976,0.0390720441937446
1783197226500678700,1.6786787109375,-0.0136863608513027,-0.0209703073143959,0.3006295447379351,0.1016332954168319,0.1294591724872589,0.0459332205355167
1783197226510616800,1.688616943359375,0.0291956262808293,0.0123804658845067,0.3586743219494819,0.0766765475273132,0.0747530534863472,0.0587241165339946
1783197226520553700,1.6985537109375,0.0906787804432213,0.0274234289765357,0.3983458226025104,0.0617108270525932,0.0166704431176185,0.0757901668548584
1783197226530490600,1.70849072265625,0.0818932703107595,0.021863456761837,0.3433089950352907,0.0570423081517219,-0.0164624769240617,0.0837237238883972
1783197226540427800,1.718427734375,0.0522745963122695,0.0085053780168294,0.2572667883515357,0.0707623660564422,-0.0167597271502017,0.0862297639250755
1783197226550364700,1.72836474609375,-0.0277276726201176,0.0001844166561961,0.1527823315262794,0.0869072452187538,0.0168943721801042,0.0788299068808555
1783197226560302800,1.738302734375,-0.1069174561258405,0.0088040687024593,0.0641986236661672,0.100310780107975,0.0460650362074375,0.0651651993393898
1783197226570239700,1.74823974609375,-0.1397033619835972,0.0112225280210375,0.0492231728523969,0.0939881727099418,0.0590780414640903,0.0476900711655616
1783197226580177000,1.758177001953125,-0.1151160332158207,-0.0034852117672562,0.068740358749032,0.0720849186182022,0.0518970601260662,0.0317267403006553
1783197226590113500,1.768113525390625,-0.058556014669314,-0.0359521878689527,0.130153151088953,0.0456474497914314,0.0381436981260776,0.0180034711956977
1783197226600050700,1.77805078125,-0.0265255302887409,-0.0600970335662364,0.1346902099967002,0.0286440420895814,0.0430606380105018,0.007635099813342
1783197226609988600,1.787988525390625,-0.0247668500531464,-0.0415729503601789,0.0493728104561567,0.0277809109538793,0.0713034644722938,-0.0034188828431069
1783197226619925800,1.79792578125,0.0138574796345084,0.0187274968236684,0.0463549239397048,0.0404033362865448,0.0959125906229019,-0.0024751857854425
1783197226629863000,1.80786279296875,0.0482617804743349,0.0873059430092573,-0.0110486327588558,0.052805945277214,0.1004074737429618,0.012273134663701
1783197226639799800,1.8177998046875,0.1438909498665481,0.1013721700236201,-0.0192553200900554,0.061412863433361,0.0803732052445411,0.0357478708028793
1783197226649736700,1.82773681640625,0.2186994495481252,0.0790925336763262,-0.0093055884838104,0.0613502785563468,0.0405261889100074,0.0707311555743217
1783197226659674600,1.837674560546875,0.2751950976215302,0.0376703899636864,-0.000108136549592,0.0621998012065887,0.0074462117627263,0.0999195426702499
1783197226669611800,1.84761181640625,0.2582233584240079,-0.0028451602980494,0.026218144840002,0.0562857203185558,-0.0108800651505589,0.1075644120573997
1783197226679548700,1.857548583984375,0.1706494851935655,-0.0177460845708847,0.0585714314341545,0.0477873757481575,-0.0003321846015751,0.1039048135280609
1783197226689485800,1.86748583984375,0.0447466119602322,-0.0380269483163952,0.0906979235351085,0.0393153317272663,0.0258751846849918,0.0881868377327919
1783197226699423700,1.877423828125,-0.0417081941124051,-0.041399347358942,0.1309744043439626,0.0256961304694414,0.0492395497858524,0.0684031173586845
1783197226709361000,1.88736083984375,-0.0951448930066078,-0.0529363481566309,0.1320902566313743,0.0160829182714223,0.0674246773123741,0.0494408831000328
1783197226719297500,1.897297607421875,-0.1159516072571277,-0.0711897977277636,0.1192798748970031,0.0092614293098449,0.0781783610582351,0.0365132503211498
1783197226729234700,1.907234619140625,-0.09345993559435,-0.0637511721596121,0.1708323674798011,0.0125653464347124,0.0595588684082031,0.028994083404541
1783197226739171800,1.917171875,-0.0345162367817014,-0.0408393753886222,0.1489525441050529,0.0229412745684385,0.0387306585907936,0.0364029332995414
1783197226749109800,1.92710986328125,0.0102345398969948,-0.0176543146342039,0.1253057110577821,0.0330663472414016,0.0300508830696344,0.0446105264127254
1783197226759047000,1.937046875,0.0346213776566088,0.0180208098590374,0.1469458804577589,0.0375258810818195,0.0104638393968343,0.0520920976996421
1783197226768983800,1.94698388671875,0.0680873016677796,0.0360977338194847,0.1546118850409984,0.0300389342010021,-0.0109676821157336,0.0561688616871833
1783197226778920700,1.956920654296875,0.0860590116880834,0.025712825666368,0.1708206770420074,0.017910799011588,-0.0302473977208137,0.0621433220803737
1783197226788857600,1.966857666015625,0.0874865602731704,-0.0192956521004438,0.1768704786002636,-0.0005805939435958,-0.0357870385050773,0.0638703852891922
1783197226798795800,1.976795654296875,0.0320149945504963,-0.0417649658009409,0.1706944203138351,-0.0162395350635051,-0.0267172437161207,0.0558819510042667
1783197226808732700,1.986732666015625,-0.0104145726390182,-0.041654783424735,0.1414116272062063,-0.0236990489065647,-0.0167945716530084,0.0424212701618671
1783197226818669800,1.996669921875,-0.037342034792155,-0.0606365472704172,0.0995470004230737,-0.0364185683429241,-0.0196992568671703,0.0386503376066684
1783197226828606700,2.006606689453125,-0.030977249000594,-0.076786010299623,0.053950785896182,-0.0418162606656551,-0.0214819759130477,0.0315849706530571
1783197226838545000,2.016544921875,-0.0305780936151742,-0.0929959713444113,-0.0063823945134878,-0.046485535800457,-0.0203122608363628,0.0278382208198308
1783197226848481500,2.0264814453125,-0.0052726797059178,-0.0839335439667105,0.002670680513978,-0.0504304766654968,-0.0348453968763351,0.0330497622489929
1783197226858418700,2.036418701171875,0.0294861336600035,-0.0571554271563887,-0.0080015201479196,-0.0482298880815506,-0.0480899363756179,0.0481755137443542
1783197226868355800,2.04635595703125,0.0508457325529307,-0.0675493953987956,-0.0332505276948213,-0.0418449603021144,-0.043722353875637,0.0536845289170742
1783197226878292700,2.056292724609375,0.0185145116601139,-0.0665662295803427,-0.0815747058808803,-0.0230727270245552,-0.0260925218462944,0.0541897267103195
1783197226888231000,2.06623095703125,-0.0288926978114992,-0.0757987528279423,-0.105462361946702,-0.0053866719827055,-0.0085497451946139,0.0488426350057125
1783197226898167800,2.076167724609375,-0.0469251250430941,-0.065482233735919,-0.1071966383934021,0.00472994428128,-0.0064674727618694,0.0358398668467998
1783197226908104700,2.086104736328125,-0.0344617301154881,-0.0727358581259846,-0.0890776288568973,0.0054234317503869,-0.0161246266216039,0.0298200566321611
1783197226918041600,2.09604150390625,-0.0068158905599266,-0.0712716307923197,-0.0841273129731416,0.0052677942439913,-0.0145335476845502,0.0294612906873226
1783197226927978800,2.105978759765625,-0.0216452109012752,-0.070439271621406,-0.029426000970602,-0.0041784383356571,-0.0156821701675653,0.0306003242731094
1783197226937916700,2.115916748046875,-0.0294019625078886,-0.034243338124454,0.0393476755261421,-0.013351485133171,-0.0289919283241033,0.0296273175626993
1783197226947853800,2.125853759765625,-0.0146568863838911,-0.0315694427400827,0.0561941809087991,-0.0258518308401107,-0.0572882816195488,0.0278344806283712
1783197226957790700,2.135790771484375,-0.0128942606255412,-0.0852794056177139,0.0343780704200267,-0.0353638008236885,-0.0428886488080024,0.0225087776780128
1783197226967727600,2.1457275390625,-0.0890234875168651,-0.1035068439647555,0.0197054019451141,-0.0403045006096363,-0.0218464825302362,0.0098017714917659
1783197226977665500,2.15566552734375,-0.1780658989299088,-0.0906748349204659,0.0446270772337913,-0.0445551350712776,-0.0252641960978508,-0.0106871696189045
1783197226987602700,2.165602783203125,-0.1911786976769566,-0.0679702511593699,0.0071299980103969,-0.0443948097527027,-0.0329229123890399,-0.0222958885133266
1783197226997539800,2.175539794921875,-0.1464019097741693,-0.0744803637057542,-0.0633878918051719,-0.0448002927005291,-0.0205134637653827,-0.0183089971542358
1783197227007476700,2.185476806640625,-0.1138932134225964,-0.0506622657448053,-0.1134036763399839,-0.0398747771978378,0.0001942119561135,-0.0110476221889257
1783197227017415000,2.195414794921875,-0.0916781667441129,0.0027475451424717,-0.1364724172383546,-0.036610871553421,0.0104580605402588,-0.0010482005309313
1783197227027351600,2.2053515625,-0.0480707148816436,0.055491293336451,-0.1431850666195154,-0.0387725606560707,0.0114796496927738,0.0135616343468427
1783197227037288700,2.215288818359375,0.0043639673631638,0.0303363938137888,-0.0922124197512865,-0.0369822867214679,-0.0122293811291456,0.0222188495099544
1783197227047225600,2.2252255859375,0.016087503708899,-0.0199444713979959,-0.0463064086228609,-0.0271142087876796,-0.027800353243947,0.0248109027743339
1783197227057162800,2.235162841796875,-0.0267360312342643,-0.0576668838098645,-0.0034235447078943,-0.0119906961917877,-0.0369157679378986,0.0134089216589927
1783197227067100700,2.2451005859375,-0.0568004762388765,-0.0796904995694756,0.0599959112793207,-0.0012626843526959,-0.0622469559311866,-0.0014949266333132
1783197227077037800,2.255037841796875,-0.0600134469360113,-0.0895733034193515,0.061345572322607,0.0147946225479245,-0.0547645911574363,-0.0094682406634092
1783197227086974700,2.264974609375,-0.0654036886069923,-0.0838055336728692,0.0653834495365619,0.0202932506799697,-0.0396189242601394,-0.0215613897889852
1783197227096911600,2.27491162109375,-0.0536744531728327,-0.0646975130990147,0.1564297481179237,0.0095211286097764,-0.0344561226665973,-0.0273415390402078
1783197227106848800,2.284848876953125,-0.0365440162822604,-0.042240474358201,0.1679904220521449,-0.0076605211943387,-0.0453809425234794,-0.0242994092404842
1783197227116786700,2.29478662109375,0.0218920983344316,-0.0453761420354247,0.1860293520897626,-0.038870420306921,-0.0583765804767608,-0.0203741006553173
1783197227126723800,2.304723876953125,0.0618102672249078,-0.0654179363280534,0.2073059488743543,-0.0704110413789749,-0.0724239572882652,-0.0219482947140932
1783197227136660700,2.31466064453125,0.0582045708831399,-0.0653854953631758,0.2024544171899557,-0.0981747284531593,-0.0881681144237518,-0.0232398398220539
1783197227146597600,2.32459765625,0.0564219252500683,-0.0695551822632551,0.180758133688569,-0.1113925278186798,-0.0874605104327201,-0.0259863585233688
1783197227156535600,2.33453564453125,0.0365757996600121,-0.071914604870975,0.0848679022073745,-0.1097170263528823,-0.0656104460358619,-0.0315869450569152
1783197227166472700,2.34447265625,0.0146522102087736,-0.0420665790960192,0.0249731132149696,-0.0972941741347312,-0.0432332307100296,-0.038891464471817
1783197227176409600,2.35440966796875,-0.0038601825594902,0.0036868718191981,-0.0067471361726522,-0.0796518698334693,-0.0311412587761878,-0.0433883927762508
1783197227186346800,2.3643466796875,0.0306810425329953,0.0471297077044844,-0.0060170683324337,-0.0728602707386016,-0.0427499786019325,-0.0392162837088108
1783197227196284700,2.37428466796875,0.0941666956242173,0.0715410953834652,0.040636546292901,-0.0704768225550651,-0.0740833729505539,-0.0303665474057197
1783197227206221600,2.3842216796875,0.1451885153964161,0.0869698429226875,0.0900374137997627,-0.075306199491024,-0.0916543751955032,-0.0175676625221967
1783197227216158700,2.39415869140625,0.1663222696442157,0.1108928625628352,0.1200339081346988,-0.0832363963127136,-0.1044515669345855,-0.0067486078478395
1783197227226095600,2.404095703125,0.1409386028669774,0.1430208159685135,0.1661053389579057,-0.0957005247473716,-0.1142424046993255,-0.0058793518692255
1783197227236032800,2.41403271484375,0.1218614888880401,0.1582426427587866,0.1465665257513523,-0.1141694784164428,-0.1170765683054924,-0.0062578385695815
1783197227245970700,2.423970703125,0.1109301258333027,0.1510775734350085,0.1098486142069101,-0.135868638753891,-0.1103622019290924,-0.00357390451245
1783197227255907800,2.433907958984375,0.1058535532213747,0.1605012353405356,0.0609714783132076,-0.1502125561237335,-0.1136924028396606,0.0036545747425407
1783197227265844500,2.443844482421875,0.0922577932629734,0.1719756922960281,-0.0160042093396186,-0.158632144331932,-0.0954396277666091,0.0102520240470767
1783197227275781600,2.45378173828125,0.0674498805470764,0.1616732017293572,-0.1022907461732625,-0.1544446945190429,-0.0765280276536941,0.0135980192571878
1783197227285719600,2.463719482421875,0.1079461415864527,0.1285229195386171,-0.1664396854788065,-0.1500619202852249,-0.0623682662844657,0.0219009555876255
1783197227295656700,2.47365673828125,0.1024731170028448,0.1437505915477872,-0.2862532288610935,-0.1392701417207718,-0.0426919683814048,0.042757261544466
1783197227305593900,2.48359375,0.084741572413966,0.1380769298255443,-0.3418032666474581,-0.12639881670475,-0.0114027559757232,0.0522493012249469
1783197227315530800,2.49353076171875,0.0417086325038224,0.1247340486496686,-0.3721802847325801,-0.1157025247812271,0.0255726501345634,0.0608991608023643
1783197227325467600,2.503467529296875,0.0091400957237929,0.087409111122787,-0.3767500768661498,-0.1121456176042556,0.0378207936882972,0.0562788397073745
1783197227335405600,2.513405517578125,-0.0177223383691161,0.0915636004537343,-0.3439455393731594,-0.1009311527013778,0.0315911024808883,0.0679878890514373
1783197227345342700,2.5233427734375,0.0527239475149661,0.0310924728780984,-0.3146422879993915,-0.0911331176757812,0.0079100085422396,0.0873722285032272
1783197227355279600,2.533279541015625,0.1297711660340428,-0.0150850486680865,-0.2423901217371225,-0.0776417329907417,-0.0350490733981132,0.1075208932161331
1783197227365216800,2.543216796875,0.1148171233344823,-0.036680794404447,-0.2046066267877817,-0.0459772832691669,-0.0439035519957542,0.1158523336052894
1783197227375154700,2.55315478515625,0.0033032793290913,-0.1023220180943608,-0.1945458360224962,0.0046458197757601,-0.0332532189786434,0.1046392172574997
1783197227385091800,2.563091796875,-0.0789769444726407,-0.1483893572643399,-0.1264443596988916,0.0536626316606998,-0.0342058315873146,0.0818082019686698
1783197227395028500,2.573028564453125,-0.1434741126939654,-0.1405892049074172,-0.0802075091809034,0.0920830443501472,-0.0348437801003456,0.0618693232536315
1783197227404965600,2.582965576171875,-0.1631196011453866,-0.1427776548624038,0.0405605584472417,0.1060443967580795,-0.0478005930781364,0.043652769178152
1783197227414903600,2.592903564453125,-0.1631971233610063,-0.1720776913657784,0.1754705486744642,0.0966947674751281,-0.0695106834173202,0.0298064872622489
1783197227424840700,2.6028408203125,-0.129633657259494,-0.1592278544038534,0.2845744819939136,0.0689422339200973,-0.0847279876470565,0.0184369198977947
1783197227434777900,2.61277783203125,-0.0864911925602704,-0.1548769657179713,0.3835539116621017,0.0280994083732366,-0.089814469218254,0.0139858005568385
1783197227444714800,2.62271484375,-0.0664606503140181,-0.1352656717970967,0.4273953914761543,-0.0209142044186592,-0.0998109132051467,0.0105047831311821
1783197227454652700,2.632652587890625,-0.0404897582333534,-0.1287929686516523,0.4287672643512487,-0.0673558637499809,-0.1183512359857559,0.0025607759598642
1783197227464589600,2.642589599609375,-0.0328250688243657,-0.1271203592643141,0.3835767080157995,-0.1049453169107437,-0.1302728801965713,-0.0033298700582236
1783197227474526700,2.652526611328125,-0.0684103230770677,-0.1312970604270696,0.2912164042264223,-0.1299349665641784,-0.1229335367679596,-0.0173087380826473
1783197227484463600,2.662463623046875,-0.1367882051892578,-0.1203060030743479,0.1965963388115167,-0.1452593356370926,-0.1172666102647781,-0.0353071801364421
1783197227494400800,2.67240087890625,-0.1422723356887698,-0.0889338364720344,0.0882815100431442,-0.1487305164337158,-0.1186824962496757,-0.0473753586411476
1783197227504338700,2.682338623046875,-0.1142718374766409,-0.0390266268782317,-0.0288297886431217,-0.1516173779964447,-0.1138912066817283,-0.0477388799190521
1783197227514275800,2.69227587890625,-0.0606679653219878,-0.0103245562680065,-0.1053594860941171,-0.1496389359235763,-0.1101933270692825,-0.0373196192085742
1783197227524212500,2.70221240234375,-0.0195023536536842,0.0473947883814573,-0.1700198820531368,-0.1331198811531067,-0.0990181714296341,-0.0171666778624057
1783197227534149600,2.712149658203125,0.0129565122067928,0.1005935868665575,-0.2428793665587902,-0.1127139404416084,-0.0852306932210922,-0.0044697653502225
1783197227544087600,2.722087646484375,0.0450900185704231,0.1179474572494626,-0.2836789944589138,-0.0892107486724853,-0.0854533314704895,0.0089738722890615
1783197227554024700,2.732024658203125,0.0272216958593577,0.1233661212973296,-0.3258171774864196,-0.0626186281442642,-0.0763791501522064,0.0178251788020133
1783197227563961900,2.7419619140625,0.0310712108943611,0.115391635286808,-0.3099725426226854,-0.0366208553314209,-0.0797272771596908,0.0164155680686235
1783197227573898800,2.751898681640625,0.0314522461012005,0.1133104450985789,-0.2968839284688234,-0.0174569562077522,-0.0810224264860153,0.0109035465866327
1783197227583836700,2.761836669921875,0.0270590526435524,0.0956343570239841,-0.2845680522531271,-0.0067134974524378,-0.0717943012714386,0.0041247364133596
1783197227593773600,2.771773681640625,0.02086706613563,0.0670749097548425,-0.2422860768407583,-0.0085243117064237,-0.0683779194951057,0.0006688795983791
1783197227603710700,2.781710693359375,0.0294834302462637,0.0542493304513394,-0.2104495075970888,-0.0103208795189857,-0.0625272169709205,0.0036465600132942
1783197227613647600,2.791647705078125,0.0420933209724724,0.0746495827928185,-0.2227507707655429,-0.0111094927415251,-0.0434968844056129,0.0097266715019941
1783197227623585800,2.801585693359375,0.0680191318023949,0.0600602086871862,-0.2082908682584762,-0.0184419713914394,-0.0394448861479759,0.0180162917822599
1783197227633522700,2.811522705078125,0.0770258834701031,0.0552902178063988,-0.2261760690391063,-0.0233711674809455,-0.031466506421566,0.0273609440773725
1783197227643459800,2.8214599609375,0.0879644069179892,0.0458062040157616,-0.2248871982723474,-0.0231394730508327,-0.0190966576337814,0.0348305776715278
1783197227653396500,2.831396484375,0.0540513967264443,0.0366257032163441,-0.2323398523658514,-0.0217550918459892,-0.0078453598544001,0.0358678288757801
1783197227663333600,2.841333740234375,-0.0027412615321576,0.0501223136492073,-0.2515051560848951,-0.0231945291161537,0.0026243249885737,0.0357908606529235
1783197227673271600,2.851271484375,-0.0213056767486035,0.0406149189829826,-0.2587742703050374,-0.012033530510962,0.0158846862614154,0.0345973744988441
1783197227683208700,2.861208740234375,-0.0272869431152939,0.0242199567601084,-0.2876478980898856,-0.0038538975641131,0.0314942747354507,0.0389300733804702
1783197227693145900,2.871145751953125,-0.0312508783102035,0.010985650525242,-0.2715507497698068,0.0151959098875522,0.0338955633342266,0.0460008755326271
1783197227703082800,2.881082763671875,-0.0459865290187299,0.0344913215361535,-0.2543728204756975,0.0341176688671112,0.0371169224381446,0.0547027550637722
1783197227713021000,2.89102099609375,-0.0352269423343241,0.0261969559215009,-0.2082312470257282,0.0569493621587753,0.0317034609615802,0.0605408363044261
1783197227722957600,2.90095751953125,-0.0347543563865125,0.0199973706290125,-0.1270107614099979,0.0715027377009391,0.0240884199738502,0.0618119649589061
1783197227732894700,2.910894775390625,-0.0560753768347203,-0.00983779566437,-0.0676321052461862,0.0700830817222595,0.0071321106515824,0.0585208311676979
1783197227742831600,2.92083154296875,-0.0690819387283176,-0.045947073791176,0.0120633627593517,0.0590602569282054,-0.0079461745917797,0.0561876371502876
1783197227752769800,2.930769775390625,-0.0970800257876515,-0.0702910953223705,0.0850993728756904,0.0372065901756286,-0.022458791732788,0.0483546070754528
1783197227762706700,2.940706787109375,-0.1518763225972652,-0.0912874138608574,0.1331581781238317,0.0188422296196222,-0.0182006657123565,0.0336981639266014
1783197227772643800,2.950643798828125,-0.1981421800140291,-0.116654202568531,0.1386187816172838,0.0068429154343903,-0.024022202938795,0.0092138722538948
1783197227782580700,2.960580810546875,-0.207871108476445,-0.1314938981734216,0.0912999810814857,-0.0016621556133031,-0.0302449464797973,-0.0161093287169933
1783197227792518700,2.9705185546875,-0.1827638474877923,-0.1274953300565481,0.0277349791437387,-0.0034430464729666,-0.0376260876655578,-0.026044338941574
1783197227802455600,2.98045556640625,-0.1301581195250153,-0.0915444573618471,-0.0119645785599946,0.0041850451380014,-0.0435577407479286,-0.0300808921456336
1783197227812392700,2.990392822265625,-0.0619835048999637,-0.0609681173123419,-0.1029103393763303,0.0241637378931045,-0.0500578209757804,-0.0178314037621021
1783197227822329900,3.000329833984375,-0.0086786156918853,-0.0432091732598841,-0.1311959381401538,0.033040851354599,-0.0600870214402675,-0.0099796056747436
1783197227832267800,3.010267822265625,0.0057649202022701,0.0182096104294061,-0.201838331118226,0.0394607186317443,-0.0478137619793415,-0.0018149999668821
1783197227842204700,3.02020458984375,0.0112534346159547,0.0288183904662728,-0.2110410437494516,0.0390271581709384,-0.0268046148121356,0.0036396866198629
1783197227852141600,3.0301416015625,0.0081669398427009,0.0478805260717868,-0.2130874548852443,0.0290908813476562,-0.0074878018349409,0.0001972215250134
1783197227862078700,3.04007861328125,-0.0268748551830649,0.0791715902619063,-0.1988829884439706,0.0162624344229698,0.0117484768852591,-0.0063826506957411
1783197227872015600,3.050015625,-0.0751348820917308,0.0760901369899511,-0.2398410217761993,0.0082483999431133,0.0282552018761634,-0.009657958522439
1783197227881953800,3.059953857421875,-0.0676256755053997,0.0450191452912986,-0.242210088995099,0.0010389564558863,0.0266565047204494,-0.0105631668120622
1783197227891890700,3.069890625,-0.0461624701075255,0.0394936598680913,-0.2946639143317938,0.0139657240360975,0.0208556875586509,-0.0153069030493497
1783197227901827600,3.07982763671875,-0.0238463011421263,0.0484415209554135,-0.3179489283293485,0.0328182391822338,0.0235803686082363,-0.0122964661568403
1783197227911764700,3.0897646484375,-0.0051012686617672,0.0787489809356629,-0.3294534881621599,0.0540965087711811,0.029224619269371,-0.0031227767467498
1783197227921702700,3.09970263671875,0.0236535550490021,0.1080135077342391,-0.3239151432573795,0.0762188583612442,0.0342561304569244,0.009300603531301
1783197227931639600,3.1096396484375,0.0510389901027083,0.1271842182807624,-0.2997632832974195,0.0869683921337127,0.0382087118923664,0.0211041141301393
1783197227941576700,3.11957666015625,0.0616997925877571,0.1316438280381262,-0.2614543031692504,0.0945544019341468,0.0572180896997451,0.0308060105890035
1783197227951513900,3.129513916015625,0.044024289035052,0.1492296074807644,-0.1896177319705486,0.0973398312926292,0.0661518797278404,0.0334903225302696
1783197227961451800,3.13945166015625,0.0442323788277804,0.1550137438401579,-0.1491547886788845,0.0969022735953331,0.0758319422602653,0.0380259528756141
1783197227971388700,3.149388671875,0.049373614173755,0.1585205829173326,-0.1139788458794355,0.0895527973771095,0.0843213126063346,0.0408093221485614
1783197227981325600,3.15932568359375,0.065833677522093,0.1686658370956778,-0.0677361501425504,0.0791392996907234,0.0892247259616851,0.037387691438198
1783197227991262700,3.1692626953125,0.0916102891396731,0.1833528263568878,-0.0264385095924139,0.0629573315382003,0.0933391079306602,0.0430946573615074
1783197228001200600,3.17920068359375,0.1193321896061301,0.1985933578476309,0.0276484699040651,0.0395651906728744,0.0816227942705154,0.0476811565458774
1783197228011137800,3.1891376953125,0.1415128956235945,0.2077966550007462,0.0650724838912487,0.0218473523855209,0.0820453092455864,0.053930252790451
1783197228021074700,3.19907470703125,0.1384399909842759,0.223455704164505,0.07118716737926,0.019930675625801,0.0943600311875343,0.0583803914487361
1783197228031011600,3.209011474609375,0.1585120342846959,0.2560468911677598,0.0735702631235122,0.0303428247570991,0.1013816595077514,0.0703813433647155
1783197228040949500,3.218949462890625,0.2057762550890445,0.2797933851972222,0.02672550984025,0.0332845523953437,0.0709193572402,0.0781527161598205
1783197228050886700,3.22888671875,0.2361506428256631,0.3110334498524665,-0.0523176317363977,0.0425727255642414,0.0569684728980064,0.1050997748970985
1783197228060823600,3.238823486328125,0.3010405366916209,0.2756546779572963,-0.0474900654494762,0.0396608226001262,0.0481028109788894,0.1317047476768493
1783197228070760700,3.2487607421875,0.3128750591311603,0.2242915704667568,-0.0443231258511543,0.03114640340209,0.0441046841442585,0.1629528701305389
1783197228080698600,3.25869873046875,0.2403698679558932,0.1756567188963294,-0.0700175390779972,0.0211880430579185,0.0537149682641029,0.181083396077156
1783197228090635800,3.2686357421875,0.131056310473755,0.1107382565230131,-0.080676295736432,0.0203144550323486,0.057198941707611,0.1830840110778808
1783197228100572700,3.27857275390625,0.0397131478376686,0.0509925206124782,-0.1224906536370515,0.0307849384844303,0.0664976388216018,0.1759824305772781
1783197228110509600,3.288509521484375,-0.0366053180154413,-0.0024584990680217,-0.1573983008891344,0.046118140220642,0.076062187552452,0.1607916504144668
1783197228120446700,3.29844677734375,-0.0791541276704519,-0.0509773230433464,-0.1306938338369131,0.0622808672487735,0.0786254778504371,0.1418203562498092
1783197228130384600,3.308384521484375,-0.1252163522738963,-0.0601882189810276,-0.1610761126190424,0.0828649401664733,0.0975084379315376,0.1225621402263641
1783197228140321800,3.31832177734375,-0.1441848913118243,-0.0859293939590454,-0.1174421380758285,0.092288538813591,0.1109542027115821,0.1067501530051231
1783197228150258700,3.3282587890625,-0.1615717141162604,-0.09673778822124,-0.0373906962394714,0.0866868421435356,0.112275131046772,0.0925725474953651
1783197228160195800,3.33819580078125,-0.1635201447702944,-0.1145738891631364,0.042995676639676,0.0729273557662963,0.1030198484659195,0.0919621512293815
1783197228170133800,3.3481337890625,-0.1344419343240559,-0.140196113936603,0.0988876597315073,0.0563073456287384,0.0769843608140945,0.0943474844098091
1783197228180071000,3.35807080078125,-0.0938693931780755,-0.1716042286351323,0.1084340712338686,0.0428091138601303,0.0496416874229908,0.1047029197216034
1783197228190007800,3.3680078125,-0.1012690019100904,-0.2000295281305909,0.0788987646698951,0.0422603450715541,0.0360405445098876,0.1068024039268493
1783197228199944700,3.37794482421875,-0.1585104268494993,-0.2103518924415111,0.0349859731853008,0.0466993041336536,0.0288833007216453,0.1028196513652801
1783197228209882600,3.387882568359375,-0.2489820673480629,-0.2094394537717104,-0.0126338561236858,0.0596733428537845,0.0456450395286083,0.0824978649616241
1783197228219819800,3.39781982421875,-0.3208073134351522,-0.2300342057719826,-0.0447001424700021,0.0645735636353492,0.0784381404519081,0.0516938790678978
1783197228229757000,3.4077568359375,-0.3618969372577965,-0.2513160632535815,0.0203062904477119,0.0570075809955596,0.0802513882517814,0.0278957709670066
1783197228239693800,3.41769384765625,-0.3694941874537616,-0.2351271449968218,0.036850598013401,0.0501861609518528,0.076810322701931,0.0107383551076054
1783197228249632000,3.427632080078125,-0.3086709585048258,-0.2238327207833528,0.0223971252471208,0.0502565242350101,0.0638587176799774,0.0001407759264111
1783197228259569000,3.43756884765625,-0.2262181546151637,-0.1937950176551938,0.0288455707341432,0.0546795018017292,0.058028794825077,0.0042891819030046
1783197228269505800,3.447505859375,-0.1442328951720148,-0.1324944535180926,-0.0641004239886999,0.0708286240696907,0.0597187392413616,0.0144107136875391
1783197228279442700,3.457442626953125,-0.1002173009000718,-0.0983507763758301,-0.1227893443226814,0.0824157744646072,0.0498714372515678,0.018279755488038
1783197228289380900,3.467380859375,-0.1021501686587929,-0.0721931295514106,-0.1405161396712064,0.0870256051421165,0.0440719090402126,0.0183537676930427
1783197228299317800,3.47731787109375,-0.0819140939030796,-0.0760626644611358,-0.1733235997736454,0.084904134273529,0.0522129274904727,0.0165071319788694
1783197228309255000,3.4872548828125,-0.0598945697966963,-0.1212573124498128,-0.1382318281263113,0.0764786973595619,0.0564871281385421,0.0127377044409513
1783197228319191800,3.49719189453125,-0.1007115141578018,-0.1098442302927374,-0.0995230350255966,0.0751167610287666,0.0550759173929691,-0.0016345777548849
1783197228329129700,3.507129638671875,-0.1303622637949884,-0.0589981324136257,-0.0617114830255508,0.0684476569294929,0.0445533767342567,-0.0118608865886926
1783197228339066600,3.517066650390625,-0.1230553017824888,-0.061987085096538,-0.0462795206159353,0.0677187517285347,0.0485089682042598,-0.0218962114304304
1783197228349003800,3.527003662109375,-0.1053905388195067,-0.0865837662145495,-0.0804401488929986,0.0744140222668647,0.050341859459877,-0.0172199793159961
1783197228358941000,3.53694091796875,-0.0563186110060662,-0.0830909556627273,-0.108759649926424,0.0879372879862785,0.0459039658308029,-0.0202229600399732
1783197228368877800,3.5468779296875,-0.0367236836981028,-0.0394531817272305,-0.1709714836895465,0.0957928746938705,0.0594771429896354,-0.0156975388526916
1783197228378816000,3.55681591796875,-0.0015624270111322,-0.0318240020230412,-0.1828700112760067,0.0943915173411369,0.0713628381490707,-0.0129656670615077
1783197228388752600,3.566752685546875,-0.0164510032590478,-0.0333133637979626,-0.1072965916365385,0.0868791341781616,0.070548228919506,-0.0093037197366356
1783197228398689800,3.576689697265625,-0.0299000482231378,-0.0261576468244194,-0.0528553918749093,0.0662153959274292,0.0524517782032489,-0.012637997046113
1783197228408626700,3.586626708984375,-0.0398022874258458,-0.0627016631066799,-0.0364519540846347,0.0606042109429836,0.0496755614876747,-0.0200104136019945
1783197228418564900,3.59656494140625,-0.0507525013115257,-0.0691141604974865,-0.0019061258822679,0.0615349858999252,0.0499330908060073,-0.0352101400494575
1783197228428501800,3.606501708984375,-0.0762587715551257,-0.0035325580403208,-0.0092348613351583,0.0661571025848388,0.0690463930368423,-0.046605460345745
1783197228438439000,3.61643896484375,-0.1105823353089392,-0.0025914777979254,0.0006342062503099,0.0671944022178649,0.0791091471910476,-0.0544711090624332
1783197228448375800,3.626375732421875,-0.0629546149544417,0.0032657237976789,0.0675239686965942,0.0657398253679275,0.0575833655893802,-0.0598687045276165
1783197228458313700,3.636313720703125,-0.0021272212870419,0.0243231248736381,0.0569540593653917,0.0563881285488605,0.0411513969302177,-0.0608601979911327
1783197228468250600,3.646250732421875,0.0245878402244299,0.0050084758117794,0.1229682080209255,0.0407835654914379,0.0370943173766136,-0.0607657544314861
1783197228478187800,3.656187744140625,0.0071027446772903,-0.011993804654479,0.1577279712349176,0.0192729476839303,0.0427013374865055,-0.0583939440548419
1783197228488125000,3.666125,0.0083713033083826,0.0040770401805639,0.1732791761100292,0.0038618156686425,0.0417554639279842,-0.0561524778604507
1783197228498062800,3.676062744140625,0.0445369147323071,0.0418967754870653,0.1632224769979715,-0.0059689776971936,0.0346711911261081,-0.0448678657412529
1783197228508000000,3.686,0.0903725640382617,0.0739656921818852,0.1395399881154298,-0.0151295755058527,0.0322921350598335,-0.0307534765452146
1783197228517936600,3.6959365234375,0.1186388005144894,0.0765296974509954,0.1146785185813903,-0.0182811599224805,0.0360258854925632,-0.0164773371070623
1783197228527873800,3.705873779296875,0.1130944642603397,0.0881228123500943,0.1354834062010049,-0.0213912110775709,0.028042197227478,-0.011721515096724
1783197228537811700,3.715811767578125,0.0970904010511934,0.0900169555336237,0.1387251646012067,-0.014719458296895,0.0184769220650196,-0.0024917982518672
1783197228547748900,3.725748779296875,0.1129558595072478,0.0634825843513011,0.131307581821084,-0.0072236442938447,0.0091979410499334,0.0040220031514763
1783197228557685800,3.735685791015625,0.1464479408729821,0.0724286918729543,0.1367103176474571,1.24303624033e-05,-0.0124037573114037,0.0058031249791383
1783197228567623000,3.745622802734375,0.1498909209337085,0.0694315558835864,0.1255126318067312,0.0068889684043824,-0.0205847527831792,0.0010845097713172
1783197228577559800,3.755559814453125,0.088523355975002,0.064182257053256,0.1181821427881717,0.0114461695775389,-0.0166382156312465,-0.0047350297681987
1783197228587497700,3.765497802734375,0.0635857524648308,0.0556982140854001,0.1712842029005289,0.0140833184123039,-0.021991666406393,-0.0142443776130676
1783197228597435000,3.775434814453125,0.0564934561163187,0.0549146624922752,0.1414776781797408,0.0129077984020113,-0.0184182338416576,-0.0253303181380033
1783197228607371800,3.785371826171875,0.0653423868738114,0.0357402986839413,0.1584896032571792,0.0014991052448749,-0.0063807582482695,-0.0312339384108781
1783197228617309000,3.795308837890625,0.0848651987936347,0.0506567127868533,0.251022341004014,-0.0238824151456356,-0.0065440107136964,-0.0315545834600925
1783197228627246800,3.805246826171875,0.0988537574619054,0.0600292290270328,0.2739624870866537,-0.0452361814677715,-0.0099130384624004,-0.0169429220259189
1783197228637184000,3.81518408203125,0.121359603780508,0.0372267378494143,0.2366051085948944,-0.061629269272089,0.0077256099320948,-0.0075864382088184
1783197228647120600,3.82512060546875,0.0975580185629427,0.0293614113017916,0.2117576675862073,-0.0678334757685661,0.0173264108598232,-0.0027435179799795
1783197228657057800,3.835057861328125,0.0897376271355897,0.0732139970317482,0.1804237871676683,-0.0711413845419883,0.0105103161185979,0.0066174929961562
1783197228666995700,3.84499560546875,0.104919633372128,0.0765066088363528,0.1572270359754562,-0.0768880099058151,-0.0114311119541525,0.0200670920312404
1783197228676932900,3.854932861328125,0.1499827639356255,0.0310837050497531,0.174762108144164,-0.0784571468830108,-0.0389330461621284,0.0366972014307975
1783197228686869800,3.864869873046875,0.1462359055574983,0.0139791332527995,0.1424386321663856,-0.0706292539834976,-0.057829026132822,0.0494347587227821
1783197228696807000,3.874806884765625,0.1099250404439866,0.0061044543549418,0.0738017337918281,-0.0572250224649906,-0.0524768754839897,0.0508949682116508
1783197228706744800,3.884744873046875,0.0480832090370357,0.033113165050745,0.078160513523221,-0.0467791967093944,-0.0547256246209144,0.0411555990576744
1783197228716681700,3.894681640625,-0.0057027416862547,0.0422045262619853,0.0750543642014265,-0.0428443774580955,-0.0440109297633171,0.0286965332925319
1783197228726619000,3.904618896484375,-0.027517098609358,-0.0023830957442522,0.0536252072036266,-0.0510972701013088,-0.018935028463602,0.0184211954474449
1783197228736555800,3.9145556640625,-0.029593758752942,-0.0309933964177966,0.1051917283117771,-0.0693633556365966,-0.0092712165787816,0.0116807334125041
1783197228746493700,3.92449365234375,-0.0108219843961298,-0.0152449154049158,0.1377566118299961,-0.094101533293724,-0.0246008783578872,0.0136983953416347
1783197228756430800,3.934430908203125,0.0359374286912381,-0.0142310621872544,0.1468511879116296,-0.1209435313940048,-0.0348487198352813,0.0217853505164384
1783197228766368000,3.944367919921875,0.0916040055293589,-0.0462859503567218,0.1633586705982685,-0.1349384486675262,-0.0524796470999717,0.0328217521309852
1783197228776304600,3.9543046875,0.1194238864775747,-0.0346720849305391,0.1472334652274847,-0.1374857574701309,-0.0765191987156868,0.0360772013664245
1783197228786241800,3.96424169921875,0.1050802307613194,-0.0295502118721604,0.0943821650058031,-0.1334600001573562,-0.0869410634040832,0.0341587737202644
1783197228796179700,3.9741796875,0.0494416379086673,-0.022523674236238,0.0283650937408208,-0.1144346520304679,-0.0854867100715637,0.0275221802294254
1783197228806116900,3.984116943359375,0.0020695728156715,-0.031391748085618,-0.0159878427267074,-0.1021285951137542,-0.0803301036357879,0.0208728611469268
1783197228816053800,3.9940537109375,-0.0140023679979145,-0.0194540575325489,-0.0099964933574199,-0.0889006778597831,-0.0833658427000045,0.0173921100795269
1783197228825991000,4.003990966796875,-0.0014933072976768,-0.0146899118706583,-0.0457902757942676,-0.0739896297454834,-0.058983240276575,0.0227837059646844
1783197228835928800,4.0139287109375,-0.0161094963449984,-0.0173024324566125,-0.0392301866263151,-0.073025032877922,-0.034768983721733,0.0231434982270002
1783197228845865700,4.02386572265625,-0.0078069474238902,0.0126475923880934,0.0467354476898908,-0.0818568170070648,-0.0470161810517311,0.0181894265115261
1783197228855803000,4.033802978515625,0.0197397426061332,0.0160129771679639,0.0930295813530683,-0.1021975129842758,-0.0671336948871612,0.0210962668061256
1783197228865739800,4.04373974609375,0.0473249380156397,-0.0317056363403797,0.1519821210592985,-0.1242807582020759,-0.0837258398532867,0.023069754242897
1783197228875678000,4.053677978515625,0.0475124964769929,-0.0330734175622463,0.196370128840208,-0.1478465348482132,-0.0970451086759567,0.0218516252934932
1783197228885614800,4.06361474609375,0.0280173032164573,-0.0061699208065867,0.2401309446334838,-0.1571119725704193,-0.107148565351963,0.0209146104753017
1783197228895552000,4.073552001953125,0.0242422416571527,0.0236263747811317,0.203891756516695,-0.1563756167888641,-0.0975153818726539,0.0222493857145309
1783197228905488600,4.083488525390625,0.0461928652457892,0.036199732889235,0.1795300531983375,-0.1481228619813919,-0.1052958592772483,0.0222048107534647
1783197228915426800,4.0934267578125,0.0647061347968876,0.062354457104206,0.1828904695421457,-0.1416263431310653,-0.1185570657253265,0.025328965857625
1783197228925363700,4.10336376953125,0.0846188228171318,0.0610651479460299,0.1320206985265016,-0.1381041407585144,-0.1134974583983421,0.0288118328899145
1783197228935300900,4.11330078125,0.0621055238444358,0.0306742474660277,0.1322071610093116,-0.1415215134620666,-0.1105866208672523,0.0254613105207681
1783197228945237800,4.12323779296875,0.0340428471162915,0.0143085113376379,0.1210983224958181,-0.1535438746213913,-0.1127752885222435,0.0286700017750263
1783197228955176000,4.133176025390625,0.0112511695936322,-0.0330647958643734,0.0841010094881057,-0.1686290800571441,-0.1078284680843353,0.0288207344710826
1783197228965112800,4.14311279296875,0.0026650544907897,-0.0818584912583231,0.0669382777631282,-0.1723368316888809,-0.1052213683724403,0.0179792623966932
1783197228975049700,4.1530498046875,-0.0151009038243442,-0.1053010339051485,-0.0041232174098491,-0.1692760586738586,-0.0929551124572753,0.0044551971368491
1783197228984987000,4.16298681640625,-0.0464654716420918,-0.1088921902649104,-0.0446639021128416,-0.1643654108047485,-0.0943939685821533,-0.0051728026010096
1783197228994923800,4.172923828125,-0.0797465406056493,-0.1005272436320781,-0.1187526361525058,-0.1477344930171966,-0.0848156437277793,-0.0101025803014636
1783197229004862000,4.182862060546875,-0.0881930280420929,-0.1473617677822709,-0.1699351263791322,-0.1371306031942367,-0.0892070829868316,-0.0092831887304782
1783197229014798800,4.192798828125,-0.0701738986834883,-0.1319623924680054,-0.2251642616480589,-0.1210288777947425,-0.0870081111788749,-0.0102187572047114
1783197229024736000,4.202736083984375,-0.0641873716197908,-0.114874917936325,-0.2596265032202005,-0.1101250723004341,-0.0877302065491676,-0.0102202920243144
1783197229034672600,4.212672607421875,-0.0608507014777511,-0.1103492572054266,-0.2315560085117816,-0.106279470026493,-0.0883597806096077,-0.0057365940883755
1783197229044610800,4.22261083984375,-0.0697578652285039,-0.1060479067496955,-0.2448170566231012,-0.1036211773753166,-0.0742010548710823,-0.0066401534713804
1783197229054547700,4.232547607421875,-0.1120892327405512,-0.0888641322366893,-0.2381634439527988,-0.1075543984770774,-0.0594615191221237,-0.0139444060623645
1783197229064484900,4.24248486328125,-0.1586494699940085,-0.0743611212402582,-0.2273866138726472,-0.1089153662323951,-0.0497608259320259,-0.0179402250796556
1783197229074421800,4.252421875,-0.1745594251789152,-0.0953337666422128,-0.260138544395566,-0.103630319237709,-0.053039975464344,-0.0255981441587209
1783197229084360000,4.26235986328125,-0.1770909894831478,-0.1260591597735881,-0.2957388500869274,-0.0961538255214691,-0.0510087236762046,-0.0297778993844985
1783197229094296800,4.272296875,-0.1900340576864778,-0.1126018584378063,-0.2941869444698095,-0.0848239436745643,-0.0468669757246971,-0.0439792051911354
1783197229104233700,4.282233642578125,-0.1981919374398887,-0.0961108884945511,-0.2449807227522134,-0.0803765878081321,-0.046902447938919,-0.0531214065849781
1783197229114171000,4.2921708984375,-0.1780143879383802,-0.0681027914978563,-0.2243243036925792,-0.0754255056381225,-0.047865979373455,-0.052501156926155
1783197229124108800,4.30210888671875,-0.1527510596051812,-0.0614019786849617,-0.2261515191197395,-0.0703794360160827,-0.0367514491081237,-0.0569251626729965
1783197229134046000,4.3120458984375,-0.147365274913609,-0.0406955830037593,-0.1973392661333084,-0.0639569610357284,-0.0332499258220195,-0.0573677793145179
1783197229143982800,4.32198291015625,-0.1389785548403859,-0.0085709905989468,-0.1724485705047845,-0.0636171102523803,-0.0299342311918735,-0.0575637370347976
1783197229153919200,4.331919189453125,-0.1037578961163759,0.0040754327453672,-0.1403787770271301,-0.0645766407251358,-0.0360688231885433,-0.0550268106162548
1783197229163857200,4.341857177734375,-0.0670912763677537,-0.0123700906209647,-0.1272036536335945,-0.0630136951804161,-0.0447107218205928,-0.052190463989973
1783197229173794300,4.351794189453125,-0.0428517381243407,0.0163097681574523,-0.133577280318737,-0.0570266433060169,-0.0403194352984428,-0.0512061603367328
1783197229183731200,4.361731201171875,-0.0530870086736977,0.048073272164911,-0.112594113522768,-0.052979826927185,-0.0341220125555992,-0.049255471676588
1783197229193668000,4.371668212890625,-0.0597727700479328,0.0524810056045651,-0.1111935990750789,-0.0509046912193298,-0.0289573464542627,-0.0499867759644985
1783197229203605200,4.381605224609375,-0.0530612897105515,0.0587101092524826,-0.1279120941638946,-0.0504374168813228,-0.0312955640256404,-0.0514777041971683
1783197229213543200,4.391543212890625,-0.0021370120286941,0.0501722902707755,-0.100221538683772,-0.0542281605303287,-0.040853913873434,-0.0494339950382709
1783197229223480300,4.401480224609375,0.0308672858200967,0.0358346989691257,-0.0920002383053302,-0.0585183575749397,-0.0535239279270172,-0.0464651808142662
1783197229233417200,4.411417236328125,0.0533668485283851,0.040730800447613,-0.0839443576216697,-0.0602731183171272,-0.0541838593780994,-0.0420946665108203
1783197229243354400,4.421354248046875,0.0302856865398585,0.0522803684659302,-0.1445440800130367,-0.0545850358903408,-0.0222297571599483,-0.0394546352326869
1783197229253292300,4.431292236328125,0.0036529695495963,0.0515318881861865,-0.1298848555415868,-0.0477351173758506,-0.0157516188919544,-0.0448898822069168
1783197229263229200,4.441229248046875,0.0037099604338407,0.064672670918703,-0.1409124455124139,-0.0347311608493328,-0.0254800170660018,-0.0454783998429775
1783197229273166000,4.451166015625,0.0416444081611931,0.0402197821855545,-0.1983165867328643,-0.0232340283691883,-0.0156148690730333,-0.0490856543183326
1783197229283103200,4.461103271484375,0.0251266963414847,0.0221880125410854,-0.1971767690479755,-0.0129156494513154,0.0004460713826119,-0.053985197097063
1783197229293041200,4.471041259765625,-0.0039648119777441,0.048852732104808,-0.1360515614777803,-0.0078724203631281,0.0043960721231997,-0.0596990101039409
1783197229302978300,4.480978271484375,-0.0033693303026258,0.0777222682364285,-0.1222930852383375,-0.0085611985996365,-0.0014887186698615,-0.0540874376893043
1783197229312915200,4.490915283203125,0.0732857470937073,0.0706374245420098,-0.0838584329038858,-0.013244635425508,-0.0120833069086074,-0.0401934571564197
1783197229322852000,4.50085205078125,0.0844002846956253,0.076707684366405,-0.0495271242350339,-0.0171468593180179,-0.011331332847476,-0.0262829326093196
1783197229332790000,4.5107900390625,0.0788227768242359,0.0864161545626819,0.0092512279480695,-0.0232116747647523,-0.0156589709222316,-0.0201030671596527
1783197229342727200,4.52072705078125,0.0674339523255825,0.0939510801121592,0.0601888035029172,-0.029518911615014,-0.018174298107624,-0.0206732004880905
1783197229352664300,4.530664306640625,0.0567249267846345,0.0978334745034575,0.1063917517513036,-0.0369171723723411,-0.0142205702140927,-0.0253720805048942
1783197229362601200,4.540601318359375,0.0147846044167876,0.0990836206950247,0.148926240620017,-0.0545652769505977,-0.0133837200701236,-0.0381090566515922
1783197229372538400,4.550538330078125,-9.00163710117e-05,0.1056119995504617,0.1654068352997303,-0.0711676925420761,-0.0275450777262449,-0.0463446155190467
1783197229382476300,4.560476318359375,0.0198614692896604,0.1094945400722324,0.1762450401782989,-0.0845776721835136,-0.0409933812916278,-0.0438063405454158
1783197229392413200,4.5704130859375,0.0410386973530054,0.0890812821187078,0.0706774642914533,-0.0891769528388977,-0.0321703255176544,-0.0408241339027881
1783197229402350000,4.58035009765625,0.0528054152533412,0.0774998576574027,0.0021048633247613,-0.0865042358636856,-0.0223453156650066,-0.0339332930743694
1783197229412287200,4.590287353515625,0.0509429823823273,0.104894352800399,-0.0824509041935205,-0.0788300707936286,-0.0215857811272144,-0.0248199552297592
1783197229422225200,4.60022509765625,0.0866029093064367,0.1086703642077744,-0.132374334269762,-0.0698978155851364,-0.0249617118388414,-0.0156663432717323
1783197229432162300,4.610162353515625,0.1117458261303603,0.083684537641704,-0.1600894396692514,-0.0598315931856632,-0.0223653968423604,-0.0060507329180836
1783197229442099500,4.620099365234375,0.0843853793874382,0.0834434223622083,-0.1699286966383457,-0.048673503100872,-0.0137014929205179,0.0009232242591679
1783197229452036000,4.6300361328125,0.0415935547567904,0.0912077727533876,-0.1468248844265937,-0.043419886380434,-0.0157968681305646,-0.0033024137374013
1783197229461974000,4.63997412109375,0.0294986278153955,0.0894889861367642,-0.1225800854861736,-0.0413080602884292,-0.027530962601304,-0.006026750896126
1783197229471911200,4.6499111328125,0.0457489208705723,0.0536143935486674,-0.1546416956573724,-0.0406459979712963,-0.0261559728533029,0.0005414029583334
1783197229481848300,4.659848388671875,0.033669776020199,0.0442031527332961,-0.1831716245710849,-0.04218140989542,-0.0174364149570465,0.001352563733235
1783197229491785200,4.66978515625,-0.0030215397782623,0.0607291939899325,-0.2021539729386568,-0.0396961495280265,-0.00758165307343,0.0018500422593206
1783197229501722400,4.679722412109375,-0.0152741414994001,0.0786281310349702,-0.2531494161605835,-0.0402435548603534,6.66249543428e-05,0.0060971495695412
1783197229511660300,4.689660400390625,0.0164881934642791,0.0316353475831449,-0.2764619026869535,-0.0333427712321281,0.0035143534187227,0.0159236826002597
1783197229521597200,4.69959716796875,0.0270166017413139,0.0035590076558291,-0.2953834607779979,-0.0190948881208896,0.0202185772359371,0.0240318533033132
1783197229531534000,4.7095341796875,-0.0030583646573126,0.019188976855576,-0.3069166621834039,0.0033781947568058,0.0388210229575634,0.0262377485632896
1783197229541471200,4.71947119140625,-0.0301065305806696,0.0334619784884154,-0.2828600792914629,0.0281275697052478,0.0325269028544425,0.0250881146639585
1783197229551409200,4.7294091796875,-0.0284000189237296,0.0197005796395242,-0.2415577625662088,0.0379437133669853,0.0119502563029527,0.025263350456953
1783197229561346300,4.73934619140625,-0.0107929044321179,-0.027923633583635,-0.2191261505275964,0.0364529751241207,0.0014839363284409,0.0248941965401172
1783197229571283500,4.749283447265625,-0.0377931395605206,-0.0817547386229038,-0.200713711002469,0.0337005965411663,0.0035486849956214,0.0223410241305828
1783197229581220000,4.75922021484375,-0.0926565102569758,-0.0633043051749467,-0.2166512848466634,0.0350198745727539,0.0302334781736135,0.0153074646368622
1783197229591158300,4.769158203125,-0.1420697988539934,-0.0440507386505603,-0.229112122491002,0.0330733731389045,0.0574706904590129,0.0015035022515803
1783197229601095200,4.77909521484375,-0.1563185428284108,-0.0735582804247736,-0.1751484771132469,0.0252359136939048,0.0659379884600639,-0.0117133483290672
1783197229611032300,4.7890322265625,-0.1553197410494089,-0.1088395832948386,-0.1910480570346117,0.0282431542873382,0.0793169140815734,-0.020975824445486
1783197229620969200,4.79896923828125,-0.1625675202205777,-0.1168399343989789,-0.2011626238137483,0.0327512100338935,0.0886904969811439,-0.0336891189217567
1783197229630906400,4.80890625,-0.1556418126106262,-0.0772556736379861,-0.1531044030874967,0.0363360941410064,0.0689910948276519,-0.0420639626681804
1783197229640844300,4.81884423828125,-0.0921701880447566,-0.0343982364252209,-0.155528415364027,0.0418242625892162,0.0496930554509162,-0.0341577865183353
1783197229650781200,4.82878125,0.0250806652426719,-0.0381476520866155,-0.162678871640563,0.0428160242736339,0.0307696983218193,-0.0097496481612324
1783197229660718000,4.838718017578125,0.1050841762840747,-0.0703695673860609,-0.2129004078805446,0.0552808791399002,0.0331247597932815,0.0111157372593879
1783197229670655200,4.8486552734375,0.0854886644542217,-0.0851426274955272,-0.2891688240468502,0.0774887055158615,0.0365232191979885,0.0166391320526599
1783197229680593200,4.85859326171875,0.0386178999468684,-0.0886168794773519,-0.3186830878227949,0.1040768101811409,0.0356705822050571,0.0130709912627935
1783197229690530300,4.8685302734375,-0.0256070272043347,-0.1165296994060277,-0.4126140019297599,0.1292151808738708,0.043391615152359,0.0076453341171145
1783197229700467500,4.878467529296875,-0.1068137034904211,-0.163914404784888,-0.4346580759555101,0.1463653147220611,0.0496469847857952,-0.0041410303674638
1783197229710404000,4.888404052734375,-0.1615836968149989,-0.1387885852262377,-0.4380184922993183,0.157526358962059,0.0629571974277496,-0.0180882718414068
1783197229720342300,4.89834228515625,-0.1939042501833289,-0.1049653722099959,-0.4366255766361951,0.1594488471746444,0.081597551703453,-0.0221265852451324
1783197229730279200,4.908279052734375,-0.2008312729675322,-0.0689307667545974,-0.4068021007806062,0.1682577729225158,0.1073793470859527,-0.0225311201065778
1783197229740216300,4.91821630859375,-0.2201355467658489,-0.0243701788857579,-0.3933312093108892,0.1788398623466491,0.1340161710977554,-0.0236775483936071
1783197229750153200,4.9281533203125,-0.2323701013736426,0.0258149708665907,-0.3180728469699621,0.1973533630371093,0.1432821005582809,-0.0274890642613172
1783197229760090000,4.938090087890625,-0.2237549793720245,0.0542747571535408,-0.2418915245652198,0.2095312923192978,0.1329897493124008,-0.034375175833702
1783197229770028000,4.948028076171875,-0.2078940509606152,0.0850987883538007,-0.13621990378201,0.2131625115871429,0.1085070520639419,-0.0396415740251541
1783197229779965200,4.957965087890625,-0.1753991639386862,0.1078947036601603,-0.0213134216636419,0.202399268746376,0.0883970111608505,-0.0412234440445899
1783197229789902300,4.96790234375,-0.1450914847627282,0.1518120251893997,0.0483890601158142,0.1844706088304519,0.0776242613792419,-0.0371027328073978
1783197229799839200,4.977839111328125,-0.1138879527255892,0.2004234958842396,0.1137567275613546,0.1569567620754242,0.0823052674531936,-0.0316544882953166
1783197229809777200,4.987777099609375,-0.0819247614275664,0.2560607735626399,0.1450076058715581,0.1320639252662658,0.0972163081169128,-0.0288318060338497
1783197229819714300,4.99771435546875,-0.048274274629727,0.2794781817682087,0.1446264975994825,0.1157981604337692,0.1188161745667457,-0.0168305113911628
1783197229829651200,5.007651123046875,-0.0297953457396477,0.2823442387238145,0.1113262855440378,0.1081769987940788,0.1291939914226532,-0.0087126642465591
1783197229839588000,5.017588134765625,0.011070187003538,0.2813116808056831,0.09614099137187,0.104613684117794,0.1178904622793197,-0.0027367966249585
1783197229849525200,5.027525146484375,0.052988005278632,0.297050517207384,0.0786678785234689,0.1092894002795219,0.1004851013422012,0.0029514492489397
1783197229859463200,5.037463134765625,0.1120586914718151,0.2875761480279267,0.0784726482123136,0.1087877750396728,0.0903664752840995,0.0205550454556942
1783197229869400300,5.047400390625,0.1584565777704119,0.2913116812944412,0.0627975246965885,0.1094690114259719,0.0817958936095237,0.032178409397602
1783197229879337200,5.057337158203125,0.1776313799701631,0.3043780836164951,0.0788210232585668,0.101248599588871,0.070488192141056,0.042391013354063
1783197229889274000,5.067274169921875,0.1742728633224964,0.2984425560876727,0.0892313581138849,0.0814352110028266,0.0631586387753486,0.0528098307549953
1783197229899212000,5.0772119140625,0.164925700719282,0.2648912918806076,0.0702805739283561,0.0597249120473861,0.0672702342271804,0.0590577982366085
1783197229909149200,5.087149169921875,0.1447911866419017,0.2400019114263355,0.0351227513074874,0.0342174209654331,0.0833317637443542,0.0621966011822223
1783197229919086300,5.09708642578125,0.1140617018572986,0.2329031853370368,-0.0022013094365596,0.0125139271840453,0.1047246232628822,0.0628711283206939
1783197229929023200,5.107023193359375,0.1072545791257172,0.237742442061752,-0.074893036159873,-0.0035225627943873,0.130118116736412,0.0594311207532882
1783197229938960400,5.11696044921875,0.0984443729434162,0.1999456492394208,-0.2008937437444925,-0.0028437478467822,0.1804001182317733,0.0572798587381839
1783197229948898300,5.126898193359375,0.0588079436037689,0.1885904347494244,-0.2828887208640575,0.0058528040535748,0.2062176018953323,0.0522318370640277
1783197229958835200,5.136835205078125,0.0628749007817357,0.2523097504660487,-0.3468815928250551,0.0129234520718455,0.2214097082614898,0.0549187138676643
1783197229968772000,5.146772216796875,0.142692460796982,0.2791831443443894,-0.4089969804763794,0.0181581620126962,0.2400803416967392,0.0785662531852722
1783197229978709200,5.156709228515625,0.2189761475976556,0.2712424144729972,-0.388736282736063,0.0164730176329612,0.246127039194107,0.1112908869981765
1783197229988647200,5.166647216796875,0.259574334641546,0.247193430365622,-0.3742190970838069,0.010761602781713,0.2389471679925918,0.1431316435337066
1783197229998584300,5.176584228515625,0.2377893499433994,0.1798781359836459,-0.3560153318732976,0.0101267285645008,0.2376435995101928,0.1605781316757202
1783197230008521200,5.186521240234375,0.1339525433719158,0.0665922408044338,-0.2859878559231757,0.0109941195696592,0.2467588037252426,0.1603528410196304
1783197230018458000,5.1964580078125,0.0173495595339685,-0.0406041053280234,-0.2506394791662693,0.0252512022852897,0.2743470072746277,0.1510011255741119
1783197230028395300,5.206395263671875,-0.1268272215366363,-0.1609041170530021,-0.2701847221136093,0.0603892132639884,0.3219451606273651,0.1301424503326416
1783197230038333200,5.216333251953125,-0.2841144632667303,-0.2339000874198973,-0.178242351475358,0.0889252200722694,0.3516573905944824,0.0998029485344886
1783197230048270300,5.226270263671875,-0.4293206604503095,-0.2428914953880012,-0.0389987159579992,0.1167390048503875,0.357964277267456,0.065912626683712
1783197230058207200,5.236207275390625,-0.4560565455541014,-0.3019467648163437,0.1473871944844722,0.1334576606750488,0.3401882648468017,0.0374892354011535
1783197230068144400,5.246144287109375,-0.4105114036273211,-0.3685091950044035,0.3713350660800933,0.1301897019147873,0.2992663979530334,0.0168854258954525
1783197230078082300,5.256082275390625,-0.3647993807010352,-0.353907253678143,0.6113368313759565,0.1103351786732673,0.2401552647352218,0.0056490795686841
1783197230088019200,5.266019287109375,-0.3098478933297097,-0.3436076857209205,0.7840256403774023,0.0740437507629394,0.1944181323051452,0.0124963326379656
1783197230097956000,5.2759560546875,-0.2444252077613025,-0.4277186320811509,0.8523480659753083,0.0266648419201374,0.1604405343532562,0.0160121228545904
1783197230107893200,5.285893310546875,-0.232880388983339,-0.468058533515036,0.9222983850359916,-0.0189513806253671,0.1245049014687538,0.0103584993630647
1783197230117830400,5.295830322265625,-0.2675872529663145,-0.5173557945169508,0.9326350701332092,-0.0510277152061462,0.087139680981636,0.0007524513639509
1783197230127768300,5.305768310546875,-0.304868789742887,-0.582300560375303,0.8819330568999052,-0.0681654289364814,0.0457589551806449,-0.0277984980493783
1783197230137705200,5.315705322265625,-0.3607708923699334,-0.6281875745423138,0.7703507507681846,-0.0805420503020286,0.0287377350032329,-0.0714866295456886
1783197230147642000,5.32564208984375,-0.4326098381888121,-0.6390428766861558,0.7000064639538526,-0.0989346429705619,0.0187929570674896,-0.1199375167489051
1783197230157579800,5.335579833984375,-0.5023344587348402,-0.6104520113654435,0.6275193198919296,-0.1111315563321113,0.013115394860506,-0.1716349869966507
1783197230167517000,5.345516845703125,-0.4897277828790247,-0.5918458028338849,0.5001309573411942,-0.1212244033813476,0.0190790109336376,-0.2122220993041992
1783197230177454800,5.355454833984375,-0.3927660131761804,-0.5434919601619244,0.3821966518342495,-0.1164926141500473,0.0201018303632736,-0.2329499274492263
1783197230187392000,5.36539208984375,-0.2843952895021066,-0.4253561407335102,0.2866992190629244,-0.1091380268335342,0.015054608695209,-0.2373782396316528
1783197230197329200,5.3753291015625,-0.2033874602563679,-0.3149024002403021,0.2249012267976999,-0.0972956717014312,0.0033439218532294,-0.2344065904617309
1783197230207265800,5.385265869140625,-0.1378617527049034,-0.2338463114060461,0.1832856063395738,-0.077035404741764,-0.0071904780343174,-0.2286658883094787
1783197230217203000,5.395202880859375,-0.0760656236032024,-0.1782173631645739,0.1412403622925281,-0.0524872578680515,-0.0268132146447896,-0.2245231568813324
1783197230227140900,5.405140869140625,-0.0308353563118726,-0.1149422840841114,0.1110948148757219,-0.0328943841159343,-0.0488700419664382,-0.2191430330276489
1783197230237078000,5.415078125,-0.0091333006568253,-0.0326230434462428,0.1028735144972801,-0.023442406207323,-0.0685499459505081,-0.2116964161396026
1783197230247015000,5.425014892578125,0.0069102543124929,0.0134118547588586,0.0890507408499717,-0.0293205380439758,-0.0748296827077865,-0.2024443298578262
1783197230256952000,5.4349521484375,0.0210238275999203,0.0634969051375985,0.0799351219803094,-0.0475614070892334,-0.0780666768550872,-0.1922490894794464
1783197230266889000,5.444888916015625,0.0525516231553629,0.1021587903566658,0.0683259327292442,-0.0600785315036773,-0.0826648920774459,-0.1836057901382446
1783197230276827000,5.454826904296875,0.0677147054957225,0.1272008771546185,0.0359627092629671,-0.0596052929759025,-0.0719126984477043,-0.1882749795913696
1783197230286764000,5.464763916015625,0.0838597846107557,0.163591748701781,-0.00813128400743,-0.0566097721457481,-0.0620363652706146,-0.1914760917425155
1783197230296701000,5.474700927734375,0.0942986879734322,0.1942312171153724,0.0073281509310007,-0.0496655069291591,-0.0609984025359153,-0.1958215683698654
1783197230306638000,5.48463818359375,0.1188502147754654,0.227112034714967,0.0220937583863735,-0.0423647165298461,-0.0611451417207717,-0.190602034330368
1783197230316575000,5.494574951171875,0.2059818606637418,0.242294990799576,0.0330342545956373,-0.0350021310150623,-0.0518527776002883,-0.1729723215103149
1783197230326511900,5.504511962890625,0.2834790514400229,0.2820192445531487,0.018539865297079,-0.032252948731184,-0.0359262749552726,-0.1439185589551925
1783197230336449800,5.51444970703125,0.2970424069661647,0.3368944518178701,0.0687345135301351,-0.0358845591545105,-0.0255772694945335,-0.1111004725098609
1783197230346387000,5.524386962890625,0.336412330856733,0.3668902155004441,0.1084241343617439,-0.0416415147483348,-0.0334948487579822,-0.0790096521377563
1783197230356323800,5.53432373046875,0.3763717085404321,0.3280145414002239,0.1133645133733749,-0.0414226688444614,-0.0387368276715278,-0.0548181794583797
1783197230366261000,5.544260986328125,0.3562311300484463,0.2794663451999425,0.1176689325690269,-0.0351802185177803,-0.0375234894454479,-0.0441948287189006
1783197230376198100,5.5541982421875,0.3218568590207025,0.2483675887115299,0.1507645619630813,-0.0319167822599411,-0.0440901033580303,-0.0444058775901794
1783197230386136000,5.564135986328125,0.2912834415806457,0.2096688786134123,0.198414201888442,-0.0441918224096298,-0.060957234352827,-0.040669996291399
1783197230396073000,5.574072998046875,0.2893797999164089,0.1583753292277455,0.2180646587759256,-0.0653349906206131,-0.0750273242592811,-0.0291330683976411
1783197230406009900,5.584009765625,0.2657586492996662,0.1010441071130335,0.2358212647408246,-0.0887255370616912,-0.0798574984073638,-0.0164803899824619
1783197230415947000,5.593947021484375,0.2292967583429068,0.0925065803922712,0.239813549247384,-0.1176551207900047,-0.0809647217392921,-0.0115336086601018
1783197230425884000,5.6038837890625,0.2144979792702943,0.0826964033871889,0.2230143901377916,-0.1311893165111541,-0.0849868953227996,-0.0020170691423118
1783197230435822000,5.613822021484375,0.1921726771503686,0.0396805607423186,0.1525935309559106,-0.1327515244483947,-0.0799814611673355,0.0083104558289051
1783197230445759000,5.623759033203125,0.1379305070921778,0.0097192838512361,0.0387479560673236,-0.127020925283432,-0.05804980173707,0.0130450231954455
1783197230455696000,5.63369580078125,0.0760254011906683,0.0168758776076138,-0.0248375041365623,-0.1199709326028823,-0.0450507327914238,0.0157833732664585
1783197230465633000,5.643633056640625,0.0481265367221087,-0.0086234514385461,-0.0662982262939214,-0.1127287447452545,-0.0395105592906475,0.0167056266218423
1783197230475570000,5.65356982421875,0.0493238567478954,-0.0581343551911413,-0.1199053133189678,-0.1083145439624786,-0.0249295886605978,0.0167131479829549
1783197230485507000,5.663507080078125,0.0382866952311247,-0.1025830071181058,-0.0945341406971216,-0.1014755517244339,-0.0227159690111875,0.014986352995038
1783197230495445000,5.673445068359375,0.0129495710093528,-0.1220543080464005,-0.0675748221009969,-0.0890962556004524,-0.0218489356338977,0.0185779836028814
1783197230505382000,5.6833818359375,-0.0092480130776762,-0.1205322130456566,-0.0548228925555944,-0.0750304982066154,-0.02690015360713,0.0189705342054367
1783197230515318800,5.69331884765625,-0.0463429412409663,-0.1199564589843154,-0.010652911439538,-0.0618331655859947,-0.0441453531384468,0.0101250493898987
1783197230525256000,5.703255859375,-0.0493158926371484,-0.1166163547761738,0.0110158995330333,-0.0558040291070938,-0.061506763100624,0.0028170689474791
1783197230535193000,5.713193115234375,-0.0315977189864963,-0.1037495666794478,0.0138619366139173,-0.0564953088760376,-0.0724535137414932,0.0014317806344479
1783197230545130000,5.7231298828125,-0.0234737415026873,-0.0813173701189458,0.0203413617610931,-0.0577150359749794,-0.0759153515100479,0.0074167028069496
1783197230555068000,5.73306787109375,-0.0314063611328601,-0.0515023698307573,0.0080839377343654,-0.0669482201337814,-0.0624276101589202,0.008562191389501
1783197230565004800,5.7430048828125,-0.0698998309824615,-0.039120296511054,0.0096487028330564,-0.0772570520639419,-0.0429660305380821,-0.0011828471906483
1783197230574942000,5.75294189453125,-0.0946858241274952,-0.0405623120129108,0.0254763865619897,-0.0798955038189888,-0.0299488026648759,-0.0149629190564155
1783197230584878800,5.76287890625,-0.0824395060166716,-0.0605354249835014,0.0120768067628145,-0.0849754810333252,-0.0232022162526845,-0.0214218832552433
1783197230594816000,5.77281591796875,-0.0455401004254817,-0.0771875768378377,0.0323603008568286,-0.0849541127681732,-0.0249485783278942,-0.0210492927581071
1783197230604753000,5.7827529296875,-0.028829204121232,-0.0617369097277522,0.0247457341998815,-0.0817748308181762,-0.0330419242382049,-0.0162340328097343
1783197230614691000,5.792691162109375,-0.022747911446169,-0.0745959529094398,0.0090478143304586,-0.0674242824316024,-0.0293263718485832,-0.0042941910214722
1783197230624627700,5.802627685546875,-0.0270990923929959,-0.0883254953153431,0.0084749828785657,-0.0540022179484367,-0.0408970080316066,0.006561386398971
1783197230634564900,5.81256494140625,-0.0380920494418591,-0.0817864489354193,0.0082651395201683,-0.0353917144238948,-0.0557180568575859,0.0153857199475169
1783197230644502000,5.822501953125,-0.0654630906440317,-0.0991894191570579,0.0169803608953952,-0.0182787775993347,-0.0767101570963859,0.0206007212400436
1783197230654439000,5.83243896484375,-0.0861504893638193,-0.1368514796838164,0.0390723657160997,0.0020480677485466,-0.0955584123730659,0.0209551881998777
1783197230664376000,5.8423759765625,-0.1118643379434943,-0.1644127096958458,0.0904886646986007,0.0241080969572067,-0.1113309785723686,0.0124700916931033
1783197230674312700,5.852312744140625,-0.1758778873663395,-0.1697496868096291,0.1230038638561964,0.0405183024704456,-0.1218312159180641,-0.0029720969032496
1783197230684251000,5.8622509765625,-0.2362036881871521,-0.1612925318486988,0.2000947023212909,0.0559049807488918,-0.1268486082553863,-0.0242182631045579
1783197230694187800,5.872187744140625,-0.2171827613748609,-0.1660217523276805,0.2701116568773984,0.061201523989439,-0.1521107852458953,-0.0399665236473083
1783197230704125000,5.882125,-0.1472839533057063,-0.1469277602791786,0.2692716989219189,0.0601863265037536,-0.1690125465393066,-0.0480971522629261
1783197230714062000,5.89206201171875,-0.1478719092614948,-0.1270731591217219,0.2763824077099561,0.0427309982478618,-0.1672035306692123,-0.0530220456421375
1783197230723999000,5.9019990234375,-0.1429404442086815,-0.1117629233956336,0.3410287751436233,0.0119792101904749,-0.1835130006074905,-0.0661399737000465
1783197230733935900,5.911935791015625,-0.150146503129974,-0.1011455216608941,0.3224865717589855,-0.0191094800829887,-0.1959491670131683,-0.0824859365820884
1783197230743872800,5.921872802734375,-0.1565109966605901,-0.1375720490433275,0.251102420502901,-0.0450284294784069,-0.198287159204483,-0.0991503968834877
1783197230753811000,5.93181103515625,-0.1521758170004934,-0.16354703277722,0.1608960798770189,-0.0644943341612815,-0.2043648213148117,-0.1216484010219574
1783197230763747800,5.941747802734375,-0.1639028604775667,-0.1498119374133646,0.0272626854568719,-0.0775001496076583,-0.1789774447679519,-0.1395837217569351
1783197230773685000,5.95168505859375,-0.1593120255559682,-0.1200397533535957,-0.093069328841567,-0.0861804261803627,-0.1370947808027267,-0.1481312662363052
1783197230783622100,5.9616220703125,-0.1493519186861813,-0.098723993602395,-0.1258943246006965,-0.0874070823192596,-0.1200335025787353,-0.1450188308954239
1783197230793558800,5.971558837890625,-0.0908726225148886,-0.0614959405787289,-0.2009685625463724,-0.073853813111782,-0.1212142631411552,-0.1290191709995269
1783197230803496000,5.981495849609375,-0.0293382496219128,-0.0523999031923711,-0.23497195443511,-0.0490011908113956,-0.1399677097797393,-0.1188568174839019
1783197230813433900,5.991433837890625,0.0216311093106865,-0.0121063251182436,-0.2688222015887498,-0.0127234356477856,-0.1622433513402938,-0.1117625162005424
1783197230823371000,6.00137109375,0.0358315571639686,0.0435695310048758,-0.2961743188947439,0.0278452970087528,-0.1605461239814758,-0.1010763123631477
1783197230833308000,6.011307861328125,0.0119542032964527,0.0981213515341281,-0.3044996641695499,0.05495011433959,-0.142269417643547,-0.0936168730258941
1783197230843245000,6.0212451171875,-0.0323467837881296,0.1256822892852127,-0.2240308737039565,0.0740987733006477,-0.1237809732556343,-0.0956440716981887
1783197230853182000,6.031181884765625,-0.0460422777939587,0.1618205012455582,-0.1505687471300363,0.0697760283946991,-0.1105756610631942,-0.1020433604717254
1783197230863118800,6.041118896484375,-0.0298643923878669,0.1381757140249014,-0.0773228936553001,0.050433225929737,-0.1054860949516296,-0.1069971024990081
1783197230873056000,6.051055908203125,-0.024311288305372,0.1119260050028562,0.0381587580025196,0.0146917384117841,-0.106593333184719,-0.1134193688631057
1783197230882993000,6.060992919921875,-0.0148109809670597,0.1125835921287536,0.1327326461881399,-0.0310677625238895,-0.1135740056633949,-0.1202298700809478
1783197230892931000,6.07093115234375,0.0041482787858694,0.1197271802730858,0.2010708538770675,-0.083952710032463,-0.1226141974329948,-0.1299354135990142
1783197230902868000,6.080867919921875,0.0459585450332611,0.091589465547353,0.1883931586116552,-0.1173101365566253,-0.1183475479483604,-0.1287737488746643
1783197230912804900,6.090804931640625,0.0653933133434504,0.0770902539432048,0.0559551114559173,-0.1222038865089416,-0.0900995880365371,-0.1276473402976989
1783197230922742000,6.100741943359375,0.032311566344276,0.1052133556216955,-0.0584668020159006,-0.1081756874918937,-0.0705778151750564,-0.1280018091201782
1783197230932679000,6.110678955078125,0.0409756420541554,0.1606901820413768,-0.1353214936375618,-0.0876997709274292,-0.0740034207701683,-0.121411494910717
1783197230942616000,6.120615966796875,0.1044309000071138,0.1434394797720015,-0.2102379106730222,-0.0673537477850914,-0.0804882198572158,-0.1073726415634155
1783197230952553000,6.130552978515625,0.1739861553356051,0.1315447515778243,-0.2440899113923311,-0.0465716794133186,-0.0928242281079292,-0.0873222053050994
1783197230962491100,6.1404912109375,0.2023579710781574,0.1582901351623237,-0.2870218751460313,-0.0288941506296396,-0.0925730913877487,-0.0682877972722053
1783197230972427800,6.150427734375,0.2247813998103141,0.2008751851744949,-0.3184662302017211,-0.0064582228660583,-0.0824534520506858,-0.0404997989535331
1783197230982365000,6.160364990234375,0.2358668574482202,0.2147936742812395,-0.2958282819360494,0.0053337216377258,-0.0675780996680259,-0.0168003290891647
1783197230992301800,6.1703017578125,0.2246782316967844,0.2222603569000959,-0.3066290774136782,0.0044090719893574,-0.0574450343847274,-0.0010645096190273
1783197231002239000,6.180239013671875,0.1978845519911497,0.2019431066669523,-0.273081612598896,0.0018788026645779,-0.0499626174569129,0.0117442300543189
1783197231012176100,6.190176025390625,0.1675011772304773,0.1568225468277931,-0.249890122103691,-0.0057008014991879,-0.035752210766077,0.0110790524631738
1783197231022112800,6.20011279296875,0.1107872832965105,0.1376883688993752,-0.2270078436881303,-0.016904454678297,-0.017923679202795,0.0088356044143438
1783197231032050000,6.2100498046875,0.0573686315156519,0.1278663553260266,-0.1961725604414939,-0.0263315290212631,0.0036742456723004,0.004449832253158
1783197231041986800,6.21998681640625,0.0244053963296115,0.1169270281605422,-0.1771948882490396,-0.0393173694610595,0.0115121947601437,-0.0001489147543907
1783197231051925000,6.229925048828125,0.0367986486304551,0.0894360869057476,-0.1593541111320257,-0.0463448390364646,0.011357007548213,0.0058265710249543
1783197231061862000,6.23986181640625,0.0656144087482243,0.0677734134130179,-0.1898451109856367,-0.047879084944725,0.0212762169539928,0.0129222963005304
1783197231071799000,6.249799072265625,0.0500059937931597,0.0811732854731381,-0.19787702627182,-0.0501459687948226,0.0343885049223899,0.0214951559901237
1783197231081736000,6.25973583984375,0.0197214762970805,0.0979828198462724,-0.2197843221753835,-0.0396493859589099,0.0450749732553958,0.0289802383631467
1783197231091672800,6.2696728515625,0.0156646021217107,0.0902642082929611,-0.2998427782744169,-0.0259537938982248,0.0641598105430603,0.0371342413127422
1783197231101610000,6.27960986328125,0.0167925832383334,0.0499915268763899,-0.3344026350021362,-0.0176724269986152,0.068979874253273,0.04456552490592
1783197231111547000,6.289546875,0.0015445990934967,0.0392732951156795,-0.3669739482611417,-0.0053609609603881,0.0736292451620101,0.0502391718327999
1783197231121484000,6.299484130859375,0.0086546502944082,0.0099342417761683,-0.3770218795448541,0.0075021064840257,0.083458699285984,0.0533300377428531
1783197231131422000,6.309421875,-0.0130894909366965,0.0068329147599637,-0.3862023803442716,0.0193288810551166,0.1007213294506073,0.0525100566446781
1783197231141358800,6.31935888671875,-0.0478661322202533,0.0102399467244744,-0.3859644799351692,0.0294454302638769,0.1218103691935539,0.0525750368833541
1783197231151295200,6.329295166015625,-0.060637862444669,-0.005505319418013,-0.3692833942472934,0.0385692715644836,0.1413717716932296,0.0572304092347621
1783197231161232000,6.33923193359375,-0.0690383187822997,-0.0007033259637653,-0.3553174127370119,0.0513021126389503,0.1645231693983078,0.0578357465565204
1783197231171169000,6.3491689453125,-0.0697052582584321,0.0122653150722384,-0.3049152592331171,0.058881789445877,0.1719256192445755,0.0640234723687172
1783197231181106200,6.359106201171875,-0.044841158375889,0.0148028707258403,-0.2311602871924638,0.0599039085209369,0.163014680147171,0.06984593719244
1783197231191043000,6.36904296875,-0.0120320177730172,0.0036626141607761,-0.1514800167560577,0.0659662783145904,0.154358685016632,0.081464909017086
1783197231200980200,6.378980224609375,-0.0084120737101882,-0.0222279061600565,-0.0872995132684707,0.0738705396652221,0.1471162140369415,0.0848455280065536
1783197231210917000,6.388917236328125,-0.048594519560039,-0.0109422497749328,-0.0335661695152521,0.0838768854737281,0.1381620615720749,0.0792452991008758
1783197231220855000,6.39885498046875,-0.0920233269199728,0.0129277245037257,-0.0097732059955596,0.0812637880444526,0.133501797914505,0.0719327926635742
1783197231230792000,6.4087919921875,-0.1075672252714633,-0.001401537360996,0.012435703203082,0.0693652406334877,0.129519909620285,0.0778256580233573
1783197231240729000,6.41872900390625,-0.1137917258094996,-0.0380615812383592,0.0139531220287084,0.0549165308475494,0.12237598747015,0.0829810053110122
1783197231250666200,6.428666259765625,-0.1283041622214019,-0.0550375582195818,0.0109451723843812,0.0439821220934391,0.1268923431634903,0.0848165601491928
1783197231260603100,6.43860302734375,-0.16934724348858,-0.067090691845864,-0.0311111775785684,0.0467534065246582,0.1437890231609344,0.0844975188374519
1783197231270540000,6.4485400390625,-0.2224099945038556,-0.0833541366435587,-0.0631780484467744,0.0577443614602088,0.1571292430162429,0.0713372826576232
1783197231280477000,6.458476806640625,-0.2660296482607722,-0.0765077778801321,-0.1281792206674814,0.0770126059651374,0.1678772270679474,0.0597091242671012
1783197231290414000,6.4684140625,-0.2580060624115169,-0.0697476360954344,-0.1778407849371433,0.0971790328621864,0.1719056665897369,0.0566585063934326
1783197231300351200,6.478351318359375,-0.2257131277024746,-0.1054718604274094,-0.1898293288946151,0.1157846748828888,0.1647108793258667,0.0642418563365936
1783197231310288100,6.4882880859375,-0.1886203914962708,-0.1370826580911874,-0.1936690531879663,0.129281610250473,0.1382778137922287,0.0754090398550033
1783197231320226300,6.498226318359375,-0.1887028821479529,-0.1913536158524453,-0.154237791031599,0.1393643319606781,0.1054175943136215,0.0867218822240829
1783197231330163000,6.508162841796875,-0.2677972424551844,-0.2401534487262368,-0.1478600726932287,0.1556841284036636,0.0751068070530891,0.0832834467291832
1783197231340100000,6.51810009765625,-0.3749246880698949,-0.2801516971156001,-0.1331523329049349,0.1842321455478668,0.0663167759776115,0.065212570130825
1783197231350037000,6.528037109375,-0.4783581014722585,-0.2754229150280356,-0.1451262638151645,0.216466948390007,0.0577900111675262,0.0417056791484355
1783197231359974100,6.53797412109375,-0.5575256731461733,-0.2599365920826793,-0.1424678582608699,0.2535240352153778,0.0592038854956626,0.0133110545575618
1783197231369911300,6.547911376953125,-0.6089006902702152,-0.2335181023649871,-0.1264274085640907,0.2821572721004486,0.0676799267530441,-0.0134790148586034
1783197231379848000,6.557847900390625,-0.6134050890173762,-0.2008427442096173,-0.0398041871219873,0.2919289469718933,0.0672141462564468,-0.0394080840051174
1783197231389785000,6.56778515625,-0.5667983092084526,-0.1519349209167063,0.0442792867094278,0.2871298491954803,0.057961817830801,-0.0625850334763526
1783197231399722000,6.577721923828125,-0.4666138145994394,-0.1105273902513086,0.1234013387411832,0.2609765529632568,0.0439077839255332,-0.081921175122261
1783197231409659100,6.5876591796875,-0.3389659243296831,-0.0568437308587133,0.2169599124044179,0.2242280095815658,0.0453334040939807,-0.0973930656909942
1783197231419596300,6.59759619140625,-0.2257107896149158,0.0131999655738472,0.2739963893562555,0.1868268400430679,0.0561397112905979,-0.097942478954792
1783197231429534200,6.6075341796875,-0.1025833724442869,0.0886786926671862,0.3193500272989273,0.1544604748487472,0.0587616637349128,-0.1009815260767936
1783197231439471000,6.61747119140625,0.0109884270042181,0.1615386155642569,0.3182879510253668,0.1330233663320541,0.053031075745821,-0.1033450812101364
1783197231449408000,6.627407958984375,0.1382687260705977,0.2215438791938126,0.2886088520765304,0.1291181445121765,0.0350366719067096,-0.1017177700996398
1783197231459345200,6.63734521484375,0.270759234065935,0.3069213383585214,0.2385702711880206,0.1291719377040863,0.0147223453968763,-0.0903916135430336
1783197231469282000,6.647281982421875,0.3630412119220942,0.4192060936711728,0.1765373011231422,0.1377629488706588,-0.0054797986522316,-0.0671392455697059
1783197231479219200,6.65721923828125,0.4507894188061356,0.498445196211338,0.0930079540431499,0.1486574113368988,0.0026628167834132,-0.0303277056664228
1783197231489156000,6.667156005859375,0.534323295930773,0.5178121599823237,-0.0010357727885246,0.1537103652954101,0.0246353931725025,0.0077068470418453
1783197231499093000,6.677093017578125,0.603435191405937,0.5419330402821302,-0.01654255400002,0.1475289016962051,0.0325737409293651,0.0496415123343467
1783197231509030100,6.687030029296875,0.643579204941541,0.5524690473437309,-0.0600263064175844,0.1354263424873352,0.0468444302678108,0.0914830043911933
1783197231518967000,6.696967041015625,0.6619063773360103,0.4929074358284473,-0.0499345359921455,0.1192625612020492,0.0746006965637207,0.1258982270956039
1783197231528904200,6.706904296875,0.6155263920202851,0.4296373251840472,-0.0369826999604702,0.1085504367947578,0.1119003295898437,0.1438941359519958
1783197231538841000,6.716841064453125,0.5382593932706863,0.4028545321986079,0.0072299512535333,0.0938572436571121,0.1382003724575042,0.1516671031713485
1783197231548779000,6.726779052734375,0.4826479076206684,0.3574684532910585,0.0596083732664585,0.0767072290182113,0.1398645341396331,0.1504666805267334
1783197231558716200,6.736716064453125,0.4501118848707526,0.2797279187455773,0.1116980414658784,0.0640902370214462,0.1435623466968536,0.1569051444530487
1783197231568653000,6.746653076171875,0.4199013093937188,0.2052358646020293,0.148709967520833,0.0549763292074203,0.1417632848024368,0.1579291969537735
1783197231578590200,6.756590087890625,0.3400813382256776,0.1956938370138406,0.1797989332675933,0.0474041625857353,0.1418817937374115,0.1595412045717239
1783197231588527000,6.766527099609375,0.284792947050184,0.2149830593734979,0.2087736833393573,0.034754492342472,0.1386587619781494,0.1698155552148819
1783197231598464000,6.776464111328125,0.2718137846201658,0.1867474372312426,0.243189163160324,0.0202099047601223,0.1300522238016128,0.1832674443721771
1783197231608401200,6.786401123046875,0.270958190704137,0.1210460077866911,0.2504541857272386,0.0078414808958768,0.1249880194664001,0.2039166837930679
1783197231618338000,6.796338134765625,0.2288252683736383,0.0532525744989514,0.2431447394967079,-0.0085449488833546,0.1199631690979003,0.2291661202907562
1783197231628275200,6.806275146484375,0.1214049042269587,-0.0377770652085542,0.1912806967467069,-0.0101728476583957,0.1251739263534546,0.2372527718544006
1783197231638212000,6.816212158203125,0.004358158676885,-0.1446972247481346,0.1556798065334558,0.0001487657427787,0.1261302679777145,0.239668533205986
1783197231648149000,6.82614892578125,-0.1111662726767361,-0.2296452064543962,0.0573170474588871,0.0308871231973171,0.1291692405939102,0.2274191528558731
1783197231658086100,6.836086181640625,-0.2291629393627867,-0.2828366984158754,0.0297223535686731,0.0784013792872428,0.1108051538467407,0.2126828283071518
1783197231668023000,6.84602294921875,-0.3292656009072437,-0.3384498645663261,0.0096422730922698,0.1183221489191055,0.1119509637355804,0.1885468512773513
1783197231677960200,6.855960205078125,-0.4028936951652169,-0.3677463939383625,0.0563151769399642,0.1456168740987777,0.0994388908147811,0.1535132378339767
1783197231687897000,6.86589697265625,-0.4525958471735939,-0.384966993330419,0.1694873826116323,0.1484731882810592,0.0858262032270431,0.1303991824388504
1783197231697835300,6.875835205078125,-0.4436943825112655,-0.471059468896687,0.2589905434042215,0.1215281188488006,0.063837818801403,0.0956702381372451
1783197231707772000,6.88577197265625,-0.4248352586645633,-0.4611702353060245,0.4127899430185556,0.0744799450039863,0.0399777926504612,0.0661869421601295
1783197231717709000,6.895708984375,-0.4367264431947842,-0.4051595942705869,0.4757061256587505,0.0165090523660182,0.0339675731956958,0.039323903620243
1783197231727646200,6.905646240234375,-0.3999609661815688,-0.3837117325723171,0.502367338091135,-0.0377166830003261,0.020528994500637,0.0244404021650552
1783197231737583000,6.9155830078125,-0.3432388524085283,-0.3845101894736289,0.404661581620574,-0.0791852995753288,0.0093671530485153,0.0144143998622894
1783197231747520300,6.925520263671875,-0.3048733928527682,-0.366190104407072,0.2456862406730651,-0.09595188498497,0.0181459188461303,0.007253985852003
1783197231757457000,6.935456787109375,-0.326770386558026,-0.3318319077312946,0.0674649319857358,-0.0920937657356262,0.0415606945753097,-0.0005064653232693
1783197231767394000,6.94539404296875,-0.3593921878952533,-0.2783423096060752,-0.1059691424250602,-0.0638437718152999,0.0608629621565341,-0.0129851419478654
1783197231777331200,6.955331298828125,-0.3655961936345324,-0.2475909052506089,-0.2155570598691701,-0.0315801128745079,0.0726599618792533,-0.0262689888477325
1783197231787268000,6.96526806640625,-0.3482774310976266,-0.224636146120727,-0.2849813092291355,0.0052922014147043,0.0785311758518219,-0.0452412590384483
1783197231797205200,6.975205322265625,-0.2999776932330802,-0.2098129632592201,-0.3120774059474468,0.042678989470005,0.0907223224639892,-0.0612114369869232
1783197231807142100,6.98514208984375,-0.2373230110732838,-0.1586293039888143,-0.2616051098167896,0.064568392932415,0.0908104851841926,-0.0656663924455642
1783197231817079000,6.9950791015625,-0.1546182051839306,-0.0983104443654418,-0.1747404808342456,0.0731698647141456,0.0974191203713417,-0.0634045675396919
1783197231827016200,7.00501611328125,-0.0846694570258259,-0.0632446839421987,-0.1100964514881372,0.0797303020954132,0.0997854694724083,-0.0583630613982677
1783197231836953000,7.014953125,-0.0379257529642432,-0.0432271473079919,0.0269283389359712,0.0740931853652,0.0914662852883338,-0.0541659221053123
1783197231846890200,7.02489013671875,0.0140284888198599,0.0011000701963901,0.1424058989405631,0.0723242312669754,0.067544125020504,-0.0468419753015041
1783197231856827100,7.0348271484375,0.0654415729319676,0.0282607565835118,0.2215226902753114,0.0692357569932937,0.0542810522019863,-0.0421851724386215
1783197231866764000,7.044763916015625,0.0899476166244596,0.0375642992407083,0.2897311341047286,0.0683683305978775,0.038323450833559,-0.0389959514141082
1783197231876702000,7.054701904296875,0.1123159907011315,0.0858551596790552,0.3913689693272114,0.060473121702671,0.0202562995254993,-0.0405208803713321
1783197231886639000,7.06463916015625,0.1209183628190308,0.1444710147768259,0.4737234274089336,0.0343806259334087,0.0042463582940399,-0.0378610491752624
1783197231896576300,7.074576171875,0.1239623336248099,0.1385506848171353,0.5388894348025322,0.0003110747784376,-0.0066763302311301,-0.041595596820116
1783197231906513200,7.08451318359375,0.10176515139658,0.1226186639308929,0.5478852266848087,-0.0339350067079067,0.0021822480484843,-0.0495133437216281
1783197231916450000,7.094449951171875,0.1004219931593164,0.1283224285304546,0.576135754135251,-0.06821309030056,-0.0025022523477673,-0.0555001311004161
1783197231926387000,7.104386962890625,0.1387842013120651,0.1471931332170963,0.5618167214035987,-0.0996486321091651,-0.0219975300133228,-0.0545330867171287
1783197231936324000,7.114323974609375,0.1977431707590818,0.159765614542365,0.5137503173708915,-0.1261625289916992,-0.0362022966146469,-0.0385788865387439
1783197231946261200,7.12426123046875,0.2678171161994337,0.1476838393434882,0.4568237305343151,-0.1424251496791839,-0.0511370971798896,-0.0122635625302791
1783197231956198100,7.1341982421875,0.2863222389766946,0.1237239948242902,0.3773714236348867,-0.1462585031986236,-0.0640014931559562,0.0087841991335153
1783197231966135000,7.144135009765625,0.2646303759220987,0.1298378015294671,0.2714998963654041,-0.1419039964675903,-0.0635140240192413,0.0162852425128221
1783197231976072200,7.154072265625,0.2158207888392731,0.107429862627387,0.1742401300966739,-0.1266310214996338,-0.0538904219865798,0.0178160276263952
1783197231986009000,7.164009033203125,0.1784965819647535,0.065616381509602,0.1101508120238781,-0.116684541106224,-0.05718544870615,0.0201667174696922
1783197231995946200,7.1739462890625,0.1557968935744836,0.0274596693336963,0.0496066192120313,-0.0985761061310768,-0.0716213807463646,0.0207382291555404
1783197232005883100,7.183883056640625,0.1386390937529504,0.0076230422243475,-0.0096340897858142,-0.0770722180604934,-0.0663844421505928,0.0210146680474281
1783197232015820000,7.193820068359375,0.1196184592016041,-0.0248404267460107,-0.0335819516062736,-0.0552902221679687,-0.0631846487522125,0.0210373047739267
1783197232025757200,7.203757080078125,0.1150032570237293,-0.0440372946470975,-0.009518938973546,-0.0455435700714588,-0.0835698917508125,0.0224453657865524
1783197232035694000,7.213694091796875,0.1039009578488767,-0.0554570988059043,-0.0149935709923505,-0.0397019237279892,-0.097841240465641,0.0259080082178115
1783197232045631200,7.22363134765625,0.0883093113655224,-0.0883402544930577,-0.0343061742275953,-0.0344656258821487,-0.0853278785943985,0.0263737626373767
1783197232055568100,7.233568115234375,0.0464004435818642,-0.121833358772099,0.0211070854365825,-0.0373527593910694,-0.0838053524494171,0.0234048701822757
1783197232065505000,7.243505126953125,-0.0120822135902941,-0.1164785537406802,0.0450818352639675,-0.0353996977210044,-0.0818691551685333,0.0131387840956449
1783197232075442200,7.253442138671875,-0.05282163573578,-0.1122168046429753,-0.0048883565634489,-0.0344380289316177,-0.0725385025143623,0.0035737748257815
1783197232085379000,7.263379150390625,-0.0634987683011218,-0.1243792438626289,0.0095756375968456,-0.0337122604250907,-0.0656482428312301,-0.0016963884700089
1783197232095316200,7.273316162109375,-0.0844500786541029,-0.1267535717785358,0.0304600201934576,-0.0399877317249774,-0.0687393695116043,-0.0023368787951767
1783197232105253000,7.283253173828125,-0.0858530407872051,-0.1257379649952054,0.0113660281449556,-0.0379098914563655,-0.066475361585617,-0.0008277636952698
1783197232115191300,7.29319140625,-0.0922951661312952,-0.1352697634503245,0.0124579150348901,-0.0335473679006099,-0.0776571780443191,-0.002704759594053
1783197232125128000,7.3031279296875,-0.0936904564145952,-0.1337237030521035,0.0334644627064466,-0.0301543846726417,-0.1000463813543319,-0.0071347295306622
1783197232135065000,7.313065185546875,-0.075579264858365,-0.1475455999165773,0.0153676650017499,-0.0286172069609165,-0.1113248690962791,-0.0102785918861627
1783197232145002200,7.323002197265625,-0.0756457542233169,-0.1799707827031612,-0.0269599031180143,-0.0215960480272769,-0.1079867184162139,-0.011879401281476
1783197232154939100,7.332939208984375,-0.1123045559916645,-0.1669298070833086,-0.0418009138971567,-0.0123913651332259,-0.1063187792897224,-0.0248125102370977
1783197232164876300,7.342876220703125,-0.1553767319336533,-0.0821238641962409,-0.0796481217324733,-0.0122265703976154,-0.1009746715426445,-0.0355643928050994
1783197232174813000,7.35281298828125,-0.1620406468022614,-0.0650984951153397,-0.1204284604102373,-0.0136516280472278,-0.0834095254540443,-0.0341755524277687
1783197232184750000,7.36275,-0.161464162088558,-0.0490706126391887,-0.1456558406472206,-0.0150886680930852,-0.0758276507258415,-0.0296758916229009
1783197232194687200,7.372687255859375,-0.1608368970356881,-0.0060012862414121,-0.1706283693403005,-0.0179438423365354,-0.0614790692925453,-0.0273637343198061
1783197232204624100,7.3826240234375,-0.1639693498425185,0.0278209038615226,-0.209908240327239,-0.0116665614768862,-0.0421448834240436,-0.0235279183834791
1783197232214561300,7.392561279296875,-0.1750345684099942,0.0262651988521218,-0.2351420503050088,-0.0025577517226338,-0.0202353224158287,-0.028195908293128
1783197232224498000,7.402497802734375,-0.180207075677067,0.0484992424920201,-0.205594468781352,0.0117531204596161,-0.0199930574744939,-0.029120422899723
1783197232234435000,7.41243505859375,-0.1342930273726582,0.036759120337665,-0.1727197886615991,0.0308903288096189,-0.0257777087390422,-0.0248726811259984
1783197232244372200,7.422372314453125,-0.0869745921630412,0.0157636785820126,-0.1471013632804155,0.055815540254116,-0.0265492592006921,-0.0228181686252355
1783197232254309000,7.43230908203125,-0.076932286902517,0.0057750762701034,-0.0773106186956167,0.0653174370527267,-0.0498202219605445,-0.0289418417960405
1783197232264246000,7.44224609375,-0.0983617361612617,0.0398272757366299,-0.0398176311254501,0.0626925155520439,-0.0564275979995727,-0.0277377106249332
1783197232274183000,7.452182861328125,-0.0729690092947334,0.0013721651360392,0.0674865592956543,0.0513200163841247,-0.0700051933526992,-0.0302645191550254
1783197232284120000,7.4621201171875,-0.0436952032111585,-0.028732173487544,0.1311819096148014,0.0343157388269901,-0.0697920620441436,-0.0396628603339195
1783197232294057200,7.47205712890625,-0.0590372953802347,-0.0151817870408296,0.1547498322069644,0.0199716873466968,-0.0603335797786712,-0.0534316711127758
1783197232303994000,7.481994140625,-0.0544525979384779,-0.0181327458009123,0.2006681182950735,0.0022836253046989,-0.0622258186340332,-0.0614683255553245
1783197232313931000,7.491930908203125,-0.0230053933385759,-0.0328422391548752,0.1952788264721632,-0.0082196146249771,-0.0633502081036567,-0.0633101686835289
1783197232323868200,7.5018681640625,0.0207893977895379,-0.0387166841462254,0.2049041484296321,-0.0158237088471651,-0.0920514389872551,-0.056581225246191
1783197232333805000,7.51180517578125,0.0771214527990669,-0.100801676659286,0.1678331856638193,-0.0169156063348054,-0.1201493814587593,-0.0551929213106632
1783197232343742200,7.5217421875,0.0982744232039898,-0.137760411222279,0.1221352643281221,-0.0122255245223641,-0.1430552005767822,-0.0622603818774223
1783197232353679000,7.53167919921875,0.0621778584282845,-0.0746560125336051,0.0795692112773656,0.0014082621783018,-0.1351014077663421,-0.0677121430635452
1783197232363616000,7.541615966796875,0.0161077427793294,-0.0350409182429313,0.0605839403003454,0.0131932888180017,-0.1282612234354019,-0.0733183771371841
1783197232373553200,7.55155322265625,-0.0196221075758337,0.0155067812114953,0.0039800095468759,0.0233015827834606,-0.1109687834978103,-0.0791043639183044
1783197232383490000,7.561489990234375,-0.0359059375744313,0.0532946600750088,-0.0245253694474697,0.0203523840755224,-0.102580577135086,-0.0806172639131546
1783197232393427200,7.57142724609375,0.0133883277527987,0.0787514651536941,-0.0166945296913385,0.0154321938753128,-0.1092994660139083,-0.0771154761314392
1783197232403364000,7.581364013671875,0.0618871318534016,0.070581018179655,-0.0333352833688259,0.0096466019749641,-0.1175392642617225,-0.0601957701146602
1783197232413301000,7.591301025390625,0.0861979087021201,0.0493155273109674,-0.0456155037492513,0.0083778724074363,-0.1152263134717941,-0.0478243194520473
1783197232423238100,7.601238037109375,0.0461124204207211,0.0683805855259299,-0.0173696524739265,0.009326190687716,-0.1099068373441696,-0.049776617437601
1783197232433175000,7.611175048828125,0.0015377309612929,0.0891638458356261,0.0149146605372428,0.0121834967285394,-0.104309931397438,-0.0528235398232936
1783197232443112200,7.6211123046875,-0.0259122937612235,0.0873658565029501,0.0393880075365304,0.016493322327733,-0.1085905134677887,-0.0622035264968872
1783197232453049000,7.631049072265625,-0.021327669384703,0.0852560247421264,0.069161799031496,0.0168376695364713,-0.114634022116661,-0.0701642483472824
1783197232462986000,7.640986083984375,-0.0203607971139252,0.0852069249033927,0.0836748930305242,0.0106059107929468,-0.1297804713249206,-0.0765699595212936
1783197232472923100,7.650923095703125,-0.0180424371689558,0.1123556285917758,0.0639987171798944,-0.0004552621394395,-0.1371377110481262,-0.0748674049973487
1783197232482860000,7.660860107421875,-0.0040170536216348,0.1170098841384053,0.0364174672931432,-0.0143841216340661,-0.1312637478113174,-0.073588840663433
1783197232492797200,7.670797119140625,0.0101877050805836,0.1036105966001749,-0.0221370130062103,-0.0352292172610759,-0.1182131767272949,-0.0741955116391182
1783197232502734000,7.680734130859375,0.0356182797394692,0.0947279097035527,-0.0462654920905828,-0.0511356182396411,-0.099558413028717,-0.0750781819224357
1783197232512671000,7.6906708984375,0.0725750415410846,0.0886316386550664,-0.0940261911749839,-0.0691092908382415,-0.0723752602934837,-0.0753117352724075
1783197232522608000,7.700608154296875,0.0813997146401554,0.0854854495838284,-0.1097989298462867,-0.0791709497570991,-0.0634927451610565,-0.0716621950268745
1783197232532545000,7.710544921875,0.110909083045274,0.1185594516679644,-0.1528267551898956,-0.0773757174611091,-0.049109548330307,-0.062462568283081
1783197232542482200,7.720482177734375,0.1910924076329916,0.1104351819232106,-0.1984340756326913,-0.0705194547772407,-0.0412814281880855,-0.057342056185007
1783197232552419000,7.730419189453125,0.1895621293257922,0.1357245214805006,-0.1826782880961895,-0.0690555199980735,-0.0338283069431781,-0.046962920576334
1783197232562356000,7.74035595703125,0.1979988990858197,0.1483586698651313,-0.1944534815639257,-0.0619098059833049,-0.0263832230120897,-0.0301148649305105
1783197232572293000,7.750293212890625,0.225612078480795,0.1190410977050662,-0.1831868221402168,-0.0537075363099575,-0.0269057322293519,-0.0188619438558816
1783197232582230000,7.76022998046875,0.2386492547083646,0.1215560031354427,-0.2021668324202299,-0.0486214384436607,-0.0199443437159061,-0.0103810904547572
1783197232592167200,7.770167236328125,0.2230140248116105,0.110387835650146,-0.2071709243178367,-0.0466807931661605,-0.0058889780193567,-0.0021226275712251
1783197232602104000,7.78010400390625,0.1907491471532732,0.1020695046380162,-0.1879787325918674,-0.0453661456704139,0.0158107914030551,0.0039226310327649
1783197232612041000,7.790041015625,0.1496496595237404,0.0909539441227912,-0.1997697081506252,-0.0451006256043911,0.0311327576637268,0.003860313212499
1783197232621978000,7.79997802734375,0.1329452660255134,0.0849517810985446,-0.1614098746180534,-0.0436019785702228,0.0347212105989456,0.0107434373348951
1783197232631915000,7.8099150390625,0.1231783436402678,0.0832671890124678,-0.1239671559303998,-0.0421356409788131,0.0326106548309326,0.0132428128272295
1783197232641852200,7.81985205078125,0.1069741547491401,0.0792979931205511,-0.1033241808742284,-0.0308050755411386,0.0355176329612731,0.0161430947482585
1783197232651789300,7.829789306640625,0.0796762518484145,0.1016173769563436,-0.0752595313847065,-0.0242627542465925,0.0380558930337429,0.0181055776774883
1783197232661726000,7.839725830078125,0.0546223284821957,0.1375090668097138,-0.046516836503148,-0.0258276350796222,0.0356587283313274,0.021676380187273
1783197232671663000,7.8496630859375,0.0439225822262465,0.115372930586338,-0.0051309331476688,-0.0326847434043884,0.0273723024874925,0.0331673882901668
1783197232681600000,7.85960009765625,0.0427135717626661,0.0796218182474374,0.0382756623804569,-0.037684254348278,0.028848297894001,0.0415981039404869
