time,seconds_elapsed,ax,ay,az,gx,gy,gz
1783204779660754200,0.104754150390625,-0.2921379029855132,0.3458675934769213,-0.2338993567675352,0.059382576495409,0.0562644824385643,-0.0261482074856758
1783204779670691300,0.11469140625,-0.2642972715102136,0.3035717356696725,-0.2006698718607425,0.0689077228307724,0.0447739101946353,-0.0490271896123886
1783204779680629200,0.124629150390625,-0.2480933018147945,0.2933732899993658,-0.1038227780461311,0.0755168870091438,0.0433672294020652,-0.073611095547676
1783204779690566100,0.134566162109375,-0.225066938753426,0.2788242479041218,-0.0240390472352504,0.0811212435364723,0.0519508086144924,-0.0962349101901054
1783204779700503000,0.1445029296875,-0.1899535397961735,0.2356719193980097,0.0638145927846431,0.0764684379100799,0.0684038251638412,-0.1086401790380477
1783204779710440200,0.154440185546875,-0.1443419815696776,0.1222248423077166,0.1044762735188007,0.0682249367237091,0.0787250697612762,-0.1117763742804527
1783204779720377000,0.164377197265625,-0.0809593504615128,0.0225466167204082,0.1308574999660253,0.0576607100665569,0.0895875692367553,-0.1054604202508926
1783204779730314200,0.174314208984375,-0.0250447171464562,-0.0093824531123042,0.1510807883054017,0.0371959023177623,0.0994740426540374,-0.1030618175864219
1783204779740251100,0.184251220703125,0.0272299522310495,0.0289778188116848,0.1667787081748247,0.0156171061098575,0.1009949743747711,-0.1071039661765098
1783204779750188000,0.19418798828125,0.0597486585199832,0.0448870433442294,0.1891770024657249,0.0029824068769812,0.1084182485938072,-0.1109157353639602
1783204779760125200,0.204125244140625,0.0790615540161728,0.0069705696649849,0.1487526376187801,-0.0004557343199849,0.1275365501642227,-0.0957338511943817
1783204779770062300,0.214062255859375,0.1239119186118245,-0.1323397013477981,-0.0038338790744543,-0.0002993084490299,0.104039654135704,-0.0806792974472045
1783204779779999200,0.223999267578125,0.1423575297541916,-0.2065983851268887,-0.105014618179202,-0.0104515459388494,0.0764301344752311,-0.0656012743711471
1783204779789936000,0.23393603515625,0.1484207753159105,-0.1824498861677944,-0.135251935532689,-0.0195069536566734,0.0558169893920421,-0.0537882074713707
1783204779799873000,0.243873046875,0.1445632231049239,-0.1505402516879141,-0.1099789625883102,-0.0283177569508552,0.0599733851850032,-0.0531937927007675
1783204779809810200,0.25381005859375,0.1189168868035078,-0.1195838262796401,-0.0479033224254846,-0.0379033200442791,0.0599566623568534,-0.0513998046517372
1783204779819747300,0.263747314453125,0.1675531996786594,-0.0932129750959575,-0.0848527046382427,-0.036333117634058,0.0496318563818931,-0.0338104218244552
1783204779829684200,0.273684326171875,0.1768431522019207,-0.1656269077911973,-0.1541115343034267,-0.0370719172060489,0.0181338042020797,-0.0154449064284563
1783204779839621000,0.28362109375,0.1595499259650707,-0.2112336437121033,-0.189893041780591,-0.0342686772346496,-0.0234405379742383,-0.006348080933094
1783204779849558000,0.29355810546875,0.124446171618998,-0.1485951089695096,-0.1501174962311983,-0.0387633889913558,-0.0331655107438564,0.0059786173515021
1783204779859495200,0.3034951171875,0.1082479010120034,-0.0659526277266442,-0.0403606519609689,-0.0459741614758968,-0.0326286181807518,0.0074279098771512
1783204779869432300,0.313432373046875,0.0931793650873005,-0.0031441432446241,0.0703875414341688,-0.0478022135794162,-0.0172213427722454,0.0061304001137614
1783204779879370200,0.323370361328125,0.0701237759314477,0.0189747495830059,0.1528846228569746,-0.05632059648633,0.0038754199631512,0.0080697135999798
1783204779889307100,0.33330712890625,0.0261952023558318,0.0476841267168521,0.2074690304815769,-0.0678861737251281,0.0279736556112766,0.007209145464003
1783204779899244000,0.343244140625,-0.0125987848103046,0.0463717289440333,0.207502348229289,-0.0760721936821937,0.0572841390967369,0.0071004880592226
1783204779909181200,0.35318115234375,-0.0276689281702041,0.0313178060665726,0.1029962640941143,-0.0757756531238555,0.0605342164635658,0.0041485577821731
1783204779919118000,0.3631181640625,-0.0182996268004178,0.0533677253112196,-0.0192857152283191,-0.0744600445032119,0.0466104112565517,-0.0005806835833936
1783204779929055200,0.37305517578125,-0.0470620492957532,0.091365593663603,-0.0607470219075679,-0.0735483691096305,0.0427761599421501,-0.0069296532310545
1783204779938992400,0.382992431640625,-0.066942369416356,0.1005634839892387,-0.0464876104086637,-0.075742021203041,0.0515981502830982,-0.0157798696309328
1783204779948929000,0.392928955078125,-0.0825071644254028,0.0598760842919349,-0.0876695156246423,-0.0759742856025695,0.038710318505764,-0.0181777328252792
1783204779958866200,0.4028662109375,-0.0800173934362828,0.0226285959154367,-0.17976795360744,-0.0809346884489059,0.0069499909877777,-0.0165153890848159
1783204779968803000,0.412802978515625,-0.0742111913755536,0.0284087867520749,-0.2128331878632307,-0.08969596773386,-0.0232454258948564,-0.0208470784127712
1783204779978740200,0.422740234375,-0.0659891603447496,0.066695262787491,-0.1631225237548351,-0.1044389605522155,-0.0380994752049446,-0.0269537065178155
1783204779988677400,0.432677490234375,-0.0507192566290497,0.0911553119137883,-0.1054331358522176,-0.1109359860420227,-0.0382807031273841,-0.0321875065565109
1783204779998614000,0.442614013671875,-0.0532815083324909,0.1086331009373068,-0.0290787949681282,-0.1133695840835571,-0.0122285969555377,-0.0379852093756198
1783204780008551200,0.45255126953125,-0.0479600210487842,0.1077025420889258,-0.0132528648048639,-0.1012438386678695,0.0237470678985118,-0.0427910797297954
1783204780018489000,0.462489013671875,-0.0245355985805392,0.1019651674807071,-0.0848673176854848,-0.0842496752738952,0.0294544883072376,-0.0437748506665229
1783204780028426200,0.47242626953125,-0.0263208745621144,0.094567896836251,-0.1792681873917579,-0.0653833970427513,0.0202482491731643,-0.0548077560961246
1783204780038363100,0.482363037109375,-0.0541639902554452,0.1164782614797353,-0.1598129608154296,-0.0556175895035266,0.02747686766088,-0.0611743070185184
1783204780048300300,0.49230029296875,-0.0885087429277598,0.1084520452819764,-0.0815437262207269,-0.0487286373972892,0.035683449357748,-0.0696595907211303
1783204780058237200,0.5022373046875,-0.1219710136771202,0.0727042939439416,-0.0031429742008447,-0.0458452329039573,0.0600543022155761,-0.0714678764343261
1783204780068174000,0.512174072265625,-0.118258130633831,0.0606806786730885,0.0364531231284141,-0.0428058356046676,0.0753817707300186,-0.0733641609549522
1783204780078111200,0.522111328125,-0.1092613158382475,0.0258016729936003,-0.021943536260724,-0.0435512512922287,0.0719092711806297,-0.0791157931089401
1783204780088048000,0.532048095703125,-0.0637026568427681,0.0058395198084414,-0.1193020867288112,-0.0407080166041851,0.0590325817465782,-0.0774952471256256
1783204780097985300,0.5419853515625,0.0024330723658204,0.0273883576631546,-0.1709633003830909,-0.0421274788677692,0.0440325960516929,-0.0738051757216453
1783204780107922200,0.551922119140625,0.013364508485794,0.0502829110383987,-0.1565513286709785,-0.0441071763634681,0.0408140160143375,-0.0735089182853698
1783204780117859000,0.561859130859375,0.0051499301090836,0.0441857632070779,-0.1164145485937595,-0.0480169579386711,0.0414225496351718,-0.0744809731841087
1783204780127797200,0.57179736328125,-0.0021709142982959,0.040863194655627,-0.0779395642489194,-0.0481209158897399,0.042730875313282,-0.0804148316383361
1783204780137734100,0.581734130859375,-0.0213948163367807,0.0220627787262201,-0.0885264247149229,-0.0344999134540557,0.0485533475875854,-0.0846031829714775
1783204780147671300,0.59167138671875,0.0265764567583799,0.0002421381928026,-0.178936178958416,-0.0096117788925766,0.0140174161642789,-0.0890388712286949
1783204780157608200,0.601608154296875,0.0537573091506958,0.0065738254323601,-0.1698527087926864,0.0026981495320796,0.0046707866713404,-0.0863237753510475
1783204780167545000,0.611545166015625,0.0674760379016399,-0.0152988375492393,-0.034532384198904,0.008160600438714,0.0298377778381109,-0.0865695253014564
1783204780177482200,0.621482177734375,0.0488176607914268,-0.10978344001621,0.0173918643057346,0.0148504609242081,0.0476093217730522,-0.0814597159624099
1783204780187419100,0.631419189453125,0.0850162246368825,-0.1653710333339869,-0.0152063369601964,0.0242808684706687,0.0615177303552627,-0.0696002170443534
1783204780197356300,0.641356201171875,0.1473721430458128,-0.1493026727169752,-0.0397141707509756,0.0334474705159664,0.0614096038043499,-0.0547006241977214
1783204780207293200,0.651293212890625,0.16015271416381,-0.1249063364766538,-0.044940965488553,0.0410796925425529,0.0581399798393249,-0.0421347320079803
1783204780217230000,0.66122998046875,0.1311560445211827,-0.1101864678591489,-0.0291828398644924,0.0467985644936561,0.0593413300812244,-0.0314615853130817
1783204780227167200,0.671167236328125,0.1191397357739508,-0.0776142778173089,-0.0006774608701467,0.0444280281662941,0.0641125440597534,-0.0242658946663141
1783204780237105200,0.681105224609375,0.0948538741707801,-0.0419106578819453,0.0023462708652019,0.0376569405198097,0.0625564604997634,-0.0176980085670948
1783204780247042300,0.691042236328125,0.0750951346032321,-0.0332575419574976,0.0160895495355129,0.0235149636864662,0.065185546875,-0.0169752947986125
1783204780256979200,0.700979248046875,0.0535717234507203,-0.0119797761291265,-0.0014086977541446,0.0162575840950012,0.0580634586513042,-0.0178565345704555
1783204780266916400,0.710916259765625,0.0458485818527638,0.0203635735929012,-0.0188321262419223,0.0035115890204906,0.0561507008969783,-0.019440334290266
1783204780276853000,0.72085302734375,0.0038429391637444,-0.0094645784378051,-0.0486889198452234,-0.0024490980431437,0.0573493912816047,-0.0186802688986063
1783204780286790100,0.7307900390625,-0.0221790985822677,-0.0532423453658819,-0.1034767410874366,-0.0026137484237551,0.0515763461589813,-0.0126859359443187
1783204780296727300,0.740727294921875,-0.0301757964245975,-0.0522995115578174,-0.1691699872255325,-0.0004288917407393,0.0423410348594188,-0.0136518646031618
1783204780306664200,0.750664306640625,-0.0237241360671818,0.005113689751923,-0.1688122598290443,0.0059128073044121,0.0357241854071617,-0.0172713305801153
1783204780316601300,0.760601318359375,-0.0138122522532939,0.0514037317618727,-0.1389016902118921,0.0111413914710283,0.0278819780796766,-0.0193448681384325
1783204780326539300,0.770539306640625,-0.0228264565750956,0.0568891774356365,-0.0999894834935665,0.0187771320343017,0.0346980839967727,-0.0239330325275659
1783204780336476200,0.78047607421875,-0.0143311615608632,0.0418668187402188,-0.1097036527782678,0.025207333266735,0.0246989764273166,-0.0225982572883367
1783204780346413000,0.7904130859375,-0.0223177764005959,0.0297734992340207,-0.082026541301608,0.0254859887063503,0.021804079413414,-0.0244193617254495
1783204780356350200,0.80035009765625,-0.033760230782628,0.0408763463981449,-0.0105541272401809,0.0241826381534338,0.037422988563776,-0.0300586055964231
1783204780366287000,0.810287109375,-0.0088991996400058,0.050747752071172,0.0396136329859495,0.0220450013875961,0.0508258491754531,-0.03599264472723
1783204780376224300,0.820224365234375,0.0186389417573809,0.0752512019477784,0.041057986575365,0.0108059290796518,0.0458590537309646,-0.0371202267706394
1783204780386161200,0.8301611328125,0.0287495630137622,0.0891935103215277,0.0384679700821638,0.0020664120092988,0.0466007888317108,-0.0431684963405132
1783204780396098000,0.84009814453125,0.0263914555802941,0.0708941757820546,0.0330400998145341,-0.0091252559795975,0.0429698340594768,-0.0468684248626232
1783204780406036200,0.8500361328125,0.0140362702675163,0.0274712136410176,0.0500040940970182,-0.0212992839515209,0.0495884343981742,-0.0451896637678146
1783204780415973000,0.85997314453125,0.0183732765585184,-0.0180006438538432,0.0607809241771697,-0.0323444791138172,0.0530817024409771,-0.0462671779096126
1783204780425910300,0.86991015625,0.0227433083362877,-0.019459318229556,0.0756231040000915,-0.0413547419011592,0.0533389821648597,-0.0390606112778186
1783204780435847200,0.87984716796875,0.0304626505419611,-0.0066077277019619,0.0612619856923818,-0.0509463846683502,0.0591124519705772,-0.0381961464881897
1783204780445784000,0.8897841796875,0.0415253118261694,0.0071260524876415,0.0273328280836343,-0.0546279400587081,0.0625635012984275,-0.0351696237921714
1783204780455721200,0.89972119140625,0.0500911878585815,0.018709668906033,-0.0150777421444654,-0.0480741672217845,0.062923289835453,-0.0349808074533939
1783204780465658000,0.909658203125,0.0597543576084077,0.0371203548654913,-0.0738905811190605,-0.0301247164607048,0.0792867392301559,-0.0347608253359794
1783204780475595300,0.91959521484375,0.0321552798040211,0.0401268432050943,-0.1194248363256454,-0.0024267770349979,0.0880796983838081,-0.039408840239048
1783204780485533200,0.929533203125,-0.0115489834964275,0.030251199748367,-0.2016495305478572,0.0258839353919029,0.0856379047036171,-0.0460060834884643
1783204780495470300,0.93947021484375,-0.0758593969739973,0.0356498439215123,-0.215161923071742,0.0540455318987369,0.0956756249070167,-0.0565354228019714
1783204780505407000,0.949406982421875,-0.1100049738124012,0.0226753576666116,-0.2081225259542465,0.0750859454274177,0.1029703095555305,-0.0643423497676849
1783204780515344100,0.95934423828125,-0.0917715441159904,-0.0014748948581516,-0.2315127538919448,0.0853939726948738,0.0972847267985344,-0.0697762668132782
1783204780525281300,0.96928125,-0.0574174390934407,-0.0147035020045936,-0.2292512387007474,0.0912151858210563,0.0782595351338386,-0.0658413767814636
1783204780535218200,0.97921826171875,-0.0162362645298242,-0.0290077755585312,-0.2150584626972675,0.0861546471714973,0.0559845864772796,-0.0575807839632034
1783204780545155300,0.9891552734375,0.0241444073058664,-0.0435211618185043,-0.1835796208500862,0.0780448988080024,0.0384281277656555,-0.0525098331272602
1783204780555092200,0.99909228515625,0.0569410537533462,-0.0233148246139287,-0.1214987199902534,0.06473308801651,0.0282284878194332,-0.0464575327932834
1783204780565030100,1.009030029296875,0.0918326266534626,0.0168301387697458,-0.0627495939016342,0.0465682484209537,0.0266577340662479,-0.0371052511036396
1783204780574967000,1.018967041015625,0.094398093227297,0.009461071306467,-0.0509381600767374,0.0358756557106971,0.0307677909731864,-0.0257181078195571
1783204780584904000,1.028904052734375,0.0823158796370029,-0.060369274636358,-0.1178150630414485,0.0316044986248016,0.018562689423561,-0.0182509198784828
1783204780594841000,1.038841064453125,0.0616749504074454,-0.0826642546832561,-0.1654033281683921,0.0301405563950538,-0.0027026520110666,-0.0131003661081194
1783204780604778000,1.048778076171875,0.0492806021280586,-0.0632715719491243,-0.1774374648332595,0.030918089672923,-0.0121657885611057,-0.0085910186171531
1783204780614715100,1.058715087890625,0.0433120491124689,-0.0318669643819332,-0.1284147829890251,0.0302744042128324,-0.0129825808107852,-0.0072455895133316
1783204780624652000,1.068652099609375,0.03719751175493,-0.0132663088083267,-0.0717179132550954,0.0334607660770416,-0.010844312608242,-0.007963066920638
1783204780634590200,1.078590087890625,0.0127450614131987,0.020767624349147,-0.0099479780405759,0.035523384809494,-0.0018809111788868,-0.01232186332345
1783204780644526800,1.08852685546875,0.0137974930755794,0.0427963546752929,0.0540770426243543,0.0282421186566352,0.0099926069378852,-0.0120994187891483
1783204780654464000,1.098464111328125,0.017397563394159,0.0736456664472818,0.0989811832338571,0.0189793780446052,0.0132682947441935,-0.0134051665663719
1783204780664401200,1.108401123046875,0.0005408288784325,0.0748898212894797,0.0861234552264213,0.0080869002267718,0.0255099087953567,-0.0135096460580825
1783204780674338000,1.118338134765625,-0.032527474117279,0.0602276742085814,0.0566460163295269,0.0095910541713237,0.0304303653538227,-0.0183579307049512
1783204780684275200,1.128275146484375,-0.0505408313222229,0.0594298018291592,-0.0011643676042556,0.007847374305129,0.0335452184081077,-0.0253040101379156
1783204780694211800,1.1382119140625,-0.0433102955467998,0.0610275924146175,-0.0327583602637052,0.0087160980328917,0.030792573466897,-0.029489966109395
1783204780704150000,1.14814990234375,-0.0267195184908807,0.0595731558226048,-0.0684901833802461,0.0119321402162313,0.0227513033896684,-0.0309793092310428
1783204780714087000,1.1580869140625,-0.0228381470128893,0.0343891763359308,-0.0871831934124231,0.0118511794134974,0.0202244967222213,-0.0320586897432804
1783204780724024000,1.168024169921875,-0.0313408946812152,0.0168660868659615,-0.0717886404037475,0.0145270675420761,0.0228144843131303,-0.0354514084756374
1783204780733961200,1.177961181640625,-0.0232116565003991,0.0372984879113733,-0.0412017789602279,0.0133590055629611,0.0243575181812047,-0.0377137623727321
1783204780743898000,1.187898193359375,0.0014297405421733,0.0360096171446144,-0.053540451529622,0.0148740950971841,0.0264993850141763,-0.0382282808423042
1783204780753835000,1.1978349609375,0.0203185654073953,0.0113220428727567,-0.0636819063156843,0.016121519729495,0.0259747430682182,-0.0365472957491874
1783204780763773000,1.20777294921875,0.0191549284555017,0.0199716516658663,-0.0674397975444793,0.0140527142211794,0.0231804996728897,-0.0330806709825992
1783204780773710000,1.2177099609375,0.021495061840862,0.0372600555971264,-0.0360626625061035,0.012195692397654,0.0232010073959827,-0.0396578796207904
1783204780783647000,1.22764697265625,0.0306007438383996,-0.0036582302466034,-0.0386363123863935,0.0078877080231904,0.0216652285307645,-0.0363214835524559
1783204780793584000,1.237584228515625,0.0382367916747927,-0.0486477110520005,-0.0355985521256923,0.0050280056893825,0.0240865740925073,-0.0335427410900592
1783204780803521300,1.247521240234375,0.0512630081169307,-0.0601066781774163,-0.0222030639797449,-0.0010839626193046,0.0247873719781637,-0.0286810360848903
1783204780813458000,1.2574580078125,0.0495778315089643,-0.0587606703959405,-0.0335725992560386,-0.0057610068470239,0.0264289434999227,-0.0227810684591531
1783204780823395800,1.267395751953125,0.0632873540401458,-0.0733228642337024,-0.0546568883389234,-0.0043822536244988,0.0274560283869504,-0.0175566338002681
1783204780833333000,1.2773330078125,0.0683817545697093,-0.0709311467915773,-0.106042207661271,0.0005927979946136,0.0210228972136974,-0.0146934688091278
1783204780843270100,1.287270263671875,0.0645833852000534,-0.053863107612729,-0.1281061554312706,0.0091328155249357,0.0143275000154972,-0.0130320703610777
1783204780853207000,1.29720703125,0.0478266039274632,-0.0410422044843435,-0.1188315466076135,0.0137336924672126,0.0156249925494194,-0.0115494886413216
1783204780863144200,1.307144287109375,0.0398167543426156,-0.0401418946437537,-0.0909615429073572,0.0177098345011472,0.0065893400460481,-0.0144671853631734
1783204780873081000,1.3170810546875,0.0368108505249023,-0.0253531985737383,-0.0558148262023925,0.0211058966815471,0.0100799454376101,-0.0164661556482315
1783204780883019000,1.32701904296875,0.0574498800583183,0.014582359842956,-0.0267196646213531,0.0187694877386093,0.0088161258026957,-0.0138641437515616
1783204780892956000,1.336955810546875,0.0584831686288118,0.0298956643089652,0.0083282678842544,0.0114095751196146,0.0065835979767143,-0.0138428388163447
1783204780902893000,1.34689306640625,0.0504424855142831,0.0335087402395904,0.0302799874514341,0.0004366263747215,0.0042033274658024,-0.0164904315024614
1783204780912830200,1.356830322265625,0.0232118026308715,0.025507658483088,0.0594739332318305,-0.0170859079807996,0.0045876214280724,-0.0117726428434252
1783204780922767000,1.36676708984375,-0.0057525721773505,0.0148056472048163,0.0853401958942413,-0.0248292833566665,0.0056817079894244,-0.0139500889927148
1783204780932704000,1.3767041015625,-0.0257581261128187,0.03479161965698,0.0804383953273296,-0.033745277673006,0.0096812434494495,-0.0197677630931139
1783204780942642000,1.386641845703125,-0.0375011708766222,0.051232612978667,0.0520446600139141,-0.0292319767177104,0.0199144724756479,-0.0212995521724224
1783204780952579000,1.3965791015625,-0.0371383289135992,0.0498386744022369,0.0076636664956808,-0.0258673392236232,0.0301159769296646,-0.0262429118156433
1783204780962516000,1.406515869140625,-0.0314583835810422,0.0566126985818147,-0.0394862072139978,-0.017273049801588,0.0358638651669025,-0.0278383586555719
1783204780972453000,1.416453125,-0.025971038211137,0.05067220261693,-0.0793090990364551,-0.0076206913217902,0.038588810712099,-0.0300085674971342
1783204780982390300,1.426390380859375,-0.0182489195264875,0.0353206119671463,-0.1181412262558937,-0.0047829402610659,0.0224306751042604,-0.0313958823680877
1783204780992327000,1.436326904296875,-0.0509065958946943,0.0303153510257601,-0.1572100848406553,-0.0128677645698189,-0.0026946519501507,-0.0382085144519805
1783204781002265000,1.44626513671875,-0.0646323389083147,0.112665863584727,-0.0906201821237802,-0.0325899571180343,-0.0052641169168055,-0.0493527576327323
1783204781012202000,1.456201904296875,-0.0462523403480649,0.1068915179669856,-0.0636497576117515,-0.0433352775871753,-0.015252836048603,-0.0552047863602638
1783204781022139100,1.46613916015625,-0.0372302449807524,0.0183653855130076,-0.1142167462885379,-0.0487342029809951,-0.0406414270401001,-0.0598708391189575
1783204781032076000,1.476075927734375,-0.0425241136051714,0.009334230056405,-0.1327934364646673,-0.0619674548506736,-0.0597605258226394,-0.0568971559405326
1783204781042013000,1.486012939453125,-0.016289894413203,0.0796004831984639,-0.0554664511561393,-0.070463515818119,-0.0646161958575248,-0.0597365200519561
1783204781051950800,1.495950927734375,-0.0063809332087635,0.0732777099177241,0.0137578917175531,-0.075243093073368,-0.0567564070224761,-0.0665709897875785
1783204781061888000,1.505887939453125,0.0217240482911467,0.0410046489529311,0.0319441212713718,-0.0665569752454757,-0.0231285523623228,-0.0638358741998672
1783204781071825200,1.5158251953125,0.035834114447236,-0.0087198975503444,-0.0008113163828849,-0.0476570539176464,0.0138656850904226,-0.0605796314775943
1783204781081762000,1.525761962890625,0.0664680299028754,-0.0592579523935914,-0.1188005669474601,-0.0165941566228866,0.0340271815657615,-0.0557483285665512
1783204781091699200,1.53569921875,0.0808387928217649,-0.0698376524664461,-0.2252770743727684,0.0107381315901875,0.0387550927698612,-0.0511487834155559
1783204781101637000,1.54563720703125,0.0867987241394817,-0.0726224608793854,-0.2762549819380044,0.0337721742689609,0.036280445754528,-0.0521778613328933
1783204781111574000,1.555573974609375,0.0792350108869373,-0.1071275186799466,-0.2765326298356056,0.0435592904686927,0.0242927577346563,-0.0434437580406665
1783204781121511000,1.565510986328125,0.0810068428650498,-0.1208640753485262,-0.2558084062367677,0.0547028295695781,0.010672097094357,-0.0392598658800125
1783204781131448000,1.575447998046875,0.0865418267689645,-0.1259928165391087,-0.2384755786418914,0.0619303844869136,-0.0073750801384449,-0.0328296609222888
1783204781141385000,1.585385009765625,0.0915403657086193,-0.1131773202382028,-0.1623380953788757,0.0605964735150337,-0.0153550561517477,-0.0273960549384355
1783204781151322000,1.595322021484375,0.1063053886421024,-0.1068478249557316,-0.0551151535004377,0.0548800006508827,-0.0127118695527315,-0.0159335434436798
1783204781161260000,1.605260009765625,0.11551365423128,-0.0746969290658831,0.0507177953243255,0.0466997846961021,-0.0029107835143804,-0.0099118240177631
1783204781171197000,1.615197021484375,0.1099080893091857,-0.0357486281208693,0.1183119066476821,0.0374200008809566,0.0075466511771082,-0.0062118945643305
1783204781181134000,1.625134033203125,0.093518826174736,0.00932487770617,0.1412754336059093,0.0290421918034553,0.0206576939672231,0.0011165351606905
1783204781191071000,1.635071044921875,0.0736570646241307,0.0244809457838535,0.1320487555772066,0.0209778733551502,0.0288194846361875,0.0017122840508818
1783204781201008000,1.645008056640625,0.0541689586915075,0.011252484767884,0.1276654259264469,0.0076781259849667,0.0322900041937828,0.0031037456355988
1783204781210946000,1.654946044921875,0.0382196944095194,0.0077465224735438,0.0867816268742084,0.0025904234498739,0.0279357377439737,0.0056960671208798
1783204781220883200,1.66488330078125,0.0307978738456964,0.0112844873413443,0.0413332963854074,-0.0064646350219845,0.0216437838971614,0.0062523419037461
1783204781230819800,1.67481982421875,0.0137917939871549,0.0277323487952351,0.0194797764956951,-0.0134660853073,0.0191870182752609,0.0007960579823702
1783204781240757000,1.684757080078125,0.0013286182552576,0.0344575653970241,0.0160036248177289,-0.0186787620186805,0.0178212393075227,0.0024937537964433
1783204781250694100,1.694694091796875,0.0070158701114356,0.0317643807902932,0.0030932898402214,-0.0247377194464206,0.0181544013321399,0.0013949333224445
1783204781260632000,1.704632080078125,0.0171137780167162,0.0029126725763082,-0.018646248281002,-0.0303857773542404,0.0215186532586812,0.0060622263699769
1783204781270569000,1.71456884765625,0.0189963768929243,0.0010728899285197,-0.0564601383686065,-0.0328095220029354,0.0179662629961967,0.0058374553918838
1783204781280506000,1.724506103515625,0.0250770119808614,0.0024950316861271,-0.1212374387055635,-0.0281020887196064,0.0084594972431659,0.0049004568718373
1783204781290443000,1.734443115234375,0.0023567922592163,0.0053387306794524,-0.1295294662326574,-0.0195179209113121,0.0106661915779113,-0.0006746046710759
1783204781300380000,1.7443798828125,-0.0342431919939816,0.0202671274811029,-0.1301040512502193,-0.0095559759065508,0.0162764564156532,-0.0078333206474781
1783204781310318000,1.754318115234375,-0.0245429051041603,0.0185945180937647,-0.1643576185077428,-0.0004873787984251,0.0112036652863025,-0.0096075180917978
1783204781320255000,1.7642548828125,-0.007869272070378,0.0046755905956029,-0.1858434741288423,0.0108814276754856,0.0024092972744256,-0.0094824479892849
1783204781330192100,1.774192138671875,0.0081096566975116,0.0029572423703968,-0.1713537610054016,0.0160375740379095,-0.0015822486020624,-0.0100582232698798
1783204781340129000,1.78412890625,0.0233761994123458,0.0150068688653409,-0.1534223829954862,0.0185233391821384,-0.003750180825591,-0.0094538489356637
1783204781350067200,1.794067138671875,0.0270960967183113,0.0249123229384422,-0.1300724870681762,0.0185667481273412,-0.004377887584269,-0.0079451687633991
1783204781360003800,1.80400390625,0.0300276201255619,0.0213683667212724,-0.1044938091754913,0.0200399085879325,-0.0048385779373347,-0.0059280572459101
1783204781369941000,1.81394091796875,0.0182562260501086,0.0190206345513463,-0.0757160429805517,0.0225997399538755,-0.0031306925229728,-0.0072471206076443
1783204781379878100,1.823878173828125,0.0063844403401017,0.0206736624553799,-0.044950317838788,0.0250978618860244,0.0050455322489142,-0.0071656606160104
1783204781389815000,1.83381494140625,0.0131153560303151,0.0072638535231351,-0.0734919371902942,0.0316305942833423,0.0039166184142231,-0.0036803816910833
1783204781399753200,1.843753173828125,0.0313121069781482,0.0121938572712242,-0.0905196443587541,0.0328054949641227,-0.0024853465147316,-0.004925375804305
1783204781409690000,1.853690185546875,0.0373377970084548,0.0228273333579301,-0.059594344741106,0.0351762399077415,0.0029560243710875,-0.0046739731915295
1783204781419627000,1.863626953125,0.0304018602654337,0.0124155371978878,-0.0501519781351089,0.0324844904243946,0.0076399990357458,-0.003413732163608
1783204781429564000,1.87356396484375,0.0332723011352121,-0.0011781038686633,-0.0309849208503961,0.0273616351187229,0.0084751658141613,-0.0031870971433818
1783204781439501000,1.8835009765625,0.0339849794492125,0.0053925066933035,-0.0149117379277944,0.0170725472271442,0.0039953514933586,-0.0043299598619341
1783204781449439000,1.89343896484375,0.035203707589209,-0.0115273561865091,-0.0077566054761409,0.0120013551786541,0.001192906871438,-2.92207114398e-05
1783204781459376000,1.903376220703125,0.0252343944996595,-0.0171446115463972,0.0060825347840785,0.0055646789260208,-0.0050482247024774,-0.001250879606232
1783204781469313000,1.91331298828125,0.0318668182514607,-0.0092433369025588,0.0168687172144651,0.0019944449886679,0.0010528108105063,0.0002918895334005
1783204781479250000,1.92325,0.0387780589446425,-0.0048854339540004,0.0129454062908887,0.0067512430250644,-0.0021694665774703,-0.0034558437764644
1783204781489187800,1.933187744140625,0.0287352422274649,-0.002666881121695,0.0114402624249458,0.0050486838445067,0.0084152668714523,-0.0022220010869205
1783204781499125000,1.943125,0.0239152747251093,-0.0012342179700732,0.0223626384556293,0.0042222812771797,0.0192858390510082,-0.0028741094283759
1783204781509062100,1.953062255859375,0.0421563032060861,0.0044607788011431,0.0287748435854911,0.0052641094662249,0.0173848755657672,-0.0046858577989041
1783204781518999000,1.9629990234375,0.0491677894033491,0.0130000590875744,0.0162117146104574,0.0041473554447293,0.0158983059227466,-0.007200913503766
1783204781528936200,1.972936279296875,0.0414899482518434,0.0264423089846968,0.0025192893445491,0.0023414650931954,0.0154101494699716,-0.0047968779690563
1783204781538874000,1.9828740234375,0.0223221603147685,0.0197759829632937,0.0061737201988697,0.0006640776991844,0.0177639443427324,-0.0065476084128022
1783204781548811000,1.99281103515625,0.0099634678706526,0.0183532566837966,0.0081079031318426,-0.0018283743411302,0.0263678189367055,-0.0075612077489495
1783204781558748000,2.002747802734375,0.0016338848121464,0.0006175473764538,-0.0035655835270881,-0.0043461648747324,0.0265216194093227,-0.0051332684233784
1783204781568684800,2.012684814453125,0.0094384210832417,-0.000465133293718,-0.0426613301187753,-0.0069512678310275,0.0187491830438375,-0.0073535460978746
1783204781578622700,2.022622802734375,0.0195960963517427,0.0181542269803583,-0.0551122308909893,-0.0107518648728728,0.0162194464355707,-0.0101791601628065
1783204781588559600,2.0325595703125,0.0210588623806834,0.0172086166933178,-0.0378162281751632,-0.0136089036241173,0.0278326924890279,-0.0015459905844181
1783204781598496800,2.042496826171875,0.0199305890031158,-0.0274449101559817,-0.0535597407519817,-0.0198242608457803,0.0243951939046382,0.0041379886679351
1783204781608433700,2.05243359375,0.0209711840972304,-0.0252051684051752,-0.0950152022123336,-0.0258645769208669,0.0133151104673743,0.0025784415192902
1783204781618370800,2.062370849609375,0.0182682087488472,0.0357972895681858,-0.0814712455064058,-0.0279324166476726,0.0079392176121473,-0.0001033947337418
1783204781628308700,2.072308837890625,0.0069816755808889,0.0727998632729053,-0.050233811199665,-0.0276519879698753,0.0140210781246423,-0.0041982708498835
1783204781638246000,2.082245849609375,-0.0087213588550686,0.0630605595469474,-0.0196077867895364,-0.0262321103364229,0.0195201523602008,-0.0070390938781201
1783204781648182500,2.0921826171875,-0.0116854693576693,0.0136399644263088,-0.0388099153876304,-0.0228877123445272,0.0220703948289155,-0.0074241869151592
1783204781658119700,2.10211962890625,-0.0183072255849838,-0.0241810860544443,-0.1282575466006994,-0.018653143197298,0.0010685035958886,-0.0014901005197316
1783204781668057600,2.1120576171875,-0.003504208728671,-0.0266737796530127,-0.187272630149126,-0.0098447361961007,-0.009384935721755,-0.005365798715502
1783204781677994800,2.121994873046875,0.0105034199662506,-0.0015161036513745,-0.1542541576445102,-0.004262363538146,-0.0007094261236488,-0.0079542007297277
1783204781687932000,2.131931884765625,0.0166306706748902,0.0076057988286018,-0.0944891325116157,0.0027065966278314,0.011149363592267,-0.0101105626672506
1783204781697868800,2.141868896484375,0.0136148299850523,-0.0028881226569414,-0.0971931307733059,0.0050697233527898,0.0177166834473609,-0.0053459331393241
1783204781707806700,2.151806640625,0.0181708858542144,-0.0263432325243949,-0.1185164893090724,0.0091986879706382,0.012471055611968,0.0002272641286253
1783204781717743600,2.16174365234375,0.0319411986619234,-0.0616786036692559,-0.1301981592744588,0.0076541323214769,-0.0030566365458071,0.0072003901004791
1783204781727680800,2.1716806640625,0.0528190053872764,-0.0396582027800381,-0.1495943491399288,0.0071934056468307,-0.0148227475583553,0.0114401429891586
1783204781737617700,2.18161767578125,0.0483534042805433,0.0020433423958718,-0.0960223334282636,0.0059707164764404,-0.0120019055902957,0.0086091989651322
1783204781747554800,2.191554931640625,0.0180646490007638,0.0190139125496149,-0.0312765972733497,0.012354047037661,0.0006774044595658,0.0044115241616964
1783204781757492700,2.20149267578125,-0.0003342003904283,0.0133094172976911,-0.0212514623433351,0.0146103827282786,0.0036390700843185,-0.0017388126580044
1783204781767430000,2.211429931640625,-0.0024383330628275,0.0195613172993063,-0.0181722010284662,0.0150082586333155,0.0039285556413233,-0.0047079706564545
1783204781777366500,2.221366455078125,0.0026633739903569,0.0294639948934316,-0.0106967505812644,0.0143292099237442,-0.0026645599864423,-0.004161424934864
1783204781787303700,2.2313037109375,0.0120585404537618,0.0267712486781179,0.0260842893272638,0.0052523585036396,0.0023978427052497,-0.0061944816261529
1783204781797241600,2.24124169921875,0.0186830731600523,0.0124234282433986,0.067352703782916,-0.0053429501131176,0.0128210857510566,-0.0063938265666365
1783204781807178800,2.2511787109375,0.0339509310491383,0.0192947753176093,0.067938394716382,-0.0139731904491782,0.0202403869479894,-0.000944466330111
1783204781817116000,2.261115966796875,0.0468910766430199,0.0198604463763535,0.0375245517522096,-0.0180183108896017,0.0151764657348394,0.000902579864487
1783204781827052800,2.271052734375,0.0425362424343824,0.0173570852532982,-0.0193897601246833,-0.019673466682434,0.0049603139050304,0.0012626394163817
1783204781836990700,2.28099072265625,0.018745032480359,0.0155021050363779,-0.0504191046386957,-0.0207713842391967,0.0041400506161153,-0.0017960800323635
1783204781846927600,2.290927734375,-0.0162346570946276,0.0061783963739871,-0.0633662644952535,-0.017180910333991,0.0075012263841927,-0.0053945435211062
1783204781856864800,2.30086474609375,-0.0175113990321755,-0.018935294355452,-0.057059857827425,-0.0161199737340211,0.011709569953382,-0.0063093015924096
1783204781866801700,2.3108017578125,0.0022539164066314,-0.0115516138449311,-0.0991080244839191,-0.0131998173892498,0.0043842792510986,-0.0060038371011614
1783204781876739800,2.32073974609375,0.0332617797411978,-0.0052373161315917,-0.1223901158720254,-0.0106056090444326,-0.0039841062389314,-0.0065286392346024
1783204781886676700,2.3306767578125,0.0431917837336659,-0.0147403268836438,-0.1234714813679456,-0.009570438414812,-0.0078342389315366,-0.003811948467046
1783204781896613600,2.340613525390625,0.0386725527435541,-0.0321473887585103,-0.0856435627549886,-0.0068895723670721,-0.007235768251121,-0.0011817819904536
1783204781906550500,2.350550537109375,0.0424453492805361,-0.0197869427487254,-0.0311684607237577,-0.007361751049757,0.0023124627768993,0.0019873795099556
1783204781916488700,2.36048876953125,0.058480830541253,-0.0063891165152192,-0.029494974553585,-0.0007268860936164,-0.004219505470246,0.0026602852158248
1783204781926425600,2.370425537109375,0.0626755057521164,-0.021754297298938,-0.063799979737401,0.0045368513092398,-0.007375085260719,0.0035825376398861
1783204781936362800,2.38036279296875,0.0426506625942885,-0.0198893802098929,-0.0237163911521434,0.0023469338193535,0.0039928844198584,0.0043452666141092
1783204781946300000,2.3902998046875,0.0258509189628064,-0.0248617617949843,0.0446890365540981,-0.00372667144984,0.0084970891475677,0.0075013791210949
1783204781956237800,2.40023779296875,0.0212416716016829,-0.0145326754823327,0.0146826053470373,-0.0065194722265005,0.0131630189716815,0.011210162192583
1783204781966174700,2.4101748046875,0.0218538121506571,-0.0077668346092104,-0.0198199682354927,-0.0090337637811899,0.0136682204902172,0.0099163986742496
1783204781976111600,2.420111572265625,0.0181648945048451,0.0046823125973343,-0.0614934563606977,-0.0100909322500228,0.0104707926511764,0.0052166860550642
1783204781986048800,2.430048828125,0.0275644448824226,0.01799260667786,-0.078238839456439,-0.0113807003945112,0.0066715274006128,0.0057338718324899
1783204781995986700,2.439986572265625,0.0255482827544212,0.0281925136528909,-0.0929939255177974,-0.0096370205283164,0.0050444779917597,0.004243697039783
1783204782005923800,2.449923828125,0.0172635617509484,0.005772153660655,-0.1238835693001747,-0.0029681976884603,-0.0037258444353938,0.0046189362183213
1783204782015860700,2.45986083984375,0.0050797874823212,-0.0146302906379103,-0.1251379532754421,0.0003760419785976,-0.0063055069185793,0.0044643366709351
1783204782025797600,2.469797607421875,0.0161981244765222,-0.0281114112406969,-0.1075765776216983,0.0089804492890834,-0.001476130913943,0.0055141542106866
1783204782035735600,2.479735595703125,0.0064344169616699,-0.026712358097732,-0.1046112980753183,0.0162465050816535,0.0020887244027107,0.0058925640769302
1783204782045672700,2.489672607421875,0.0114352939888834,-0.0261931565292179,-0.1188274549543857,0.0259585194289684,-0.0046088597737252,0.0051199807785451
1783204782055609600,2.499609619140625,0.002301262679696,0.0038936464376747,-0.094809450507164,0.0283162780106067,0.0027501452714204,0.0025853072293102
1783204782065546800,2.509546630859375,-0.0161157068900764,0.0213807878114283,-0.0642395401984453,0.0262909438461065,0.0044849282130599,0.0028931689448654
1783204782075484700,2.519484619140625,-0.0210860426485538,0.0088271573171019,-0.0340484000742435,0.0169561374932527,0.0028183714020997,0.0008436245843768
1783204782085421800,2.529421875,0.0142436294078826,0.0288521466054022,-0.0299614230215549,0.0081642437726259,-0.0111576309427618,0.0026963860727846
1783204782095358700,2.539358642578125,0.032479981713742,0.048416386514157,-0.0315747034370899,0.0013592289760708,-0.0147130005061626,0.004132071044296
1783204782105296600,2.549296630859375,0.0237733820363879,0.0498038953498005,-0.0124579150348901,0.0027994662523269,-0.0137143153697252,-0.0011308677494525
1783204782115233500,2.559233642578125,0.0218539582811296,0.0288788884818553,0.0152776486307382,0.0076819364912807,-0.0015754965133965,-0.004232570528984
1783204782125170700,2.569170654296875,0.0186992936424911,0.0198296128466725,0.0265823019772768,0.0075596971437335,0.011107275262475,-0.0062808077782392
1783204782135107800,2.57910791015625,0.0297194309592246,0.026185557744652,0.018010288465023,0.0042047593742609,0.0149891562759876,-0.0089542819187045
1783204782145045800,2.589045654296875,0.045152708543092,0.013183598960936,-0.0094382749527692,0.0009834002703428,0.0093840016052126,-0.0021445793099701
1783204782154983000,2.59898291015625,0.0534288078486919,-0.0157625095382332,-0.005126841494441,-0.0093816937878727,0.0068416660651564,0.0009677426423877
1783204782164919600,2.60891943359375,0.0438787430845201,-0.0400230905696749,-0.0152922616779804,-0.014970070682466,0.0044078035280108,0.0064048524945974
1783204782174856700,2.618856689453125,0.0355042979709804,-0.0649647857330739,-0.0632885230839252,-0.0181703735142946,0.0013670185580849,0.0131432330235838
1783204782184794600,2.628794677734375,0.0333563261568546,-0.0584207709170877,-0.093960724723339,-0.0096005871891975,-0.0003720256499946,0.014331535436213
1783204782194731800,2.638731689453125,0.0177165662154555,-0.0075575757727026,-0.1082078612625598,-0.0008840132504701,-0.0006066733039915,0.008549771271646
1783204782204668700,2.648668701171875,0.010428016642481,0.0292806011505424,-0.0891542012244463,0.0089292023330926,0.0015965597704052,0.0047971112653613
1783204782214605800,2.658605712890625,-0.002360153260082,0.0334467809192836,-0.0523521185278892,0.0111782765015959,0.0067384736612439,0.0044355723075568
1783204782224543700,2.668543701171875,-0.0010614917516708,0.0209799519255757,-0.0400280590057373,0.0094253839924931,0.0059150238521397,0.0026190304197371
1783204782234480600,2.678480712890625,0.0029226094484329,0.0122036480128765,-0.0350765740782022,0.0009554326534271,0.0042994143441319,0.0027132821269333
1783204782244417800,2.688417724609375,0.0048164603710174,0.0215982299543917,-0.029789573585987,-0.0044217566028237,0.0018104240298271,0.0042709647677838
1783204782254354700,2.698354736328125,0.0152586516693234,0.0333851138599216,-0.0426543158560991,-0.0054474379867315,0.0026078065857291,0.0019454793073236
1783204782264292600,2.708292724609375,0.0181704474627971,0.0542681812822818,-0.0691419252872467,-9.60817560553e-05,0.0005577052943408,-0.0007408510427922
1783204782274229800,2.718229736328125,0.0091468907907605,0.0506337703026831,-0.0974573346674442,0.0050019910559058,-0.0006232429295778,-0.0045232269912958
1783204782284167000,2.7281669921875,-0.0053436991155147,0.0363853185892105,-0.0938034883350133,0.0089674368500709,0.0006542750634253,-0.0061461571604013
1783204782294104800,2.738104736328125,-0.0132420511499047,0.027823095818609,-0.0951858826041221,0.0135969761759042,0.0003673145547509,-0.0101370327174663
1783204782304041700,2.748041748046875,0.0001309329032897,0.0046451954573392,-0.1118476790696382,0.014016424305737,-0.0043536713346838,-0.0105929663404822
1783204782313978600,2.757978515625,-0.0012033844403922,-0.0079174951262772,-0.0800327371358871,0.0122878663241863,-0.0037796213291585,-0.0026883091777563
1783204782323915800,2.767915771484375,0.0200078920230269,-0.0297770063653588,-0.055008185994625,0.0072731343097984,-0.005704287905246,-0.0016728457994759
1783204782333853700,2.777853759765625,0.0357028892830014,-0.0294236628830432,-0.0530225651353597,0.0028164340183138,-0.0086938142776489,0.0010357175488024
1783204782343790800,2.787790771484375,0.0306930982969701,-0.0154280168868601,-0.0750520261138677,0.0107574481517076,-0.0126957483589649,0.0008823194075375
1783204782353727700,2.797727783203125,0.0243576116651296,-0.0194582953162491,-0.069307344982028,0.0196846295148134,-0.0129442196339368,0.0007110780570656
1783204782363664600,2.80766455078125,0.0170258074723184,-0.0159779058545827,-0.024397943675518,0.0190017949789762,-0.0070916567929089,-0.0043129753321409
1783204782373602600,2.8176025390625,0.0122886959478259,0.0037923780202865,0.0245920049428939,0.0174177251756191,-0.0027346489951014,-0.0091822454705834
1783204782383539700,2.827539794921875,0.027099457719177,0.0029800387240946,0.0348082785308361,0.0131840975955128,0.0021546485368162,-0.0078967381268739
1783204782393476600,2.8374765625,0.0488403110146522,-0.0064841013222932,0.0522825604230165,0.0035262154415249,0.001534922979772,-0.0034148935228586
1783204782403414800,2.847414794921875,0.0630189123623073,-0.0069803604066371,0.0731798025012016,-0.0125142689794301,0.0075733745470643,-0.0019727917388081
1783204782413351700,2.8573515625,0.065083005285263,-0.0072151920758187,0.0925350758343935,-0.0241734087467193,0.0076784812845289,0.0061465362086892
1783204782423288800,2.867288818359375,0.0523383822634816,-0.008248772907257,0.0576063857942819,-0.0308291837573051,0.0089418850839138,0.0045766029506921
1783204782433225700,2.877225830078125,0.0272353590585291,-0.0086449326179921,0.0231365454375743,-0.028807234019041,0.0156538430601358,0.0078099574893713
1783204782443163600,2.88716357421875,0.0053575815103948,-0.0018495733894407,-0.0051443771511316,-0.0223565250635147,0.022148760035634,0.0022404890041798
1783204782453100800,2.897100830078125,-0.0086997315451502,0.0049845104143023,-0.0518441690057516,-0.0213646218180656,0.0232408605515956,-3.63222789019e-05
1783204782463037700,2.90703759765625,-0.0020991642363369,-0.0013803484424948,-0.0764554631710052,-0.014633746817708,0.021264262497425,-0.0015620472840964
1783204782472975600,2.9169755859375,0.0088971538133919,0.0105386374101042,-0.1043628762722015,-0.0147545309737324,0.0093240877613425,-0.0046799927949905
1783204782482912800,2.926912841796875,0.0171257607154548,0.0082721537828445,-0.1205488719195127,-0.0170672200620174,0.0039021582342684,-0.0031177822966128
1783204782492850000,2.936849853515625,0.0025024843402206,0.0053799394726753,-0.1130459489434957,-0.0149483187124133,0.0039587523788213,-0.0026310964021831
1783204782502786600,2.94678662109375,0.0093516195826232,-0.0054338616169989,-0.1141273144394159,-0.0085961474105715,0.0003195428289473,0.0003226157277822
1783204782512724700,2.956724853515625,0.0064057753890752,-0.0193482590705156,-0.126534960591793,-0.0007985159754753,-0.0001345365308225,0.0032100391108542
1783204782522661600,2.96666162109375,-0.015462649808824,0.0077549980409443,-0.0987456209123134,0.0021360209211707,0.0001581446267664,-0.0048923622816801
1783204782532598800,2.976598876953125,-0.0300546542629599,0.0313790347345173,-0.0733528209805488,0.0040128929540514,0.001816744916141,-0.0082561802119016
1783204782542535700,2.98653564453125,-0.0194213243067264,0.0453086297571659,-0.0222381352931261,-0.0003994321450591,0.0039882864803075,-0.0076287388801574
1783204782552473900,2.996473876953125,0.0010690905362367,0.0475865115612745,0.0035351883888244,-0.0081557752564549,0.0036804834380745,-0.0124231548979878
1783204782562410800,3.00641064453125,0.0104091658115386,0.0241062672525644,-0.0141693951278924,-0.0085762878879904,-0.0051795868203043,-0.0075980396941304
1783204782572347600,3.01634765625,-0.0026518296830356,-0.0011452245123684,-0.0368295552253723,-0.013145157136023,-0.0052130739204585,-0.0061940443702042
1783204782582285600,3.02628564453125,0.0057036184690892,0.0002039981395006,-0.0066506900608539,-0.0180280618369579,0.0013774512335658,-0.011135539971292
1783204782592222700,3.03622265625,0.0289896553799509,0.0141956986129283,0.0135731828004121,-0.0207710824906826,0.0126042012125253,-0.0085675045847892
1783204782602159600,3.04615966796875,0.0424321975380182,0.0105500355869531,7.5987845659e-06,-0.0181803591549396,0.016592551022768,-0.0091621875762939
1783204782612096800,3.0560966796875,0.0395246395282447,-0.013122954814881,-0.0723667325526475,-0.0071575809270143,0.0115545820444822,-0.0055515374988317
1783204782622034700,3.06603466796875,0.046890784382075,-0.0343539588920772,-0.1527612887382507,-0.0025252783671021,-0.0023987842723727,-0.0008526563178747
1783204782631971600,3.0759716796875,0.0290489843517541,-0.0452381948694586,-0.1409434251725673,-0.0005057575181126,-0.0072105154395103,0.0013770055957138
1783204782641908700,3.08590869140625,0.0101646895311772,-0.0278271874718368,-0.0797445678442716,-0.0036165965721011,-0.0020080301910638,-0.0021721892990171
1783204782651846700,3.0958466796875,0.0227960614368319,-0.0168500125139951,-0.0400485172718763,-0.0057785334065556,0.0092306053265929,-0.0045468225143849
1783204782661783800,3.10578369140625,0.046309915754199,-0.0245610252827405,-0.0539449406772851,-0.0018948456272482,0.0115163968876004,-3.6492710933e-05
1783204782671720700,3.115720703125,0.0528228047795593,-0.0509554034724831,-0.0833802939981222,0.0029776394367218,0.0106938192620873,0.0074430461972951
1783204782681658600,3.12565869140625,0.0577466710478067,-0.0485953963428735,-0.1023445221871137,0.0073745185509324,-0.002753812354058,0.0118029080331325
1783204782691595500,3.135595458984375,0.0435173624262213,-0.0278486686512827,-0.0931073227643966,0.0088924281299114,-0.0101500796154141,0.0128283640369772
1783204782701532700,3.14553271484375,0.0295252235613763,0.0027231413535773,-0.0402606987178325,0.0073270220309495,-0.0068581458181142,0.0090994052588939
1783204782711469600,3.155469482421875,0.0081182783953845,0.0134242758490145,0.0040706104397773,-0.0006700027734041,-0.0031112050637602,0.0058323396369814
1783204782721407700,3.16540771484375,-0.0200951319150626,0.0209865277968347,0.0066758245021104,-0.0034937523305416,-0.0019332887604832,0.0035673209931701
1783204782731344600,3.1753447265625,-0.0136924252659082,0.03301993380934,-0.0147281980544328,-0.0046142134815454,-0.0086595341563224,-0.002396201249212
1783204782741281800,3.18528173828125,0.0033006489805877,0.0406109734602272,-0.0169523038446903,-0.0083887111395597,-0.0112531874328851,-0.0038076767232269
1783204782751219700,3.1952197265625,0.0058070788435637,0.0373461264453828,0.0363695364981889,-0.0134966103360056,-0.0053654103539884,-0.0071865916252136
1783204782761156600,3.205156494140625,0.0028754093058407,0.0368204951360821,0.0972872387975454,-0.0253322310745716,0.012744884006679,-0.0068180104717612
1783204782771093500,3.215093505859375,0.0204782860137522,0.0132914432495832,0.0970657050013542,-0.0318742208182811,0.0189925581216812,-0.0013210747856646
1783204782781030700,3.22503076171875,0.0259383049853146,-0.0102164197184145,0.0360568172872066,-0.0310955122113227,0.0274680703878402,0.0005047882441431
1783204782790968600,3.234968505859375,0.0314694894969463,-0.0398513872645795,-0.0571346766293048,-0.0342519953846931,0.0141582954674959,0.0097184050828218
1783204782800905700,3.24490576171875,0.03436258058995,-0.0356387380056083,-0.0834153653115034,-0.0395154654979705,0.002886732108891,0.0075740288011729
1783204782810843000,3.2548427734375,0.0099576226517558,-0.0103263098336756,-0.0666349109023809,-0.0397579036653041,0.0046617304906249,0.0010878869798034
1783204782820780800,3.26478076171875,0.0094020345956087,-0.0011740122154355,-0.0769049605041742,-0.0371730402112007,0.0107254814356565,-0.001385390991345
1783204782830717400,3.274717529296875,0.0195421742074191,-0.0054933367192745,-0.1242021337300539,-0.0254956111311912,0.0068275434896349,0.0016579565126448
1783204782840654600,3.284654541015625,0.0356144803471863,-0.0292234641358256,-0.1538876624196767,-0.0143936919048428,0.0036911384668201,0.0042843660339713
1783204782850592500,3.294592529296875,0.0304999138124287,-0.0409412283279001,-0.1408580849766731,-0.0024434570223093,0.0055872779339551,0.0066957841627299
1783204782860529700,3.30452978515625,0.0224780815288424,-0.0388398721344769,-0.1287391926378011,0.005577185191214,0.0031624699477106,0.0070329406298696
1783204782870466800,3.314466796875,0.0151364865943789,-0.0264846868216991,-0.1320680447995662,0.0041302358731627,0.0030371332541108,0.0084163239225745
1783204782880403700,3.32440380859375,0.0125368254899978,0.000398936189711,-0.1363455759882927,0.0143591715022921,-0.001724598929286,0.0084325689822435
1783204782890341600,3.334341552734375,0.0128454530477523,0.0139449387222528,-0.1339724171161651,0.0169247034937143,0.0031754532828927,0.007954079657793
1783204782900278500,3.344278564453125,0.00652735594213,0.0037266193076968,-0.1079839893788099,0.0209881551563739,0.0025858294684439,0.0050949100404977
1783204782910215700,3.354215576171875,-0.001273673197627,-0.0036380642414093,-0.1076215858072042,0.0271364375948905,-0.0009974869899451,0.005033359862864
1783204782920153600,3.364153564453125,-0.0009419570252299,0.0139113287135958,-0.0871510447084903,0.0275502949953079,-0.0062585617415606,0.003375808475539
1783204782930090800,3.3740908203125,-0.0089782562255859,0.0138709967032074,-0.045116322055459,0.0259602107107639,-0.0089116040617227,0.0044898218475282
1783204782940027600,3.384027587890625,-0.0211449332289397,0.0301050692759454,-0.0068172787994146,0.0170655213296413,-0.0060015674680471,-0.0014399725478142
1783204782949964800,3.39396484375,-0.0187901867963373,0.0396010657653212,0.0148299048632383,0.0116441026329994,-0.0022941813804209,0.000727264676243
1783204782959902700,3.40390283203125,-0.0061537003241479,0.036648207309097,0.0235071323156356,0.005929491482675,-0.0057365833781659,-0.0011681071482598
1783204782969839600,3.413839599609375,0.0128920686684548,0.0541064148493111,0.0337128845095634,-0.0021490799263119,-0.0065860305912792,-0.004818111192435
1783204782979776500,3.423776611328125,0.0149956168189644,0.0528948471024632,0.0542646741509437,-0.0047757551074028,-0.0029651965014636,-0.0036692237481474
1783204782989714700,3.433714599609375,0.008635872528702,0.0173529936000704,0.0443780709087848,-0.0059511372819542,0.0060598882846534,-0.0070265289396047
1783204782999651600,3.443651611328125,0.0211082544803619,-0.0108788291499018,0.0198170456260442,-0.001480221748352,0.0120890187099576,-0.0046038511209189
1783204783009588700,3.453588623046875,0.0285486336141824,-0.00739931647107,-0.0142827923744916,-0.0065331906080245,0.0147537440061569,-0.0062079047784209
1783204783019526700,3.463526611328125,0.0359606634363532,-0.0051107671424746,-0.0385673388034105,-0.0071294717490673,0.0090074418112635,-0.0093581574037671
1783204783029463800,3.4734638671875,0.0392062212288379,-0.0202722420476377,-0.0530050294786691,-0.0086120655760169,0.0036321519874036,-0.0050565730780363
1783204783039400700,3.483400634765625,0.0251104758590459,-0.0360182388424873,-0.0812953044176101,-0.0064088338986039,-0.0014765900559723,-0.0074238572269678
1783204783049338600,3.493338623046875,0.034575346557796,-0.0321206468820571,-0.0760831227272749,-0.0094710355624556,-0.0051000886596739,-0.0043825423344969
1783204783059275500,3.503275634765625,0.0463135690160095,-0.030630700585246,-0.0807090289622545,-0.0055977357551455,-0.0098644830286502,0.0008966415189206
1783204783069212700,3.513212646484375,0.0379379548586905,-0.0382914444714784,-0.0711374830186367,0.0008053034543991,-0.0147596392780542,0.0014913254417479
1783204783079149800,3.52314990234375,0.019471447058767,-0.0359252998620271,-0.0331616803675889,0.0003339238464832,-1.55810266733e-05,0.0033382279798388
1783204783089087700,3.533087646484375,0.019909838476032,-0.0224497322171926,-0.0135416186183691,0.0024127336218953,0.0043559661135077,0.002518757013604
1783204783099025000,3.54302490234375,0.0341698344968259,-0.0051866088576614,-0.0222679459095001,0.0052346186712384,0.0027737820055335,0.004895893856883
1783204783108961500,3.55296142578125,0.0285714299678802,0.0172696992307901,-0.0572311227411031,0.007710613310337,0.0039783613756299,0.0056450581178069
1783204783118899500,3.5628994140625,0.0058468263320624,0.0177735570996999,-0.0422393053144216,0.0070570735260844,0.0067150257527828,0.0032503432594239
1783204783128836600,3.572836669921875,-0.0214753342270851,0.0131584645196795,-0.0450029248088598,-0.0001708511263132,0.0044470741413533,0.0006763821002095
1783204783138773800,3.582773681640625,-0.0209743989676237,0.0368377385318279,-0.0482376689463853,-0.0001695193350315,0.0020686050411313,-0.0002418761141598
1783204783148711700,3.592711669921875,-0.0180611418694257,0.0456593428909778,-0.0527373184531927,-0.0054081911221146,0.0038370459806174,-0.0016284737503156
1783204783158648800,3.60264892578125,-0.006644844841957,0.0075735039941966,-0.0574824671536684,-0.0093808276578783,-0.0055556567385792,0.0007289564236998
1783204783168585700,3.612585693359375,0.0022520167104899,-0.0169902977675199,-0.0799146637141704,-0.0102746170014142,-0.0100237429141998,0.0059169502928853
1783204783178524000,3.62252392578125,0.0160911569707095,0.0105088267937302,-0.067294836115837,-0.0070833507925271,-0.0085600707679986,0.0043033408001065
1783204783188460500,3.63246044921875,0.0128210492588579,0.0286586698599159,-0.0366898544937372,-0.0085471728816628,0.0021907743066549,0.0010073336306959
1783204783198397700,3.642397705078125,0.0136418641224503,0.0272292215786874,-0.0368628729730844,0.0001424551010131,0.0138455666601657,-0.0040662549436092
1783204783208334600,3.65233447265625,0.0113384094856679,0.0148816350504755,-0.0773649792313575,0.0070540062151849,0.0063865133561193,-0.0059766196645796
1783204783218272800,3.662272705078125,0.0057885202735662,-0.0171250300630927,-0.1099754554569721,0.0088716130703687,-8.09733755886e-05,-0.0026050577871501
1783204783228209700,3.672209716796875,0.0024129063606262,-0.0174454941891133,-0.0853045400589704,0.0069133881479501,-0.0066797938197851,-0.007162308320403
1783204783238146800,3.682146728515625,-0.005469955843687,-0.0306714709870517,-0.0458463898956775,0.0057224226184189,-1.15046277642e-05,-0.0043950174003839
1783204783248084700,3.692084716796875,-0.0124213824167847,-0.0429985992491245,-0.04744564178586,0.007662943098694,0.0014954963698983,-0.0009334825444966
1783204783258021600,3.702021728515625,0.0131394675582647,-0.0391100673779845,-0.0652472559362649,0.012835600413382,-0.0055312537588179,0.0010886555537581
1783204783267958500,3.71195849609375,0.0208867206841707,-0.0158072254627943,-0.0389993004798889,0.0197924375534057,0.000982959754765,0.0003662309609353
1783204783277896700,3.721896728515625,-0.0020981413230299,0.0006895896993577,0.0164168817937374,0.0197674036026,0.0028154808096587,0.002043489832431
1783204783287833600,3.73183349609375,-0.043774405927211,0.0036146833658218,0.0537105473995208,0.0211288481950759,0.0165188405662775,0.0019876258447766
1783204783297770800,3.741770751953125,-0.0526031706795096,-0.0015391922660171,0.0813560946941375,0.0266202874481678,0.0306695476174354,0.0055685122497379
1783204783307708700,3.751708740234375,-0.0649462271630764,0.007458937703818,0.0765682758957147,0.029363403096795,0.0353298597037792,-0.0013823143672198
1783204783317645800,3.761645751953125,-0.0801625009953975,0.0456032287895679,0.0662625704586505,0.0297450348734855,0.0416956134140491,-0.0027245474047958
1783204783327582700,3.771582763671875,-0.0891645764879882,0.0751952339768409,0.0814040254890918,0.0301471874117851,0.0468300431966781,-0.0034679528325796
1783204783337520600,3.781520751953125,-0.0910541896268725,0.1226144261471927,0.102000823315978,0.0236621238291263,0.0505656599998474,-0.0095162577927112
1783204783347457500,3.79145751953125,-0.0871050136096775,0.1739443620204925,0.0981938322484493,0.0108840828761458,0.0517300814390182,-0.0211549960076808
1783204783357394700,3.801394775390625,-0.0974012205660343,0.2234507357284426,0.0743266344487667,-0.0084011983126401,0.0494365692138671,-0.036903865635395
1783204783367331800,3.811331787109375,-0.0713582861624658,0.2176788743287324,0.0398982951462268,-0.0269840955734252,0.0430960431694984,-0.0523183234035968
1783204783377269800,3.821269775390625,-0.0278241187319159,0.1771612782403826,-0.0386012410730123,-0.053462840616703,0.0247481931000947,-0.0610431060194969
1783204783387206700,3.83120654296875,0.0352719505198299,0.1129842818841338,-0.1414735865265131,-0.0710986256599426,0.0035786384250968,-0.0637492164969444
1783204783397143600,3.8411435546875,0.0905890563331544,0.0200701436042785,-0.2213297980517148,-0.0823946893215179,-0.0140898376703262,-0.0570713430643081
1783204783407081700,3.851081787109375,0.1370851423092186,-0.0998034594021737,-0.2897439935863017,-0.0816335976123809,-0.0339658334851264,-0.0515247881412506
1783204783417018600,3.8610185546875,0.1803555442370474,-0.1999991329923272,-0.3579991991668939,-0.0554414018988609,-0.0419768914580345,-0.0395083390176296
1783204783426955800,3.870955810546875,0.192392165119946,-0.2719181217774749,-0.3963590326994657,-0.0174809396266937,-0.0350347235798835,-0.0322774797677993
1783204783436893700,3.880893798828125,0.1954014299385249,-0.3336054932750761,-0.3859095348775386,0.0252481494098901,-0.0252553299069404,-0.0228714607656002
1783204783446830800,3.890830810546875,0.2202403953798115,-0.3709814303368329,-0.3355050432860851,0.0660319179296493,-0.0142088746652007,-0.0088606504723429
1783204783456767500,3.900767578125,0.250455354771018,-0.3478479536391795,-0.2397550970584154,0.0964358896017074,-0.0015010684728622,0.0002404365222901
1783204783466705700,3.91070556640625,0.2498594347044825,-0.2879296376407146,-0.1234983693748712,0.1117157712578773,0.0136280041188001,0.0112559711560606
1783204783476642600,3.920642578125,0.2393820259623229,-0.225081844061613,-0.0225514390259981,0.1186988428235054,0.0157316345721483,0.0250194557011127
1783204783486579700,3.930579833984375,0.227301273676753,-0.1839580987736582,0.0721761784166097,0.1026751771569252,0.01333165820688,0.0392493195831775
1783204783496517600,3.940517578125,0.1874069240532815,-0.1477351311393082,0.174055421179533,0.0785413384437561,0.0071009267121553,0.0570189952850341
1783204783506454800,3.950454833984375,0.1430713771119713,-0.1155143848836421,0.2468728201091289,0.0546136051416397,0.0105754882097244,0.0691054239869117
1783204783516391700,3.9603916015625,0.0670505059659481,-0.0505465304106473,0.3021609920889139,0.0245278757065534,0.0187114458531141,0.0683344379067421
1783204783526329900,3.970329833984375,-0.0089294486477971,0.0270167478717863,0.3243716548532247,0.0009881416335701,0.03189367800951,0.0639917254447937
1783204783536266500,3.9802666015625,-0.0647505584605038,0.1057512618906795,0.3004156097263097,-0.0160488989204168,0.0368357077240943,0.0548166036605834
1783204783546203600,3.99020361328125,-0.1100010282896459,0.1442448048055171,0.244291571444273,-0.0315785706043243,0.0422092527151107,0.0451132096350193
1783204783556141600,4.0001416015625,-0.1399338097386062,0.1591881069153547,0.1895534345626831,-0.0505453422665596,0.0410811379551887,0.0340528339147567
1783204783566078000,4.010077880859375,-0.1465723709702491,0.162714235214889,0.1197960077255964,-0.0611620135605335,0.0412978939712047,0.0230856332927942
1783204783576015000,4.02001513671875,-0.1260112289786338,0.1539572205245494,0.0641711511373519,-0.0741100385785102,0.0323131904006004,0.016705498099327
1783204783585953000,4.029953125,-0.1066207382015883,0.1445914262861013,0.0023702362626791,-0.0903173089027404,0.0229701604694128,0.0071265157312154
1783204783595890000,4.039889892578125,-0.0787350985407829,0.113505967670679,-0.0779115071982145,-0.0980005264282226,0.0069496487267315,-0.0001345926430076
1783204783605827000,4.0498271484375,-0.0441048069253563,0.0795722800172865,-0.1676969920635223,-0.0967769548296928,-0.006358731072396,-0.0061744060367345
1783204783615764200,4.05976416015625,-0.0288167830310761,0.0386906729221344,-0.2218447618365287,-0.0903875008225441,-0.019635921344161,-0.0105526428669691
1783204783625702100,4.0697021484375,-0.006869739639014,-0.0120043260484933,-0.2611924373626709,-0.0741080492734909,-0.0226917285472154,-0.0118470322340726
1783204783635639000,4.07963916015625,0.0239924316145479,-0.0693204967245459,-0.3040186026543379,-0.0548137091100215,-0.0307933297008276,-0.0088962502777576
1783204783645576000,4.089575927734375,0.0674506111994385,-0.1051686396971344,-0.2927946133285761,-0.0325943566858768,-0.0279143266379833,-0.004296847153455
1783204783655514000,4.09951416015625,0.0943519159980118,-0.1196725274764001,-0.2500257311820983,-0.0121596530079841,-0.0264868699014186,0.0027900910936295
1783204783665451000,4.109450927734375,0.1341036422803997,-0.127002139712125,-0.2262806984573602,7.95265659689e-05,-0.0202837735414505,0.0159049313515424
1783204783675388200,4.11938818359375,0.1630003586798906,-0.1124294244803488,-0.1603992362707853,0.0123023707419633,-0.0167875755578279,0.026896595954895
1783204783685326000,4.129326171875,0.1197246960550546,-0.1012350996404886,-0.1482815129756927,0.0207051560282707,-0.0164705961942672,0.0334141664206981
1783204783695263200,4.13926318359375,0.0982537457421422,-0.0815057322978973,-0.144690795007348,0.0250098891556262,-0.0203031506389379,0.0415722280740737
1783204783705199900,4.149199951171875,0.047355187023431,-0.0546842147372663,-0.1175970363765954,0.0324292443692684,-0.0218231342732906,0.0424738749861717
1783204783715138000,4.159137939453125,-0.0110085930094122,-0.012804098124057,-0.046544893553853,0.035601332783699,-0.0179591532796621,0.0387635566294193
1783204783725075000,4.169074951171875,-0.0209799519255757,0.0452381948694586,0.0109416652530431,0.0333965755999088,-0.0068499143235385,0.0373985432088375
1783204783735012000,4.17901220703125,-0.0390352485761046,0.0914814751282334,0.0616822569310665,0.0294340569525957,0.0051550832577049,0.029758732765913
1783204783744950000,4.188949951171875,-0.0502180291086435,0.1124682951860129,0.0846095435321331,0.0222444273531436,0.0184013061225414,0.0242925155907869
1783204783754887200,4.19888720703125,-0.0652336658023297,0.1186138122037053,0.0848679022073745,0.0182459577918052,0.0196681711822748,0.0235926378518342
1783204783764824000,4.208823974609375,-0.0763230689629912,0.1156850652754306,0.0711585258066654,0.0119262626394629,0.0198979582637548,0.0214308965951204
1783204783774762200,4.21876220703125,-0.0959765945903956,0.1104047867849469,0.0330932913064956,0.003172717988491,0.0198327116668224,0.0151879154145717
1783204783784699000,4.228698974609375,-0.1118508939400315,0.1226324001953005,0.0181646022439002,-0.0027647325769066,0.0178243461996316,0.0067645497620105
1783204783794636000,4.238635986328125,-0.1148081363104283,0.1449944541290402,-0.0124561614692211,-0.0111640756949782,0.0130977686494588,-3.50328627973e-05
1783204783804574000,4.248573974609375,-0.1041335975609719,0.1303112642601132,-0.0415057303428649,-0.0168278403580188,0.0109735187143087,-0.0063173063099384
1783204783814511000,4.258510986328125,-0.0896454918727278,0.0869935160592198,-0.0845978530943393,-0.023755520582199,-0.003342302981764,-0.0099400039762258
1783204783824448000,4.268447998046875,-0.0701043405786156,0.0520874762423336,-0.1083417167752981,-0.0212003476917743,-0.0104068564251065,-0.0130140697583556
1783204783834386200,4.27838623046875,-0.0564431872338056,0.0314127908736467,-0.1336643740803003,-0.0140697350725531,-0.0123267294839024,-0.0181262735277414
1783204783844323000,4.288322998046875,-0.0217639419101178,0.0028683950431644,-0.1459545313328504,-0.002605527639389,-0.0132780876010656,-0.0195346362888813
1783204783854260000,4.298260009765625,0.0037380174845457,-0.0291281870678067,-0.1263824003785848,0.0122208222746849,-0.0043879225850105,-0.0188579279929399
1783204783864198000,4.308197998046875,0.0383595412716269,-0.0578369796797633,-0.0983475615054368,0.0211967267096042,0.001131993252784,-0.0149289742112159
1783204783874135000,4.318135009765625,0.078216335363686,-0.0709011900447309,-0.0712269148677587,0.0322674885392189,0.0113819679245352,-0.0103917475789785
1783204783884072200,4.328072265625,0.1079318208001554,-0.0729620680972933,-0.0657949529469013,0.0416972190141677,0.018398642539978,-8.41971486806e-05
1783204783894010000,4.338010009765625,0.0931364027284085,-0.0785820999361574,-0.078395491322875,0.0486739054322242,0.0137769924476742,0.0078552179038524
1783204783903947000,4.347947021484375,0.0846842162035405,-0.0649161242857575,-0.0998509518057107,0.0504143461585044,0.0090316049754619,0.008132267743349
1783204783913884200,4.35788427734375,0.058375470470637,-0.0257343068458139,-0.0879518396973609,0.0410741046071052,0.0063181105069816,0.0082001779228448
1783204783923822000,4.367822021484375,0.0498592787988483,-0.0194448513127863,-0.0737836136132478,0.0277570560574531,-0.0067455619573593,0.0083482004702091
1783204783933759000,4.377759033203125,0.0583760549925267,-0.0146966338723897,-0.0796200646817684,0.0173044130206108,-0.019466683268547,0.0119152376428246
1783204783943696100,4.387696044921875,0.0557457064889371,-0.0109966103106737,-0.0768786570191383,0.004366211593151,-0.0283276420086622,0.0151285044848918
1783204783953634000,4.397634033203125,0.0396902053534984,-0.0213309573203325,-0.0673497811734676,0.0005568265914916,-0.0279603917151689,0.0150906890630722
1783204783963571000,4.407571044921875,0.0333640710718929,-0.0407458518862724,-0.119783732765913,0.0056553948670625,-0.0334380902349948,0.0197021048516035
1783204783973508000,4.417508056640625,0.0382812153384089,-0.0567909777581691,-0.1660410415500402,0.0135372867807745,-0.0395601652562618,0.0281648319214582
1783204783983446000,4.427446044921875,0.0431989441268146,-0.049372225934267,-0.1825268969267606,0.0175101030617952,-0.0478771217167377,0.0338438488543033
1783204783993383000,4.4373828125,0.0740717829048633,-0.0403533454373478,-0.2176496482342481,0.0212816726416349,-0.0717172101140022,0.0396167822182178
1783204784003320000,4.447320068359375,0.0277918238975107,-0.0474045791231095,-0.2478150693953037,0.0249481871724128,-0.0788374245166778,0.0359341837465763
1783204784013258000,4.457258056640625,-0.022556261331588,0.0016948212191462,-0.2515717915803194,0.0275804549455642,-0.0921660140156745,0.0211480483412742
1783204784023195100,4.467195068359375,-0.0646041357271373,0.0408504813045263,-0.2500830143272876,0.0298191756010055,-0.1102564483880996,-0.0022362053859978
1783204784033132000,4.477132080078125,-0.0578986467391252,0.0422734998449683,-0.2460901452988386,0.0370054468512535,-0.1166895776987075,-0.0108523303642869
1783204784043070000,4.487070068359375,0.0108753220185637,-0.0036478549830615,-0.2045253782451152,0.043000541627407,-0.1239649876952171,-0.0092266667634248
1783204784053007000,4.497007080078125,0.0449376044876873,-0.0405333781793713,-0.1596218221575021,0.0466645210981369,-0.1239330247044563,-0.0012904461473226
1783204784062944000,4.506944091796875,0.1013232163153588,-0.0723082803636789,-0.1213975977033376,0.0596350282430648,-0.12834432721138,0.0117409033700823
1783204784072882000,4.5168818359375,0.1348898242220282,-0.0836181944072246,-0.0768330643117427,0.068382978439331,-0.1309619396924972,0.0218103155493736
1783204784082819000,4.526819091796875,0.1324573363780975,-0.0429904159426689,0.0133662620514631,0.0719385668635368,-0.109067291021347,0.0256553869694471
1783204784092756000,4.536755859375,0.0632604660332202,-0.010031856931746,0.1133633443295955,0.0716565325856208,-0.0728075504302978,0.0169931892305612
1783204784102694100,4.546694091796875,-0.0018570260435342,0.0031233927175402,0.1118576159417629,0.0783276408910751,-0.0537161193788051,0.0083624478429555
1783204784112631000,4.556631103515625,-0.013395342015475,0.01531155090034,0.0337853652238845,0.0877890512347221,-0.0594363212585449,0.0064737340435385
1783204784122568200,4.566568115234375,-0.0091112349554896,0.0350511473760008,0.0041723172485828,0.089224524796009,-0.0633652210235595,-0.0021375366486608
1783204784132506000,4.576506103515625,-0.0102278178952634,0.0571279546275734,0.0328279183685779,0.0849197879433631,-0.067365288734436,-0.0056590344756841
1783204784142443000,4.586443115234375,8.79705443978e-05,0.0806228119835257,0.0975596259981393,0.0744302943348884,-0.0630487874150276,-0.0103871710598468
1783204784152380000,4.5963798828125,0.0067386606052517,0.0967049088649451,0.1904769791483879,0.0506661050021648,-0.056152269244194,-0.0132519342005252
1783204784162318000,4.606318115234375,0.024237492416799,0.079786653420329,0.2498702483594417,0.025137685239315,-0.054529920220375,-0.0126295927911996
1783204784172255000,4.6162548828125,0.0331182796172797,0.0774688779972493,0.2961316487967967,-0.0069052018225193,-0.0448578521609306,-0.0128732714802026
1783204784182192000,4.626192138671875,0.043063919570297,0.0805370333962142,0.3309738295972347,-0.04758882522583,-0.0444340966641902,-0.0174269713461399
1783204784192130000,4.636130126953125,0.0624314678631722,0.0793872788392007,0.3546948969244957,-0.0666256323456764,-0.0346168838441371,-0.0069008274003863
1783204784202067200,4.646067138671875,0.0351063846945762,0.000689005177468,0.3593067746341228,-0.0874606445431709,-0.0042867534793913,-0.0049125808291137
1783204784212005000,4.656005126953125,-0.0031510113768279,-0.0131476508647203,0.2871066308200359,-0.0978254005312919,0.0074492641724646,-0.0116413235664367
1783204784221942000,4.66594189453125,0.0129703946016728,0.0067972589246928,0.1851198360294103,-0.0935273095965385,0.0163562521338462,-0.0172847770154476
1783204784231879000,4.67587890625,0.054333063212037,0.0027229952231049,0.1215478198289871,-0.0902010202407836,0.0319229625165462,-0.0137643441557884
1783204784241817000,4.685817138671875,0.0397116865329444,-0.0190884390905499,0.0736439128816127,-0.0828713327646255,0.0412075668573379,-0.0088580017909407
1783204784251754000,4.69575390625,0.0434627096295356,-0.0442749027952551,0.015341361516714,-0.0835512280464172,0.0414983853697776,-0.0061793942004442
1783204784261691100,4.705691162109375,0.0578149139784276,-0.0359235462963581,0.005509118810296,-0.0857182443141937,0.0443708561360836,-0.0074720988050103
1783204784271629000,4.715629150390625,0.0187431327842175,0.0077532444752752,0.0127525140672922,-0.0782270431518554,0.0650404542684555,-0.0156799610704183
1783204784281566200,4.725566162109375,-0.0372489496812224,0.0282052270039916,0.0177998605847358,-0.0618529245257377,0.0841831266880035,-0.0172793101519346
1783204784291502800,4.7355029296875,-0.068715078177303,0.0153071669861674,-0.0363993471145629,-0.0490761399269104,0.0960794687271118,-0.0189829356968402
1783204784301441000,4.74544091796875,-0.078933397591859,0.0246671160057187,-0.1534393341302871,-0.0433662384748458,0.0807084068655967,-0.0233162548393011
1783204784311378000,4.7553779296875,-0.0571617107667028,0.034733751989901,-0.2234428446829318,-0.0446629300713539,0.055157508701086,-0.0267911478877067
1783204784321315000,4.765315185546875,-0.0453700045555829,0.0378087755210697,-0.2320633735120296,-0.0467787310481071,0.0362526848912239,-0.0315646976232528
1783204784331253000,4.7752529296875,-0.0555617282241582,0.0294382759302854,-0.1969400376826524,-0.0506954416632652,0.0362652018666267,-0.0353815406560897
1783204784341190100,4.785190185546875,-0.0749279613427817,0.036407676551491,-0.1289192253798246,-0.0482324808835983,0.0378981232643127,-0.0409516766667366
1783204784351127000,4.795126953125,-0.0449357047915458,0.0436859969913959,-0.1122358016043901,-0.0436220169067382,0.0410108268260955,-0.0399987995624542
1783204784361065200,4.805065185546875,-0.0011380641192197,0.0138137135580182,-0.1198240647763013,-0.0374218560755252,0.0313889384269714,-0.0343868695199489
1783204784371001900,4.815001953125,0.0306860840342938,-0.0365057300984859,-0.1050438442736864,-0.0375147983431816,0.0193186923861503,-0.0247145369648933
1783204784380939000,4.82493896484375,0.0372936656057834,-0.0684263243637979,-0.0344371071308851,-0.0337776392698287,0.033488743007183,-0.018818937242031
1783204784390877000,4.834876953125,0.0007893968120217,-0.1003349359303712,-0.0044429508835077,-0.0221478827297687,0.054059263318777,-0.0118201505392789
1783204784400814000,4.84481396484375,-0.0160474639594554,-0.08193433297351,-0.0276572377324104,-0.0090295979753136,0.0653200671076774,-0.0136381229385733
1783204784410751200,4.854751220703125,0.0049997079834342,-0.0183399588108062,-0.0825379979550838,0.0031857900321483,0.0587351359426975,-0.0197878945618867
1783204784420689200,4.864689208984375,0.0392225878417491,0.0319452903151512,-0.1163362226605415,0.0094946734607219,0.0508071556687355,-0.023110743612051
1783204784430626000,4.8746259765625,0.0416460155963897,0.0270227392211556,-0.0804284584552049,0.0144771812483668,0.0495091304183006,-0.0295942090451717
1783204784440563000,4.88456298828125,0.0387085008397698,0.0015511749647557,-0.0629132600307464,0.0070398594252765,0.0473095327615737,-0.0295125413686037
1783204784450500900,4.8945009765625,0.0526873418316245,-0.0300439867384731,-0.0298901113510131,0.0020480304956436,0.0405384451150894,-0.0248424224555492
1783204784460438000,4.90443798828125,0.07739771245718,-0.0562649080574512,0.0021229835033416,-0.0111441230401396,0.0453405492007732,-0.0181707702577114
1783204784470375200,4.914375244140625,0.0758722564555704,-0.0620054975360631,-0.0142518127143383,-0.020906738936901,0.0483174286782741,-0.0076771164312958
1783204784480313000,4.92431298828125,0.0607845774389803,-0.0765333507128059,-0.0991986253768205,-0.027209959924221,0.0387829504907131,-0.0051544103771448
1783204784490250000,4.93425,0.0650425271444022,-0.0670003832139074,-0.2159486895352602,-0.0242855437099933,0.0090231914073228,0.0073762955144047
1783204784500188200,4.944188232421875,0.0703168142855167,-0.0360721609868109,-0.2638011585563421,-0.013297458179295,-0.0071293818764388,0.0126102361828088
1783204784510125000,4.954125,0.0088085987471044,-0.0055731239572167,-0.1996101336747408,-0.004306093789637,-0.0013015866279602,0.0137982722371816
1783204784520062000,4.96406201171875,-0.0406949984818696,0.0260429344035685,-0.1519751067966222,0.0052818465046584,0.0093013048171997,0.0024282257072627
1783204784530000000,4.973999755859375,-0.0547206012248992,0.0675645929679274,-0.1643418364167213,0.0113149713724851,0.0039563402533531,-0.0102809108793735
1783204784539937000,4.98393701171875,-0.0484463432610034,0.0870939076937735,-0.1946194857805967,0.0193345788866281,-0.011478466913104,-0.0156231448054313
1783204784549874200,4.993874267578125,-0.0520288779228925,0.0840947258777916,-0.1894213326156139,0.0301986783742904,-0.0141986180096864,-0.0215542707592248
1783204784559812000,5.00381201171875,-0.073704995419085,0.0519388615518808,-0.1326829618275165,0.038016952574253,-0.0056966948322951,-0.026308225467801
1783204784569749000,5.0137490234375,-0.0741653064072132,0.0346583486661314,-0.0884802474856376,0.0359284989535808,-0.0072040441446006,-0.0312683656811714
1783204784579686100,5.02368603515625,-0.040337124954909,0.049411388900876,-0.0868757348984479,0.0320895537734031,-0.0152135007083415,-0.0339166112244129
1783204784589624000,5.0336240234375,-0.0044407589264214,0.0623237697049975,-0.0915881503731012,0.0275126434862613,-0.0339288637042045,-0.0322912856936454
1783204784599561200,5.043561279296875,0.0416309641577303,0.0361737216651439,-0.0428448699921369,0.0140284551307559,-0.0397508926689624,-0.0289331395179033
1783204784609498400,5.053498291015625,0.0679036156639456,-0.0243807002797722,0.0034399113208055,0.0004681712016463,-0.0410158932209014,-0.0281070284545421
1783204784619436300,5.063436279296875,0.08907719046548,-0.0746679952323436,0.0245475812792778,-0.0017416188493371,-0.0310302078723907,-0.0215972941368818
1783204784629373200,5.073373291015625,0.0847268863014876,-0.0833355780735611,0.0579991845041513,0.0106684453785419,-0.0131793040782213,-0.0183812603354454
1783204784639310000,5.08331005859375,0.0679610449396073,-0.0708921299554407,0.0817956551551818,0.0230677686631679,0.0080903796479105,-0.0172863490879535
1783204784649248000,5.093248046875,0.0308558876432478,-0.0485112251907587,0.1048924531042575,0.0224512480199337,0.0235423073172569,-0.018851488828659
1783204784659185200,5.10318505859375,0.00787964733392,-0.0318269246324896,0.1030576388925313,0.0119892992079257,0.0191734731197357,-0.0186170600354671
1783204784669122300,5.113122314453125,0.0473597170680761,-0.0281160874158143,0.0488578466713428,-0.0026551578193902,-0.0012218137271702,-0.0150785166770219
1783204784679060200,5.123060302734375,0.0767144063681364,-0.0563008561536669,-0.0062134676873683,-0.0157982874661684,-0.0184136852622032,-0.0096103446558117
1783204784688997400,5.132997314453125,0.0918010624714195,-0.060263914565742,0.0087286653786897,-0.0262485295534133,-0.0184666812419891,-0.0006677161436527
1783204784698935300,5.142935302734375,0.1129322594359517,-0.068950055976957,0.0324023864328861,-0.026282113045454,0.0124059505760669,0.0019423877820372
1783204784708872200,5.1528720703125,0.1528910525977611,-0.0945014074712991,0.017667174115777,-0.0023759836331009,0.0303516611456871,0.0159271787852048
1783204784718809000,5.16280908203125,0.1136494677945971,-0.1556416664801538,-0.0912865370780229,0.0162187591195106,0.0316031537950038,0.0224983282387256
1783204784728747000,5.1727470703125,0.0573396976821124,-0.0847330237813294,-0.0861398218393325,0.0180888306349515,0.0292973890900611,0.0218277443200349
1783204784738684200,5.18268408203125,0.0041370998047292,-0.0291216111965477,-0.100171269801259,0.0196862649172544,0.0205575283616781,0.0157963261008262
1783204784748621300,5.192621337890625,0.0135489251419901,-0.0440742656566202,-0.1205126315623521,0.0222295820713043,0.0165505371987819,0.0140647394582629
1783204784758559200,5.202559326171875,-0.0004017126686871,-0.0410851668432354,-0.1035346087545156,0.0198244526982307,0.0133102061226964,0.0157291553914546
1783204784768496400,5.212496337890625,0.0043957507409155,-0.0352815951310098,-0.0945475847005844,0.0147857526317238,-0.0024474514648318,0.0187723487615585
1783204784778433000,5.22243310546875,0.0108731300614774,4.29623588919e-05,-0.083151161417365,0.0153622683137655,-0.0135803874582052,0.0205323100090026
1783204784788371200,5.23237109375,0.0111789811402559,0.0277533915832638,-0.0471311690092086,0.0118205295875668,-0.0137971695512533,0.0255957785993814
1783204784798308000,5.24230810546875,-0.0239246270753443,0.0550322975225746,0.0156061499327421,0.0146246822550892,0.006105157546699,0.0188395865261554
1783204784808245200,5.252245361328125,-0.0743143594890832,0.0733038672722876,0.0435153165996074,0.0060937786474823,0.0149660278111696,0.0115779461339116
1783204784818183200,5.26218310546875,-0.0805973852813243,0.1005915410399437,0.0292009600430727,0.0032655289396643,0.0167762394994497,0.0052860220894217
1783204784828120300,5.272120361328125,-0.0625476415887475,0.1084191659256815,-0.0108259299188852,0.0034202579408884,0.0147855263203382,-0.002867245581001
1783204784838057200,5.28205712890625,-0.0767452398978173,0.1027175932832062,-0.0434779071986675,-0.0015788534656167,0.007409194484353,-0.0082384850829839
1783204784847995400,5.291995361328125,-0.0817345726177096,0.0940349590033292,-0.0488368038833141,-0.004865993745625,-0.0035558380186557,-0.0168868340551853
1783204784857932000,5.30193212890625,-0.0759687025673687,0.0772146109752357,-0.048952539217472,-0.0115976277738809,-0.0086733167991042,-0.0246935691684484
1783204784867870200,5.3118701171875,-0.055253539057821,0.0476984475031495,-0.0275444250077009,-0.0148229822516441,-0.006355301477015,-0.0281594060361385
1783204784877807000,5.32180712890625,-0.0182942199729383,0.0188471776805818,-0.0098673140197992,-0.0167822428047657,-0.0018358561210334,-0.030720243230462
1783204784887744300,5.331744140625,0.0186073775753378,0.0072571315214037,0.0112619832485914,-0.0190366059541702,0.0019610128365457,-0.0286267306655645
1783204784897682200,5.34168212890625,0.0609057196006178,-0.0154690795496106,0.0188239429354667,-0.0192179605364799,0.0039035121444612,-0.0259992610663175
1783204784907619300,5.351619384765625,0.0782445385448634,-0.0308243234612047,0.0262350959748029,-0.0217042863368988,0.0069259339943528,-0.0188795682042837
1783204784917556200,5.36155615234375,0.0936734322145581,-0.0421681397743523,0.0664028557121753,-0.0271035805344581,0.0117505164816975,-0.0164275951683521
1783204784927494400,5.371494384765625,0.099378658118844,-0.0443704721242189,0.0810141493886709,-0.0334696024656295,0.0132213803008198,-0.0129180811345577
1783204784937431000,5.38143115234375,0.0958250572904944,-0.0333710853345692,0.0642149902790784,-0.0428721010684967,0.0111107602715492,-0.013284608721733
1783204784947368200,5.3913681640625,0.0916989172711968,-0.0235809282042086,0.0872305396854877,-0.0487539619207382,0.0220936369150877,-0.0102672465145587
1783204784957306000,5.40130615234375,0.0749929894030094,-0.053133916555345,0.1249672728836536,-0.0632539838552475,0.0337892584502697,-0.0035469266586005
1783204784967243300,5.4112431640625,0.0521313153840601,-0.0568476763814687,0.1202326455771923,-0.080137625336647,0.0351029932498931,-0.0029953860212117
1783204784977181200,5.42118115234375,0.0608678718082606,-0.0493853776767849,0.0745750562518835,-0.0853111520409584,0.0348397828638553,0.0011241543106734
1783204784987118300,5.431118408203125,0.0588946720391511,-0.0482294856399297,0.0146276602894067,-0.0821403935551643,0.0293233133852481,0.0070222574286162
1783204784997055000,5.441054931640625,0.0679030311420559,-0.0345440746366977,-0.0083808748543262,-0.0788779556751251,0.0274988953024148,0.0079369023442268
1783204785006993200,5.4509931640625,0.046040305032581,0.0026234803713858,0.043758477705717,-0.0747031867504119,0.0443170219659805,0.0044950325973331
1783204785016930000,5.460929931640625,0.0055409752532839,0.0040253099933266,0.09231763369143,-0.0764993280172348,0.0673103183507919,-0.0006913784891366
1783204785026867200,5.4708671875,-0.0026391163319349,0.0003892915785312,0.0592640898734331,-0.0771757736802101,0.0689883753657341,-0.0044837198220193
1783204785036805000,5.48080517578125,0.0205468212053179,0.0215502991594374,0.0151888013035058,-0.0787393748760223,0.0630719736218452,-0.0046599400229752
1783204785046742300,5.4907421875,0.0089485917396843,2.23579622805e-05,-0.0275759891897439,-0.0797766745090484,0.0638325735926628,-0.0047669988125562
1783204785056679200,5.50067919921875,-0.0314022694796323,-0.0551920181289315,-0.0589256516993045,-0.0727721601724624,0.0686220377683639,-0.0082237515598535
1783204785066617300,5.510617431640625,-0.0454768259309232,-0.0612185849420726,-0.104044896364212,-0.0617762319743633,0.0800520554184913,-0.002407940570265
1783204785076554000,5.520553955078125,-0.0220189395844936,-0.0483395218856632,-0.1421808580130338,-0.0563566945493221,0.0831570327281951,0.0005055577494204
1783204785086491100,5.5304912109375,-0.0003049742959439,-0.0205400992035865,-0.2025982095748186,-0.0487815998494625,0.0704100802540779,0.0014621652662754
1783204785096429000,5.540428955078125,0.0080343995042145,-0.0017453823626041,-0.2493102763891219,-0.037783358246088,0.0594934150576591,-0.0001547513529658
1783204785106366200,5.5503662109375,-0.0075489540748298,0.0031827216893434,-0.2587351073384284,-0.0307219885289669,0.0451368428766727,-0.0031473455019295
1783204785116304100,5.56030419921875,-0.025602643290162,-0.0111696287900209,-0.288067000284791,-0.0198679156601429,0.0291924066841602,-0.0024512852542102
1783204785126241300,5.5702412109375,-0.0312822963617742,0.0043444589450955,-0.2665641935288906,-0.010434465482831,0.0213358141481876,-0.0080918604508042
1783204785136178200,5.58017822265625,-0.0360555021129548,0.0042915597140789,-0.2165694517821073,-0.0032097995281219,0.0214543789625167,-0.0094870347529649
1783204785146116400,5.590116455078125,-0.0443909303903579,0.0032474574886262,-0.1763841563880443,0.0111635457724332,0.0258014574646949,-0.0131677892059087
1783204785156053000,5.600052978515625,-0.0277511996261775,-0.0023247896857559,-0.1851128217667341,0.0244629047811031,0.0180325955152511,-0.0148084480315446
1783204785165990100,5.609990234375,-0.0274754514247179,0.0108832130640745,-0.1696551403939724,0.0387422442436218,0.0142066990956664,-0.0147674353793263
1783204785175928000,5.619927978515625,-0.022185089931637,0.0230072199694812,-0.0955903717517852,0.0421439781785011,0.0194751471281051,-0.0163023006170988
1783204785185865200,5.629865234375,-0.0314729966282844,0.0425070163398981,-0.0120744686752557,0.0380198061466217,0.0285618528723716,-0.0213210266083478
1783204785195802000,5.639802001953125,-0.0226304956115782,0.0498261071816086,0.0249175836354494,0.0325030162930488,0.0268964562565088,-0.0208915807306766
1783204785205740300,5.649740234375,0.002756312970817,0.0516620904371142,0.0342564898669719,0.0192495286464691,0.0201999377459287,-0.0220998562872409
1783204785215677200,5.65967724609375,0.0171107092767953,0.0546558654256165,0.071832479545474,0.0025906562805175,0.0156422033905982,-0.0245185382664203
1783204785225615400,5.669615478515625,0.0300032163366675,0.0358133639201521,0.1107148756474256,-0.0130362389609217,0.0243986770510673,-0.0232833642512559
1783204785235552000,5.679552001953125,0.0251548995226621,0.0147901573747396,0.1261415773600339,-0.0282746851444244,0.0278508327901363,-0.0200778264552354
1783204785245489200,5.6894892578125,0.0529812102116644,0.0014466916769742,0.0947200186580419,-0.0376002751290798,0.0204970464110374,-0.0217564180493354
1783204785255427000,5.699427001953125,0.0728103846669197,-0.036464521305263,0.0421510425090789,-0.0412292778491973,0.014703182503581,-0.0162813775241374
1783204785265364200,5.7093642578125,0.0901968421451747,-0.0523182162582874,0.0385194080084562,-0.0442727357149124,0.0228961315006017,-0.0117606613785028
1783204785275301000,5.719301025390625,0.0678755586132407,-0.0553843258306384,0.0576356118887662,-0.0434856936335563,0.039808452129364,-0.0092107709497213
1783204785285239300,5.7292392578125,0.0441933619916439,-0.046384442295134,0.0378723422765731,-0.0348746329545974,0.0493960976600647,-0.0054700947366654
1783204785295176200,5.73917626953125,0.0449640541031956,-0.0368156728304922,-0.007689385458827,-0.0291588585823774,0.0489483289420604,-0.0065945712849497
1783204785305113000,5.749113037109375,0.0492599977314472,-0.0190849319592118,-0.0322609321355819,-0.0210790950804948,0.0549193993210792,-0.0053514074534177
1783204785315051000,5.759051025390625,0.0151952310442924,-0.0097676530376076,-0.0307674787074327,-0.0200337283313274,0.0636393055319786,-0.0035852855071425
1783204785324988200,5.76898828125,-0.0073852879457175,-0.0428248501174151,-0.0768488464027643,-0.0219304300844669,0.0647067055106163,-0.0032569179311394
1783204785334926000,5.778926025390625,0.00207943662256,-0.0477592377796769,-0.1710048014372587,-0.0167057197540998,0.0467146188020706,-0.001977298874408
1783204785344863200,5.78886328125,0.011915478721261,-0.0229882230080664,-0.2226210069060325,-0.0136332307010889,0.0274320021271705,-0.0048077064566314
1783204785354800000,5.798800048828125,0.0098621994532644,-0.0060315352492034,-0.2016606364637613,-0.0126699227839708,0.0167232193052768,-0.0029932386241853
1783204785364738300,5.80873828125,0.0073716978117823,-0.0222058404587209,-0.1927010849386453,-0.0089028812944889,0.0144629944115877,-0.0008504590950906
1783204785374675200,5.81867529296875,0.0117176180616021,-0.0361697761423885,-0.1799649374842643,-0.004685977473855,0.0042595472186803,-0.0028436523862183
1783204785384612000,5.828612060546875,0.0186161454036831,-0.0225873871222138,-0.1882686554491519,0.0011527361348271,-0.0087151080369949,-0.0025086267851293
1783204785394550000,5.838550048828125,0.0331562735401093,0.0077544135190546,-0.1251478901475667,0.0070190248079597,-0.0063313473947346,-0.0034884365741163
1783204785404487200,5.848487060546875,0.0176933314703404,9.36696328222e-05,-0.0450333199471235,0.00929815787822,-0.0008785249665379,-0.0069968849420547
1783204785414425000,5.858425048828125,0.0135027479127049,-0.0232202781982719,0.0066927756369113,0.007511418312788,0.0052999481558799,-0.0028309619519859
1783204785424362200,5.8683623046875,0.0395988738082349,-0.0568118744157254,0.043551556956768,-0.000296969898045,0.0037925990764051,0.0028122763615101
1783204785434299100,5.878299072265625,0.0332530119128525,-0.0444251249209046,0.0677116002231836,-0.0161248408257961,-0.0041519678197801,0.0074354335665702
1783204785444237300,5.8882373046875,0.0438907257832586,-0.0147616619326174,0.0924614260762929,-0.0269878767430782,-0.0002272673882544,0.0089331958442926
1783204785454174200,5.89817431640625,0.0476288893982768,0.0030396599568426,0.1241150399684905,-0.0371261164546012,0.0127213187515735,0.0066863168030977
1783204785464111000,5.908111083984375,0.0357597340367734,0.0206711782373487,0.116624391952157,-0.0453544855117797,0.0222839321941137,0.0053739110007882
1783204785474049000,5.918049072265625,0.0442032988637685,0.0310313903406262,0.0554442393243312,-0.0476286374032497,0.0174586325883865,0.0060698809102177
1783204785483986200,5.927986083984375,0.0396459278203547,0.0245372060157358,0.0069920508444309,-0.04961509257555,0.0142796179279685,0.0023132255300879
1783204785493923000,5.937923095703125,0.0292649651899933,0.0041430911540985,-0.0105254856675863,-0.0522277168929576,0.0189127344638109,0.0010788599029183
1783204785503861200,5.947861328125,0.0103795013256371,-0.0087165365494787,-0.0354009837269783,-0.051088411360979,0.0255109835416078,0.0001105347182601
1783204785513798100,5.957798095703125,0.0149327807158231,-0.0160898417964577,-0.0731307026624679,-0.0470499470829963,0.0235328450798988,0.0044384952634572
1783204785523736300,5.967736328125,0.0130168640919029,-0.0123676064029335,-0.1355249072551727,-0.0413015149533748,0.0181596502661705,0.0043799057602882
1783204785533673200,5.977673095703125,0.0085920333869755,-0.0102120358042418,-0.1776665974140167,-0.0323511883616447,0.0199720710515975,0.0032649838831275
1783204785543610000,5.987610107421875,0.0001198269873857,-0.0003032207302749,-0.1979103440195322,-0.0169746298342943,0.0231641363352537,0.0015435165259987
1783204785553548000,5.997548095703125,-0.0058805824711918,0.0051955228164792,-0.2188134313166141,-0.0029918747022747,0.0137300631031394,0.0031067016534507
1783204785563485200,6.007485107421875,-0.0004237783700227,0.0146995564818382,-0.2253384491711854,0.0062929699197411,0.004524580668658,-0.0018795348005369
1783204785573422000,6.017422119140625,-0.0103901688501238,0.0260879425890743,-0.1818260551810264,0.0071643372066318,-0.0005614529363811,-0.0046393028460443
1783204785583360300,6.0273603515625,-0.0114409930773079,0.0198933257326483,-0.1392494807362556,0.0112179350107908,-0.0072827390395104,-0.004763938486576
1783204785593297200,6.037297119140625,-0.0051364861056208,-0.00408887674883,-0.1312275023221969,0.0166262350976467,-0.0125380735844373,-0.0027656219899654
1783204785603235300,6.0472353515625,-0.0068516194604337,0.0025416473068296,-0.0960410381287336,0.018154889345169,-0.0034463093616068,-0.0044436799362301
1783204785613172000,6.057171875,0.0036319267615675,0.0170639475256204,-0.0495744705080986,0.0222073160111904,0.0067434348165988,-0.0047414577566087
1783204785623109000,6.067109130859375,0.0142661335006356,0.0089811788350343,-0.0153676650017499,0.021139919757843,0.0118644274771213,-0.0033899035770446
1783204785633047000,6.077047119140625,0.0345168943688273,0.020351737024635,-0.0149731127262115,0.0158895291388034,0.0095226354897022,-0.0039383289404213
1783204785642984200,6.086984130859375,0.0338812268137931,0.0436262296281754,-0.0195803142607212,0.0135086635127663,0.010474182665348,-0.0061093373224139
1783204785652921000,6.096921142578125,0.0123049164302647,0.0439921403311193,-0.0326116452693939,0.0125601440668106,0.0023173638619482,-0.0095017617568373
1783204785662859300,6.106859375,0.0007940729871392,0.0483667021535337,-0.0409551107227802,0.0146997272968292,0.0078804409131407,-0.0095883151516318
1783204785672796200,6.116796142578125,-0.0084391809128224,0.0240329097554087,-0.0316881006836891,0.0197251625359058,0.0086616016924381,-0.0129459705203771
1783204785682734300,6.126734375,-0.0111621761359274,0.0047162148669362,-0.0669213266283273,0.0262025017291307,0.0058615542948246,-0.0136210825294256
1783204785692671000,6.1366708984375,-0.0049016544364392,-0.0126493459537625,-0.0452706358343362,0.0279844477772712,0.0090243844315409,-0.0134007791057229
1783204785702608100,6.146608154296875,-0.0046694531157612,-0.0085009941026568,-0.0419411991506814,0.0314204581081867,0.007228881586343,-0.0161675363779068
1783204785712546000,6.156546142578125,0.0043324762463569,-0.0185270058155059,-0.0284445887178182,0.0319969840347766,0.0136390542611479,-0.013012015260756
1783204785722483200,6.166483154296875,0.0490222434528172,0.0083778061144053,0.0002618658065795,0.0266754552721977,0.0170790590345859,-0.0123962918296456
1783204785732420000,6.176420166015625,0.0641508390016853,0.0156673786006867,0.0076975687652826,0.0164599735289812,0.0111592840403318,-0.0086293462663888
1783204785742358300,6.186358154296875,0.0561006574064493,-0.0073427639782428,0.0012613982379436,0.0057945465669035,0.0039346599951386,-0.008046381175518
1783204785752295200,6.196295166015625,0.049833852096647,-0.021828823839873,0.0129559276849031,-0.0065057910978794,0.0007493840530514,-0.0069652777165174
1783204785762233300,6.2062333984375,0.0283148248583078,-0.0087939856998622,0.0224520703047513,-0.0109242405742406,0.0020021349191665,-0.0055977441370487
1783204785772170000,6.216169921875,0.0258536954417824,-0.0022973171569406,-0.0063911623418331,-0.0092640146613121,0.0025671126786619,-0.0048301015049219
1783204785782107100,6.226107177734375,0.0333541341997683,-0.0002113046631217,-0.0398135394722223,0.0004101833328604,-0.0003586360253393,-0.003272684989497
1783204785792045000,6.236045166015625,0.027050942402333,-0.0116034901626408,-0.0438391417264938,0.0013744812458753,0.0095054674893617,-0.0072969631291925
1783204785801982200,6.245982177734375,0.0018979425758123,-0.0291349090695381,-0.0139566291600465,0.0028496058657765,0.0139643978327512,-0.0073768580332398
1783204785811919000,6.255919189453125,0.0086235975690186,-0.0018868366599082,-0.0015115736067295,0.0014155628159642,0.0170876011252403,-0.0065261274576187
1783204785821857300,6.265857177734375,0.0283323605149984,0.0055282619021832,-0.0099725279599428,-0.004401046782732,0.0134662352502346,-0.0064140083268284
1783204785831794200,6.275794189453125,0.0303410699889063,-0.003618921149522,0.0017459668844938,-0.0142084397375583,0.0061458684504032,-0.0061283926479518
1783204785841732400,6.285732421875,0.0389024159766733,0.000879267052561,0.0218885912030935,-0.0252531021833419,0.0026035979390144,-0.0025839915033429
1783204785851669000,6.2956689453125,0.0379980144828557,0.015079349579662,0.0619616583943367,-0.0333994552493095,0.0100719816982746,-0.0027042822912335
1783204785861606100,6.305606201171875,0.0280590965315699,0.0118491354867815,0.0592740267455577,-0.03639817237854,0.0207392740994691,-0.0036060286220163
1783204785871544000,6.3155439453125,0.0351990314140915,-0.0059244216129183,-0.0137958856403827,-0.0290502682328224,0.014449093490839,-0.0043935850262641
1783204785881481200,6.325481201171875,0.0385294910110533,-0.026300270165503,-0.0781242731660604,-0.0221082083880901,0.0156392604112625,-0.0024894247762858
1783204785891418000,6.335418212890625,0.0184781982377171,-0.0238936474151909,-0.0710252548158168,-0.0191112086176872,0.0254488419741392,-0.0032768296077847
1783204785901356300,6.345356201171875,-0.0034776129826903,-0.0328219270192086,-0.054987727728486,-0.0128884660080075,0.0397859700024127,-0.0043412949889898
1783204785911293200,6.355293212890625,-0.0013457155205309,-0.0064265259161591,-0.0926081410706043,-0.0063369004055857,0.0366316065192222,-0.0020409738644957
1783204785921231400,6.3652314453125,0.0015470833115279,0.0010763970598578,-0.1521948870271444,0.000255755148828,0.0211455896496772,-0.0035073102917522
1783204785931168000,6.37516796875,-0.0052872927531599,-0.0026804712556302,-0.1948731682807207,0.0025182096287608,0.001147024333477,-0.003285824554041
1783204785941105200,6.385105224609375,-0.0069068567790091,0.0011634908214211,-0.1602379082292318,0.0048737758770585,-0.0025995108298957,-0.0055114282295107
1783204785951043000,6.39504296875,-0.0083520871512591,0.000716039314866,-0.1093009171962738,-0.00101597327739,0.0019847648218274,-0.0073384465649724
1783204785960980200,6.404980224609375,0.0093488431036472,-0.0036089842773973,-0.0958960767000913,0.0020032525062561,-0.0011553685180842,-0.007174661848694
1783204785970917000,6.414917236328125,0.0279664498120546,0.0037175592184066,-0.1054448262900114,0.0077407918870449,-0.009465767070651,-0.0022142608650028
1783204785980855300,6.424855224609375,0.0274076468855142,0.0026160277172923,-0.0785802002400159,0.0095650572329759,-0.0126048345118761,-0.0034118841867893
1783204785990792200,6.434792236328125,-0.001708265222609,0.010566986721754,-0.0193278008043766,0.0077458498999476,-0.0003326581791043,-0.0054648527875542
1783204786000730400,6.44473046875,-0.0183402510717511,0.0154689334191381,0.0445037431150674,-0.0009762691333889,0.0037752676289528,-0.0031889153178781
1783204786010667000,6.4546669921875,0.0042224400006234,0.0099807112663984,0.0473790062904357,-0.009262153878808,0.0055781984701752,-0.0088798524811863
1783204786020604200,6.464604248046875,0.0230929985567927,0.0156783383861184,0.0573947888702154,-0.0119207873940467,0.0076472084037959,-0.0095448438078165
1783204786030542000,6.4745419921875,0.0123243517830967,0.0059685530155897,0.0304027370482683,-0.0172845460474491,0.0133458403870463,-0.0096321972087025
1783204786040479200,6.484479248046875,0.0237682674698531,-0.0103521749272942,-0.0162754274964332,-0.0123292030766606,0.0122371669858694,-0.0066742240451276
1783204786050416000,6.494416015625,0.0401703900858759,-0.022815496789664,-0.0684673870265483,-0.0109398560598492,0.0030220362823456,-0.0061757401563227
1783204786060354300,6.504354248046875,0.0531184267252683,-0.0237877028226852,-0.0863940888613462,-0.009609873406589,-0.0020717922598123,-0.0097065586596727
1783204786070291200,6.514291259765625,0.0386539941735565,-0.0106958737984299,-0.0731143360495567,-0.0042869634926319,0.0046657952480018,-0.0064718257635831
1783204786080229400,6.5242294921875,0.018607085314393,-0.0401784272618591,-0.0771615656137466,-0.0002338988706469,-0.0005934154614806,-0.0081019466742873
1783204786090166000,6.534166015625,0.0218291161008179,-0.0374703373469412,-0.0747206022024154,-0.0005082618445158,-0.0026040957309305,-0.0038826970849186
1783204786100103200,6.544103271484375,0.0330159882865846,-0.0284454655006527,-0.0395125106990337,-0.0042950110509991,0.0005786479450762,-0.0037221084348857
1783204786110041000,6.554041015625,0.0341626741036772,-0.0282134103104472,0.0099228435993194,-0.0105445450171828,0.0064149955287575,-0.0002921936102211
1783204786119978200,6.563978271484375,0.0450195836827158,-0.0421931280851364,0.0337877033114433,-0.0190666615962982,0.0070656053721904,0.0038900347426533
1783204786129915100,6.5739150390625,0.0559609566748142,-0.0404848628625273,0.019528291812539,-0.0220114439725875,0.0038617334794253,0.0103310663253068
1783204786139853300,6.583853271484375,0.0615953092999756,-0.0129261170685291,0.0076040452629327,-0.0213935896754264,0.0021431955974549,0.0074788210913538
1783204786149790200,6.593790283203125,0.039021512311697,0.0061430327996611,-0.0025151976913213,-0.0212150756269693,0.0036453059874475,0.005767029710114
1783204786159728400,6.603728271484375,0.0219319919534027,0.0140345167018473,-0.0138794722706079,-0.0191519241780042,0.0024679226335138,0.0007139479275792
1783204786169665000,6.6136650390625,0.0102829090833663,0.0084618311360478,0.0073445175439119,-0.0217021685093641,0.0097034648060798,0.0052844649180769
1783204786179602200,6.623602294921875,0.0253939689755439,-0.0017621873669326,0.0074216744333505,-0.0286772530525922,0.0094597861170768,0.0045022945851087
1783204786189540000,6.6335400390625,0.0353162280529737,-0.0054018590435385,0.0024789573341608,-0.0338841006159782,0.0108356308192014,0.0044352398253977
1783204786199477200,6.643477294921875,0.0385164853990077,0.0065698799096047,-0.0050695583492517,-0.036875631660223,0.005029406864196,0.0030589178204536
1783204786209415200,6.653415283203125,0.037033261103928,-0.0023842647880315,-0.015975567767024,-0.0344867035746574,0.0033533936366438,0.0062061548233032
1783204786219352300,6.663352294921875,0.0183563254237175,-0.0090387542411684,-0.0163052381128072,-0.0354489013552665,0.0111181065440177,0.0065867202356457
1783204786229289000,6.6732890625,0.000484860907495,-0.0227237268529832,-0.0369604881286621,-0.0307993814349174,0.0135599020868539,0.0091411666944623
1783204786239227100,6.68322705078125,-0.0032483342714607,-0.0214230195179581,-0.0539542930275201,-0.0260965041816234,0.0143420714884996,0.0053166011348366
1783204786249164000,6.6931640625,-0.0022932255037128,-0.0045177696853876,-0.0677846654593944,-0.0227075517177581,0.0177718084305524,0.0032698139548301
1783204786259101200,6.70310107421875,-0.0029104806192219,0.0081944123715162,-0.0939092867970466,-0.0158475153148174,0.0176556948572397,0.0032232087105512
1783204786269039000,6.7130390625,0.0037334874399006,0.0212713360875844,-0.1245738896518945,-0.0078864265233278,0.0124075803905725,0.0036822482943534
1783204786278976300,6.722976318359375,-0.0011819032609462,0.0291366626352071,-0.117612818467617,-0.0083290450274944,0.0034681479446589,0.0020446707494556
1783204786288914200,6.7329140625,-0.0032318215280771,0.0260147312223911,-0.1037239938467741,-0.0057955253869295,-0.0049564382061362,-0.0039894613437354
1783204786298851300,6.742851318359375,-0.002473842767626,0.0171270758897066,-0.0925245544403791,-0.0085716042667627,-0.012373873963952,-0.0023846407420933
1783204786308788000,6.7527880859375,-0.0049232817463576,0.0091832772783935,-0.0589174683928489,-0.007901132106781,-0.0070471358485519,-0.0013916648458689
1783204786318726100,6.76272607421875,-0.0082826751768589,-0.0059904725864529,-0.0306423910230398,-0.0061626210808753,-0.0043285810388624,-0.0034729251638054
1783204786328663000,6.7726630859375,0.0046012101851403,0.0081898823268711,-0.0184153621345758,0.0008441554382443,0.0007149134762585,-0.0022654477506875
1783204786338600200,6.78260009765625,0.0169261464901268,0.0034013328760862,-0.0181195940583944,0.0091928988695144,0.0094338366761803,-0.0015658354386687
1783204786348538000,6.7925380859375,0.0058421501569449,0.0068573185488581,-0.0066407531887292,0.0068460800684988,0.0122646577656269,-0.0049513643607497
1783204786358475300,6.802475341796875,0.0037330490484833,0.0129173492401838,-0.0114554599940776,0.0062974686734378,0.0107125677168369,-0.0048853177577257
1783204786368413200,6.8124130859375,0.0068713470742106,0.0101087215602397,-0.0270826527148485,0.0031734704971313,0.0073563568294048,-0.0048201638273894
1783204786378350300,6.822350341796875,0.0115112818345427,0.0171890352100133,-0.0454834018021821,0.0058696549385786,0.0026329741813242,-0.0051163071766495
1783204786388287000,6.832286865234375,0.0187491241335868,0.0208683082446455,-0.0542278492718934,0.004968705587089,-0.003677056171,-0.0081192255020141
1783204786398225200,6.84222509765625,0.0113017307370901,0.0149704823777079,-0.0393172803878784,-0.0017741518095135,-0.0074150692671537,-0.0033484385348856
1783204786408162000,6.852162109375,0.0168178638100624,0.0025916239283978,-0.0296416895478963,-0.0033434545621275,-0.009438095614314,-0.0045267110690474
1783204786418099200,6.86209912109375,0.0428358099028468,-0.0246608323954045,-0.0222580090373754,-5.47179952263e-05,-0.0086322231218218,-0.0056074215099215
1783204786428037000,6.872037109375,0.0369562503449618,-0.0244274620309472,-0.0134954413890838,0.0073299361392855,-0.0051534613594412,-0.0004964049439877
1783204786437974300,6.881974365234375,0.0293954597018659,-0.0140343705713748,0.0072515785634517,0.0068167448043823,0.0006722034886479,-0.000512383878231
1783204786447912200,6.891912109375,0.0310460033878684,-0.0313888254761695,0.0284586172431707,0.0062501872889697,0.0058677871711552,0.000753975007683
1783204786457849300,6.901849365234375,0.0270035961292684,-0.0427829106718301,0.0608469751507043,0.0040277792140841,0.00900206156075,0.0025777076371014
1783204786467786000,6.911785888671875,0.0279525674171745,-0.0195488962091505,0.0583107346713542,-0.0027748234570026,0.0083908224478363,0.0002457932569086
1783204786477724200,6.92172412109375,0.0401017087638378,0.0089086981207132,0.0379109207212924,-0.0061850007623434,0.0045398916117846,0.0027355824131518
1783204786487661000,6.9316611328125,0.0396865520916879,0.0041911680795252,0.0076572367548942,-0.0034236870706081,0.0087471194565296,0.0007949052378535
1783204786497598200,6.94159814453125,0.0286456642478704,-0.0122672147683799,0.0011684592574834,0.0011636074632406,0.0079250019043684,0.0017565726302564
1783204786507536100,6.9515361328125,0.018800123668462,-0.0154670337229967,-0.0131868138313293,0.0006118714809417,0.0127100832760334,0.001714939950034
1783204786517473300,6.961473388671875,0.0115666652835905,-0.0067928750105202,-0.0126373632550239,0.0027466611936688,0.0132517702877521,0.0047197844833135
1783204786527411200,6.9714111328125,0.0025108137771487,-0.0111649526149034,-0.0183200850665569,0.0067457207478582,0.0117337480187416,0.0064588179811835
1783204786537348400,6.981348388671875,0.0056724926784634,-0.017671704160422,-0.0344774391412735,0.001621532253921,0.0134208612143993,0.0077110361307859
1783204786547285000,6.991284912109375,0.0041040743179619,-0.0146124627202749,-0.0148246441662311,0.0038404911756515,0.0121862897649407,0.0048388820141553
1783204786557223200,7.00122314453125,0.0087919398732483,0.0208659701570868,-0.031764673051238,0.0044365068897604,0.008335624821484,0.0061891041696071
1783204786567160000,7.01116015625,0.0096098321273922,0.0457202792979776,-0.0707341629147529,0.0075397831387817,-0.0027364450506865,0.0023445910774171
1783204786577098500,7.021098388671875,0.0032518414027988,0.0584875525429844,-0.0923977131903171,0.0082095675170421,-0.0135440845042467,-0.0021417702082544
1783204786587036400,7.031036376953125,-0.0224552851751446,0.0608800006374716,-0.0419552276760339,0.0021296367049217,-0.0100333923473954,-0.0081747798249125
1783204786596973300,7.040973388671875,-0.0250153449214994,0.0488762591108679,0.0026321020692586,0.0007208241149783,-0.0062543675303459,-0.0089399060234427
1783204786606910500,7.050910400390625,-0.0200337571166455,0.0273420343033969,0.0096188922166824,-0.0001803087070584,-0.0039667952805757,-0.0132295452058315
1783204786616848400,7.060848388671875,0.0136648066066205,0.0071402271434664,-0.0030710780084133,0.0006460705772042,-0.0131325963884592,-0.0098603796213865
1783204786626785500,7.07078564453125,0.0217578044302761,0.011237579459697,-0.013157587736845,0.0036754580214619,-0.015978941693902,-0.0077620260417461
1783204786636722400,7.080722412109375,0.0156252930246293,-0.018492372893542,0.0251630828291177,0.0012314757332205,-0.0021736472845077,-0.0059428205713629
1783204786646660400,7.090660400390625,0.0231815536230802,-0.0149893332086503,0.0423661465644836,0.0007347920909523,0.002744955709204,-0.0067031471990048
1783204786656597200,7.10059716796875,0.0418891767024993,-0.0023677520446479,0.0251022925525903,0.0043548271059989,0.0026605334132909,-0.0041204136796295
1783204786666535400,7.110535400390625,0.0538898494891822,0.0143695938751101,0.0223795895904302,0.0036962609738111,0.0032563202548772,-0.0047307624481618
1783204786676472300,7.120472412109375,0.0492301871150732,0.0133224229097366,0.0142184949666261,0.0029124924913048,0.0063434564508497,-0.007164891809225
1783204786686409500,7.130409423828125,0.0389266736350953,-0.0091647187083959,-0.0098515319287776,0.0023422511294484,0.0045646205544471,-0.0046411287039518
1783204786696347400,7.140347412109375,0.0377282576307654,-0.0281667946897447,-0.0310164850324392,0.0058091543614864,-0.0038845245726406,-0.0039329938590526
1783204786706284500,7.150284423828125,0.0266968682676553,-0.0455935841783881,-0.0280202258259057,0.005866331513971,-0.0053815795108675,-0.0055054286494851
1783204786716221400,7.160221435546875,0.0144486504606902,-0.0439028546124696,0.0133101479500532,0.0092096645385026,-0.0012377011589705,-0.0019445158541202
1783204786726159400,7.170159423828125,0.0149397949784994,-0.0467810403972864,0.0363777198046445,0.0049816202372312,0.0073802070692181,0.0024661407805979
1783204786736096300,7.18009619140625,0.0165875621855258,-0.0310439575612544,0.0389075305432081,0.0005804803222417,0.0104191396385431,0.004015568178147
1783204786746033400,7.190033447265625,0.0338389951072633,0.0018453356057405,0.0279074131011962,0.0008032992482185,0.0064830686897039,0.0041464129462838
1783204786755971300,7.199971435546875,0.0398259605623781,0.0172663382299244,0.0431067357987165,-0.0011844849213957,0.0073038549162447,0.0064367316663265
1783204786765908500,7.209908447265625,0.0127867085978388,0.0350765740782022,0.0554553452402353,-0.0061460211873054,0.0025427821092307,0.0038631898351013
1783204786775845600,7.219845703125,-0.0020488953538239,0.0307920286267995,0.0472241079896688,-0.0100712534040212,0.0054395021870732,-0.0018130716634914
1783204786785783600,7.229783447265625,0.0027379005312919,0.0241881003171205,0.0305687412649393,-0.0190983582288026,0.0057267476804554,-0.0041804695501923
1783204786795720400,7.239720458984375,0.002167114906013,0.0163359255120158,-0.003601239362359,-0.0203359294682741,-0.001004924532026,-0.0007545792032033
1783204786805657300,7.2496572265625,0.0126570908688008,-0.0047213294334709,-0.0470230324596166,-0.0106082623824477,-0.0032833842560648,0.0005419922526925
1783204786815595300,7.25959521484375,0.002242664360255,-0.0129733172111213,-0.0422749611496925,-0.0067570665851235,0.0006871228106319,-0.0030032079666852
1783204786825532400,7.269532470703125,-0.0003600654840469,-0.0139196581505239,-0.0217944831788539,-0.0027737990021705,0.0046999403275549,-0.0055907815694808
1783204786835469600,7.279469482421875,0.0075797876045107,-0.0189105983056128,-0.0322889891862869,0.00150803104043,0.0070800073444843,-0.0007920314092189
1783204786845407500,7.289407470703125,0.0222993639610707,-0.0184169695697724,-0.0387953023403883,0.0016031805425882,0.0023168458137661,0.0018758582882583
1783204786855344600,7.2993447265625,0.0169311149261891,-0.0011702128231525,-0.0328489611566066,0.0018702959641814,0.000973014626652,-0.0019843936897814
1783204786865281300,7.30928125,0.0117142570607364,0.0051141281433403,-0.0144032038837671,0.0016849730163812,-0.0064153564162552,0.0014732079580426
1783204786875219500,7.319219482421875,0.0178948453918099,0.0096431498751044,-0.0106722006618976,-0.0012080185115337,-0.0075717004947364,0.0004156664945185
1783204786885156400,7.32915625,0.0143877140536904,0.0193352534584701,-0.006133972710371,-0.0010116966441273,-0.0088600041344761,-0.0031264496501535
1783204786895094300,7.33909423828125,0.0041806466855108,0.0151699504725635,0.0313993468701839,-0.0006015701219439,0.0009857020340859,-0.0046697515062987
1783204786905031400,7.349031494140625,-0.0041349078476428,0.0052038522534072,0.0428542223423719,0.0030996305868029,0.0031030306126922,-0.0022120838984847
1783204786914968600,7.358968505859375,0.0088886782459914,0.00772577194646,0.0227121825456619,0.0024029472842812,0.0003687632270157,-0.0005081933923065
1783204786924905500,7.368905517578125,0.0228854932859539,0.016078151358664,0.0158364515572786,0.0011861640959978,0.0063254991546273,-0.0028432013932615
1783204786934843600,7.37884375,0.0268994051024317,0.0147704297609627,0.0269517198115587,0.0035875365138053,0.0085825286805629,-0.0018716802587732
1783204786944780300,7.3887802734375,0.0238189747437834,0.0111509240895509,0.0150754040569066,0.0052551897242665,0.0127442702651023,-0.0030082785524427
1783204786954717400,7.398717529296875,0.0209406428284943,0.0090602354206144,0.0129670336008071,0.0060085980221629,0.0058538732118904,-0.0036554266698658
1783204786964655400,7.4086552734375,0.0185112237244844,0.0012725041538476,0.0069569795310497,0.0011566840112209,0.0038185701705515,6.11497089266e-05
1783204786974592500,7.418592529296875,0.0152897774599492,-0.0030104338623583,0.0261357272535562,-0.0048157200217247,0.0009671235457062,-0.0042614270932972
1783204786984529400,7.428529296875,0.0170095869898796,-0.0153124276831746,0.0415028077334165,-0.011596767231822,0.0026852032169699,-0.0025614500045776
1783204786994467600,7.438467529296875,0.0187444479584693,-0.0234755681335926,0.0288899943977594,-0.0105773098766803,0.0103617645800113,-0.0027737040072679
1783204787004404200,7.448404296875,0.0294295081019401,-0.022719489069283,0.0199766201019287,-0.0020303511992096,0.011578400619328,0.0006855581887066
1783204787014341400,7.45834130859375,0.030944004318118,-0.0230883223816752,-0.0247919114291667,0.0074481056071817,0.0126455295830965,0.0006259032525122
1783204787024279300,7.468279296875,0.0175802264846861,-0.0082496496900916,-0.0516045150309801,0.0148868551477789,0.0091973757371306,0.0023717465810477
1783204787034216400,7.478216552734375,0.029729952353239,-0.0001442307762801,-0.0440682743072509,0.0191801376640796,0.005545116495341,-0.0017044877167791
1783204787044153300,7.4881533203125,0.0182506730921566,0.0167386610940098,-0.0187117147326469,0.0158280916512012,0.0098678218200802,-0.0043603344820439
1783204787054091500,7.498091552734375,0.0146658003427088,0.0154211487546563,0.0022258593559265,0.0113561106845736,0.0054943785071372,-0.0052101491019129
1783204787064028400,7.5080283203125,0.0259014801062643,-0.017672727073729,-0.0030354221731424,0.006191708613187,-0.0077969254925847,-0.0075017996132373
1783204787073965300,7.51796533203125,0.0379202730715274,-0.0396104181155562,-0.0042243396967649,0.0020899083465337,-0.0168671198189258,-0.0014002311509102
1783204787083903200,7.5279033203125,0.0393362773492932,-0.0436959338635206,0.0497580103814601,0.0028010103851556,-0.0056933788582682,0.0058970395475625
1783204787093840400,7.53784033203125,0.0324069164775311,-0.0508538427941501,0.0693500150799751,-0.0007769465446472,0.0009746439754962,0.0072371419519186
1783204787103777500,7.547777587890625,0.0352126215480268,-0.034763562606275,0.0748971278131008,1.76299363374e-05,0.0030287348199635,0.0083236936479806
1783204787113715500,7.557715576171875,0.0415692970983684,-0.0057603170923888,0.0727180302083492,-0.0053920485079288,0.0077254856005311,0.0101322457194328
1783204787123652400,7.56765234375,0.0325971783526241,0.0110083007484674,0.0767903942137956,-0.0051648495718836,0.0094665344804525,0.0109550561755895
1783204787133589500,7.577589599609375,0.016650690549612,0.0153792093090713,0.0441992072105407,-0.0108075561001896,0.0125917540863156,0.007361919619143
1783204787143527400,7.58752734375,0.0140324708752334,0.020838643758744,0.0245627788484096,-0.0142248449847102,0.0094898352399468,0.0066395280882716
1783204787153464300,7.59746435546875,0.0198857269480824,0.0358731312833726,0.0098860187202692,-0.0120730092748999,0.006029057316482,0.005972939543426
1783204787163401500,7.6074013671875,0.016352292124927,0.0270846985414624,-0.010156652355194,-0.014730273745954,0.0076536508277058,0.000907669076696
1783204787173339400,7.61733935546875,0.0128602122254669,0.018208879777044,-0.0261567700415849,-0.0058473004028201,0.0010570008307695,0.0069876657798886
1783204787183276300,7.6272763671875,0.0001904080055654,0.0151475925102829,-0.0501017092525959,-0.0023538917303085,0.0080042295157909,0.0062476992607116
1783204787193213400,7.63721337890625,0.0051087213158607,0.0140849317148327,-0.0611164397418498,0.0045231888070702,0.008456434123218,0.0055006826296448
1783204787203150600,7.647150634765625,-0.0041596038974821,0.012293956644833,-0.0563625232130289,0.007097793277353,0.0080006020143628,0.0036142242606729
1783204787213088500,7.657088623046875,-0.0158335289478302,0.012058978845179,-0.0600765753000974,0.0075238989666104,0.0013810489326715,-0.0002079445403069
1783204787223025400,7.667025390625,-0.0251296189509332,0.0087394790336489,-0.046986792102456,0.0082770679146051,-0.0031708939932286,0.0011483104899525
1783204787232962300,7.67696240234375,-0.0301036079712212,0.0236130769081413,-0.003698269996047,0.0081018321216106,-0.0028814091347157,-0.0003145639784634
1783204787242900500,7.686900390625,-0.0235487795002758,0.029860592995584,0.0279705414652824,0.005839629098773,-0.0009039789438247,-0.0034583944361656
1783204787252837400,7.69683740234375,-0.0041704175524413,0.0407255397506058,0.0623924510270357,0.0049373498186469,-0.0017774957232177,-0.0032149814069271
1783204787262774500,7.7067744140625,-0.0047562546163797,0.0481941220656037,0.0892664294272661,0.0031883809715509,0.0062176785431802,-0.00309344753623
1783204787272712400,7.71671240234375,-0.0066826926343142,0.0502073615841567,0.1122667812645435,-0.0006271302700042,0.0110103031620383,-0.0041485917754471
1783204787282649600,7.726649658203125,-0.0174298582285642,0.0370468512378633,0.0842138222128152,-0.001012303866446,0.0130634689703583,-0.0037676186766475
1783204787292586200,7.736586181640625,-0.0031203239776194,0.0273947874039411,0.032771804267168,-0.0021513383835554,0.0052699944935739,-0.0043846732005476
1783204787302523400,7.7465234375,-0.0034603695869445,0.0348509486287832,0.0342471375167369,-0.0058802794665098,0.0056070196442306,-0.0103446720167994
1783204787312461300,7.75646142578125,-0.0312277896955609,0.024838088658452,0.0588636923789978,-0.0131424535065889,0.0076339514926075,-0.0112666580826044
1783204787322398500,7.7663984375,-0.0163432320356369,0.0211485864907503,0.0575286443829536,-0.0189081132411956,0.0165162589401006,-0.0108441552147269
1783204787332335400,7.77633544921875,0.0179071203514933,0.0109545247346162,0.0214946234494447,-0.0190985277295112,0.012020843103528,-0.0108566712588071
1783204787342273500,7.7862734375,0.0421586412936449,-0.0046945875570178,-0.0348351665377616,-0.0167479962110519,0.0009243497624993,-0.0089350920170545
1783204787352210400,7.79621044921875,0.0360628086365759,0.0001851473085582,-0.0369844535261392,-0.0148483626544475,0.0034538202453404,-0.0111883925274014
1783204787362147300,7.806147216796875,0.0328266031943261,0.015837620601058,-0.020975568011403,-0.0125511847436428,0.0077233654446899,-0.0126616703346371
1783204787372085200,7.816085205078125,0.0196636086300015,-0.0223046246580779,-0.0266799171328544,-0.0069580134004354,0.0120736397802829,-0.0121154561638832
1783204787382022400,7.8260224609375,0.0286595466427505,-0.0481385924860835,-0.0579471620559692,-0.0001972075551748,0.0055370116606354,-0.010379527695477
1783204787391959600,7.83595947265625,0.0544239563658833,-0.0616717355370521,-0.1202373217523097,0.012315122410655,-0.0068421601317822,-0.0109758097678422
1783204787401896400,7.845896484375,0.0771497290454804,-0.0638688071899116,-0.0932581294119358,0.0187445990741252,-0.0094797238707542,-0.0049407607875764
1783204787411834400,7.85583447265625,0.0677960636362433,-0.0741501088380813,-0.0207552032589912,0.0168361775577068,-0.0016971682198345,-0.0022480385378003
1783204787421771500,7.865771484375,0.0691239512391388,-0.0863867823377251,0.0172509945303201,0.0201392509043216,0.0060962392017245,0.004210595972836
1783204787431708400,7.87570849609375,0.0888248231396079,-0.0768785108886659,0.0332125337719917,0.0173932649195194,0.0048658587038517,0.010082334280014
