time,seconds_elapsed,ax,ay,az,gx,gy,gz
1783204830748576300,0.095576171875,0.1015945806026458,-0.204495129237324,0.357639133682847,-0.5221383571624756,-0.0634543448686599,-0.02560880407691
1783204830758513200,0.10551318359375,-0.0177893391907215,-0.136281570841372,0.2877268085449934,-0.4900565445423126,-0.0134985046461224,-0.022010076791048
1783204830768450300,0.1154501953125,-0.1279483345210552,-0.0611372633341699,0.2115361337900161,-0.4377894103527069,0.0572110414505004,-0.0288078151643276
1783204830778388200,0.12538818359375,-0.1509837576717138,0.0102787443649023,0.1078323059484362,-0.3738703727722168,0.1075514480471611,-0.0443020835518837
1783204830788325000,0.1353251953125,-0.147840783470869,0.0176761611398309,0.0307876447126269,-0.3261519968509674,0.1398421227931976,-0.0549642369151115
1783204830798262000,0.145261962890625,-0.1452285551458597,-0.0195772455208003,-0.0172170922607183,-0.2804960906505584,0.1603290140628814,-0.0616695433855056
1783204830808200200,0.1552001953125,-0.1212836159348487,-0.0407414679720997,-0.0512350971966981,-0.2330909520387649,0.1808174550533294,-0.0697631537914276
1783204830818137000,0.16513720703125,-0.0924666867733001,-0.0275015357140451,-0.0662213616654276,-0.1809739619493484,0.2157789021730423,-0.0703692883253097
1783204830828074200,0.17507421875,-0.0685527272224426,-0.0156524732924997,-0.0357452671200037,-0.1172228083014488,0.2598607540130615,-0.066346488893032
1783204830838011400,0.185011474609375,-0.0226332720905542,0.012634952102229,-0.0178065825864672,-0.0477694272994995,0.3166358768939972,-0.0607471950352191
1783204830847949300,0.19494921875,0.0065115738511085,-0.0490969891894608,0.0114352939888834,0.0181996263563632,0.3854721188545227,-0.0460450686514377
1783204830857886000,0.204885986328125,0.0300064312070608,-0.0646745706148445,0.0262473709344863,0.0692558884620666,0.4342308640480041,-0.0222720932215452
1783204830867823000,0.214822998046875,0.1252583647847175,-0.0999706326626241,-0.0012222352713346,0.0933296158909797,0.4124383330345154,0.0166637524962425
1783204830877761000,0.224760986328125,0.2297083348184823,-0.1991788295853883,-0.1337137661799788,0.0721276551485061,0.3111974596977234,0.0647769495844841
1783204830887698200,0.2346982421875,0.2929863365083933,-0.200094044734165,-0.272387785115838,0.028869267553091,0.1650247722864151,0.0936519354581832
1783204830897635300,0.24463525390625,0.2423988895654678,-0.1662756540235132,-0.335316827237606,-0.0068634301424026,0.0432591848075389,0.1079882606863975
1783204830907572200,0.254572265625,0.1783767915099859,-0.1994899413611739,-0.3312272198364138,-0.0246898531913757,-0.0413675159215927,0.1227243468165397
1783204830917510100,0.26451025390625,0.1302840839922428,-0.2041140209652483,-0.2942944964975118,-0.0265972092747688,-0.0809274390339851,0.125555008649826
1783204830927447000,0.274447021484375,0.0454079984784126,-0.1611626949239522,-0.2254392791971564,-0.0272601321339607,-0.0957202687859535,0.1144352257251739
1783204830937384200,0.28438427734375,-0.0120288759678602,-0.0919510654013603,-0.1677639198198914,-0.0272481478750705,-0.1020798981189727,0.0999899804592132
1783204830947322000,0.294322021484375,-0.0211503400564193,-0.0711591833937913,-0.1492287306979298,-0.0201892852783203,-0.0930693224072456,0.0850659236311912
1783204830957259300,0.30425927734375,0.0076402856200933,-0.0695863080538809,-0.1075876835376024,-0.0128011424094438,-0.0693171247839927,0.0724326893687248
1783204830967196200,0.314196044921875,0.0519505519896745,-0.083397902720049,-0.0684200407534837,-0.014263242483139,-0.0659913346171379,0.0588625930249691
1783204830977133300,0.32413330078125,0.0721434451907873,-0.0855909557849168,-0.0782160431027412,-0.0207698792219162,-0.0682369172573089,0.04889677464962
1783204830987071000,0.334071044921875,0.059711833640933,-0.0993444635882973,-0.089126728695631,-0.0317816399037838,-0.0715658292174339,0.038024678826332
1783204830997008100,0.344008056640625,0.0487321744650602,-0.139038906725496,-0.0840910726159811,-0.0368171446025371,-0.0741043537855148,0.0293997675180435
1783204831006945000,0.353945068359375,0.06022095220685,-0.1566242477767169,-0.0874286926060915,-0.0368788465857505,-0.0716808438301086,0.0258370488882064
1783204831016883200,0.36388330078125,0.0869359406530857,-0.1629268550522625,-0.0878887113332748,-0.0415351167321205,-0.0735013857483863,0.0228644292801618
1783204831026820000,0.373820068359375,0.0986111808776855,-0.156178257574886,-0.0869528917878866,-0.0390618257224559,-0.0685487315058708,0.0280799157917499
1783204831036757200,0.38375732421875,0.1207850187629461,-0.151441292180866,-0.1059030914515256,-0.0240911319851875,-0.0586657412350177,0.0308277644217014
1783204831046695200,0.393695068359375,0.1189274081975221,-0.1327583651512861,-0.1453594880491495,-0.00316181499511,-0.0540323816239833,0.0356254205107688
1783204831056632000,0.403632080078125,0.11766308735013,-0.107717155136168,-0.1739659893304109,0.0197451002895832,-0.0454884245991706,0.0318389385938644
1783204831066569200,0.4135693359375,0.0943950244873762,-0.1036520976543426,-0.159081139409542,0.0395204052329063,-0.0387427359819412,0.0360061861574649
1783204831076506000,0.423506103515625,0.1150970362544059,-0.1303869598448276,-0.1217909809350967,0.0562527813017368,-0.0397507436573505,0.0514109767973423
1783204831086444000,0.433444091796875,0.1571849503993987,-0.1548945013746619,-0.059801265490055,0.0581719651818275,-0.0412340611219406,0.0655563920736312
1783204831096381200,0.443381103515625,0.1973141316920518,-0.1403638717189431,-0.0105079500108957,0.0481337122619152,-0.0471587926149368,0.0839891955256462
1783204831106318300,0.453318359375,0.1975263131380081,-0.1275008099492639,0.0486468342691659,0.0338348522782325,-0.0583098493516445,0.1004790961742401
1783204831116256300,0.46325634765625,0.1626063909262418,-0.1153049068514257,0.0882721576929092,0.0237276218831539,-0.0526138767600059,0.1104411855340004
1783204831126193200,0.473193115234375,0.1215542495697736,-0.1078966033563017,0.1241746612012386,0.0199124477803707,-0.0335694476962089,0.1186031401157379
1783204831136130000,0.483130126953125,0.0948778395682573,-0.0970000924192368,0.1230097090750932,0.0172532815486192,-0.0160607583820819,0.125238686800003
1783204831146067200,0.493067138671875,0.0775894356369972,-0.0746432991825044,0.1430465349316597,0.0135033400729298,0.0083300014957785,0.1296416223049163
1783204831156005000,0.503005126953125,0.0554734654188156,-0.0581878389440476,0.1423024385660886,0.01548632979393,0.026549220085144,0.1302565485239029
1783204831165942300,0.5129423828125,0.0499251836419105,-0.0560435203917324,0.148320091420412,0.0136005077511072,0.0516894534230232,0.1330757290124893
1783204831175879200,0.522879150390625,0.0586573561519384,-0.0282710953144356,0.1535039237990975,0.0176687519997358,0.0773809701204299,0.1362787187099456
1783204831185817300,0.5328173828125,0.0453279189795255,-0.011527319653891,0.1670361900672316,0.0222128294408321,0.1113403066992759,0.1374897360801696
1783204831195754000,0.54275390625,0.0378553911417722,-0.016292670892179,0.1681833142757415,0.0265340767800807,0.1477904617786407,0.1366657614707946
1783204831205691100,0.552691162109375,0.0496568880945444,-0.0048867125956341,0.1912277975156903,0.0341020971536636,0.1891466826200485,0.1413800120353698
1783204831215629000,0.562629150390625,0.0541080222845077,0.0054834363797679,0.1958507811412215,0.0386771410703659,0.230486661195755,0.1431915014982223
1783204831225566200,0.572566162109375,0.0937070422232151,0.0090973525606095,0.1982926213353872,0.041911132633686,0.2787622809410095,0.1534124165773391
1783204831235503000,0.582503173828125,0.141130472177267,0.0109875867540016,0.2173863211229443,0.040038663893938,0.332634836435318,0.1697921901941299
1783204831245441300,0.592441162109375,0.2057838538736104,0.0041610652022063,0.2339069555521011,0.0297013744711875,0.3843484222888946,0.1866295486688614
1783204831255378200,0.602378173828125,0.3126747873187065,-0.0247539905715733,0.2350350827991962,0.0173605531454086,0.4302195012569427,0.2190745770931244
1783204831265315000,0.612315185546875,0.428013231113553,-0.0809594965919852,0.1862941405057907,0.0009691352024674,0.4619856476783752,0.2660329937934875
1783204831275253000,0.6222529296875,0.5223883818566799,-0.1203343523859977,0.1262847852230072,-0.0138534866273403,0.4856744408607483,0.3298348784446716
1783204831285190100,0.632190185546875,0.6224585293710232,-0.1718368683472275,0.0790846426308155,-0.0204266998916864,0.5150098204612732,0.401614636182785
1783204831295127000,0.642126953125,0.7430185072064399,-0.1999216838419437,0.0211222830057144,-0.0155893359333276,0.539907693862915,0.4891828298568725
1783204831305064200,0.652064208984375,0.82416475854218,-0.2433557518988847,-0.0631318712174892,0.0020226472988724,0.5658642649650574,0.5845066905021667
1783204831315002000,0.662002197265625,0.8799702323943376,-0.2952112825488671,-0.1387672501772642,0.0250408798456192,0.5827931761741638,0.6836673617362976
1783204831324939300,0.671939208984375,0.9170593153387308,-0.2999966536618769,-0.203168118417263,0.0472638942301273,0.5866044163703918,0.7878217697143555
1783204831334876200,0.681876220703125,0.8921557602286339,-0.2900137504383921,-0.259435364562273,0.0685430839657783,0.5724869966506958,0.8815466165542603
1783204831344814000,0.69181396484375,0.8245534655988216,-0.2774474065929651,-0.3479302250951528,0.0890812650322914,0.5391397476196289,0.9709998965263368
1783204831354751200,0.701751220703125,0.7411269943714142,-0.2788848920501768,-0.4553811305105686,0.117772564291954,0.5030419230461121,1.0522055625915527
1783204831364688100,0.711688232421875,0.6687754593878984,-0.2402341127470135,-0.5351724601060152,0.1591130495071411,0.4668895900249481,1.1218047142028809
1783204831374626000,0.7216259765625,0.5668775119245052,-0.1796620090149343,-0.5860685346066952,0.2139501869678497,0.4476034939289093,1.1793675422668457
1783204831384563200,0.731563232421875,0.428404860779643,-0.0920572291895747,-0.6733095956861972,0.2923804223537445,0.4389168322086334,1.2211097478866575
1783204831394500400,0.741500244140625,0.2826175027072429,0.0098449560575187,-0.772494777059555,0.388543426990509,0.4397432208061218,1.2452131509780884
1783204831404438300,0.751438232421875,0.1539250718206167,0.0923434987850487,-0.838486129361391,0.4974146485328674,0.4506483078002929,1.2609751224517822
1783204831414375200,0.761375244140625,0.0305664031773805,0.1338297937750816,-0.8700865517616272,0.6041184663772583,0.4592151641845703,1.2626630067825315
1783204831424312000,0.77131201171875,-0.0854798966258764,0.1775343493364751,-0.860204040172696,0.7011339664459229,0.4625856280326843,1.252880334854126
1783204831434250200,0.781250244140625,-0.1892903997123241,0.242572930958122,-0.7976765645891427,0.7773757576942444,0.4561831057071686,1.232244849205017
1783204831444187100,0.791187255859375,-0.2808575072973966,0.3182112325273454,-0.7016010396689176,0.8282586932182312,0.4411925673484802,1.1943750381469729
1783204831454124300,0.801124267578125,-0.3531155187785625,0.3499131425406783,-0.5844079079180956,0.8580610752105713,0.4186638295650482,1.1491886377334597
1783204831464062200,0.811062255859375,-0.4098866227924823,0.3923456323396414,-0.4563169500559568,0.8618090748786926,0.3828545212745666,1.093377947807312
1783204831473999400,0.820999267578125,-0.4471995776206254,0.4225457594878971,-0.3129319769501686,0.8431432247161865,0.3370931446552276,1.036301612854004
1783204831483936000,0.83093603515625,-0.4767974280267953,0.4583556162767112,-0.183798232036829,0.799930214881897,0.292349100112915,0.9723514318466188
1783204831493873200,0.840873046875,-0.5022884276360273,0.4729201482020318,-0.0387947178184986,0.7395765781402588,0.2414316236972808,0.9031944274902344
1783204831503811000,0.85081103515625,-0.5390881722450256,0.4883496994588523,0.095661683422327,0.6607633233070374,0.1974721103906631,0.8302125930786133
1783204831513748200,0.860748291015625,-0.5575707543969154,0.4943428754590451,0.2287479653537273,0.5731596946716309,0.1543411463499069,0.7591080665588379
1783204831523685000,0.87068505859375,-0.5622784936964511,0.4816267478793859,0.330768077892065,0.4802708923816681,0.1162406206130981,0.6839014291763306
1783204831533623300,0.880623291015625,-0.5458890844315291,0.4769450928691774,0.3870136967271566,0.3853401243686676,0.087088331580162,0.6138997077941895
1783204831543560200,0.890560302734375,-0.5186866047292947,0.4715532437629997,0.4215513416230678,0.3051548600196838,0.0638823956251144,0.554131805896759
1783204831553497000,0.9004970703125,-0.4735971706807613,0.4655567798271775,0.4436228881776332,0.2333565652370453,0.0504390262067317,0.4957747161388397
1783204831563435000,0.91043505859375,-0.4458329654425382,0.4481934109635651,0.4234118747979402,0.1797218471765518,0.0538403056561946,0.4465612173080444
1783204831573372200,0.9203720703125,-0.405983770135045,0.4122580280989408,0.382947177940607,0.138968825340271,0.0526583939790725,0.4049301743507385
1783204831583309000,0.93030908203125,-0.3700853582799434,0.3672054189294576,0.3339280032277107,0.1048750430345535,0.0470937676727771,0.3688420057296753
1783204831593247200,0.940247314453125,-0.3439186513662338,0.3508688358303159,0.2856576010555028,0.0801726281642913,0.0362115576863288,0.3373120427131653
1783204831603184000,0.95018408203125,-0.3337105610847473,0.3193407480139285,0.2526613403826951,0.0582433082163333,0.0234826058149337,0.3088579177856445
1783204831613121300,0.960121337890625,-0.320771584534645,0.2988418576035648,0.2379126840621233,0.0400760248303413,0.0132664516568183,0.2842532396316528
1783204831623058400,0.970058349609375,-0.3183382199078798,0.2886951421204954,0.2165776350885629,0.0286002419888973,-0.0002471455372869,0.2585346102714538
1783204831632995600,0.97999560546875,-0.3374906641453504,0.2892009727507829,0.2209258934259414,0.0153763154521584,-0.0112345479428768,0.2314899563789367
1783204831642932500,0.989932373046875,-0.3625993864387273,0.2895156647231429,0.2426332828432321,-0.000867330469191,-0.0188100878149271,0.1936279088258743
1783204831652870400,0.999870361328125,-0.3972551047563553,0.2770730933878571,0.2552408354818821,-0.0145674301311373,-0.0288877543061971,0.1585846990346908
1783204831662807600,1.0098076171875,-0.4378945736587047,0.2722923619173467,0.2513549339592457,-0.0269956048578023,-0.0371129401028156,0.118341639637947
1783204831672744400,1.019744384765625,-0.4779284778833389,0.2807235787194222,0.2510229255259036,-0.048231117427349,-0.0473370812833309,0.0712116733193397
1783204831682682600,1.0296826171875,-0.511580572116375,0.2731569428574293,0.2309820080161094,-0.0609004274010658,-0.0610877349972724,0.0257212202996015
1783204831692619500,1.03961962890625,-0.5055886382251977,0.2462969929825514,0.2087012026250362,-0.0661926567554473,-0.0693576484918594,-0.0162616502493619
1783204831702556700,1.049556640625,-0.4670423422098159,0.2466789780374616,0.1789344253927469,-0.0650665536522865,-0.0688588693737983,-0.0550540834665298
1783204831712494600,1.05949462890625,-0.4212444676309824,0.2375389553789049,0.1829185265928506,-0.0566778667271137,-0.0572637319564819,-0.0905795842409133
1783204831722431500,1.069431396484375,-0.3673977266311645,0.2104014306716621,0.1734311518013477,-0.0472427010536193,-0.0400107465684413,-0.1134325042366981
1783204831732368400,1.079368408203125,-0.2840454896837472,0.15851137669757,0.1875812577068805,-0.0364744774997234,-0.0228373482823371,-0.1323563903570175
1783204831742306600,1.089306640625,-0.1966355017781257,0.1038125489130616,0.1725561225324869,-0.0428313091397285,-0.022512724623084,-0.1425027549266815
1783204831752243500,1.099243408203125,-0.0966664765506982,0.0545537932906299,0.1765682807832956,-0.0526977926492691,-0.0372975282371044,-0.1397903263568878
1783204831762180600,1.1091806640625,-0.0324485636621713,0.0249313929650932,0.153202602764964,-0.0622357353568077,-0.0475543513894081,-0.1322926580905914
1783204831772118500,1.119118408203125,0.0145621938377618,0.0001570902578532,0.1651315254896879,-0.0715706422924995,-0.0516934357583522,-0.1258171647787094
1783204831782055700,1.1290556640625,0.0399549937695264,-0.0260224030721932,0.1939133833378553,-0.090144045650959,-0.0475527346134185,-0.1252887994050979
1783204831791993600,1.13899365234375,0.0231418061345815,-0.0197965873599052,0.2119984906047582,-0.1121494844555854,-0.0437063314020633,-0.1279375702142715
1783204831801930500,1.148930419921875,0.0118815764516592,-0.023469138392806,0.2102332344979047,-0.1221399381756782,-0.032891783863306,-0.1231210008263588
1783204831811867400,1.158867431640625,0.0291676422953605,-0.0592778992030769,0.1814659896969795,-0.1273669302463531,-0.0186803564429283,-0.1213968768715858
1783204831821805600,1.1688056640625,0.0432674793183803,-0.0798015587285161,0.1563122592180967,-0.1350250542163849,-0.0046184896491467,-0.1168866902589798
1783204831831742500,1.178742431640625,0.0357984586119651,-0.0693869860894978,0.1466132875025272,-0.1474258005619049,0.0021107855718582,-0.1203394755721092
1783204831841679600,1.1886796875,0.0323135391056537,-0.0625930151004344,0.1588525913506746,-0.1592500507831573,0.011318264529109,-0.1226773560047149
1783204831851617500,1.198617431640625,0.0511275451689958,-0.0648174131516367,0.1175011747866869,-0.1752420663833618,0.0097264936193823,-0.1257021725177765
1783204831861554700,1.2085546875,0.0560913050562143,-0.0739151310384273,0.0373544558823108,-0.1887291371822357,-0.000764824450016,-0.1258689612150192
1783204831871491300,1.2184912109375,0.0555284104764461,-0.0900488119766116,-0.0536450809478759,-0.1936839520931244,-0.0133096445351839,-0.1259203553199768
1783204831881429500,1.228429443359375,0.072125325012207,-0.1108872365396469,-0.1270809040367603,-0.1849464476108551,-0.0174805708229541,-0.1196458116173744
1783204831891366400,1.238366455078125,0.0936889220446348,-0.1187748479843139,-0.1886170304954051,-0.1688622832298278,-0.0153654869645833,-0.1122052073478698
1783204831901303600,1.248303466796875,0.1210994915395975,-0.1136597699929028,-0.215083597138524,-0.1432880610227584,0.0001144334673881,-0.1015764996409416
1783204831911241500,1.258241455078125,0.1890285339057445,-0.1161268176935613,-0.2309785008847713,-0.1064717322587966,0.020255122333765,-0.0826909616589546
1783204831921178600,1.2681787109375,0.2530132225602865,-0.1407498022966087,-0.2722299642056227,-0.0710047632455825,0.0372156128287315,-0.0621472038328647
1783204831931115500,1.278115478515625,0.2969786210149526,-0.1563347633108496,-0.3137076374977827,-0.0350635387003421,0.0424945317208766,-0.0308345519006252
1783204831941053700,1.2880537109375,0.3031131782472133,-0.1630092726387083,-0.3426572531282901,-0.0081970365718007,0.0385929606854915,-0.0063324254006147
1783204831950990300,1.297990234375,0.2847942622244357,-0.1482262025918811,-0.3373322587132453,0.0118613597005605,0.0275863818824291,0.0189633425325155
1783204831960928500,1.307928466796875,0.2544043846577405,-0.1450632085163146,-0.3360872270882129,0.0302242413163185,0.014737969264388,0.0365250185132026
1783204831970865400,1.317865478515625,0.2151215910613536,-0.1133641480471938,-0.3038403234779834,0.0406318753957748,0.0043252753093838,0.0502922274172306
1783204831980802600,1.327802490234375,0.1704541818171739,-0.082895725351572,-0.2451286067903041,0.0407687947154045,0.0006626676768064,0.0583520643413066
1783204831990740500,1.337740478515625,0.1316962888777255,-0.0520138264842331,-0.1767015517741441,0.0424452535808086,0.0042741801589727,0.0558494925498962
1783204832000677600,1.347677734375,0.100083591517806,-0.0214057030569761,-0.1234960312873125,0.035193495452404,0.0057235471904277,0.0544958785176277
1783204832010614500,1.357614501953125,0.077485390740633,0.0067510816954076,-0.1217535715341568,0.0240902453660964,-0.0059610721655189,0.0543203763663768
1783204832020552700,1.367552734375,0.0447901588410139,0.0332188173823058,-0.1274386314332485,0.0117921447381377,-0.0237941518425941,0.0479551292955875
1783204832030489300,1.3774892578125,0.0294955590754747,0.0354566594369709,-0.154431852298975,0.0044372929260134,-0.0408538281917572,0.0427971184253692
1783204832040426500,1.387426513671875,0.0034153614014387,0.0475049707576632,-0.1515934140026569,0.0130770802497863,-0.044936504215002,0.0397767722606658
1783204832050364400,1.397364501953125,-0.0136941788315773,0.0737602327376604,-0.1378787769049406,0.0225384924560785,-0.0357379466295242,0.0327026173472404
1783204832060301600,1.407301513671875,-0.0228203190952539,0.0916146730538457,-0.1181535012155771,0.0340010821819305,-0.0306035373359918,0.0255079306662082
1783204832070238500,1.417238525390625,-0.0117693482488393,0.1043020859956741,-0.0918061770379543,0.0416036061942577,-0.0248132925480604,0.0233411826193332
1783204832080176600,1.4271767578125,0.0046323359757661,0.1062627916093915,-0.0582680645734071,0.0411369353532791,-0.0270539931952953,0.0263881906867027
1783204832090113500,1.437113525390625,-0.001702712264657,0.0992936101838946,-0.0339443551778793,0.0424120537936687,-0.0268952697515487,0.0265884604305028
1783204832100051700,1.4470517578125,-0.0016495207726955,0.0969743003908544,0.0167483057051897,0.04251554235816,-0.0238445065915584,0.0262506082653999
1783204832109988400,1.45698828125,-0.0015548282265663,0.106623733876273,0.04024667019248,0.0448532626032829,-0.0200058259069919,0.028309229761362
1783204832119925500,1.466925537109375,-0.003368015128374,0.1150029282301664,0.0603027852714061,0.0402785129845142,-0.012629609555006,0.0258360132575035
1783204832129863400,1.476863525390625,-0.0289794262468814,0.1104597318425774,0.0565653523087501,0.0393352210521698,-0.0146932918578386,0.0209509767591953
1783204832139800600,1.486800537109375,-0.0493429998397827,0.1110973721589893,0.0511842437922954,0.0404275804758071,-0.0086722653359174,0.0180014092475175
1783204832149737500,1.496737548828125,-0.0585036268949508,0.1148817860685288,0.06219780523777,0.0397961437702178,-0.0096286069601774,0.0110388407483696
1783204832159675600,1.506675537109375,-0.0730401017695665,0.1077059761550277,0.0885842923820018,0.0312841013073921,-0.0028949254192411,0.0053507415577769
1783204832169612500,1.516612548828125,-0.0806178435474634,0.1009642468098551,0.0897585968583822,0.0267633832991123,-0.0045886957086622,-0.0014661520253866
1783204832179549400,1.526549560546875,-0.0767827954292297,0.0976662281777709,0.0857569600015878,0.0153700448572635,-0.016673969104886,-0.0095819858834147
1783204832189487400,1.5364873046875,-0.075538348326087,0.0905372530806809,0.0734597884863615,0.0075478074140846,-0.0230639576911926,-0.0130259860306978
1783204832199424500,1.546424560546875,-0.0650450113624334,0.0844214736141264,0.0768862558037042,-0.0001069391146302,-0.0277947932481765,-0.0148318717256188
1783204832209362400,1.556362548828125,-0.0559954434663057,0.0811118376094847,0.0675900196701288,0.0049621220678091,-0.018717672675848,-0.0186111647635698
1783204832219299600,1.566299560546875,-0.0524707764714956,0.0735452748127281,0.0834504366248846,0.0108593720942735,-0.0026446185074746,-0.0193937830626964
1783204832229236500,1.576236572265625,-0.0344873760133981,0.0707054482769221,0.0834849234163761,0.0133574176579713,0.0051760198548436,-0.0238838735967874
1783204832239174700,1.586174560546875,-0.0218254628390073,0.0424789592891931,0.0601730214118957,0.0106003237888216,0.0033077935222536,-0.0223810765892267
1783204832249111300,1.596111328125,-0.0050181204229593,0.0258017460588365,0.0511865818798542,0.0086572812870144,0.0028883456252515,-0.0190201662480831
1783204832259048400,1.60604833984375,0.0068698857694864,0.0259746914729475,0.0425847577512264,0.0086461436003446,0.0057321889325976,-0.0176493171602487
1783204832268986400,1.615986328125,0.0120464116245508,0.0260170693099498,0.0450946947455406,0.0090046050027012,0.0074222306720912,-0.015606939792633
1783204832278923500,1.625923583984375,0.0214420164793729,0.0180469672136008,0.0445768083512783,0.0080311968922615,0.0098499087616801,-0.014385406859219
1783204832288861400,1.635861328125,0.0180108729869127,0.0267608003493398,0.0233399590551853,0.0030726566910743,0.0070847487077116,-0.0158424228429794
1783204832298798600,1.645798583984375,0.0041547815918922,0.0280935833230614,0.0253536369651556,-0.0016238754615187,0.004551962018013,-0.021549429744482
1783204832308735500,1.655735595703125,-0.0277256267935037,0.0115068248551338,0.0200362413346767,-0.0092333257198333,0.0005295239388942,-0.0264134276658296
1783204832318673700,1.665673583984375,-0.021052140378952,0.0072378422990441,-0.0145493343561887,-0.0094651710242033,0.0007585883140563,-0.0287180934101343
1783204832328610300,1.6756103515625,-0.0033937340915203,-0.0069488692898303,-0.0224397953450679,-0.0081783328205347,0.0034571695141494,-0.0307162646204233
1783204832338547500,1.68554736328125,0.0128127198219299,-0.0059144847407937,-0.0146393507272005,-0.0079367170110344,0.0029739839956164,-0.0270555727183818
1783204832348485400,1.6954853515625,0.0343079277932643,-0.0027715105399489,-0.0358569108009338,-0.0096981329843401,-7.53356143832e-05,-0.0289352312684059
1783204832358422500,1.705422607421875,0.0395943437635898,-0.0061964434873312,-0.0484510194361209,-0.0134016461670398,-0.01145233027637,-0.0249907933175563
1783204832368360400,1.7153603515625,0.0435936425328254,-0.0130467477735131,-0.0624690233945846,-0.0121843144297599,-0.0132896453142166,-0.0244552325457334
1783204832378297600,1.725297607421875,0.0466039302647113,-0.0303950651984661,-0.0475397498100996,-0.0102294217795133,-0.012580269947648,-0.0211090594530105
1783204832388234500,1.735234375,0.0627110154569149,-0.0316034911401569,-0.0433674325615167,-0.0025555239990353,-0.0050054406747221,-0.0188613515347242
1783204832398172700,1.745172607421875,0.0699105715721845,-0.0391243150990456,-0.0413783045709133,0.002322681248188,-0.0012449668720364,-0.0082674724981188
1783204832408109300,1.755109375,0.0860632494717836,-0.0473304909735918,-0.0397287837982177,0.0064465859904885,-0.0009765201248228,-0.0002537549007683
1783204832418046500,1.76504638671875,0.0916238062083721,-0.0472032113321125,-0.0539431871116161,0.0077312756329774,-0.009118927642703,0.0015028065536171
1783204832427984400,1.774984375,0.0689490330636501,-0.0453579487916082,-0.0650631315410137,0.0077805439941585,-0.0173409041017293,0.0054794382303953
1783204832437921500,1.784921630859375,0.0480377624601125,-0.0415743385996669,-0.0545201102167367,0.0113522121682763,-0.016050424426794,0.0057696346193552
1783204832447859500,1.794859375,0.0237274970680475,-0.0357183060478419,-0.0265846400648355,0.0126478392630815,-0.0100548500195145,0.0105089964345097
1783204832457796600,1.804796630859375,0.0121200613826513,-0.0338038507286459,-0.0109077629834413,0.015218935906887,-0.0021890867501497,0.009453703649342
1783204832467733500,1.8147333984375,0.0147451491892337,-0.0147366005565971,0.0063829790353775,0.0191494952887296,-4.89698722958e-05,0.01010830886662
1783204832477671700,1.824671630859375,0.0110661684155464,-0.0088411127772182,0.0192559046119451,0.0191202387213706,0.0008586030453443,0.0074773412197828
1783204832487608300,1.8346083984375,0.0089361706495285,-0.0048525545977056,0.0331622648894786,0.0182941257953643,0.002291117561981,0.0114278746768832
1783204832497546500,1.84454638671875,0.0025970307558774,-0.0094017423346638,0.0361123468667268,0.0094214165583252,-0.0002946131862699,0.0108677493408322
1783204832507483400,1.8544833984375,-0.0063882397323846,-0.0132907856624573,0.0212789348721504,0.0100198294967412,-0.0037002637982368,0.0094647957012057
1783204832517420500,1.864420654296875,-0.0061105918347835,-0.0092547350794076,0.0236819043606519,0.0080895870923995,-0.0134004056453704,0.0104231527075171
1783204832527358500,1.8743583984375,-0.0006108253747224,-0.006098974462226,0.0181768772035837,0.003148091956973,-0.0213826987892389,0.0110423369333148
1783204832537295600,1.884295654296875,0.0069745151877403,-0.0125435474917292,0.0341343247920274,-0.0061882687732577,-0.0340988487005233,0.0130329625681042
1783204832547232500,1.894232421875,0.0145288760900497,-0.0110017248772084,0.009539397239685,-0.0147561905905604,-0.0612657517194747,0.0221162065863609
1783204832557170700,1.904170654296875,0.0242032978862524,-0.0256460440404713,-0.024416648375988,-0.0236898884177207,-0.0856546834111213,0.0236257165670394
1783204832567107300,1.914107421875,0.0153477912575006,-0.0244292886618524,-0.0506084897309541,-0.0241367667913436,-0.1033194288611412,0.0257858056575059
1783204832577045500,1.92404541015625,0.0184007490873336,-0.0179029556330293,-0.0941401729434728,-0.0195532217621803,-0.1336614191532135,0.0311038121581077
1783204832586982400,1.933982421875,0.0183756146460771,-0.0354017874445766,-0.1460416250944137,-0.0162658132612705,-0.1582160294055938,0.0296840816736221
1783204832596919600,1.94391943359375,0.0007020107895135,-0.0070977762412279,-0.1287187343716621,-0.0098632415756583,-0.1778133511543274,0.0297297071665525
1783204832606857500,1.953857421875,-0.0125742348909378,0.0506450954142957,-0.114785486087203,-0.0068751750513911,-0.1851053535938263,0.0236308015882968
1783204832616794600,1.963794677734375,-0.0293862534821033,0.0179824506100267,-0.0758323628365993,-0.0093601569533348,-0.1879310756921768,0.0166734438389539
1783204832626732500,1.973732666015625,-0.0667231737077236,0.0202175161857157,-0.0246054489463567,-0.0135841965675354,-0.1806350797414779,0.0011589329224079
1783204832636669700,1.983669677734375,-0.0822036514341831,0.0727100660976022,0.0231388835251331,-0.0093852393329143,-0.1529347449541092,-0.0154996737837791
1783204832646606600,1.993606689453125,-0.0704407329261302,0.0729579033788293,0.0549666849404573,-0.0027339961379766,-0.1170422583818435,-0.0246090162545442
1783204832656544800,2.003544677734375,-0.0499795441776514,0.0776300599083304,0.0796831930458545,0.0053396061994135,-0.0764322057366371,-0.0357132777571678
1783204832666481700,2.013481689453125,-0.0389005162805318,0.0869569834411144,0.0814946263819932,0.012864900752902,-0.0509968809783458,-0.0458237007260322
1783204832676419800,2.023419921875,-0.049383331850171,0.105486619605124,0.0690782124012708,0.0141421193256974,-0.0381778702139854,-0.0507269650697708
1783204832686356500,2.0333564453125,-0.0577671293139457,0.0920347981620579,0.0501817887514829,0.0047925598919391,-0.0373775884509086,-0.0585923418402671
1783204832696293600,2.043293701171875,-0.0627262130260467,0.0959974181827157,0.0259726456463336,-0.0016032280400395,-0.0432166829705238,-0.0655076205730438
1783204832706231600,2.0532314453125,-0.1275491060703992,0.116944636882469,0.0178793555617332,-0.0013720653951168,-0.0517534464597702,-0.087892822921276
1783204832716168700,2.063168701171875,-0.2787409535348415,0.184993213975057,-0.049588499033451,-0.0028641866520047,-0.0641610920429229,-0.1278460770845413
1783204832726106600,2.073106689453125,-0.4129717293262481,0.2575890791084617,-0.1061024134159088,0.0075991060584783,-0.0729252845048904,-0.1767041534185409
1783204832736043800,2.083043701171875,-0.4286667265862226,0.2809242889232933,-0.1293143621772527,0.0243154745548963,-0.0677581802010536,-0.2229805439710617
1783204832745980700,2.092980712890625,-0.3907049524605274,0.2695923822436482,-0.1200385843098163,0.0386193133890628,-0.0660210028290748,-0.2613220810890198
1783204832755918800,2.1029189453125,-0.31919571352005,0.2873320370737463,-0.0875970349103212,0.0419013649225235,-0.0720890611410141,-0.2918826937675476
1783204832765855500,2.11285546875,-0.1987730983287096,0.2425486002344637,-0.0358195013999938,0.0386054366827011,-0.0846788883209228,-0.3021449148654938
1783204832775793700,2.122793701171875,-0.0787836138576269,0.2039479436833411,-0.0313847338229417,0.0269116461277008,-0.1024179235100746,-0.304628312587738
1783204832785730600,2.13273046875,0.0354103360772132,0.1599905824046582,-0.022490064227581,0.0093944389373064,-0.1374717801809311,-0.2945298552513122
1783204832795667700,2.142667724609375,0.1259621291399002,0.0927743644829839,-0.0292453837066888,-0.0075927376747131,-0.1795334070920944,-0.2763481140136719
1783204832805605600,2.152605712890625,0.1929167735159397,0.0895643163952976,-0.025766893941164,-0.0280559323728084,-0.2280482053756714,-0.2526811361312866
1783204832815542800,2.162542724609375,0.1900017628520727,0.0567501342911273,-0.0317898074924945,-0.0547732189297676,-0.2724124491214752,-0.2319806218147277
1783204832825480700,2.172480712890625,0.1368751528203487,0.053059755340591,-0.0689133772283792,-0.0711886808276176,-0.3191948533058166,-0.2209953367710113
1783204832835417900,2.18241796875,0.1339426064997911,0.0791148916386067,-0.1264934595376253,-0.0877970457077026,-0.3836559653282165,-0.2038385421037674
1783204832845354500,2.1923544921875,0.1597831501990556,0.0540553422491997,-0.2005266639977693,-0.1206636503338813,-0.4609081447124481,-0.1914234161376953
1783204832855292700,2.202292724609375,0.1408978324651718,0.054536842155829,-0.2530810270994901,-0.1770092993974685,-0.5981374382972717,-0.1771537959575653
1783204832865229600,2.2122294921875,0.1672393114238977,0.0505809441369026,-0.4295815033435821,-0.2517645061016083,-0.7971371412277222,-0.1624393016099929
1783204832875167500,2.22216748046875,0.17275544449687,0.0058291445448994,-0.6137707805246114,-0.3424773216247558,-1.03223717212677,-0.1583152711391449
1783204832885104600,2.232104736328125,0.2057949597895145,-0.0078952832944691,-0.7301976040780543,-0.4193310737609863,-1.2573925256729126,-0.1619352996349334
1783204832895041800,2.242041748046875,0.1721311751186847,-0.0401747740000486,-0.6541618276238441,-0.4663566350936889,-1.3781259059906006,-0.1640017628669738
1783204832904979700,2.251979736328125,0.0742559073001146,-0.0929463600490242,-0.359976052197814,-0.4733484983444214,-1.363976240158081,-0.1849158257246017
1783204832914916900,2.261916748046875,-0.0521352609068155,-0.0730561761215329,-0.165662855887413,-0.4066619873046875,-1.2511142492294312,-0.2028836011886596
1783204832924854800,2.271854736328125,-0.0558119035929441,0.0130698363881558,-0.1222682430580258,-0.3001081049442291,-1.083926558494568,-0.207000583410263
1783204832934791700,2.281791748046875,0.0127115975350141,0.0143603145901113,-0.2286097259268164,-0.1863535940647125,-0.9649550914764404,-0.1971729844808578
1783204832944728600,2.291728515625,0.1580523808836937,0.0177315445888787,-0.4156006165251135,-0.0985888391733169,-0.9164006114006042,-0.1828888654708862
1783204832954666500,2.30166650390625,0.3509709079653024,-0.0029105536844581,-0.533445782443881,-0.054954644292593,-0.9377459287643432,-0.1603681892156601
1783204832964603600,2.311603759765625,0.438080451619625,-0.1040111402250826,-0.4964923085778951,-0.0398505255579948,-0.9811155200004578,-0.1392959207296371
1783204832974541600,2.32154150390625,0.4188420826643705,-0.1895380908630788,-0.3170616241008043,-0.0300249010324478,-0.9829532504081726,-0.1137744933366775
1783204832984478700,2.331478759765625,0.369397960537672,-0.229792798231542,-0.1624900710701942,-0.0111627960577607,-0.9126726984977722,-0.0919610783457756
1783204832994415900,2.341415771484375,0.2725122882783413,-0.2181307097494602,0.0091314009606838,0.0300840400159358,-0.7736379504203796,-0.0744375064969062
1783204833004353800,2.351353759765625,0.1751584139853715,-0.1672513671878725,0.0918856720149517,0.0816934406757354,-0.5997457504272461,-0.0689636394381523
1783204833014290700,2.361290771484375,0.1766740792453288,-0.1183100069515407,0.1008218426644802,0.1257175803184509,-0.4581384062767029,-0.0594394989311695
1783204833024228600,2.371228515625,0.298594824039936,-0.1106101731639355,-0.0068958969935774,0.1498618125915527,-0.4152894616127014,-0.032293364405632
1783204833034165500,2.38116552734375,0.4589829543948173,-0.1481070331916213,-0.1897065792977809,0.1513378024101257,-0.4420656561851501,0.0069773830473423
1783204833044102700,2.3911025390625,0.5131716407001018,-0.1701080717932432,-0.1882414751812815,0.132000058889389,-0.4800985455513,0.0446560531854629
1783204833054040600,2.40104052734375,0.4425760094732046,-0.1986808169353753,-0.0991834278076887,0.1198420003056526,-0.4994788765907287,0.0803637206554412
1783204833063977700,2.410977783203125,0.3093248923689127,-0.1675863712958991,-0.0118383218318223,0.1185327917337417,-0.4612025916576385,0.0949141681194305
1783204833073915600,2.42091552734375,0.1623293275505304,-0.148287504325062,0.1589911230385303,0.1231758147478103,-0.3799484372138977,0.0984514653682708
1783204833083852800,2.430852783203125,0.0130044430017471,-0.1138894140303134,0.3179851686865091,0.1248096674680709,-0.2812301218509674,0.0905131101608276
1783204833093790700,2.440790771484375,-0.086222823947668,-0.03784560040012,0.3210334503412246,0.1331312954425811,-0.1996011286973953,0.0716101303696632
1783204833103727600,2.4507275390625,-0.0872585967361927,0.023098989906162,0.2434340778321027,0.1485858857631683,-0.1339230388402938,0.0575552992522716
1783204833113664500,2.46066455078125,-0.0632242256760597,0.0280935102578252,0.2009799607232213,0.1608542650938034,-0.0857915133237838,0.0511554144322872
1783204833123602700,2.470602783203125,-0.0421253235459327,0.0262563579585403,0.2077194981113076,0.1697593480348587,-0.0534144043922424,0.046961735934019
1783204833133539600,2.48053955078125,-0.0111374800860881,0.018709668906033,0.2389560556352138,0.1674105823040008,-0.042925726622343,0.046792447566986
1783204833143477800,2.490477783203125,0.0102618662953376,0.0206896637421101,0.2654559400260448,0.1550170481204986,-0.0387469604611396,0.0497024804353714
1783204833153414700,2.50041455078125,0.0446247391462326,0.0162045542173087,0.2689180631786584,0.1321850270032882,-0.0495095178484916,0.0562496781349182
1783204833163351800,2.510351806640625,0.0837649094015359,0.0018969927277415,0.3091051121383905,0.114874742925167,-0.0398286618292331,0.060537900775671
1783204833173289500,2.52028955078125,0.0726075555711984,0.0185663149125874,0.3889402808755636,0.0988898649811744,-0.0156881883740425,0.0652663186192512
1783204833183226600,2.5302265625,0.0166419227212667,0.0282005508288741,0.4423872089028358,0.0893940925598144,0.0220802277326583,0.0664500892162323
1783204833193164500,2.54016455078125,-0.0186538470655679,0.0317379311747849,0.4781289688915014,0.0769460722804069,0.0674988180398941,0.0661011934280395
1783204833203101700,2.550101806640625,-0.0402232893168926,0.0321298531018197,0.4719096559852361,0.0611745677888393,0.0943996757268905,0.0580565817654132
1783204833213038600,2.56003857421875,-0.0320037425041198,0.0353689080882817,0.3873500890746712,0.0394597984850406,0.0956683158874511,0.0552023872733116
1783204833222976800,2.569976806640625,0.0182324067831039,0.0402827644191682,0.2718640535026788,0.0227737613022327,0.0729462206363678,0.052637230604887
1783204833232913700,2.57991357421875,0.0069920508444309,0.0159117818158119,0.1691147499069571,0.0143812876194715,0.0552245266735553,0.0499181747436523
1783204833242851800,2.589851806640625,-0.0346270767450332,-0.0014072364494204,0.12749182292521,0.0095889288932085,0.0375387407839298,0.0482939109206199
1783204833252788500,2.59978857421875,-0.0749327836483716,0.0032199118945747,0.104127021689713,0.0085695646703243,0.0436074137687683,0.0345100611448287
1783204833262726700,2.6097265625,-0.1074719482034444,0.0140932611517608,0.1520657076895236,0.007533861324191,0.0512999594211578,0.0180224329233169
1783204833272663600,2.61966357421875,-0.1604220326244831,0.0108461689893156,0.1935284756734967,0.0049218349158763,0.067019522190094,-0.0050887633115053
1783204833282600700,2.6296005859375,-0.1777718113541603,-0.0029909985095262,0.1244564007520675,0.002976662479341,0.0732670351862907,-0.022870423272252
1783204833292538600,2.63953857421875,-0.1095487544775009,-0.0164677351981401,0.0473830979436636,0.0017902962863445,0.0605840124189853,-0.0313488394021987
1783204833302475800,2.649475830078125,-0.017267945665121,-0.0572423747874796,0.0235059632718563,-0.0074775042012333,0.050864540040493,-0.0309815891087055
1783204833312413700,2.65941357421875,0.0275040929973125,-0.0776041948147118,0.0661708005219697,-0.0225272960960865,0.0434221290051937,-0.0330308191478252
1783204833322350800,2.669350830078125,0.0361468336582183,-0.1159292492948472,0.1010685109019279,-0.0290011763572692,0.0466144606471061,-0.0349309854209423
1783204833332287500,2.67928759765625,0.0716980395108461,-0.1253268999762833,0.0879892490983009,-0.0338950976729393,0.0526379272341728,-0.0278497040271759
1783204833342225700,2.6892255859375,0.1192529868900775,-0.1410818837951868,0.0700286449939012,-0.0347845926880836,0.0546965487301349,-0.0221726428717374
1783204833352162600,2.69916259765625,0.1444049638032913,-0.1418903506338596,0.0517038837522268,-0.0357059054076671,0.0603652745485305,-0.0121696442365646
1783204833362100500,2.7091005859375,0.1480611482232809,-0.1623558502312749,0.0548681930020451,-0.0340369045734405,0.0722429677844047,-0.0078968685120344
1783204833372037600,2.71903759765625,0.1316109486818313,-0.1643802687309682,-0.0013747954845428,-0.0353131890296936,0.0647132918238639,4.8747751861e-06
1783204833381975600,2.7289755859375,0.1345627842247486,-0.1660589425329119,-0.1386333946645259,-0.0340489894151687,0.0259184893220663,0.0095182191580533
1783204833391912700,2.73891259765625,0.243705880510807,-0.1691316279765218,-0.2987418312951922,-0.0363676324486732,-0.040534108877182,0.0327417179942131
1783204833401849900,2.748849853515625,0.3277519449412822,-0.1963991357389837,-0.3428209192574024,-0.0351273939013481,-0.0900763571262359,0.0596002340316772
1783204833411787800,2.758787841796875,0.2585468912899494,-0.1719847523853182,-0.2589291686058044,-0.022817987948656,-0.0935527980327606,0.0760122835636138
1783204833421724700,2.768724609375,0.1182861876845359,-0.1457750831127166,-0.1519599092274904,0.0005342066287994,-0.0511235781013965,0.0825234428048133
1783204833431662600,2.77866259765625,0.0126928928345441,-0.1532975875720381,-0.0881131677389144,0.0327734500169754,0.0074310917407274,0.0865717232227325
1783204833441599500,2.788599609375,-0.0466834252417087,-0.167843853188306,-0.0469382767856121,0.0546651668846607,0.0658256933093071,0.0824776440858841
1783204833451537700,2.79853759765625,-0.120988432380557,-0.1829007717404514,-0.0085293434143066,0.0520114079117774,0.1068992167711258,0.0714160799980163
1783204833461474600,2.808474609375,-0.1940378865003585,-0.2252292897082865,0.0157248078763484,0.0108285499736666,0.1232150718569755,0.0519454404711723
1783204833471411700,2.81841162109375,-0.1749661062836646,-0.2435059740245342,-0.0225999543428421,-0.0538590475916862,0.1095321327447891,0.0310956519097089
1783204833481349600,2.828349609375,-0.0748398446679115,-0.245198895547539,-0.131963999903202,-0.1352167576551437,0.0667572394013404,0.006259012967348
1783204833491286800,2.838286865234375,0.0079886606663465,-0.2654138544499874,-0.3178723559617996,-0.2171806246042251,-0.0068063088692724,-0.0179023649543523
1783204833501224700,2.848224609375,0.0973398457676172,-0.2855490261144935,-0.584252425095439,-0.2877679467201233,-0.1241331994533538,-0.0305558424443006
1783204833511161600,2.85816162109375,0.2284773317188024,-0.2908535622633993,-0.9107423872768878,-0.3283790946006775,-0.2696004509925842,-0.0278879310935735
1783204833521098500,2.868098388671875,0.3579828325539827,-0.2684428468823432,-1.1354647503763438,-0.3222120106220245,-0.3975623846054077,-0.0070715975016355
1783204833531036700,2.87803662109375,0.4045627974212169,-0.2360838611997663,-1.1627110692203044,-0.2759197950363159,-0.4818935692310333,0.0086652366444468
1783204833540973600,2.8879736328125,0.382740257191658,-0.14765950861983,-1.052290500344336,-0.197886511683464,-0.5080388784408569,0.0287665091454982
1783204833550911700,2.897911865234375,0.3569108194082975,-0.0347889893084764,-0.8331985443472861,-0.0895014107227325,-0.4881429970264435,0.0591387599706649
1783204833560848600,2.9078486328125,0.3270066795319318,0.0261132231608033,-0.5828881510049104,0.041665930300951,-0.4247706830501556,0.1087910011410713
1783204833570786800,2.917786865234375,0.2579781514912843,0.0302350523311644,-0.3087435853496194,0.1690629720687866,-0.3224040865898132,0.1513184756040573
1783204833580723700,2.9277236328125,0.1762994007140398,0.13852321228832,-0.0358431745365262,0.2707816362380981,-0.2180071175098419,0.1740307062864303
1783204833590660600,2.93766064453125,0.1055512092739343,0.283698502876982,0.2130631972268223,0.3354879319667816,-0.132281869649887,0.1828012466430664
1783204833600598500,2.9475986328125,0.0581838934212923,0.3418148840200156,0.3938768604949116,0.3729008436203003,-0.0593099296092987,0.1869118362665176
1783204833610535700,2.95753564453125,0.0215957457363605,0.3364099562365562,0.517815082591772,0.3828372359275818,-0.0031698732636868,0.1840122938156128
1783204833620473600,2.9674736328125,-0.0225210438877344,0.2787720062602311,0.6461679062604904,0.3694127798080444,0.0282706059515476,0.1675132066011428
1783204833630410500,2.977410400390625,-0.0649725306481122,0.3418031205169856,0.6866369870319962,0.3356508314609527,0.0331631563603878,0.144770398736
1783204833640348400,2.987348388671875,-0.0596814385026693,0.3237359872981906,0.7153717908680438,0.2920306622982025,0.0306105148047208,0.1337046921253204
1783204833650285600,2.99728564453125,-0.0551607462078332,0.2692675342034548,0.7351999424099922,0.2436156272888183,0.0321403704583644,0.1260125190019607
1783204833660222500,3.007222412109375,-0.0789800132125616,0.2597254335500299,0.7808478871241211,0.1988598704338073,0.0578095167875289,0.1118855252861976
1783204833670160600,3.01716064453125,-0.1200339081346988,0.2519779612284153,0.8128817325055598,0.144030824303627,0.090747520327568,0.0974081084132194
1783204833680097500,3.02709765625,-0.1110445459932088,0.2682913826476782,0.8240078144147992,0.0897673219442367,0.1162813752889633,0.0767691433429718
1783204833690035500,3.037035400390625,-0.1355845284879207,0.2899092671506106,0.7859352733910083,0.0188681613653898,0.1286193281412124,0.061196357011795
1783204833699972600,3.04697265625,-0.2035422124266624,0.2531904057580977,0.7107213347136974,-0.0476703830063343,0.1293490380048751,0.0415115989744663
1783204833709910500,3.05691064453125,-0.2454331426948308,0.1971787418093532,0.599642301928997,-0.1069964691996574,0.1165609806776046,0.0223199892789125
1783204833719847400,3.066847412109375,-0.2079571062594652,0.1722729216769337,0.4420920253485441,-0.1495860069990158,0.0969502627849578,0.0016842202749103
1783204833729784600,3.07678466796875,-0.1295516780644655,0.19960918382667,0.3328746947824955,-0.1800728291273117,0.0676971971988678,-0.01394625287503
1783204833739722500,3.086722412109375,-0.0625812515974044,0.2315517707280814,0.2276899807333946,-0.1905707567930221,0.043472547084093,-0.026731289923191
1783204833749659600,3.09665966796875,0.0124140758931636,0.2655794933404773,0.0757502375110983,-0.1706503182649612,0.0353338718414306,-0.0313846878707408
1783204833759597600,3.10659765625,0.1124848079293966,0.2503837508395314,-0.0272597628474235,-0.1273606419563293,0.0489295721054077,-0.0234442073851823
1783204833769534500,3.116534423828125,0.1562684200763702,0.2537475281842052,-0.0431762939035892,-0.0836126506328582,0.0747602060437202,-0.0157766081392765
1783204833779472600,3.12647265625,0.1530167248040437,0.3079309537924826,0.0511632010042667,-0.058368545025587,0.1118535175919532,-0.0092675751075148
1783204833789409500,3.136409423828125,0.1050233860075473,0.3453907697454094,0.1385992001339793,-0.0477966926991939,0.1417940258979797,0.0005849902518093
1783204833799346400,3.146346435546875,0.0577092616468667,0.3728605951469391,0.1882569650113582,-0.0593505464494228,0.1639776229858398,0.0042580221779644
1783204833809284400,3.156284423828125,0.0141746558248996,0.417762689929828,0.2136594095543026,-0.0821459591388702,0.1884635239839553,0.0049405824393033
1783204833819221500,3.166221435546875,-0.0811228704601526,0.467022614596039,0.246807353657484,-0.1165878251194953,0.2104255408048629,0.00027232686989
1783204833829159400,3.176159423828125,-0.1910515641659498,0.5294977024052292,0.1857829761132597,-0.1534348577260971,0.2074936032295227,-0.0114975618198513
1783204833839096600,3.1860966796875,-0.2021709240734577,0.6536942101120948,-0.0077530983448028,-0.1812268048524856,0.1594432443380355,-0.0282922536134719
1783204833849034500,3.196034423828125,-0.1410065535366535,0.8043101573847233,-0.1645546023845672,-0.1983722448348999,0.1075573042035102,-0.0449789352715015
1783204833858971600,3.2059716796875,-0.2112818667680025,0.9295433146629482,-0.1695274223610758,-0.2125967293977737,0.0752180069684982,-0.0727916583418846
1783204833868909600,3.21590966796875,-0.4487263487964868,1.017636170266196,-0.0989934581935405,-0.2197187393903732,0.0675452947616577,-0.1233937442302703
1783204833878846700,3.2258466796875,-0.6119231068313121,1.1078097046010196,-0.1101651328101754,-0.2115838527679443,0.0939348191022872,-0.176188513636589
1783204833888783400,3.235783447265625,-0.6676268738746642,1.0472986834064126,-0.1293985333293676,-0.1988019794225692,0.1185696497559547,-0.2288109362125396
1783204833898721500,3.245721435546875,-0.690576372307539,1.0305253163252026,-0.2109267697200179,-0.1924956142902374,0.1214373409748077,-0.2799497544765472
1783204833908658400,3.255658447265625,-0.6018658231973648,1.0217196401875466,-0.2508858551427722,-0.2055604159832,0.0961414948105812,-0.3238299190998077
1783204833918596600,3.2655966796875,-0.4943424370676278,0.9817352741930632,-0.2656011937156319,-0.2260710150003433,0.0614679381251335,-0.3542623817920685
1783204833928533500,3.275533447265625,-0.3757850312262773,0.9209259276390076,-0.2884785036951303,-0.2454224377870559,0.030265737324953,-0.3805052638053894
1783204833938471700,3.2854716796875,-0.2627308989763259,0.8941466417849063,-0.2881044096857309,-0.2551115453243255,0.0102275814861059,-0.4004866778850555
1783204833948408600,3.29540869140625,-0.1736310582876205,0.8849427601099014,-0.3012140666276216,-0.2541792094707489,0.0071518332697451,-0.414779394865036
1783204833958345500,3.305345458984375,-0.1346282506763935,0.8852941308308392,-0.2794534857183695,-0.2462867051362991,0.0178992860019207,-0.4332367181777954
1783204833968283400,3.315283447265625,-0.1464735867708921,0.8486283147998154,-0.2634294026345014,-0.2308684587478637,0.045112770050764,-0.448056161403656
1783204833978220500,3.325220458984375,-0.1552303092002868,0.7785916326299309,-0.252195476436615,-0.2207883894443512,0.0821528136730194,-0.4724968075752258
1783204833988158500,3.335158447265625,-0.1709393349856138,0.689651731743291,-0.2792769601076841,-0.2136377394199371,0.1067823767662048,-0.4980185329914093
1783204833998095600,3.345095703125,-0.1681511655718088,0.5787131303425878,-0.3130287153229117,-0.2223324477672577,0.1101965457201004,-0.5258997082710266
1783204834008033500,3.355033447265625,-0.1351005443632602,0.4609742012772709,-0.3694032212346792,-0.2429775893688202,0.0919367372989654,-0.5553362965583801
1783204834017970700,3.364970703125,-0.1140583408564329,0.3705765027977526,-0.444477459180355,-0.2688153088092804,0.0633176043629646,-0.5904204845428467
1783204834027907600,3.374907470703125,-0.1008873091161251,0.2827873063161969,-0.4989385326862335,-0.2948770523071289,0.0355781652033329,-0.6333284974098206
1783204834037845500,3.384845458984375,-0.0561474191576242,0.174009353548102,-0.5613955733820796,-0.317725121974945,0.0120139829814434,-0.6668177843093872
1783204834047782400,3.394782470703125,0.013422376152873,0.0527388893557712,-0.6208946410551667,-0.3371933698654175,-0.0085788089781999,-0.6958109736442566
1783204834057720300,3.40472021484375,0.0953162309855222,-0.0726032081896439,-0.688440821583569,-0.3515038788318634,-0.0382389649748802,-0.7195115089416504
1783204834067657500,3.414657470703125,0.1842231794506311,-0.1905819008275866,-0.7588648956358433,-0.3619169592857361,-0.0784111842513084,-0.7260024547576904
1783204834077595400,3.424595458984375,0.3174731275111436,-0.2999249401325359,-0.8479208971828222,-0.3540846109390259,-0.134861946105957,-0.7105454802513123
1783204834087532500,3.434532470703125,0.4785620996117591,-0.3943960620634257,-0.9084498924255372,-0.3354164361953735,-0.1970412284135818,-0.6797151565551758
1783204834097470500,3.444470458984375,0.5760936685591935,-0.4398036221504211,-0.9008835488244892,-0.301532506942749,-0.2442857027053833,-0.6329593658447266
1783204834107407600,3.45440771484375,0.6086643972963094,-0.4659650683671236,-0.8426993631422519,-0.2473376989364624,-0.2714531421661377,-0.5892997980117798
1783204834117344500,3.464344482421875,0.5859346790939569,-0.4642513963170349,-0.7574521062284708,-0.1792071163654327,-0.2703868150711059,-0.5446449518203735
1783204834127282700,3.47428271484375,0.548970099312067,-0.4420866185210645,-0.6683879213750362,-0.0961430147290229,-0.2503794133663177,-0.5092229247093201
1783204834137219300,3.48421923828125,0.5426823973447084,-0.4131329112373292,-0.562027149283886,-0.0100563345476984,-0.2121073901653289,-0.4645340144634247
1783204834147157500,3.494157470703125,0.5241752652734518,-0.3644704410076141,-0.4227402591466903,0.0722412094473838,-0.1725253015756607,-0.4272885918617248
1783204834157094400,3.504094482421875,0.4838876785486936,-0.3089893768042325,-0.3040297085702419,0.1449135392904281,-0.1461067497730255,-0.3882554471492767
1783204834167032600,3.514032470703125,0.4351414755582809,-0.2848275799721479,-0.2001408795505762,0.1979678571224212,-0.1232682019472122,-0.351200133562088
1783204834176969500,3.523969482421875,0.3519499821305275,-0.2696927008129656,-0.0839732914552092,0.2331191897392273,-0.1038553565740585,-0.3283880352973938
1783204834186907600,3.53390771484375,0.2821639137208461,-0.2352699144683778,0.0192722712248563,0.2510856091976166,-0.1017209514975547,-0.3064503669738769
1783204834196844500,3.543844482421875,0.2298568033784628,-0.2443983928196132,0.110922965440154,0.2541330456733703,-0.0984942689538002,-0.2912178635597229
1783204834206781700,3.55378173828125,0.1730219864785671,-0.2300086329393088,0.1943359926640987,0.2570177912712097,-0.0956384986639022,-0.2742878496646881
1783204834216719600,3.5637197265625,0.1132885255277156,-0.1884130323559045,0.2673398540765047,0.254301905632019,-0.0780427306890487,-0.2629960477352142
1783204834226656500,3.573656494140625,0.0275678058832883,-0.1527404286133125,0.3049775108143687,0.2584634721279144,-0.060635644942522,-0.2553912401199341
1783204834236594400,3.583594482421875,-0.0489005167692899,-0.1328726391807198,0.289682034265995,0.2648859620094299,-0.0488988272845745,-0.2606669664382934
1783204834246531600,3.593531494140625,-0.1218172844201326,-0.0980953403100371,0.2656336346805095,0.273730456829071,-0.0429971292614936,-0.2753597497940063
1783204834256469500,3.603469482421875,-0.2095551891058683,-0.0370808996379375,0.2430617373883724,0.2826760411262512,-0.0481242462992668,-0.3088231682777405
1783204834266406700,3.61340673828125,-0.2672685424059629,-0.0163846965571865,0.2497097971007227,0.2933753430843353,-0.0432637445628643,-0.3492830395698547
1783204834276343600,3.623343505859375,-0.2719856340557336,-0.0387875574253499,0.2843845123797655,0.3004023730754852,-0.0342143215239048,-0.3975035548210144
1783204834286281500,3.633281494140625,-0.2064344267368316,-0.0676230451568961,0.3757645729601383,0.2921779155731201,-0.0130814649164676,-0.4343005418777466
1783204834296218600,3.643218505859375,-0.0784200412422418,-0.1248185120627284,0.5045020120322704,0.2566974461078644,0.0076102316379547,-0.4600780606269836
1783204834306156500,3.653156494140625,0.0980465327322483,-0.1968878691039979,0.6106441729366779,0.2034925371408462,0.0241969302296638,-0.4648083746433258
1783204834316093400,3.663093505859375,0.2530091309070587,-0.2673654269091784,0.6773650085568428,0.1264100074768066,0.0272718165069818,-0.4534539878368377
1783204834326031400,3.67303125,0.3701508247315883,-0.3122238286808133,0.7143710893929004,0.0335438251495361,0.0282570496201515,-0.4402395486831665
1783204834335968500,3.682968505859375,0.4559463631778955,-0.3179968591243028,0.7426713012039661,-0.0784447640180587,0.0307593569159507,-0.4158548414707184
1783204834345906400,3.692906494140625,0.5450549716949462,-0.3143313954193145,0.6691907621905208,-0.1899426728487014,0.0318041890859603,-0.3833322525024414
1783204834355843600,3.702843505859375,0.644659839785099,-0.3263778070438653,0.5336734537199139,-0.2969714105129242,0.0220660772174596,-0.3339338004589081
1783204834365780500,3.712780517578125,0.6817208656787872,-0.3051527212508023,0.3526046466469764,-0.3854894638061523,-0.0014302912168204,-0.2845860123634338
1783204834375718700,3.72271875,0.6517196951687335,-0.2404594459354877,0.1404874980986118,-0.4525622427463531,-0.0200899951159954,-0.2368842959403991
1783204834385655600,3.732655517578125,0.5755512322455645,-0.1282463676195591,-0.0810927675828337,-0.4801718294620514,-0.0302526801824569,-0.1932865530252456
1783204834395593700,3.74259375,0.4533037397146224,-0.0107105599109083,-0.3407660325542092,-0.4605145156383514,-0.0270462334156036,-0.163872480392456
1783204834405530400,3.7525302734375,0.2875157961428165,0.0985513404492288,-0.5763038041785359,-0.4030459821224212,-0.0143802622333168,-0.1505841165781021
1783204834415468500,3.762468505859375,0.1074666875064373,0.225585409669578,-0.7996364664852619,-0.3101517260074615,-0.000707060098648,-0.1477100402116775
1783204834425405400,3.772405517578125,-0.0354383931279182,0.3170003223676234,-0.9745520116254688,-0.1985235214233398,0.0096998717635869,-0.1571535170078277
1783204834435343600,3.782343505859375,-0.135740595832467,0.3660627517003565,-1.0907257372006771,-0.0792184472084045,0.0174049288034439,-0.167741447687149
1783204834445280500,3.792280517578125,-0.1843517742663621,0.4224904491040855,-1.1617004308730363,0.0340641699731349,0.010002139955759,-0.1868123412132263
1783204834455217700,3.8022177734375,-0.2002367411404848,0.4563461761504411,-1.174078850930929,0.1350467205047607,-0.0201573595404624,-0.1989390403032302
1783204834465155600,3.812155517578125,-0.1791734948456287,0.4790395809303969,-1.1597530961975455,0.2171734869480133,-0.0684529989957809,-0.2158884555101394
1783204834475092500,3.822092529296875,-0.1621019485354423,0.4887435210820287,-1.061734620516002,0.2786397933959961,-0.1188378781080246,-0.2305350452661514
1783204834485030400,3.832030517578125,-0.1500403393417596,0.4891849081739783,-0.8803203610062599,0.3323338627815246,-0.1474882811307907,-0.2487357556819915
1783204834494967600,3.841967529296875,-0.1410053844928741,0.4361414463810622,-0.6699421650797128,0.3782848417758941,-0.1524201929569244,-0.2628329396247864
1783204834504905500,3.851905517578125,-0.0999976668000221,0.3378103245537728,-0.5013523158296942,0.4182440936565399,-0.1410759389400482,-0.2656545639038086
1783204834514842600,3.861842529296875,-0.0495779776394367,0.2745034620955586,-0.376352601981163,0.4549528360366821,-0.1337652951478958,-0.2666804194450378
1783204834524780500,3.871780517578125,0.0011187748968601,0.2085099909018725,-0.2777516502365469,0.4815214872360229,-0.1306531578302383,-0.2689859569072723
1783204834534717400,3.881717529296875,0.0369850380480289,0.1586348569467663,-0.198591312021017,0.504749059677124,-0.1338433623313903,-0.2721055746078491
1783204834544654600,3.891654541015625,0.0643301410913467,0.1180739331733435,-0.1322746732875704,0.5230491161346436,-0.1314475983381271,-0.2743527591228485
1783204834554592500,3.901592529296875,0.080803136986494,0.0362176338721066,-0.0437412343099713,0.5426004528999329,-0.1317109912633896,-0.2763157784938812
1783204834564529400,3.911529296875,0.0764507869958877,-0.0427976698495447,0.0490258967146277,0.5555654764175415,-0.116571344435215,-0.2779271304607391
1783204834574467300,3.92146728515625,0.059937459090352,-0.1159136133342981,0.1218564473867416,0.5699713230133057,-0.1059852764010429,-0.2843344211578369
1783204834584404500,3.931404541015625,0.065140872952342,-0.2002633368864655,0.165839966019988,0.5876031517982483,-0.0960883051156997,-0.2924303114414215
1783204834594342400,3.94134228515625,0.1168739827990531,-0.2943839283466339,0.1925374188095331,0.5897020101547241,-0.0890809968113899,-0.2979124188423157
1783204834604279600,3.951279541015625,0.1774731206685304,-0.3922065891951322,0.2640320447027683,0.5830740928649902,-0.0803766921162605,-0.2945078313350677
1783204834614217500,3.961217529296875,0.2291875258147716,-0.4993311852656305,0.3746688866779208,0.5645147562026978,-0.0731179788708686,-0.2864799797534942
1783204834624155000,3.97115478515625,0.2935240966469049,-0.5919596384719014,0.4760398876577615,0.5314579010009766,-0.0632198378443718,-0.2680898308753967
1783204834634092800,3.9810927734375,0.3661591247469186,-0.6736898271754383,0.5460562576919794,0.4795608818531036,-0.0613702684640884,-0.2443765103816986
1783204834644029700,3.99102978515625,0.4103109856843948,-0.7243764967091381,0.6195256907895207,0.406303197145462,-0.0777529701590538,-0.2239886820316314
1783204834653966600,4.000966552734375,0.4371002084106206,-0.7863982147276402,0.6958391151413321,0.3221827149391174,-0.0871552601456642,-0.1931117326021194
1783204834663904800,4.01090478515625,0.4735018936127424,-0.8479208971828222,0.7370797648072243,0.240116998553276,-0.0991789847612381,-0.1633379459381103
1783204834673841700,4.020841552734375,0.4854916066139936,-0.8217807860150933,0.7792249620974063,0.1497641950845718,-0.1077018976211547,-0.1294646561145782
1783204834683779800,4.03077978515625,0.4679828379303217,-0.8075941474914551,0.7989286104768514,0.0666293799877166,-0.1093526780605316,-0.0985553711652755
1783204834693716700,4.040716796875,0.4456704683572053,-0.7998559544548391,0.8103016528844833,-0.016169898211956,-0.1000784859061241,-0.0722382813692092
1783204834703654700,4.050654541015625,0.4201227701246738,-0.7606012179091572,0.8155307857096195,-0.0917473584413528,-0.0946795418858528,-0.0426173508167266
1783204834713591800,4.060591796875,0.4080816191971301,-0.6952978478714823,0.8028396464407443,-0.1585604697465896,-0.0840524658560752,-0.0136741176247596
1783204834723529700,4.07052978515625,0.4239285921484231,-0.6329710094265639,0.7312164257317781,-0.2050161212682724,-0.0663501694798469,0.0199738573282957
1783204834733466600,4.080466552734375,0.3666062839925288,-0.5856136304460465,0.605761369331181,-0.2371730059385299,-0.050816748291254,0.0381408780813217
1783204834743403800,4.09040380859375,0.2679816591113805,-0.4993121883042156,0.4640709251835942,-0.2611912488937378,-0.041887067258358,0.0492224022746086
1783204834753341700,4.100341796875,0.1834410891622304,-0.4350222330927848,0.3735761230051517,-0.2859149575233459,-0.0365508906543254,0.0565173327922821
1783204834763278800,4.11027880859375,0.1374877317607402,-0.3812247380621731,0.3094894352808594,-0.3083824515342712,-0.0334347262978553,0.0628348886966705
1783204834773216800,4.120216796875,0.1467997499853372,-0.3282099178418517,0.2586675950601697,-0.3374031782150268,-0.0371956415474414,0.0645984262228012
1783204834783153700,4.130153564453125,0.1664133819937706,-0.2915928363233804,0.2105056216984987,-0.3660051524639129,-0.049877755343914,0.0745454505085945
1783204834793091800,4.140091796875,0.1807873597830533,-0.2461063657812774,0.1541848918005824,-0.390541136264801,-0.0644588246941566,0.088260993361473
1783204834803028500,4.150028564453125,0.1859153703212737,-0.1825276275791227,0.1095069611623883,-0.4093859195709228,-0.0769600719213485,0.0998174175620079
1783204834812966700,4.159966552734375,0.1347007313907146,-0.1172517300702631,0.0710009971573948,-0.41560760140419,-0.0771193280816078,0.1084324717521667
1783204834822903600,4.169903564453125,0.0610141484111547,-0.0762333448529243,0.0435953960984945,-0.4080235660076141,-0.0674835070967674,0.09877210855484
1783204834832840700,4.1798408203125,-0.0163613522142171,-0.0495373533681035,-0.0256096575528383,-0.3913255333900451,-0.0519956275820732,0.0903610587120056
1783204834842778600,4.189778564453125,-0.075687401407957,-0.0431586121164262,-0.0982543302640318,-0.3646509349346161,-0.034672163426876,0.069710224866867
1783204834852715800,4.1997158203125,-0.1009878468811512,-0.0433665557786822,-0.1852642129361629,-0.3404262661933899,-0.0285277180373668,0.0468411296606063
1783204834862653700,4.20965380859375,-0.1174994212210178,-0.0514919945672154,-0.219671509450674,-0.3246002793312073,-0.0265398509800434,0.0237931683659553
1783204834872590800,4.2195908203125,-0.1143774898082017,-0.0827415577031672,-0.2226967024907469,-0.3203914165496826,-0.0266338624060153,-0.0019630605820566
1783204834882528800,4.22952880859375,-0.0721761784166097,-0.1125350768119096,-0.210320328259468,-0.3235921859741211,-0.0302872136235237,-0.0190065372735261
1783204834892465700,4.239465576171875,0.0021568857729434,-0.1600669355764985,-0.2112719298958778,-0.3392392992973327,-0.0356766544282436,-0.035570066422224
1783204834902403600,4.249403564453125,0.0775268917948007,-0.2216783192284405,-0.2277726905807852,-0.3603101074695587,-0.0504648424685001,-0.0412118881940841
1783204834912340700,4.2593408203125,0.1475210499972105,-0.2795212902575731,-0.2555354345142841,-0.3856575191020965,-0.0719712004065513,-0.0380081050097942
1783204834922278700,4.269278564453125,0.2518587918281555,-0.3184314511492848,-0.2819870958492159,-0.4030004441738128,-0.1016469895839691,-0.0206524841487407
1783204834932215800,4.2792158203125,0.3562964869022369,-0.3318098420299589,-0.3042658554136753,-0.4109377264976501,-0.1209842041134834,0.009574394673109
1783204834942152700,4.289152587890625,0.4419558317482471,-0.2921346881151199,-0.3137576141193509,-0.400278240442276,-0.1281606554985046,0.049407310783863
1783204834952090600,4.299090576171875,0.4735141685724258,-0.2333252101413905,-0.2985632598578929,-0.3671282827854156,-0.1180203929543495,0.091126263141632
1783204834962027800,4.30902783203125,0.476012999650836,-0.1438937994107604,-0.3075795100063085,-0.3192103505134582,-0.0988471806049346,0.1348652243614196
1783204834971965700,4.318965576171875,0.4399801477611064,-0.0650435500577092,-0.3521408285275101,-0.2456277161836624,-0.0722927972674369,0.1816931962966919
1783204834981902600,4.328902587890625,0.3942179290175437,0.0217294551186263,-0.4015425728172063,-0.1582629680633545,-0.0385347306728363,0.2238591760396957
1783204834991840500,4.338840576171875,0.3255605723768472,0.1278184245310723,-0.4263587419047951,-0.0560047626495361,-0.0006187730468809,0.253632515668869
1783204835001777700,4.348777587890625,0.2200602165073156,0.244442012765631,-0.4097296786651015,0.0555013827979564,0.042383849620819,0.2768353223800659
1783204835011715600,4.358715576171875,0.1221948855608701,0.3371637702785432,-0.3900666545569896,0.1616395413875579,0.0933146774768829,0.2919282615184784
1783204835021652700,4.36865283203125,0.0571001898378133,0.4108012534193694,-0.3322130160033703,0.2585487365722656,0.1454806178808212,0.3015469908714294
1783204835031590700,4.378590576171875,-0.0410503877907991,0.4690505402270704,-0.2599213945135474,0.3320663571357727,0.190608412027359,0.3020718991756439
1783204835041527800,4.38852783203125,-0.1507587167441844,0.5237886771086603,-0.159545542050898,0.3689362406730652,0.214506983757019,0.2943630218505859
1783204835051464700,4.398464599609375,-0.2212918041288852,0.5736172685083002,-0.0452779423579573,0.3770802021026611,0.2240818589925766,0.2758055627346039
1783204835061403000,4.40840283203125,-0.2799538364559412,0.6094352355383336,0.0387578929394483,0.3606576323509216,0.2233361154794693,0.2540559768676758
1783204835071339500,4.418339599609375,-0.3183849816590547,0.6470611287731677,0.0703252898529172,0.3222812116146087,0.2141636610031128,0.2178772240877151
1783204835081277700,4.428277587890625,-0.3495937743932008,0.6737266520544887,0.0756686967074871,0.2752389311790466,0.1974377483129501,0.1843036264181137
1783204835091214600,4.438214599609375,-0.3827741594612598,0.6887551482297479,0.0774541188195347,0.2165553718805313,0.1714508831501007,0.1451881825923919
1783204835101152800,4.44815283203125,-0.4150520427316427,0.7045515600375831,0.0874643484413623,0.1501113623380661,0.1380196511745453,0.0973079651594162
1783204835111089700,4.458089599609375,-0.4472065918833017,0.7092942245200275,0.058626376491785,0.0827839896082878,0.0969070866703987,0.0411498844623565
1783204835121027600,4.468027587890625,-0.478655623114109,0.6875006181240081,0.0026835399955511,0.0242548640817403,0.0467860773205757,-0.0153454206883907
1783204835130964700,4.47796484375,-0.4995990424215793,0.6351593132510781,-0.0589022708237171,-0.0274983458220958,-0.0056963069364428,-0.0674685463309288
1783204835140902700,4.487902587890625,-0.4845744917690753,0.5884041379474103,-0.1203752689182758,-0.0613194704055786,-0.0579249486327171,-0.1204668581485748
1783204835150839800,4.49783984375,-0.4201917437076568,0.5312507566176354,-0.1894470515787601,-0.0673808231949806,-0.1033970937132835,-0.162332534790039
1783204835160776700,4.507776611328125,-0.3427624670684337,0.4478235547378659,-0.2417237667828798,-0.0434787645936012,-0.1287896633148193,-0.1930373013019561
1783204835170714600,4.517714599609375,-0.2389355973690748,0.352174073209986,-0.2417404256567359,0.00057630892843,-0.1343964189291,-0.2081368863582611
1783204835180651800,4.52765185546875,-0.1119756893634796,0.2673956028517335,-0.194437991733849,0.0548227801918983,-0.1247335597872734,-0.2086430490016937
1783204835190589700,4.537589599609375,-0.0042015433430671,0.1572398954570293,-0.1064379289805889,0.1144687980413436,-0.1079433932900428,-0.1990950852632522
1783204835200526600,4.547526611328125,0.0835609112620353,0.0552178832225501,0.0082055182874202,0.1690866649150848,-0.0828981474041938,-0.1783231347799301
1783204835210464800,4.55746484375,0.1590864001065492,-0.0391601170647889,0.1083519459083676,0.2191887199878692,-0.0570601597428321,-0.152798593044281
1783204835220401700,4.567401611328125,0.1977788265943527,-0.1511706585459411,0.2023494955107569,0.2594309747219085,-0.0321012251079082,-0.1212728172540664
1783204835230339800,4.57733984375,0.2275508645236492,-0.2334422606498002,0.3025979222014546,0.2896599769592285,-0.0068030604161322,-0.0885345786809921
1783204835240276700,4.58727685546875,0.2575578802525997,-0.2958982784323394,0.4192597235545516,0.3124637901782989,0.015548744238913,-0.0588846802711486
1783204835250215000,4.59721484375,0.2506558457791805,-0.3264563521727919,0.5294429765433073,0.3188479244709015,0.0483626164495945,-0.0312541201710701
1783204835260151600,4.607151611328125,0.2246411145567894,-0.345467195982486,0.6198001238167286,0.325653076171875,0.0875806957483291,-0.0038841844070702
1783204835270088700,4.617088623046875,0.1970709705859422,-0.3517319554656744,0.6830342863649129,0.3262773156166076,0.1337074488401413,0.0158913843333721
1783204835280026600,4.627026611328125,0.1471586464256048,-0.3375682594262063,0.7235945525512099,0.3116641938686371,0.171617791056633,0.0242872536182403
1783204835289963800,4.6369638671875,0.0797989283800125,-0.3290552826248109,0.7673407552972435,0.2834533154964447,0.204882800579071,0.0290069095790386
1783204835299901700,4.646901611328125,0.0327963541865348,-0.3232442582584917,0.7678168483763933,0.2404182106256485,0.2284196466207504,0.0220031570643186
1783204835309838800,4.6568388671875,0.0072913260519504,-0.3406492743067443,0.7742775688230991,0.1756317466497421,0.2372810542583465,0.0167010705918073
1783204835319776800,4.66677685546875,0.0067044660747051,-0.3234671072289347,0.785779206046462,0.09959227591753,0.2366805970668792,0.0094746835529804
1783204835329713700,4.676713623046875,0.0250198749661445,-0.2897716122455895,0.7642915968596935,0.0132946707308292,0.2238937020301818,0.0007118182256817
1783204835339651600,4.686651611328125,-0.0112859486460685,-0.2483889237605035,0.7304492407515645,-0.0766505524516105,0.205265387892723,-0.0201061572879552
1783204835349588700,4.696588623046875,-0.0702910953223705,-0.1864494771979749,0.6730643887534737,-0.155336856842041,0.1965376734733581,-0.0416569858789444
1783204835359526700,4.706526611328125,-0.1016261447846889,-0.1751027382753789,0.5727218540385365,-0.2093995511531829,0.2023505568504333,-0.0626914352178573
1783204835369463800,4.7164638671875,-0.087287822830677,-0.2124362975001335,0.4197819938629865,-0.2542615830898285,0.2114745527505874,-0.0833194851875305
1783204835379400700,4.726400634765625,-0.0623830986768007,-0.2313251223653555,0.3111237584844231,-0.2822524309158325,0.2039678990840912,-0.0960624068975448
1783204835389338600,4.736338623046875,-0.0149316116720438,-0.2196354152239858,0.217963244228065,-0.3091351687908172,0.1896102726459503,-0.1070878952741622
1783204835399275800,4.74627587890625,0.0464525390952825,-0.2269333171471953,0.1233919863909482,-0.3253379464149475,0.1722518056631088,-0.1114549189805984
1783204835409213700,4.756213623046875,0.123248778527975,-0.2404723054170608,0.068309566116333,-0.3375184535980224,0.1565418094396591,-0.1083901524543762
1783204835419150600,4.766150634765625,0.1701642589598894,-0.2657590146258473,0.0427449167490005,-0.340912401676178,0.1543255448341369,-0.0917374193668365
1783204835429088500,4.776088623046875,0.2156090823173523,-0.271175486716628,0.0044584407135844,-0.329959899187088,0.1563684344291687,-0.0707112327218055
1783204835439025700,4.786025634765625,0.2514770990341902,-0.2607178055882453,-0.0250946937680244,-0.317524254322052,0.1567989289760589,-0.050236202776432
1783204835448963600,4.795963623046875,0.2594330264747143,-0.244375450335443,-0.0615910715162754,-0.2952189445495605,0.1719296723604202,-0.0310350786894559
1783204835458900700,4.805900634765625,0.2558984226077795,-0.190506497503817,-0.1025689785927534,-0.2633706331253052,0.1926569640636444,-0.0137983877211809
1783204835468838700,4.815838623046875,0.2410059739023446,-0.1586744583047926,-0.1383671449437737,-0.2269873023033142,0.218353271484375,0.0016910904087126
1783204835478775800,4.82577587890625,0.2191091993927955,-0.1392092948563396,-0.1692278548926115,-0.2021125853061676,0.2457679808139801,0.0149334901943802
1783204835488712700,4.835712646484375,0.1811930179744958,-0.1077192009627819,-0.215260707271099,-0.1841721981763839,0.2581159770488739,0.0148216383531689
1783204835498651000,4.84565087890625,0.146969845855236,-0.0752791128680109,-0.249530348880589,-0.1859723478555679,0.2627802193164825,0.0093735950067639
1783204835508587500,4.85558740234375,0.1341910283029079,-0.0675647390983998,-0.2660480607002973,-0.2020101696252823,0.2512979805469513,0.0008594698738306
1783204835518525700,4.865525634765625,0.1368120244562626,-0.0677959175057709,-0.3074149670943618,-0.2440096735954284,0.2148275226354599,-0.0134518817067146
1783204835528462600,4.875462646484375,0.1317670160263776,-0.0636380671739578,-0.3625131694599985,-0.2930451333522796,0.1634306460618972,-0.0267122946679592
1783204835538400800,4.88540087890625,0.1513280410647392,-0.0893503083184361,-0.4501064049780368,-0.3430030047893524,0.0994683057069778,-0.0333767384290695
1783204835548337700,4.895337646484375,0.1751233426719904,-0.1036386536508798,-0.5574515119314193,-0.3755294978618622,0.0275030378252267,-0.0300017166882753
1783204835558275600,4.905275634765625,0.190168936112523,-0.0996849475890398,-0.6316372766047715,-0.3903991281986236,-0.0401021353900432,-0.0192103646695613
1783204835568212700,4.915212646484375,0.2129781492918729,-0.0740333505906164,-0.6962853976041078,-0.3726797997951507,-0.0965590178966522,0.0018456513062119
1783204835578150700,4.925150634765625,0.2555518011271953,-0.0110492172807455,-0.7535884165376424,-0.323230504989624,-0.1311049610376358,0.0364558808505535
1783204835588087800,4.935087890625,0.2629208685904741,0.0783813166670501,-0.7572504461765289,-0.2372838854789734,-0.1382555514574051,0.0704551339149475
1783204835598024700,4.945024658203125,0.2670692204415798,0.1848850043602287,-0.7278881580919027,-0.127478152513504,-0.108464814722538,0.1094630658626556
1783204835607962600,4.954962646484375,0.2312859593987464,0.2680503404334187,-0.6741589059919119,0.0044756131246685,-0.060001403093338,0.1484613269567489
1783204835617899800,4.964899658203125,0.1754810700684785,0.3760199359606951,-0.6478492834761739,0.1413591802120208,-0.0079219602048397,0.1833847165107727
1783204835627837700,4.974837646484375,0.0894341872096061,0.4453890210673212,-0.6053571724444627,0.2657040357589721,0.0390330292284488,0.2045145034790039
1783204835637774600,4.984774658203125,-0.0441524454593658,0.5099141002088785,-0.4827098669409752,0.360532134771347,0.0845882371068,0.2081241160631179
1783204835647712800,4.994712646484375,-0.1808393822312355,0.6158965405069291,-0.3351081529229879,0.4297050833702087,0.1187619194388389,0.1912098526954651
1783204835657649700,5.004649658203125,-0.2487169866710901,0.6571632013969123,-0.2444417935699224,0.4845012128353119,0.1572276055812835,0.1712596416473388
1783204835667587800,5.014587890625,-0.2766331676006317,0.6455306312702596,-0.1698947943687438,0.507240891456604,0.1846650838851928,0.1499210596084594
1783204835677524500,5.0245244140625,-0.3239771025776863,0.6537894871801138,-0.067675359866023,0.5015847086906433,0.1985433399677276,0.1140461042523384
1783204835687462700,5.034462646484375,-0.3845873463630676,0.6586302052095532,0.0170984343171119,0.4654631912708282,0.1971273422241211,0.0615227073431015
1783204835697399600,5.044399658203125,-0.4171621667534113,0.6261791573293507,0.08496960901618,0.4043477773666382,0.1820113658905029,0.0089472364634275
1783204835707336700,5.054336669921875,-0.4432236597269773,0.5862576274380088,0.1148632274985313,0.3208430409431457,0.1489372998476028,-0.0497509650886058
1783204835717274600,5.064274658203125,-0.4330880501598119,0.546469953059405,0.1440206406608223,0.2192428857088089,0.1089635640382766,-0.1085681691765785
1783204835727211800,5.074211669921875,-0.400963311624527,0.4764466418277472,0.16006401296705,0.1108682006597518,0.0529263950884342,-0.1671121716499328
1783204835737149700,5.084149658203125,-0.3304273016303777,0.4135883999198675,0.1624491545379161,0.0019537070766091,0.0008675088174641,-0.215309739112854
1783204835747086800,5.0940869140625,-0.2327437569916248,0.3619233868733048,0.1625777493536472,-0.0956929549574852,-0.0446150191128253,-0.2505124509334564
1783204835757024800,5.104024658203125,-0.0908165814787149,0.3345028805062174,0.151585815218091,-0.1660754978656768,-0.0758168250322341,-0.2649238407611847
1783204835766961700,5.113961669921875,0.0605272416770458,0.2697380012594163,0.0759632957398891,-0.1897416859865188,-0.0830731391906738,-0.253702849149704
1783204835776899600,5.123899658203125,0.1733165855109691,0.2089801656968891,-0.0114651046052575,-0.1813821792602539,-0.0753070265054702,-0.224346250295639
1783204835786836700,5.133836669921875,0.2085427971929311,0.2249061952337622,-0.0342372006446123,-0.1618995517492294,-0.0566768757998943,-0.1978078484535217
1783204835796773600,5.143773681640625,0.1884036800056696,0.274423528727144,-0.0462491254776716,-0.1290820688009262,-0.0354001075029373,-0.1779611855745315
1783204835806711600,5.153711669921875,0.1570879197657108,0.317404300058633,-0.0491962848454713,-0.0901423841714859,-0.0051223649643361,-0.1615673005580902
1783204835816648700,5.163648681640625,0.1218149463325738,0.3563455867409706,-0.0824830528974533,-0.0495559871196746,0.0271584708243608,-0.1544309854507446
1783204835826586600,5.173586669921875,0.0600181231111288,0.3501867718502879,-0.1175280627936124,-0.0184388160705566,0.0386212468147277,-0.1548709422349929
1783204835836523800,5.183523681640625,-0.0197147542953491,0.3177414230585098,-0.1582744992017745,-0.0040957489982247,0.0271621085703372,-0.1602935045957565
1783204835846461700,5.193461669921875,-0.058889411342144,0.2714462664820253,-0.1773036093205213,-0.0016594883054494,-0.0016785934567451,-0.1588447540998459
1783204835856398600,5.203398681640625,-0.062930795687437,0.2529879419885575,-0.1767728634446859,-0.0038187792524695,-0.0271013956516981,-0.1657005250453949
1783204835866336500,5.21333642578125,-0.1026525652229785,0.2141841640807688,-0.1329974346041679,-0.0092969024553895,-0.0351388156414032,-0.1763254702091217
1783204835876273700,5.223273681640625,-0.1505997267901897,0.2114905410826206,-0.0883604204982519,-0.0190744660794734,-0.0312657356262207,-0.1969004869461059
1783204835886210600,5.23321044921875,-0.1885030487269163,0.180552966505289,-0.0391997914880514,-0.0351048335433006,-0.0295951329171657,-0.2290472388267517
1783204835896148700,5.243148681640625,-0.188809338197112,0.1307464408069849,-0.021346739411354,-0.0593335703015327,-0.0266939029097557,-0.2610251605510711
1783204835906085600,5.253085693359375,-0.1293015026956796,0.0309285144880414,-0.0293792392194271,-0.0936302840709686,-0.0341251865029335,-0.2991701364517212
1783204835916023800,5.26302392578125,-0.089294486477971,-0.0318504516385495,0.0031222236737608,-0.1324250400066375,-0.0349724888801574,-0.330748975276947
1783204835925960400,5.27296044921875,-0.019369886380434,-0.1805377689361572,0.038827451044321,-0.1868030577898025,-0.0432671755552291,-0.3536351323127746
1783204835935898600,5.282898681640625,0.1448684896618127,-0.2909047079287469,0.0113239425688982,-0.2426217496395111,-0.0554523356258869,-0.3571868538856506
1783204835945835500,5.29283544921875,0.3289578135997056,-0.391156057228893,-0.0236225753888487,-0.3068861961364746,-0.0754020810127258,-0.3484008312225342
1783204835955773700,5.302773681640625,0.4780173252105713,-0.5081774856746196,-0.0893278042256832,-0.3705669939517975,-0.1018757745623588,-0.3230427503585815
1783204835965710600,5.312710693359375,0.5574181941837072,-0.6342632411941885,-0.1766074437499046,-0.4218871593475342,-0.1322491317987442,-0.2902496457099914
1783204835975647700,5.322647705078125,0.6085019002109766,-0.6793139506675303,-0.2693354118078946,-0.4717218577861786,-0.1652077138423919,-0.2572625279426574
1783204835985585700,5.332585693359375,0.6286988850653171,-0.7160954289674758,-0.3854740660697222,-0.491754412651062,-0.1972327679395675,-0.2202043682336807
1783204835995522800,5.342522705078125,0.6007914719641209,-0.7421700736835598,-0.518909892091155,-0.4924351274967193,-0.2364149540662765,-0.1798776090145111
1783204836005460700,5.352460693359375,0.55198564774096,-0.750105542857945,-0.6870955444544553,-0.4664508998394012,-0.2809099555015564,-0.14083993434906
1783204836015397600,5.362397705078125,0.5030377846986055,-0.7102708144672215,-0.8009913882255554,-0.4099498391151428,-0.3188369572162628,-0.1061989814043045
1783204836025335600,5.37233544921875,0.4317752139955759,-0.6461345885127783,-0.8805795964643358,-0.3202335238456726,-0.3415574431419372,-0.0788712203502655
1783204836035272700,5.382272705078125,0.3471756073355674,-0.5956406650722027,-0.8940747455924749,-0.1979690194129943,-0.3408307731151581,-0.0510796196758747
1783204836045209600,5.392209716796875,0.2839846994072199,-0.5295522821366787,-0.876867882464826,-0.055917352437973,-0.3249375522136688,-0.0267353989183902
1783204836055147500,5.4021474609375,0.2499421445518732,-0.4551595967143774,-0.8110445802062749,0.0999107509851455,-0.2808206081390381,-0.0003124948125332
1783204836065084700,5.412084716796875,0.3000181348413229,-0.3762203539036214,-0.7063777525514364,0.2570713460445404,-0.2275166362524032,0.038023442029953
1783204836075022600,5.422022705078125,0.3977455186218023,-0.291493905993551,-0.5811942065685987,0.3969864249229431,-0.1737157106399536,0.0869158878922462
1783204836084959700,5.431959716796875,0.4935755443483591,-0.2167638053104281,-0.4176514115750789,0.510865330696106,-0.139183834195137,0.1503435969352722
1783204836094897700,5.441897705078125,0.5173205770730972,-0.1575761416740715,-0.2437456279993057,0.5946537852287292,-0.1064939498901367,0.2061997801065445
1783204836104834600,5.45183447265625,0.4765279634356498,-0.0648018502563238,-0.0616959931954741,0.650040864944458,-0.0771046355366706,0.254476249217987
1783204836114771700,5.461771728515625,0.4158399782389402,0.0126627899572253,0.071724342995882,0.6933789253234863,-0.0365031585097312,0.2967690825462341
1783204836124709600,5.471709716796875,0.3463742278248071,0.081116440719366,0.1682955424785614,0.7316551804542542,0.0058967596851289,0.3260808885097503
1783204836134646500,5.481646484375,0.2226303592562675,0.1393871356412768,0.2022171013027429,0.7574408650398254,0.0402985364198684,0.3393749892711639
1783204836144584700,5.491584716796875,0.1133317801475524,0.1472827111966907,0.2561886377260088,0.7596928477287292,0.0727491527795791,0.3412056267261505
1783204836154521600,5.501521484375,0.0269359377205371,0.2069037978142499,0.3018704847097396,0.7380358576774597,0.0811255872249603,0.3403563499450683
1783204836164459800,5.511459716796875,-0.0552881719797849,0.2312437276922166,0.338701793500781,0.6893730163574219,0.068650797009468,0.332754373550415
1783204836174396700,5.521396728515625,-0.1268126084893941,0.2640247381791472,0.3802694831639528,0.6209474802017212,0.0288981422781944,0.3080792129039764
1783204836184333600,5.53133349609375,-0.2103244199126958,0.2733848333291709,0.4081704665243625,0.5430175065994263,-0.0008275299333035,0.2797306478023529
1783204836194271500,5.541271484375,-0.3162485541522503,0.2807889721058308,0.4957642865642905,0.4640244245529175,-0.0291016809642314,0.239504724740982
1783204836204208600,5.551208740234375,-0.4151028961360454,0.2910175206534564,0.5392053688839078,0.3947899639606476,-0.0453688018023967,0.186065211892128
1783204836214146600,5.561146484375,-0.473041874885559,0.263472218862921,0.5561851452574134,0.3337791264057159,-0.0544568784534931,0.1301409304141998
1783204836224083700,5.571083740234375,-0.4990343942761421,0.2335645718552172,0.5261114940330386,0.2788048386573791,-0.0685026571154594,0.0666098892688751
1783204836234020600,5.5810205078125,-0.4974135150760412,0.208301535782963,0.5089247969105839,0.236898735165596,-0.0916604325175285,0.012155975215137
1783204836243958800,5.590958740234375,-0.4628127418160438,0.1435857563748955,0.5137918184250593,0.1983987540006637,-0.1081395372748375,-0.0315797887742519
1783204836253895700,5.600895751953125,-0.3997966059327125,0.0802390733629465,0.568095655542612,0.1726738512516021,-0.1060179248452186,-0.0698194429278373
1783204836263833900,5.610833740234375,-0.3146644998311996,0.027755875801295,0.6383052100613713,0.1553547829389572,-0.0851717591285705,-0.0953378528356552
1783204836273770500,5.6207705078125,-0.194842773142457,-0.0228613817580044,0.7333209967955947,0.143537238240242,-0.0516886487603187,-0.1114912778139114
1783204836283708700,5.630708740234375,-0.0926110636800527,-0.0800290838740766,0.8029083277627825,0.1317857801914215,-0.0119223278015851,-0.1137701421976089
1783204836293645600,5.6406455078125,0.0099836338758468,-0.1496396495863795,0.8410831601172685,0.1165983751416206,0.0226960200816392,-0.1090636104345321
1783204836303582700,5.650582763671875,0.0868880098581314,-0.2141759807743132,0.8617471779614686,0.0940693616867065,0.0432055555284023,-0.1008051484823226
1783204836313520600,5.660520751953125,0.1181932487040758,-0.3273638224065303,0.8636036194831133,0.0592809244990348,0.0642572790384292,-0.0845660343766212
1783204836323457800,5.670457763671875,0.1194967325180769,-0.4322957307383417,0.854618348994851,0.0231567434966564,0.0762010216712951,-0.0763800144195556
1783204836333395700,5.680395751953125,0.1176893908351659,-0.5156362772479653,0.8467068452179431,-0.02244708314538,0.0794208124279975,-0.0649265199899673
1783204836343332900,5.690332763671875,0.1125298161149025,-0.5743710825502872,0.8226561075448989,-0.0637457892298698,0.0883261561393737,-0.0538973100483417
1783204836353269500,5.70026953125,0.1200263093501329,-0.607428718021512,0.8001505534872412,-0.095624916255474,0.1010758876800537,-0.0430456101894378
1783204836363207700,5.710207763671875,0.1501847162485122,-0.6221952022597194,0.7686702503353356,-0.1176830753684043,0.1343302428722381,-0.0364907719194889
1783204836373144600,5.72014453125,0.2082873611271381,-0.6142682086527347,0.7636720036566257,-0.1410709917545318,0.1699534654617309,-0.0226311739534139
1783204836383082800,5.730082763671875,0.2479758129149675,-0.6033183600932359,0.7459346869140863,-0.179876446723938,0.2016962170600891,-0.0126400589942932
1783204836393019600,5.74001953125,0.2595224583238363,-0.6050184420093894,0.7107327328905463,-0.2312268018722534,0.2088363021612167,-0.0017531766789034
1783204836402956800,5.749956787109375,0.2634504454225301,-0.6059897712595761,0.674979282464087,-0.2927319705486297,0.2113886773586273,0.0041808784008026
1783204836412894700,5.759894775390625,0.2460562430292368,-0.5958185058571398,0.5832046696081757,-0.3618844449520111,0.214563637971878,0.0039384728297591
1783204836422831900,5.769831787109375,0.2254202822357416,-0.6030524026334285,0.4821706454977393,-0.434137612581253,0.2028880715370178,0.0053334357216954
1783204836432769500,5.77976953125,0.2202034243702888,-0.6020813656441867,0.3617907004043459,-0.5045711994171143,0.1820438951253891,0.0040123593062162
1783204836442706700,5.789706787109375,0.179036716723442,-0.5714730230212212,0.2204693818300962,-0.5667070150375366,0.157393142580986,-0.0063763656653463
1783204836452643600,5.7996435546875,0.1009632969617843,-0.5001954008795321,0.0521375989943742,-0.6072513461112976,0.1251309514045715,-0.0234449487179517
1783204836462581800,5.809581787109375,0.0677957713752984,-0.4493772139206528,-0.112439215222001,-0.6324565410614014,0.0982293039560318,-0.0383381433784961
1783204836472518700,5.8195185546875,0.0753869571566581,-0.4445515473298728,-0.2245996135026216,-0.6409057378768921,0.0694087222218513,-0.0474878177046775
1783204836482456600,5.82945654296875,0.0706383013248443,-0.3868414089001715,-0.3235740747347473,-0.6348018050193787,0.0375301539897918,-0.0608811229467392
1783204836492393700,5.839393798828125,0.0688724606961011,-0.3394379988208413,-0.4088698469653725,-0.6123310923576355,0.0104197971522808,-0.0677258893847465
1783204836502330600,5.84933056640625,0.0556669421643018,-0.3103441524140536,-0.4867965517327189,-0.566266655921936,-0.006937887519598,-0.0757081806659698
1783204836512268500,5.8592685546875,0.0627478403359651,-0.2613433901406824,-0.5326090393587947,-0.5139312744140625,-0.0054464596323668,-0.0829612463712692
1783204836522205700,5.869205810546875,0.1280693305522203,-0.2283830775640905,-0.5169511592388153,-0.4534882009029388,0.0026671269442886,-0.077035441994667
1783204836532143600,5.8791435546875,0.2127192060947418,-0.2138235140748322,-0.4607259986698627,-0.4037287533283233,0.0194771792739629,-0.0597103387117385
1783204836542080800,5.889080810546875,0.3017547493755817,-0.1900321579903364,-0.4236450990319251,-0.3606545031070709,0.0203291252255439,-0.0342960581183433
1783204836552017700,5.899017578125,0.3929705593049526,-0.1662939933978021,-0.4249456602364778,-0.3220388889312744,0.0154213029891252,-0.0004255883395671
1783204836561955600,5.90895556640625,0.467249262958765,-0.1499175897449255,-0.440764283876121,-0.2823346257209778,0.0061367242597043,0.0434835441410541
1783204836571892700,5.918892822265625,0.5037859727174043,-0.1162589196406304,-0.426487628981471,-0.2396364361047744,0.0086888317018747,0.0856669545173645
1783204836581829600,5.92882958984375,0.4838222120970487,-0.0718488461583852,-0.4116200224563479,-0.1877258419990539,0.0178088266402483,0.1347202509641647
1783204836591767600,5.938767578125,0.4618231462568044,-0.0260550632327795,-0.3980059231236577,-0.1335331499576568,0.0448965765535831,0.1773363649845123
1783204836601704700,5.94870458984375,0.4332219056725502,-0.0007753682866692,-0.3945703957170248,-0.0776794776320457,0.0680708736181259,0.2156816273927688
1783204836611642600,5.958642578125,0.3861877672970294,0.0422507034912705,-0.379312328569591,-0.0263885185122489,0.0903432741761207,0.2479943931102752
1783204836621580300,5.968580322265625,0.3400421021938323,0.0859184341736137,-0.3675000179618596,0.0208418443799018,0.1038761213421821,0.2795621752738952
1783204836631517400,5.978517333984375,0.2681073313176632,0.113530225329101,-0.3689887952148914,0.0575399883091449,0.1072237789630889,0.2975140810012817
1783204836641455400,5.988455322265625,0.1787567307382822,0.1522016090288758,-0.3591799333840608,0.09085613489151,0.1049102842807769,0.3109925985336303
1783204836651392300,5.998392333984375,0.0980254899442195,0.1772987870149314,-0.3606722177684306,0.1121590435504913,0.096596822142601,0.3114015161991119
1783204836661330200,6.008330078125,-0.0079921677976846,0.2129183819286525,-0.3372510101705789,0.1213024780154228,0.0704477727413177,0.3001224994659424
1783204836671267300,6.018267333984375,-0.1246124680966138,0.2763517203107476,-0.2905173160463571,0.1190525963902473,0.044190689921379,0.2764017879962921
1783204836681204200,6.028204345703125,-0.2008867294818162,0.3320812063172459,-0.2078746886730194,0.1161966249346733,0.0330485552549362,0.2449200451374054
1783204836691142400,6.038142333984375,-0.2469727733522653,0.3494358804177492,-0.1491416369363665,0.115807369351387,0.0334009826183319,0.2175004929304123
1783204836701079300,6.048079345703125,-0.2588514271944761,0.3513406180605292,-0.1061240407258272,0.1127583160996437,0.035885713994503,0.1857430934906005
1783204836711016400,6.058016357421875,-0.2378057165563106,0.3476810726396739,-0.0694715956330299,0.1148652806878089,0.0352565832436084,0.1574005931615829
1783204836720954400,6.067954345703125,-0.2009340757548809,0.3352075947094708,-0.033980303274095,0.1097054034471511,0.0365149304270744,0.1370021104812622
1783204836730891300,6.077891357421875,-0.1829524288624525,0.3269677357610315,0.010805763913691,0.1016286239027977,0.0395248904824256,0.1174889132380485
1783204836740829200,6.0878291015625,-0.1562555605947971,0.3290405234470963,0.032458500534296,0.0941235646605491,0.0398444682359695,0.0966107919812202
1783204836750766300,6.097766357421875,-0.1155132158398628,0.304004793324694,0.0399342432424426,0.0891042351722717,0.0443722568452358,0.0908433347940445
1783204836760703200,6.107703125,-0.0725701461702585,0.24387049648799,0.0735652946874499,0.0747612491250038,0.0518429577350616,0.084402747452259
1783204836770641400,6.117641357421875,0.0143821610957384,0.2553470723353326,0.0872726252615451,0.0722272917628288,0.0432495884597301,0.0886910855770111
1783204836780578300,6.127578369140625,0.0763549254059791,0.2855854126021266,0.0876841286718845,0.0642817541956901,0.0494776591658592,0.0895395725965499
1783204836790515500,6.137515380859375,0.0852379045635461,0.2795095998197793,0.1001882209360599,0.0593538209795951,0.0510080568492412,0.0892222672700882
1783204836800453400,6.147453369140625,0.121956400629878,0.2630637111272663,0.0777335202828049,0.0598060265183448,0.0381950549781322,0.0958665907382965
1783204836810390300,6.157390380859375,0.1549474006056785,0.2062701760858297,0.0779535927742719,0.0625103265047073,0.0345631949603557,0.1050551980733871
1783204836820328200,6.167328125,0.1701578292191028,0.1227323534384369,0.1442342834115028,0.0603190809488296,0.0474409088492393,0.1384911835193634
1783204836830265300,6.177265380859375,0.2108358765661716,0.0987381682582199,0.2712310162961482,0.0407320782542228,0.0719751492142677,0.1703022420406341
1783204836840202200,6.1872021484375,0.2116606369525194,0.1317476537387818,0.3427335332348942,0.0115201324224472,0.082908496260643,0.1989397406578064
1783204836850140400,6.197140380859375,0.1328296768218279,0.1311854167461395,0.3206581872880458,-0.0264906473457813,0.0648630410432815,0.2120048254728317
1783204836860077300,6.207077392578125,0.0006160860717296,0.1657347520798444,0.2781687066048383,-0.0626257508993148,0.0397638157010078,0.2061842232942581
1783204836870014500,6.217014404296875,-0.1553542278409004,0.1777699116580188,0.276123464512825,-0.0839975029230117,0.0365293771028518,0.1851737052202224
1783204836879952400,6.226952392578125,-0.2812193263471126,0.1793720130924135,0.2997796499103307,-0.0870348364114761,0.0540851987898349,0.1531531810760498
1783204836889889300,6.23688916015625,-0.3913911811590194,0.1762440903302282,0.3101502372771501,-0.0842877179384231,0.0853751301765441,0.1103148236870765
1783204836899826200,6.246826171875,-0.4736632216542959,0.1500407777331769,0.312190803194046,-0.0796144008636474,0.1178342700004577,0.0555783435702323
1783204836909764400,6.256764404296875,-0.4967559279501438,0.1020175552550703,0.2721691739290952,-0.0843364000320434,0.1258991658687591,0.0117494240403175
1783204836919701200,6.266701171875,-0.4758803131818771,0.0299297857742756,0.1921259153991937,-0.0956961065530777,0.1111929342150688,-0.0347674787044525
1783204836929639400,6.276639404296875,-0.4148416148513555,-0.030852161316201,0.1102837907537818,-0.1085738241672515,0.0710622891783714,-0.0790233612060546
1783204836939576300,6.286576416015625,-0.3318406755596399,-0.1094418600369244,0.0754591456100344,-0.1172509342432022,0.0531506650149822,-0.1158663183450698
1783204836949513500,6.296513427734375,-0.2079366479933261,-0.1939366180829703,0.0964174702256917,-0.115745723247528,0.0588197372853755,-0.1391588747501373
1783204836959451400,6.306451416015625,-0.0734054279506206,-0.2795899715796113,0.1330892045408487,-0.1066068112850189,0.0863424390554428,-0.1552134752273559
1783204836969388300,6.31638818359375,0.0324625921875238,-0.362516092069447,0.1680383528470992,-0.108708918094635,0.1107872128486633,-0.1649753898382187
1783204836979325200,6.3263251953125,0.1391074419170617,-0.4070367132540792,0.1614139662712812,-0.1184749975800514,0.125042587518692,-0.1652571558952331
1783204836989263400,6.336263427734375,0.2743623000591993,-0.4523973654594272,0.1325102356091141,-0.1444298475980758,0.1226035207509994,-0.1568885892629623
1783204836999200300,6.3462001953125,0.3955985697209835,-0.4944028620179742,0.0855024007186293,-0.1748064011335373,0.1130153387784957,-0.1407559514045715
1783204837009137400,6.356137451171875,0.4994575881242751,-0.5208437827631831,0.0366407546550035,-0.208310529589653,0.1033171564340591,-0.1067817509174346
1783204837019075300,6.366075439453125,0.5815478423118591,-0.5201951826613396,-0.0139522452458739,-0.2432155311107635,0.086819402873516,-0.0692354440689086
1783204837029012200,6.37601220703125,0.6052104574501515,-0.4600361167095601,-0.0670259560465812,-0.2680132091045379,0.0700168833136558,-0.0273938216269016
1783204837038949400,6.385949462890625,0.5911240644305944,-0.3841537772513926,-0.1280880352526903,-0.2850459814071655,0.0532693266868591,0.0157368704676628
1783204837048887300,6.39588720703125,0.5723252559363842,-0.3119149088621139,-0.1976829650044441,-0.282769501209259,0.0484298467636108,0.0613613538444042
1783204837058824200,6.40582421875,0.4988642984062433,-0.233243596272543,-0.2679012873515486,-0.2649476230144501,0.0385958552360534,0.0957885757088661
1783204837068762400,6.415762451171875,0.3725988024055957,-0.1427042243000119,-0.3736602941572666,-0.2183042913675308,0.0433065965771675,0.1236706748604774
1783204837078699300,6.42569921875,0.2817886506676674,-0.0898955941762775,-0.4570078549295663,-0.1462229043245315,0.06037213280797,0.1456803828477859
1783204837088636400,6.435636474609375,0.2059691473126411,-0.0743036188993603,-0.5389230448111891,-0.0680646523833274,0.072759136557579,0.1619044691324234
1783204837098574300,6.44557421875,0.1325625503182411,-0.0341477687954902,-0.5631166980862617,0.0093622235581278,0.0779637545347213,0.1677381247282028
1783204837108511200,6.45551123046875,0.0583873070389032,-0.0159979987945407,-0.5297349452272058,0.075621522963047,0.0826655477285385,0.1646360456943512
1783204837118448400,6.465448486328125,-0.0135036246955394,-0.022270357062295,-0.4641641564249992,0.1236188784241676,0.0766971334815025,0.1576726734638214
1783204837128386300,6.47538623046875,-0.0613935031175613,-0.0109951490059494,-0.3500754204303026,0.1480860710144043,0.0740357413887977,0.1414693593978881
1783204837138323200,6.4853232421875,-0.0896446150898933,-0.0048725014071911,-0.2127750279352069,0.1509537696838379,0.0672883540391922,0.1256650984287262
1783204837148260400,6.49526025390625,-0.0525900189369916,-0.0108946112409234,-0.1196989770919084,0.1457006633281707,0.0601289048790931,0.1141559183597564
1783204837158198300,6.5051982421875,0.0111585228741168,-0.0379999141789972,-0.0663110857754945,0.1254734098911285,0.0506837368011474,0.1048324555158615
1783204837168135400,6.515135498046875,0.0649286915063858,-0.0826378050677478,-0.0449795439332723,0.1014040261507034,0.0363588482141494,0.1023213565349578
1783204837178072300,6.525072265625,0.1199246025413274,-0.1233315614406019,-0.0114300332918763,0.0652747899293899,0.0127869434654712,0.1022166907787323
1783204837188010200,6.53501025390625,0.15442249994874,-0.1465920255187899,0.0027723873227834,0.0316550061106681,-0.0083581004291772,0.1067855507135391
1783204837197947100,6.544947021484375,0.1714963843464851,-0.1494162160940468,0.024448212558031,0.0037176478654146,-0.0286130383610725,0.1113283708691597
1783204837207884300,6.55488427734375,0.168531104800105,-0.1701601673066615,0.0212818574815988,-0.0118515565991401,-0.0298502668738365,0.1204508394002914
1783204837217822200,6.564822265625,0.1522872414857149,-0.1581231080323457,0.0329185192614793,-0.0177856124937534,-0.0368149653077125,0.1278690695762634
1783204837227759400,6.57475927734375,0.1464665725082159,-0.1215945085149258,0.0223728675886988,-0.0121415089815855,-0.0355093292891979,0.1346211582422256
1783204837237696500,6.584696533203125,0.1382335816919803,-0.0906862330973148,0.024008067575097,-0.0003157425671815,-0.0297004431486129,0.1490416377782821
1783204837247634400,6.594634521484375,0.1099766245007514,-0.059465092338249,0.0285965644091367,0.0142316035926342,-0.0242551825940608,0.1598760485649109
1783204837257571300,6.6045712890625,0.0618757336765527,-0.029052418417856,0.0344938057541847,0.0343994572758674,-0.0180217884480953,0.1684903055429458
1783204837267508200,6.61450830078125,0.0072334583848714,0.0038969343733042,0.034064182165265,0.0505681857466697,-0.0073293801397085,0.1667508482933044
1783204837277446100,6.624446044921875,-0.0414952089488506,0.0337178529456257,0.056571197527647,0.0606122985482215,0.0020958136301487,0.1623243987560272
1783204837287383300,6.63438330078125,-0.0710550654321909,0.0719520142719149,0.1003004491388797,0.0630535408854484,0.0121067091822624,0.153432697057724
1783204837297320400,6.644320556640625,-0.0999964977562427,0.1344409114107489,0.1435597451508045,0.0666450858116149,0.0226898454129695,0.14034965634346
1783204837307258400,6.65425830078125,-0.113278588655591,0.1784195346731692,0.1842921530336141,0.0617575831711292,0.0386316664516925,0.1208914071321487
1783204837317195500,6.664195556640625,-0.1360100604236125,0.2052814573094248,0.2191594682753086,0.0460718311369419,0.0568799115717411,0.1032809913158416
1783204837327133400,6.674133544921875,-0.1053343516528606,0.213984257594496,0.2447942602694034,0.0225783977657556,0.06409452855587,0.0894316211342811
1783204837337070300,6.6840703125,-0.0806049840658903,0.2145438642386347,0.2193164124026894,-0.0187738351523876,0.0497113354504108,0.0692938640713691
1783204837347007200,6.69400732421875,-0.0730067840218544,0.229711695819348,0.1814274112522602,-0.0591241270303726,0.0335963517427444,0.0529817715287208
1783204837356944400,6.7039443359375,-0.042906244790554,0.19939360484723,0.1291913203194737,-0.0949380546808242,0.0232608914375305,0.0387716777622699
1783204837366882300,6.71388232421875,-0.011924831071496,0.2141891325168311,0.0519669186025857,-0.1236478760838508,0.0014240150339901,0.0236683618277311
1783204837376819500,6.7238193359375,-0.0044780221968889,0.2148783203573897,-0.0374792513057589,-0.1528758108615875,-0.0339986905455589,0.0134860314428806
1783204837386757400,6.73375732421875,-0.0129483289003372,0.2228052774317562,-0.1477384921401739,-0.1796516180038452,-0.0777389705181121,0.0046880333684384
1783204837396694500,6.743694580078125,-0.0170867438793182,0.2452908481473103,-0.2195508056804537,-0.1936854124069214,-0.1026656255125999,-0.0041699069552123
1783204837406631200,6.753631103515625,-0.0367038830190896,0.2427058000901713,-0.2372162262305617,-0.2028295546770095,-0.1478257179260254,-0.0264595821499824
1783204837416569300,6.7635693359375,-0.016874562433362,0.2545597578825428,-0.3314849939897656,-0.2162505537271499,-0.1996702700853347,-0.034014169126749
1783204837426506200,6.77350634765625,-0.0242962368667125,0.2472892188902944,-0.3033914106667041,-0.2250567525625229,-0.2414010465145111,-0.0475947856903076
1783204837436443400,6.783443359375,-0.0460650010824203,0.2755062093973159,-0.2778308529525995,-0.2288626730442047,-0.2734425961971283,-0.0558540485799312
1783204837446380300,6.79338037109375,-0.0257177941024303,0.2719858532514423,-0.2395575286597013,-0.2206847071647644,-0.2879254817962646,-0.0610661953687667
1783204837456318500,6.803318359375,0.0023065233767032,0.2783179058171808,-0.2083803001075982,-0.2082911431789398,-0.2947500944137573,-0.0585055649280548
1783204837466255400,6.81325537109375,0.042495910423994,0.273782746605575,-0.1714654046863317,-0.1914298832416534,-0.3081348836421966,-0.0472760796546936
1783204837476192300,6.823192138671875,0.0503653286248445,0.238634166737087,-0.1417491885975003,-0.1764341443777084,-0.3227393925189972,-0.0327434763312339
1783204837486130200,6.833130126953125,0.0089297409087419,0.2254514080263674,-0.108233580225706,-0.1588392853736877,-0.3232260644435882,-0.0290638748556375
1783204837496067300,6.8430673828125,-0.0239712426960468,0.2185490812920033,-0.0588262829780578,-0.1295402497053146,-0.2972576022148132,-0.0213082171976566
1783204837506004200,6.853004150390625,-0.03985504052639,0.1587911434870213,-0.0143570266544818,-0.1009196415543556,-0.2554558217525482,-0.0199244543910026
1783204837515942400,6.8629423828125,-0.0621352613955736,0.1232126112360507,0.0387602310270071,-0.0717945098876953,-0.2046823799610138,-0.0218363385647535
1783204837525879300,6.87287939453125,-0.0701642540723085,0.0914616744492202,0.0900023424863815,-0.0522286556661129,-0.1558835357427597,-0.0242352075874805
1783204837535816400,6.88281640625,-0.0650175388336181,0.0408284156031906,0.1311029991596937,-0.0339828059077262,-0.1093708872795105,-0.0304275900125503
1783204837545754400,6.89275439453125,-0.067175593650341,0.0188274500668048,0.1113677865982055,-0.0183842964470386,-0.0743418112397193,-0.042295154184103
1783204837555691300,6.902691162109375,-0.0867529853016138,0.0028424568843096,0.0863841519892215,-0.0053614377975463,-0.0501368679106235,-0.0541752502322196
1783204837565628400,6.91262841796875,-0.0756979228019714,-0.0317770210761576,0.0739817665338516,0.0067852549254894,-0.0290631540119647,-0.0654048547148704
1783204837575566300,6.92256640625,-0.0356149187386035,-0.0742602546816691,0.083134502543509,0.0128455441445112,-0.0106396730989217,-0.0743432193994522
1783204837585503200,6.932503173828125,0.0129921680420637,-0.119689478611201,0.1026484735697507,0.0080817472189664,0.0020522021222859,-0.0795163884758949
1783204837595440400,6.9424404296875,0.0587134702533483,-0.1413729026310145,0.128590139555931,0.0004517901688814,0.0084693552926182,-0.0809686109423637
1783204837605378300,6.95237841796875,0.1099181723117828,-0.1756293924979865,0.1221738427728414,-0.0033674910664558,0.016149241477251,-0.0792917013168335
1783204837615315500,6.9623154296875,0.1651636741936206,-0.1983428536852821,0.1148717030659318,-0.0054090712219476,0.0300741102546453,-0.0655631050467491
1783204837625252900,6.9722529296875,0.1895575262159109,-0.2020731627874076,0.1485088919907808,-0.0046136835590004,0.0492043569684028,-0.0503597185015678
1783204837635191000,6.98219091796875,0.1853571519166231,-0.1835992023333907,0.1410416248500347,0.000129671767354,0.0647409707307815,-0.0369885191321373
1783204837645128000,6.9921279296875,0.1818576193630695,-0.1756134277438744,0.1228229543313384,0.0040097311139106,0.0775239169597625,-0.0283430349081754
1783204837655064800,7.00206494140625,0.1610188294738531,-0.1538555867809802,0.1241530338913202,0.0075858240015804,0.0918067172169685,-0.0210339892655611
1783204837665002800,7.012002685546875,0.1141454346179962,-0.1423447798704728,0.1383262284114956,0.0149327395483851,0.1029680147767067,-0.0198710188269615
1783204837674940000,7.02193994140625,0.0677671298027038,-0.117376817754656,0.1437561445057392,0.0211730580776929,0.1151093691587448,-0.0212673135101795
1783204837684876800,7.031876708984375,0.043150574940443,-0.0955758683023974,0.1225879765316843,0.0223177596926689,0.1245253756642341,-0.02636687643826
1783204837694814000,7.04181396484375,0.0651806204408407,-0.1186919920064508,0.1437152279734611,0.0193941425532102,0.1273568421602249,-0.0233361981809139
1783204837704751900,7.051751953125,0.0788005649924278,-0.1509254150805994,0.1761822040751576,0.0002524610608816,0.130108967423439,-0.0244805105030536
1783204837714689000,7.06168896484375,0.0722743780940771,-0.1546422071140259,0.2153974853932857,-0.0270662456750869,0.1290594190359115,-0.0298395883291959
1783204837724626000,7.0716259765625,0.0521434442132711,-0.1468666412090882,0.1994695561602711,-0.0610485151410102,0.1248857676982879,-0.0345285683870315
1783204837734563800,7.081563720703125,0.0787076260119676,-0.1691099276013672,0.1518365751087665,-0.0896463319659233,0.112571582198143,-0.0399267971515655
1783204837744501000,7.0915009765625,0.1220370646506547,-0.2007186429059133,0.0730573451653122,-0.114555537700653,0.0975506603717804,-0.0351028889417648
1783204837754438000,7.10143798828125,0.1386672969341278,-0.2100776786100119,0.0008189151674509,-0.1317382603883743,0.085856981575489,-0.033790748566389
1783204837764375800,7.111375732421875,0.1377460904359817,-0.2204430783450603,-0.0549935729473829,-0.1395946145057678,0.078661024570465,-0.0315673872828483
1783204837774313000,7.12131298828125,0.1519406200051307,-0.2241280504681169,-0.1304787297815084,-0.1434319615364074,0.0663676038384437,-0.0296067669987678
1783204837784250000,7.13125,0.1814198124676942,-0.2146659562483429,-0.2089852802634239,-0.1474532932043075,0.0435108244419097,-0.0212142840027809
1783204837794188000,7.14118798828125,0.2130442002654075,-0.2186079718723893,-0.2754974415689706,-0.1438870579004287,0.0118501000106334,-0.0119819045066833
1783204837804125000,7.151125,0.226999075859785,-0.1907522524258121,-0.3446794066056609,-0.1301512420177459,-0.003760150168091,-0.0014659904409199
1783204837814061800,7.161061767578125,0.2419774492830038,-0.1545533963194116,-0.3758350078478455,-0.1066789478063583,-0.0176480039954185,0.0159132666885852
1783204837823999000,7.1709990234375,0.2710369550287723,-0.1145499237656593,-0.3696627489537,-0.0862630903720855,-0.0177972391247749,0.0444100573658943
1783204837833937000,7.18093701171875,0.2897521768927574,-0.0418014253538101,-0.3454208726227283,-0.0684417486190795,-0.0166653953492641,0.0722060054540634
1783204837843874000,7.1908740234375,0.2555453713864088,0.0300578691333532,-0.3164385237663984,-0.0539302378892898,-0.0193684380501508,0.0943619534373283
1783204837853810700,7.200810791015625,0.2360977435946464,0.1125789159536361,-0.2962760257035494,-0.0432810559868812,-0.0148583762347698,0.1162771061062812
1783204837863748900,7.210748779296875,0.1833686084479093,0.1790066503787413,-0.2653404969528317,-0.0251662731170654,-0.0018544923514127,0.1258697509765625
1783204837873685800,7.220685791015625,0.1029249524235725,0.264612109613046,-0.2474035659849643,-0.0026226164773106,0.0220314003527164,0.1274000108242035
1783204837883623000,7.230622802734375,0.0110708445906639,0.3365971128391102,-0.2283595505580306,0.0174702294170856,0.0477447509765625,0.1267227679491043
1783204837893560800,7.240560791015625,-0.0625929420351982,0.3894019070379436,-0.2057365076005458,0.0306747145950794,0.0568232014775276,0.1135518476366996
1783204837903498000,7.250498046875,-0.121380062046647,0.4382391858452931,-0.2205807332500815,0.0271343551576137,0.0471204370260238,0.0900643095374107
1783204837913435000,7.260434814453125,-0.1826034692943096,0.4767813902074471,-0.2590136320188641,0.0178231447935104,0.0250699985772371,0.0668199732899665
1783204837923371800,7.270371826171875,-0.2420405776470899,0.5016381835663691,-0.2800441450878977,0.0127956299111247,-0.0047811088152229,0.0381936579942703
1783204837933309700,7.280309814453125,-0.2945259671658277,0.5116153877014294,-0.2789095881000161,0.0094560254365205,-0.0207558143883943,0.004922523163259
1783204837943246800,7.290246826171875,-0.3095744832158088,0.5278778461184352,-0.2847100910723209,0.0130414934828877,-0.0362718999385833,-0.0282292496412992
1783204837953184000,7.30018408203125,-0.2985311111539602,0.5127889249928296,-0.2773836937069893,0.0160974711179733,-0.0455234535038471,-0.0568100288510322
1783204837963122000,7.310121826171875,-0.2739759310901165,0.481720709773153,-0.2481336338251829,0.0211149752140045,-0.0516021512448787,-0.0794999226927757
1783204837973058800,7.320058837890625,-0.2401256839364766,0.4422076145522296,-0.2239496251612901,0.0312270000576972,-0.0572200901806354,-0.0992573872208595
1783204837982996000,7.329995849609375,-0.1858580871760845,0.4038218063281849,-0.19376462251693,0.0448707640171051,-0.0579374395310878,-0.1187630891799926
1783204837992934000,7.339933837890625,-0.1389858613640069,0.3831003226757049,-0.1747708759725093,0.0551447048783302,-0.0570016019046306,-0.1288966983556747
1783204838002870800,7.349870849609375,-0.0924918212145567,0.3399715577082708,-0.1285875092074274,0.0683676078915596,-0.0587649457156658,-0.1372830718755722
1783204838012808000,7.359807861328125,-0.0776630853950977,0.3108038788802921,-0.0727823276162147,0.0753794461488723,-0.0465327836573123,-0.1436498910188675
1783204838022744800,7.369744873046875,-0.0764805976122617,0.2976397152721882,0.0127817401617765,0.0820488929748535,-0.0305950958281755,-0.1550181061029434
1783204838032683000,7.37968310546875,-0.0646720863968133,0.2512168771954253,0.0620870383396744,0.082441970705986,-0.018565597012639,-0.1640587449073791
1783204838042620000,7.389619873046875,-0.0401677597373724,0.1914874713651835,0.0594569820970296,0.0784523487091064,-0.0177503786981105,-0.1634275168180465
1783204838052557000,7.39955712890625,-0.0081102412194013,0.1603269382195547,0.0657531596317887,0.0689674988389015,-0.0196249783039093,-0.1657583117485046
1783204838062495000,7.409494873046875,0.0219879599243402,0.1160161238607019,0.0909033829793334,0.056909441947937,-0.0273312628269195,-0.1657001674175262
1783204838072431900,7.419431884765625,0.0373965414583683,0.0860577695790678,0.1152387828126549,0.0452184304594993,-0.0290290266275405,-0.1672735512256622
1783204838082368800,7.42936865234375,0.0575040944635868,0.058824967803806,0.1410194130182266,0.0338455401360988,-0.0319271460175514,-0.1615995168685913
1783204838092306000,7.439305908203125,0.0698188016355037,0.0163243812046945,0.1616524512022733,0.0242565628141164,-0.0279931239783763,-0.1579701602458953
1783204838102243800,7.449243896484375,0.0726490566253662,-0.0103649613436311,0.1792766629591584,0.0208765044808387,-0.0251259934157133,-0.1538689285516739
1783204838112181000,7.459180908203125,0.0673585490018129,-0.0361403308521956,0.1890954616621136,0.0192860644310712,-0.0219842623919248,-0.1445297598838806
1783204838122118000,7.469117919921875,0.0375362421900033,-0.0588981791704893,0.1891939536005258,0.0243002623319625,-0.0157010667026042,-0.1473875939846038
1783204838132056000,7.47905615234375,-0.0018400749087333,-0.0635481238681823,0.1807978811770677,0.0321946702897548,-0.003180481493473,-0.1501687318086624
1783204838141992700,7.48899267578125,-0.020005846196413,-0.0656148471396416,0.1946741385772824,0.0434278771281242,0.0110720852389931,-0.1547801047563552
1783204838151929900,7.498929931640625,-0.0249959095686674,-0.0830596837416291,0.2154898398518562,0.0434710197150707,0.0230517834424972,-0.1609192341566085
1783204838161867000,7.508866943359375,-0.0176829562067985,-0.1189203208696097,0.2478141926124691,0.0413782261312007,0.0322090648114681,-0.1711601614952087
1783204838171805000,7.518804931640625,0.0238467395335435,-0.1390388336602598,0.2713379838019609,0.030848354101181,0.036151610314846,-0.1735996156930923
1783204838181742000,7.5287421875,0.0858978297770023,-0.1801293342657387,0.2998123831361532,0.0114104794338345,0.039116732776165,-0.1682575792074203
1783204838191679000,7.538678955078125,0.1338864923983812,-0.2246810812409967,0.3184355428025126,-0.0126980524510145,0.0403050333261489,-0.1617655903100967
1783204838201617000,7.548616943359375,0.1778641658127308,-0.2634122323039919,0.3287450476318597,-0.041460420936346,0.0369969643652439,-0.1530500650405883
1783204838211553800,7.5585537109375,0.2144534825414419,-0.2925574435718357,0.3110392950713634,-0.0683817788958549,0.0301784742623567,-0.1437830626964569
1783204838221491000,7.568490966796875,0.2296878765523433,-0.3185274588696658,0.266636089721322,-0.094007521867752,0.031240401789546,-0.1319467574357986
1783204838231427800,7.578427734375,0.2412725158840417,-0.3465209428191185,0.2188081706196069,-0.1120352521538734,0.0373068153858184,-0.1215995773673057
1783204838241366000,7.588365966796875,0.2440922494798898,-0.3653322454687208,0.1841796325698494,-0.1257150173187255,0.0391637086868286,-0.1083843186497688
1783204838251303000,7.598302978515625,0.2426326983213424,-0.3831287450525909,0.1402715172603726,-0.138420432806015,0.0421203486621379,-0.1012837961316108
1783204838261240000,7.608239990234375,0.2626239314705133,-0.3983163773123174,0.0936640798643231,-0.1411199271678924,0.0420969016849994,-0.0842627063393592
1783204838271178000,7.618177978515625,0.2863040822654962,-0.4187920329775661,0.0405780941039323,-0.144396424293518,0.0350126288831234,-0.0614197142422199
1783204838281115000,7.628114990234375,0.3007102087587118,-0.4220328415296971,-0.0118213706970214,-0.143978014588356,0.0297836530953645,-0.0434206239879131
1783204838291051800,7.6380517578125,0.2930430351316929,-0.4133979919143021,-0.0602513473451137,-0.138610154390335,0.020967524498701,-0.0274536404758691
1783204838300989000,7.647989013671875,0.2620803261131048,-0.3993258466158062,-0.1096022382304072,-0.1259777396917343,0.0149418842047452,-0.0177855249494314
1783204838310926800,7.6579267578125,0.2145171954274177,-0.3756179310310631,-0.1769742312356829,-0.1071792840957641,0.0080221928656101,-0.0118437446653842
1783204838320864000,7.667864013671875,0.1962631613343954,-0.3572606557592749,-0.2159744084984064,-0.0832965224981308,0.004331215750426,-0.0042839255183935
1783204838330801000,7.67780078125,0.1844400370717048,-0.3253976369000971,-0.2493815880596637,-0.0561416037380695,0.0039682267233729,0.0077053597196936
1783204838340739000,7.687739013671875,0.1825648908495903,-0.3086588296756148,-0.2477256375461816,-0.0310127343982458,0.0035520608071237,0.0143766952678561
1783204838350675700,7.69767578125,0.1726075604587793,-0.2877466092240065,-0.2357420620247721,-0.0068309661000967,0.0030639034230262,0.017518425360322
1783204838360612900,7.70761279296875,0.1739373477578163,-0.2695964008316397,-0.1982131263583898,0.006735916249454,0.0035654800012707,0.0237428620457649
1783204838370550000,7.717550048828125,0.1869832918137312,-0.2649114578858018,-0.1686824959695339,0.0115245459601283,-0.005005904007703,0.0349097624421119
1783204838380488000,7.727488037109375,0.1866810939967632,-0.2527994336791336,-0.132305360686779,0.016379103064537,-0.0088558299466967,0.0421122051775455
1783204838390425000,7.737425048828125,0.1868359922975301,-0.2300971880055964,-0.0990203462004661,0.0208095386624336,-0.0088073601946234,0.0516423285007476
1783204838400362000,7.747362060546875,0.1764279955297708,-0.1958803725618869,-0.0516489386945962,0.0213888436555862,-0.0101543944329023,0.0602044016122818
1783204838410299000,7.757298828125,0.1599082378834486,-0.1483454450573772,-0.0005231470912694,0.0231169685721397,-0.0063775009475648,0.0710828825831413
1783204838420236800,7.76723681640625,0.149288059669733,-0.1159600828245282,0.0303290872901678,0.0248988829553127,0.004485439043492,0.0762993767857551
1783204838430174000,7.777174072265625,0.1093131921559572,-0.0800586752947419,0.0289008080527186,0.0205036010593175,0.0045453603379428,0.0809370055794715
1783204838440110800,7.78711083984375,0.0636281303018331,-0.0339692704234272,0.0378451620087027,0.0207316353917121,-0.0042886212468147,0.0813093185424804
1783204838450049000,7.797049072265625,0.0210948104768991,0.0075213354155421,0.0369692559570074,0.0198727659881114,-0.0082591278478503,0.0790128782391548
1783204838459986000,7.80698583984375,-0.0201402862310409,0.0349828313801437,0.0333776612058281,0.0219421070069074,-0.0110622895881533,0.0747383534908294
1783204838469923000,7.816923095703125,-0.0696650723785162,0.0699294224031269,0.0498141244828701,0.0303286667913198,-0.0112529722973704,0.06691824644804
1783204838479859700,7.826859619140625,-0.0924316154599189,0.1119680175136774,0.1011295934394001,0.0319802872836589,-0.0012801415286958,0.0509678274393081
1783204838489798000,7.8367978515625,-0.1046674121767282,0.1227413404624909,0.1310983229845762,0.0321792252361774,0.0058009373024106,0.0379564203321933
1783204838499734800,7.84673486328125,-0.0741372493565082,0.129724112021923,0.1633615932077169,0.0324519574642181,0.0199832152575254,0.0349969677627086
1783204838509672000,7.856671875,-0.0323211378902196,0.1269390844132751,0.2170356079891323,0.0293616242706775,0.0304499696940183,0.032681081444025
