time,seconds_elapsed,ax,ay,az,gx,gy,gz
1783205158312294000,0.0972939453125,-0.368667746566981,0.3303068901211023,-0.1880897917509079,4.24925237894e-05,-0.0012190053239464,0.0259303320199251
1783205158322231000,0.10723095703125,-0.3402174587607383,0.3192924518927931,-0.0427115990012884,-0.0168668180704116,-0.0121837314218282,0.0027970226947218
1783205158332168200,0.117168212890625,-0.2912597319114953,0.2871995698004961,0.0414396793693304,-0.0370788797736167,-0.0106444247066974,-0.0105491429567337
1783205158342104300,0.127104248046875,-0.2205429585229605,0.2844303973481059,0.1451467220813035,-0.0578305833041667,-0.0020901132375001,-0.0263191536068916
1783205158352041000,0.137041015625,-0.1946601100519299,0.2625502817124128,0.2410188333839178,-0.0728755742311477,0.0006012767553329,-0.0409484319388866
1783205158361978000,0.14697802734375,-0.1138425061486661,0.2485293551445007,0.2384410918503999,-0.0861122608184814,0.017236590385437,-0.0507986471056938
1783205158371915000,0.1569150390625,-0.073332801105827,0.2216121221244335,0.336489962670207,-0.1034797951579094,0.0258841402828693,-0.0537385120987892
1783205158381852200,0.16685205078125,-0.0432790236257016,0.1804994827523827,0.3242009744614362,-0.1286517828702926,0.0509029254317283,-0.0589940585196018
1783205158391789300,0.176789306640625,-0.0370619757417589,0.1326338619887828,0.385576941922307,-0.1497251093387603,0.0609273314476013,-0.0635845512151718
1783205158401726000,0.186725830078125,-0.0281336230725049,0.0997773020476102,0.3591998071283102,-0.1819983422756195,0.0795131400227546,-0.0614646561443805
1783205158411663000,0.1966630859375,-0.01905102968961,0.059178457416594,0.4023176488429307,-0.212553858757019,0.0883399173617363,-0.0674839317798614
1783205158421600000,0.20660009765625,-0.0152122552443295,0.0236216986060142,0.3402192123264074,-0.2379370778799057,0.0877848118543624,-0.06403349339962
1783205158431537200,0.216537109375,0.0372183353472501,0.0098012630462646,0.2583370479315519,-0.2584511339664459,0.0941337943077087,-0.0583242066204547
1783205158441474300,0.226474365234375,0.0426715592518448,-0.0184320210084319,0.237055190449953,-0.2770892083644867,0.1113683879375457,-0.0552219301462173
1783205158451411000,0.236410888671875,-0.007569120080024,-0.0641211745157837,0.1662310111641883,-0.2787041366100311,0.1243507638573646,-0.0539952777326107
1783205158461348000,0.24634814453125,-0.0416034185636788,-0.103399584197998,-0.0182809220999479,-0.2620046138763428,0.1252401918172836,-0.0518243089318275
1783205158471285000,0.256284912109375,-0.0437954487152397,-0.1142956567436456,-0.2561941906839609,-0.2295308113098144,0.1082662642002105,-0.049846913665533
1783205158481222100,0.26622216796875,-0.0148860920298844,-0.098666125935316,-0.4598439551383256,-0.1928849965333938,0.0865104794502258,-0.0520145483314991
1783205158491159300,0.2761591796875,-0.0088318334922194,-0.0809904762521386,-0.5726596024572849,-0.1558902263641357,0.0676712766289711,-0.0519570223987102
1783205158501096000,0.286095947265625,-0.0131233201410621,-0.0873746243312954,-0.5914432133823633,-0.1220675334334373,0.0459894798696041,-0.0553480871021747
1783205158511032000,0.296031982421875,-0.0193551272027194,-0.0952235842660069,-0.5952899519383907,-0.0982125326991081,0.0278397724032402,-0.0516947619616985
1783205158520969200,0.30596923828125,-0.0141373925544321,-0.1063540500894188,-0.5472516049563885,-0.0744485408067703,0.0096011264249682,-0.0518357455730438
1783205158530906000,0.315906005859375,0.0233023304585367,-0.1290516195878386,-0.4786906944274902,-0.05744319409132,-0.010130233131349,-0.0461533591151237
1783205158540843000,0.325843017578125,0.0422697004526853,-0.1377180333852768,-0.4258206895053386,-0.0439827963709831,-0.0185803733766078,-0.0386948958039283
1783205158550780200,0.3357802734375,0.0918773425780236,-0.1541279009163379,-0.3276327024757862,-0.0352012887597084,-0.0234323851764202,-0.0266859009861946
1783205158560717000,0.345717041015625,0.1310737730652093,-0.1437120131030678,-0.2149766296327113,-0.030695553869009,-0.0260209292173385,-0.0108187496662139
1783205158570654200,0.355654296875,0.1571347545821219,-0.1479784383758902,-0.1247328796058893,-0.034048207104206,-0.0171502046287059,0.0020757443271577
1783205158580591000,0.365591064453125,0.1611908981051296,-0.1435983235955238,-0.0138975924491882,-0.0420051105320453,-0.0073212697170674,0.0117659140378236
1783205158590528000,0.375528076171875,0.161905329984799,-0.1237871231883764,0.0861439134925603,-0.0474976114928722,-0.0039465124718844,0.022285932675004
1783205158600465200,0.385465087890625,0.1583947645805776,-0.0926335677728056,0.1434708978235721,-0.0530574992299079,-0.0251523256301879,0.0184048619121313
1783205158610402000,0.395402099609375,0.1908176092796027,-0.0248059399545192,0.1050245550513267,-0.0767804011702537,-0.0090098418295383,0.0242614187300205
1783205158620339200,0.405339111328125,0.1592158717051148,-0.0274520705491304,0.3445779920578002,-0.1086150929331779,-0.0233906656503677,0.025320753455162
1783205158630276000,0.415276123046875,0.1371633221119642,-0.0407607571944594,0.3589753507226705,-0.1572145819664001,-0.0004560546949505,0.0338370092213153
1783205158640213000,0.425212890625,0.1812268471788614,-0.0286325125053524,0.5001449858665467,-0.2015620172023773,-0.0304606072604656,0.038525465875864
1783205158650150100,0.435150146484375,0.1634044094361364,-0.018564122955501,0.4659983861148357,-0.2357202619314193,-0.0733795762062072,0.0154771395027637
1783205158660087000,0.445087158203125,0.227347012514621,0.1112935523182153,0.3437695982843637,-0.2707896828651428,-0.0623161196708679,0.037714809179306
1783205158670024200,0.455024169921875,0.1863219052955508,-0.0008308978661894,0.4601145887732505,-0.3040269911289215,-0.0086733978241682,0.0568991601467132
1783205158679961000,0.464961181640625,0.0690111385144293,-0.0871601047977805,0.4926777187258004,-0.3391146063804626,0.0531765483319759,0.0751993656158447
1783205158689898000,0.47489794921875,-0.0789998138915747,-0.1188563887879252,0.4014847051501274,-0.35828298330307,0.1223271191120147,0.0885934680700302
1783205158699835100,0.484835205078125,-0.1676088023234158,-0.1047030680119991,0.2039227361768484,-0.3529872894287109,0.1428222507238388,0.1014390513300895
1783205158709772000,0.49477197265625,-0.1591905911333858,-0.0766202983438968,-0.1733995876193046,-0.3210320174694061,0.1153621450066566,0.0943438559770584
1783205158719709200,0.504709228515625,-0.1380467538829893,0.0386459569975733,-0.5454086074382066,-0.2743455469608307,0.0895137637853622,0.0830156654119491
1783205158729646000,0.51464599609375,-0.1426824508596211,0.1301017131626606,-0.7487655264258384,-0.2177205979824066,0.066033199429512,0.0648854002356529
1783205158739583000,0.5245830078125,-0.1882940821513533,0.1344347739309072,-0.8273580016255379,-0.1612273901700973,0.0348450057208538,0.0491401627659797
1783205158749520100,0.53452001953125,-0.218276547960937,0.1150078966662287,-0.8849959516018628,-0.099308893084526,-0.0055727255530655,0.0325092524290084
1783205158759456300,0.544456298828125,-0.2099307444199919,0.1180783901527524,-0.9147136289954184,-0.0501200668513774,-0.021654101088643,-0.0002893963828682
1783205158769393200,0.55439306640625,-0.2961904663119465,0.0561649548143148,-0.8007505652070045,-0.0103822415694594,-0.0274712424725294,-0.0257295090705156
1783205158779330000,0.564330078125,-0.3110482090301811,0.0143140642955899,-0.6688146223545074,0.0333079025149345,-0.0333922766149044,-0.0484996102750301
1783205158789267000,0.574266845703125,-0.2392549655165523,0.0200227973312139,-0.6400362716376781,0.077235147356987,-0.0479083694517612,-0.0633169040083885
1783205158799204000,0.5842041015625,-0.1307752285100519,0.0280693256646394,-0.6156617088377475,0.1113917231559753,-0.0621811933815479,-0.0671264082193374
1783205158809141200,0.594141357421875,-0.0395353070527315,0.012210077753663,-0.5169429759323597,0.1352432668209076,-0.0663620829582214,-0.0669240057468414
1783205158819078100,0.604078125,0.0234638776957988,-0.0153670804798603,-0.366738385939598,0.1492495536804199,-0.0634943470358848,-0.0593294277787208
1783205158829015000,0.61401513671875,0.0790107736770063,-0.0501566543102264,-0.189482707414031,0.1535015553236007,-0.0666350126266479,-0.0490387082099914
1783205158838952200,0.6239521484375,0.111538832316175,-0.0667266808390617,-0.0600935264348983,0.1441584378480911,-0.063325434923172,-0.0366243794560432
1783205158848889000,0.63388916015625,0.1408640763260424,-0.0799631790310144,0.0592296030819416,0.1242632865905761,-0.0613072849810123,-0.0257658753544092
1783205158858826200,0.643826171875,0.158708579770103,-0.0863774299874901,0.1791372544884681,0.1003844887018203,-0.0529672838747501,-0.0113998381420969
1783205158868763100,0.65376318359375,0.1577110201001167,-0.0678343498200178,0.2862865466088056,0.0690260306000709,-0.0337011776864528,-0.0036021023988723
1783205158878700000,0.663699951171875,0.1656471468616276,-0.062283729955554,0.3617956688404083,0.0400903820991516,-0.0159053057432174,0.0025458820164203
1783205158888637200,0.67363720703125,0.1695057219859212,-0.0530906619355082,0.3896037132203578,0.005433602258563,-0.003086179960519,0.0145918913185596
1783205158898574000,0.683573974609375,0.1552213952414691,-0.0368447527945041,0.3908627733707427,-0.0233860053122043,0.0053348811343312,0.024262212216854
1783205158908511200,0.69351123046875,0.132963167008385,-0.0373930343270301,0.3851286136329174,-0.0484197176992893,0.0200424548238515,0.0324359834194183
1783205158918448000,0.7034482421875,0.0993202059298753,-0.0342132352471351,0.3368289853662252,-0.0668452978134155,0.0308154709637165,0.0377102643251419
1783205158928385000,0.713385009765625,0.0665641106884926,-0.0216284789621829,0.2440729602575302,-0.0794047713279724,0.0329747609794139,0.0390676781535148
1783205158938322200,0.723322265625,0.0315641820430755,0.0019891279906034,0.1490180105566978,-0.0836724191904068,0.0442747697234153,0.0391984060406684
1783205158948258600,0.733258544921875,-0.0206168907668441,0.0124687286898493,0.0491454314410686,-0.0742730572819709,0.0507624968886375,0.0337184183299541
1783205158958195700,0.74319580078125,-0.0933551600456237,0.0404196886718273,-0.1343383278191089,-0.050031878054142,0.0421571992337703,0.0231975279748439
1783205158968132600,0.753132568359375,-0.1347686089951545,0.0810889681905508,-0.3382663246929645,-0.0181005802005529,0.0329312086105346,0.0126431547105312
1783205158978069500,0.763069580078125,-0.1440091694187373,0.0935901378452777,-0.4631073408484458,0.0087086064741015,0.0108424425125122,0.0009623314253985
1783205158988006700,0.773006591796875,-0.1566599036119878,0.102097853949666,-0.518920998007059,0.0340280793607234,-0.0096210204064846,-0.0114429388195276
1783205158997943600,0.782943603515625,-0.162919037071988,0.1231263211920857,-0.510036265283823,0.0554531440138816,-0.0286619570106267,-0.024168312549591
1783205159007880700,0.792880615234375,-0.1541253436330705,0.1214607260674238,-0.4650163893401622,0.0735170990228653,-0.0521696805953979,-0.0389001220464706
1783205159017817900,0.80281787109375,-0.1269330930639058,0.1024228481203317,-0.3982318408340215,0.0880384072661399,-0.053345251828432,-0.0446855016052722
1783205159027754500,0.81275439453125,-0.0935815161474049,0.0740203449785709,-0.2655319278717041,0.0945532917976379,-0.0509294979274272,-0.0540345273911953
1783205159037691600,0.822691650390625,-0.0497800760827958,0.0295329684764146,-0.1257207215994596,0.0941953584551811,-0.0529998801648616,-0.0537097714841365
1783205159047628500,0.832628662109375,0.0093318189036101,0.0031099487140774,0.0056803837239742,0.0854865610599517,-0.0411802381277084,-0.0462236255407333
1783205159057565700,0.842565673828125,0.0705817488320171,-0.015628654025495,0.1034141972452402,0.0709903091192245,-0.0271694306284189,-0.0373147800564765
1783205159067502800,0.8525029296875,0.1023876306764781,-0.0563788898259401,0.1923188076227903,0.0531529933214187,-0.0197445359081029,-0.0263867657631635
1783205159077439500,0.862439453125,0.1158632713865488,-0.0818365716874599,0.2117202581852674,0.0357329435646534,-0.0090353358536958,-0.0159240812063217
1783205159087376600,0.872376708984375,0.1339424603693187,-0.072600833569467,0.2099392199873924,0.0168697722256183,-0.001675424631685,-0.0045667635276913
1783205159097313500,0.8823134765625,0.1354028883107006,-0.0567217119142413,0.2143810018271207,-0.0014834282919764,0.0081949699670076,0.0047736270353198
1783205159107250700,0.892250732421875,0.1173573093365877,-0.0524149546310305,0.1853185734719037,-0.0143440989777445,0.0069936183281242,0.0084003191441297
1783205159117187800,0.902187744140625,0.0967005980160087,-0.0424532403260469,0.1374661044508218,-0.0253980048000812,0.0116322813555598,0.0143656115978956
1783205159127124500,0.91212451171875,0.0716240974918007,-0.0271045722857117,0.0986374843627214,-0.0343004167079925,0.0130211198702454,0.0137919653207063
1783205159137061600,0.9220615234375,0.0549993451010435,-0.0202159818157553,0.0575362431675195,-0.0424848794937133,0.0159867201000452,0.0140423402190208
1783205159146998500,0.93199853515625,0.0320907632004469,-0.0122229372352361,0.0308563260346651,-0.0477347671985626,0.0176815558224916,0.0136982593685388
1783205159156935700,0.941935791015625,0.0146250299409031,-0.0098763741090893,-0.0057622167885303,-0.0495996512472629,0.0145916026085615,0.0123964324593544
1783205159166872800,0.951872802734375,0.0006673048023134,-0.0044511341899633,-0.0324836349755525,-0.0454672239720821,0.0183866061270236,0.0138459913432598
1783205159176809500,0.9618095703125,-0.0018596563920378,0.0009220832809805,-0.0974468132734298,-0.0342001840472221,0.0190364569425582,0.013259177096188
1783205159186746600,0.97174658203125,-0.0317567820057272,-8.73860225081e-05,-0.1839537148594856,-0.0135961081832647,0.0133809689432382,0.0083709452301263
1783205159196683500,0.98168359375,-0.0653142567578703,0.0080775079935789,-0.2601969965845346,0.0047604292631149,0.0075995908118784,2.66439747065e-05
1783205159206620700,0.99162060546875,-0.0752787475418299,0.0299997092053294,-0.3018155396521091,0.0233578160405159,0.0019006924703717,0.0012807266321033
1783205159216557800,1.001557861328125,-0.0625494682196527,0.0394870839968323,-0.3131096716046333,0.0328752249479293,-0.0066753202117979,-0.0039399019442498
1783205159226495700,1.011495849609375,-0.0534893789295107,0.0588496638536453,-0.2839718399256468,0.037378367036581,-0.0191793944686651,-0.0099850110709667
1783205159236432600,1.0214326171875,-0.0486642968606203,0.0594049596488475,-0.2292196745187044,0.0398398451507091,-0.0285361558198928,-0.0145996958017349
1783205159246369500,1.03136962890625,-0.0426392644174397,0.0405669881880283,-0.1463093361198902,0.036772683262825,-0.0295934304594993,-0.019596317782998
1783205159256306700,1.041306640625,-0.0257528654158115,0.0211672911912202,-0.0595019902825355,0.0316365286707878,-0.030236829072237,-0.0209216568619012
1783205159266243600,1.05124365234375,0.0003222907569259,0.0017588263660669,-0.0031003041028976,0.0283784195780754,-0.0275787264108657,-0.0246234498918056
1783205159276180700,1.0611806640625,0.0258585177473723,-0.0165241415604949,0.0458989968657493,0.0174060650169849,-0.0198019240051507,-0.0216792691498994
1783205159286117600,1.07111767578125,0.0593355476744472,-0.0252452081546187,0.1218073475480079,0.0057185152545571,-0.0056797130964696,-0.0129528883844614
1783205159296054500,1.081054443359375,0.0815642575521022,-0.0361912573218345,0.177518713375926,-0.0128711815923452,0.0064768940210342,-0.0056807012297213
1783205159305991700,1.09099169921875,0.1182159719925373,-0.0397705771133303,0.1742068123489618,-0.0291934292763471,0.0085690729320049,0.0082265920937061
1783205159315928600,1.100928466796875,0.1361019764907658,-0.0390305724009871,0.174683782210946,-0.0461298525333404,0.0135755706578493,0.0177499298006296
1783205159325865700,1.11086572265625,0.1118102696686983,-0.0549614242434501,0.1539718335717916,-0.0616345107555389,0.0144554786384105,0.0192823130637407
1783205159335802600,1.120802734375,0.0450146883118897,-0.0763169314831495,0.1340408061772584,-0.0720255449414253,0.0166753940284252,0.0164180491119623
1783205159345739500,1.130739501953125,-0.0067469900421798,-0.0902861278638243,0.0997720413506031,-0.0785092785954475,0.0200285799801349,0.0110475197434425
1783205159355676700,1.1406767578125,-0.0268769010096788,-0.102528646582365,0.0610772767752408,-0.0816329345107078,0.0242940280586481,0.0092758722603321
1783205159365613800,1.15061376953125,0.01779438069202,-0.1043386186137795,0.0134293904155492,-0.0867155790328979,0.0305676367133855,0.0115789752453565
1783205159375550700,1.16055078125,0.1020130982756614,-0.1107172137349843,-0.015320903250575,-0.088188461959362,0.0323043726384639,0.0166134871542453
1783205159385487600,1.170487548828125,0.1042293860856443,-0.1087789391487836,-0.0282236394435167,-0.0700864270329475,0.031006883829832,0.0310683287680149
1783205159395424500,1.180424560546875,0.2239171111311763,-0.1472311271399259,-0.163745624089241,-0.057827241718769,0.0360839925706386,0.0489665456116199
1783205159405361700,1.190361572265625,0.230239153759554,-0.1051709777846932,-0.1391243930518627,-0.0625969618558883,0.0392078794538974,0.0607811249792575
1783205159415298800,1.200298828125,0.1904100513920187,-0.0777928492546081,-0.0675029259085655,-0.0660820677876472,0.0503312014043331,0.0747025609016418
1783205159425235700,1.210235595703125,0.1400374893087893,-0.0912181480169296,-0.0459328991353511,-0.0673140436410904,0.0580272041261196,0.0882777571678161
1783205159435172600,1.220172607421875,0.0987954514034092,-0.0808221339479088,-0.0881055689543485,-0.058689996600151,0.0554391369223594,0.0934206321835517
1783205159445109500,1.230109619140625,0.0552542697101831,-0.0517626282021403,-0.1443435890048742,-0.0496384426951408,0.0491881668567657,0.1013035923242569
1783205159455046700,1.240046630859375,-0.0005008621942251,-0.0215893159955739,-0.164616561704874,-0.0412711799144744,0.0480685345828533,0.1001295894384384
1783205159464983800,1.24998388671875,-0.0417784098044037,0.0128071668639779,-0.1847369741916656,-0.0305951014161109,0.0488301999866962,0.0991719141602516
1783205159474921700,1.259921630859375,-0.1065145013481378,0.0531836009159684,-0.1887245825231075,-0.0138040287420153,0.0489549562335014,0.0884670466184616
1783205159484858600,1.269858642578125,-0.2043398656103759,0.1101829607278108,-0.2528822896569967,0.0107338055968284,0.0388495922088623,0.0678318068385124
1783205159494795500,1.27979541015625,-0.2540608319170773,0.1652852547466755,-0.4023375225871801,0.0485064312815666,0.0216086097061634,0.0462661460041999
1783205159504732700,1.289732666015625,-0.2623353968527168,0.2263201536849141,-0.4914940618991851,0.078860342502594,0.0088198455050587,0.0280216298997402
1783205159514669600,1.299669677734375,-0.2530907447759062,0.2704229147836566,-0.5021300222039222,0.1010409072041511,-0.0062440605834126,0.0089937010779976
1783205159524606700,1.309606689453125,-0.2488687431667,0.2941276154980063,-0.443586063298583,0.1137447133660316,-0.0204123444855213,-0.0146059012040495
1783205159534544000,1.3195439453125,-0.2368205779764801,0.2797632823199034,-0.3389847020953893,0.1168927028775215,-0.0358856171369552,-0.0326896458864212
1783205159544480500,1.32948046875,-0.2212032490625977,0.2443912324264645,-0.234490892919898,0.1191025972366333,-0.0477531962096691,-0.0452962480485439
1783205159554417700,1.339417724609375,-0.1930029904946684,0.1900868107870221,-0.1363940913051366,0.1178192421793937,-0.056108646094799,-0.0586543902754783
1783205159564354600,1.3493544921875,-0.1432046481028199,0.1760685145676136,-0.056543140476942,0.1163843348622322,-0.0564207658171653,-0.0619489885866642
1783205159574291700,1.359291748046875,-0.089629271390289,0.13277911567837,0.0295212780386209,0.10811547935009,-0.0453128963708877,-0.0629527941346168
1783205159584228900,1.369228759765625,-0.0377627444222569,0.0979506711423397,0.133616443285346,0.091786041855812,-0.0332266762852668,-0.0548243001103401
1783205159594165500,1.37916552734375,0.0183075178459286,0.0678460402578115,0.2132821006745099,0.0672883763909339,-0.0215519070625305,-0.0473484918475151
1783205159604102700,1.3891025390625,0.0608944675542414,0.0632470220297575,0.279049581092596,0.0373941250145435,-0.0167915076017379,-0.0407355986535549
1783205159614039600,1.39903955078125,0.074932199126482,0.0432215943500399,0.3145622085005045,0.0102469511330127,-0.0084375720471143,-0.0310642160475254
1783205159623976700,1.408976806640625,0.0761637136828154,0.0268801158800721,0.3257259920716285,-0.0202544964849948,-0.0006875065155327,-0.0260766483843326
1783205159633913900,1.418913818359375,0.0713075788885354,0.0207747847422957,0.3399211061626672,-0.0449393950402736,0.0063689816743135,-0.0201744046062231
1783205159643850500,1.4288505859375,0.0673794456593692,0.0158966573119163,0.3159247290253639,-0.0657413452863693,0.0178884845227003,-0.0234572831541299
1783205159653788700,1.43878857421875,0.0667057111162692,-0.001801496464014,0.2735229266256094,-0.0780311673879623,0.0238299891352653,-0.0193918421864509
1783205159663725600,1.4487255859375,0.0688631083458662,-0.0134904729530215,0.2046773539364337,-0.0938665941357612,0.0311986897140741,-0.0197196789085865
1783205159673662700,1.458662841796875,0.0454457732055336,-0.0349245983868837,0.1566682330489158,-0.10333052277565,0.0351775474846363,-0.0194791555404663
1783205159683599600,1.468599609375,0.018081673200801,-0.064437693119049,0.0912637407243251,-0.1128718256950378,0.0327631272375583,-0.0189899317920207
1783205159693536500,1.47853662109375,0.0243569540780037,-0.0940928266704082,-0.0063970075607299,-0.118662878870964,0.0258625950664281,-0.0184985939413309
1783205159703473700,1.4884736328125,0.042540261022374,-0.1076122334569692,-0.0843394944190979,-0.108755923807621,0.0220364313572645,-0.009198036044836
1783205159713410600,1.49841064453125,0.0574061870470643,-0.1132955397903919,-0.1417933200001716,-0.1032320261001586,0.0230108499526977,-0.0024465501774102
1783205159723347700,1.50834765625,0.0715609691277146,-0.1191442658185958,-0.1545060865789651,-0.0946185737848281,0.0213285330682992,-0.0005061710253357
1783205159733284600,1.51828466796875,0.0840058785505592,-0.1290916593372821,-0.1806663637518882,-0.0794608816504478,0.025989893823862,0.0090874936431646
1783205159743221500,1.528221435546875,0.1011130076307803,-0.1240577568233013,-0.2036784060269594,-0.0687387287616729,0.0269092172384262,0.0206157863140106
1783205159753158700,1.53815869140625,0.1103864474106579,-0.1168424186170101,-0.2137403658360242,-0.0526060089468956,0.0297126490622758,0.0305241011083126
1783205159763095600,1.548095458984375,0.0968405910085886,-0.1058145363852381,-0.2061503490984439,-0.0366925597190856,0.0318133495748043,0.0394912287592887
1783205159773032700,1.55803271484375,0.0650474225152283,-0.0849301537886261,-0.2300134552448987,-0.0246075093746185,0.0331655442714691,0.0478582642972469
1783205159782970600,1.567970703125,0.0179328393146395,-0.0583516512036323,-0.2502285602778196,-0.0037685381248593,0.028916472569108,0.0468965955078601
1783205159792907800,1.57790771484375,-0.0292112622413784,-0.013181845395267,-0.2929272997975349,0.015883294865489,0.0144296009093523,0.039886649698019
1783205159802844400,1.587844482421875,-0.0494746633954346,0.0550578703552484,-0.3472346440464258,0.0345728248357772,0.0025508373510092,0.0318798571825027
1783205159812781600,1.597781494140625,-0.0868495044786483,0.1110886773958802,-0.3406891679257154,0.0476005971431732,0.0047146063297986,0.0245507508516311
1783205159822718700,1.60771875,-0.1234281536828726,0.1319105161502957,-0.286668239402771,0.0624940581619739,0.0019936547614634,0.0128155332058668
1783205159832655600,1.617655517578125,-0.1629237863123416,0.1406651927530765,-0.2815951739221811,0.0863905027508735,-0.0005809096619486,-0.0067076417617499
1783205159842592800,1.6275927734375,-0.1885209497097879,0.1444794903442263,-0.3000239800602197,0.10819673538208,-0.007276096381247,-0.0235233735293149
1783205159852529400,1.637529296875,-0.1812430676613003,0.1367968268871307,-0.3045990328907966,0.1280085444450378,-0.0132269356399774,-0.0337723307311534
1783205159862466600,1.647466552734375,-0.1492215703047812,0.1218760288700461,-0.250876795053482,0.1383144408464431,-0.016261076554656,-0.0449978224933147
1783205159872403700,1.65740380859375,-0.0794609285973012,0.1083764958277344,-0.1785100625008344,0.14352647960186,-0.021149143576622,-0.0477871224284172
1783205159882340600,1.667340576171875,-0.004581701767072,0.1043701827958226,-0.0932674817621707,0.1334890276193618,-0.02109295129776,-0.0459921509027481
1783205159892277800,1.67727783203125,0.048953562130779,0.0608496054992079,0.0151198277205228,0.1145774945616722,-0.023011140525341,-0.0407810732722282
1783205159902215700,1.687215576171875,0.0864471342228353,0.0224950326636433,0.111644849973917,0.088030569255352,-0.0196257308125495,-0.0326706804335117
1783205159912152600,1.697152587890625,0.1300713910896331,-0.0284177007108926,0.1940940006017684,0.0653468668460846,-0.0151640176773071,-0.0210131667554378
1783205159922089500,1.70708935546875,0.1584471523549407,-0.0757549136862158,0.2427215456485748,0.0460906103253364,-0.0110723357647657,-0.0104870237410068
1783205159932026600,1.717026611328125,0.1820049188792705,-0.1103314292877912,0.229697813424468,0.0305680334568023,-0.0036462089046835,0.0044593121856451
1783205159941964000,1.726964111328125,0.178754611846432,-0.1231292438015341,0.2191694051474332,0.0102055044844746,0.0048021371476352,0.0178528819233179
1783205159951901000,1.73690087890625,0.1489770940244197,-0.1231675299853086,0.2228483859211206,-0.0089692035689949,0.0148096038028597,0.0215425994247198
1783205159961838000,1.746838134765625,0.1382839236397296,-0.1246536768898367,0.1981020671993494,-0.028290968388319,0.0202376581728458,0.0306945517659187
1783205159971775000,1.75677490234375,0.1618812184568494,-0.1143777820691466,0.1500210501194,-0.040240429341793,0.0217284206300973,0.0409576557576656
1783205159981712000,1.7667119140625,0.153252140995115,-0.0984223803073167,0.0555196426481008,-0.0456019043922424,0.0126957762986421,0.0507873818278312
1783205159991649000,1.77664892578125,0.12319295668751,-0.0986626188039779,-0.0296136324971914,-0.0449797064065933,0.0131029300391674,0.0601146966218948
1783205160001586000,1.7865859375,0.0834087163750082,-0.105072485846281,-0.0969493851453065,-0.0339536890387535,0.0091033950448036,0.0680312141776084
1783205160011523800,1.79652392578125,0.0403526878502219,-0.0628793577611446,-0.1517109029024839,-0.0246660225093364,0.0087094418704509,0.0660927817225456
1783205160021461000,1.8064609375,-0.0008419307168573,-0.0230883223816752,-0.2024976718097925,-0.0037479577586054,0.0111172059550881,0.0624660812318325
1783205160031398100,1.816398193359375,-0.0456947795305401,0.0301475932434201,-0.24595687430799,0.0182608887553215,0.0064303269609808,0.0539194010198116
1783205160041334800,1.826334716796875,-0.0782638277672231,0.0568926845669746,-0.2796937242150306,0.0389629714190959,0.0054963561706244,0.0471855998039245
1783205160051272000,1.83627197265625,-0.1222177549798041,0.0741632605805993,-0.2746820335328578,0.0550152733922004,0.0015196688473224,0.0380362197756767
1783205160061209000,1.846208984375,-0.1490088774021714,0.0749102795556187,-0.2544768653720617,0.0636303350329399,-0.0074719623662531,0.0323522351682186
1783205160071146000,1.85614599609375,-0.1393419813252985,0.077490943698585,-0.2094189955055713,0.067296952009201,-0.0173737090080976,0.0271446350961923
1783205160081083100,1.866083251953125,-0.1193606850482523,0.0883510681480169,-0.1561199515163898,0.0662788227200508,-0.0217639300972223,0.0235914457589387
1783205160091019800,1.876019775390625,-0.1085655155938118,0.0843289730250835,-0.0654664516448974,0.0593020468950271,-0.0198505334556102,0.0210073105990886
1783205160100957000,1.88595703125,-0.1181304856661707,0.0650298137933015,0.0408586646109819,0.0499221310019493,-0.0130631998181343,0.019748967140913
1783205160110894800,1.895894775390625,-0.1100640105232596,0.0571077886223793,0.09412672894001,0.0450768060982227,-0.006881904322654,0.0203748121857643
1783205160120832000,1.90583203125,-0.093050258814916,0.0774643479526042,0.1170744738072156,0.0392127931118011,-0.001946800854057,0.0157238692045211
1783205160130769000,1.915768798828125,-0.0897820507992059,0.1025023430973291,0.1284556995213031,0.0341603234410285,0.0061556994915008,0.0115068759769201
1783205160140706000,1.9257060546875,-0.0650162236593663,0.1444958569571375,0.1240104105502366,0.0268012136220932,0.0115800257772207,0.0044241985306143
1783205160150643000,1.935642822265625,-0.0387698025729507,0.1891834322065115,0.1171136367738246,0.0178288202732801,0.0165935382246971,-0.0048373010940849
1783205160160579800,1.945579833984375,-0.0118984545212239,0.191082836087048,0.1261263797909021,0.0080441012978553,0.0216588694602251,-0.0079787662252783
1783205160170517000,1.95551708984375,-0.0400556045997887,0.1551993295401334,0.112114805573225,-0.0029991418123245,0.024335304275155,-0.0090880086645483
1783205160180454000,1.965453857421875,-0.0595613192543387,0.1204080021440982,0.0773760851472616,-0.0182052608579397,0.0223288778215646,-0.0129168350249528
1783205160190391000,1.97539111328125,-0.0838880973897874,0.0814051945328712,0.0346568873614072,-0.0221871044486761,0.0139941815286874,-0.0154597600921988
1783205160200329000,1.985328857421875,-0.1132204287275671,0.0489867337480187,-0.0140454764872789,-0.0269805248826742,0.0075938063673675,-0.0172017347067594
1783205160210265900,1.995265869140625,-0.1222189240235835,0.0233113174825906,-0.0658744479238987,-0.0227747838944196,-0.001215832773596,-0.0232757497578859
1783205160220203000,2.005203125,-0.108047117742896,0.043322132115066,-0.1205085399091243,-0.0121964402496814,-0.0071610729210078,-0.0276545174419879
1783205160230140000,2.015139892578125,-0.0612300561841577,0.0788175161272287,-0.1458645149618387,-0.004777405411005,-0.0064585315994918,-0.0308348648250103
1783205160240077000,2.0250771484375,-0.0302640592299401,0.0908838014960289,-0.1375485220372676,-0.0009120944887399,-0.002710931468755,-0.0389090366661548
1783205160250014000,2.035013916015625,-0.0275199481535702,0.0859536516174674,-0.1200701484918594,0.0019284635782241,-0.0010975953191518,-0.0419132336974144
1783205160259950800,2.044950927734375,-0.0241221224088221,0.0651999096632003,-0.1177045884042978,0.0012480253353714,-0.0020030699670314,-0.0484494268894195
1783205160269888000,2.054887939453125,-0.0177391433734446,0.0243324772238731,-0.1159235502064228,0.0037213070318102,-0.0114412428811192,-0.052778884768486
1783205160279826000,2.064825927734375,-0.0141208798110485,-0.0352238735944032,-0.1059749876439571,0.0018019676208496,-0.0188469626009464,-0.0505492836236953
1783205160289763000,2.07476318359375,-0.0031768764704465,-0.0688946725279092,-0.0946013607144355,-0.0008421996608376,-0.0263317991048097,-0.0469169840216636
1783205160299700000,2.084699951171875,0.0374899188302457,-0.0914963804364204,-0.0720978524833917,0.002920314669609,-0.0281848292797803,-0.0460671707987785
1783205160309637000,2.09463720703125,0.0738704151138663,-0.1092322358742356,-0.0337245749473571,0.001836048439145,-0.0204493515193462,-0.034540120512247
1783205160319573800,2.10457373046875,0.1175481557335704,-0.115007312144339,0.0134603700757026,-9.47434455156e-05,-0.012811672873795,-0.0252432897686958
1783205160329511000,2.114510986328125,0.1690296289067715,-0.1133513616308569,0.0460386975973844,-0.0062949322164058,5.27529045939e-05,-0.0119227087125182
1783205160339448000,2.124447998046875,0.1862735361091792,-0.1141696922764182,0.0604629442691802,-0.0137970559298992,0.0048621552996337,-0.0010412989649921
1783205160349385000,2.134385009765625,0.1720336330283433,-0.1115194700285792,0.0641091918170452,-0.0207941532135009,0.0070684007368981,0.0102793369442224
1783205160359322000,2.144322021484375,0.1490362038005143,-0.1250643035173416,0.0374169997245073,-0.0283974781632423,0.0089744254946708,0.0243421588093042
1783205160369260000,2.154260009765625,0.1207310235533863,-0.1204132628411054,0.0131786305248737,-0.0325920507311821,0.0098581202328205,0.030967129394412
1783205160379197000,2.164197021484375,0.0579577565152198,-0.120820674598217,3.1564182043e-05,-0.0318255946040153,0.0105364276096224,0.0381086580455303
1783205160389133800,2.1741337890625,0.0066148880951106,-0.0873000977903604,-0.0445236168593168,-0.0280846487730741,0.0071418033912777,0.0397952944040298
1783205160399071000,2.184071044921875,-0.0049068420682102,-0.0362184375897049,-0.0912953049063682,-0.0199590753763914,0.0029949953313916,0.0409170165657997
1783205160409008000,2.194008056640625,-0.0070588324703276,0.0335895503908395,-0.1153688389331102,-0.0136643415316939,0.0069841034710407,0.0375137291848659
1783205160418945000,2.203945068359375,-0.0164149090323597,0.0888423587962985,-0.1333206752091646,-0.0029816022142767,0.0039235986769199,0.0359589755535125
1783205160428882000,2.2138818359375,-0.0410932770844548,0.1355573482200503,-0.1567296078473329,0.002972605638206,0.0066970363259315,0.0259196367114782
1783205160438818800,2.22381884765625,-0.1071943003058433,0.1479641175895929,-0.1233779578655958,0.0070946458727121,0.0100321136415004,0.0206122230738401
1783205160448757000,2.233757080078125,-0.1727224190101027,0.1599947471231222,-0.1038520041406154,0.0080716703087091,0.0043204920366406,0.0067859790287911
1783205160458694000,2.24369384765625,-0.2111297449462115,0.1706903286606073,-0.1152659630805253,0.0100751668214797,-0.0107854902744293,-0.0067308945581316
1783205160468631000,2.253631103515625,-0.2019195065956562,0.2006806855157017,-0.1334533616781234,0.0099877249449491,-0.0159556902945041,-0.0230780877172946
1783205160478568200,2.263568115234375,-0.1824446254707872,0.218310157969594,-0.0854658681005239,0.0071690357290208,-0.0170372016727924,-0.0388341434299945
1783205160488504800,2.2735048828125,-0.1520796631496399,0.2088894186735153,-0.0205897835642099,-0.0043184319511055,-0.0149802938103675,-0.0490835756063461
1783205160498442000,2.28344189453125,-0.0995575948823243,0.216698631119728,0.0323380890250206,-0.0126357497647404,-0.02044696547091,-0.0536548942327499
1783205160508379000,2.29337890625,-0.0447510689396411,0.1933124948352575,0.0521171407282352,-0.0232791509479284,-0.0154874017462134,-0.0553883016109466
1783205160518316000,2.30331591796875,-0.0247695534668862,0.1363862002596259,0.073848495543003,-0.0351517871022224,-0.0111035732552409,-0.0581990033388137
1783205160528254000,2.31325390625,-0.0440947969879955,0.090659637351334,0.1077583639293909,-0.0434007495641708,-0.0069702873006463,-0.0607968270778656
1783205160538191000,2.323191162109375,-0.0430775097042322,0.0446790996819734,0.0654781420826911,-0.0470093339681625,-0.0046213790774345,-0.0645782500505447
1783205160548128000,2.3331279296875,-0.0245754191342741,0.0268640415281057,0.0373965414583683,-0.0488015785813331,-0.0007289014756679,-0.0676849782466888
1783205160558065000,2.34306494140625,-0.0031432664617896,0.0222851893052458,0.0132610481113195,-0.0518833845853805,-0.00405865162611,-0.0708978176116943
1783205160568002000,2.353001953125,0.0289432589549571,0.0103659111917018,-0.0282084418743848,-0.0545262023806571,-0.0014897449873387,-0.0717629492282867
1783205160577939000,2.36293896484375,0.0822332428548485,-0.010455050779879,-0.0610182400643825,-0.0569371581077575,-0.0020988103933632,-0.065372958779335
1783205160587876000,2.3728759765625,0.1036192913632839,-0.0828553933411836,-0.0658089814722538,-0.0551183298230171,-0.0015544816851615,-0.0523076169192791
1783205160597813000,2.38281298828125,0.0989043916705995,-0.1622232368275523,-0.0858522370696067,-0.0502663180232048,-0.0085175829008221,-0.0395074002444744
1783205160607751000,2.3927509765625,0.1017580275360494,-0.2196504666626453,-0.1543476811468601,-0.037317506968975,-0.0121181989088654,-0.0259847268462181
1783205160617688000,2.40268798828125,0.111364498662576,-0.2285889753997325,-0.1806219400882721,-0.025487745180726,-0.0150956129655241,-0.0150639014318585
1783205160627625000,2.412625,0.1218438801661133,-0.2085512727603316,-0.1820984423816204,-0.0109665030613541,-0.0153100378811359,-0.008309094235301
1783205160637562000,2.42256201171875,0.130845955658704,-0.2013803582176566,-0.1792629266947507,0.0029138922691345,-0.0082454709336161,0.000601842533797
1783205160647499000,2.4324990234375,0.1397713126532733,-0.1611778194278478,-0.1267389587312936,0.0114391967654228,0.0010237828828394,0.0067698284983634
1783205160657436000,2.442435791015625,0.1736523933365941,-0.1240671091735362,-0.1175520281910896,0.0175434276461601,0.0011100694537162,0.0114420782774686
1783205160667373000,2.452373046875,0.1859141282122582,-0.1154807748749852,-0.1329080027550458,0.0200557839125394,0.0046437596902251,0.0214928332716226
1783205160677311000,2.46231103515625,0.1837197599731385,-0.1000374142885208,-0.1110790327847003,0.0225788615643978,0.0038386858068406,0.0302418526262044
1783205160687248000,2.472247802734375,0.1532085941143333,-0.0860299317240715,-0.0972591817468404,0.0156510006636381,0.0006046239286661,0.0329658016562461
1783205160697185000,2.48218505859375,0.1100331039283424,-0.0892602919474244,-0.0744271722137928,0.0115585206076502,-0.0018058028072118,0.0365797095000743
1783205160707122200,2.4921220703125,0.0701708299435675,-0.0915235607042908,-0.0633463907510042,0.0058031324297189,-0.0041230665519833,0.0388001427054405
1783205160717058800,2.502058837890625,0.0267287247106432,-0.0611719693213701,-0.059163552108407,-0.0006734086200594,-0.0139874145388603,0.0325433127582073
1783205160726996000,2.511995849609375,0.0125303957492113,-0.0387915029481053,-0.05923252569139,-0.0050459709018468,-0.0203586816787719,0.0330776125192642
1783205160736933000,2.52193310546875,-0.0062153673835098,-0.0147042326569557,-0.0475678068608045,-0.0091437771916389,-0.0226167738437652,0.037793006747961
1783205160746871000,2.53187109375,-0.0241164963856339,-0.00303045373708,-0.0220668703794479,-0.017342584207654,-0.0222431346774101,0.0443294681608676
1783205160756808000,2.541807861328125,-0.0284041105769574,0.0095925887316465,0.003660860595107,-0.0196954887360334,-0.0192888900637626,0.046351071447134
1783205160766745000,2.5517451171875,-0.0067874681830406,0.0817865950658917,-0.0143406600415706,-0.0119924172759056,-0.0185044556856155,0.0481871366500854
1783205160776682000,2.561681884765625,-0.0280710061650723,0.1318736912712454,-0.0410889662355184,-0.005758224055171,-0.0107682384550571,0.037557128816843
1783205160786619000,2.571618896484375,-0.1064176168449222,0.1667807540014386,0.0026648352950811,0.0072365370579063,-0.0046224491670727,0.0210583936423063
1783205160796556000,2.58155615234375,-0.1518610519628971,0.2028606599032879,-0.0264484464645385,0.0176478996872901,-0.0050506861880421,0.0116827357560396
1783205160806493000,2.591492919921875,-0.1097298101328313,0.2060264304578304,-0.0639028555899858,0.0016857637092471,0.0064362357370555,0.0041085556149482
1783205160816431000,2.60143115234375,-0.2102504048284143,0.1906970516398549,0.0675023413866758,-0.0070464750751852,0.0078088287264108,-0.0053208987228572
1783205160826367700,2.61136767578125,-0.1930250561960041,0.171283910639584,0.017560791131854,-0.0167564749717712,0.0008693421259522,-0.0099771367385983
1783205160836305000,2.621304931640625,-0.1357942257158458,0.1781289542287588,-0.0695557667851448,-0.0158424787223339,-0.0059491489082574,-0.0100953811779618
1783205160846242000,2.631241943359375,-0.1300243370775133,0.1796758914098143,-0.097355043336749,-0.0163459666073322,-0.007566132582724,-0.0176814291626214
1783205160856179000,2.641178955078125,-0.1540644072260707,0.1575844711109995,-0.0595873304784297,-0.0174453221261501,-0.0093557769432663,-0.0265809129923582
1783205160866116000,2.6511162109375,-0.164914960129559,0.1583031407743692,-0.0523082793861627,-0.0206408221274614,-0.0107792122289538,-0.0364764668047428
1783205160876052700,2.661052734375,-0.153798668961972,0.1612114294365048,-0.0550678072273731,-0.018686594441533,-0.0112873436883091,-0.0510900318622589
1783205160885991000,2.670990966796875,-0.1383088388852775,0.1567336995005607,-0.0480272410660982,-0.0154842613264918,-0.012456189841032,-0.0639716610312461
1783205160895927800,2.680927734375,-0.107898429987207,0.123946405403316,-0.0632224721103906,-0.0145500255748629,-0.0161771569401025,-0.0726309269666671
1783205160905865000,2.690864990234375,-0.0693334292713552,0.0905322115793824,-0.0556675266861915,-0.01716960221529,-0.0141981244087219,-0.0745691433548927
1783205160915802000,2.700802001953125,-0.0213232124052941,0.0533612955704331,-0.0228974759846925,-0.0203555412590503,-0.0169172100722789,-0.0768946185708046
1783205160925739000,2.710739013671875,0.0426772583402693,0.0028594810843467,0.0055927054405212,-0.0276008658111095,-0.0132989678531885,-0.0681568160653114
1783205160935676000,2.720676025390625,0.0896237914975732,-0.0488677835434675,0.0344821153163909,-0.0347048491239547,-0.0110832173377275,-0.0596325770020484
1783205160945614800,2.73061474609375,0.1153306258145719,-0.0785471747532486,0.0606967530250549,-0.0412859283387661,-0.016973603516817,-0.0459557808935642
1783205160955551700,2.7405517578125,0.1482668268632143,-0.1034320251628756,0.0577098461687564,-0.0487848557531833,-0.0136875286698341,-0.0377780124545097
1783205160965489000,2.750489013671875,0.1628570046864449,-0.1121674125432968,0.0665782122790813,-0.0606654658913612,-0.0080124540254473,-0.0248488411307334
1783205160975426000,2.760426025390625,0.1706155098587274,-0.1186868774399161,0.0986415760159492,-0.0742760822176933,0.0026593648362904,-0.0181698985397815
1783205160985362700,2.77036279296875,0.1528629224818199,-0.1141959957614541,0.0989578023582696,-0.0900321900844574,0.0092579741030931,-0.0065895244479179
1783205160995299800,2.7802998046875,0.133110466524586,-0.1235936464428901,0.0661000733733177,-0.1003013402223587,0.0124646872282028,-0.0007292386144399
1783205161005237800,2.79023779296875,0.0828835234571248,-0.151352590984106,0.0073012629240751,-0.1032245829701423,0.0075880084186792,0.0084118153899908
1783205161015175000,2.8001748046875,0.0410658045556396,-0.169474815391004,-0.0666787500441074,-0.1007076278328895,-0.0041615925729274,0.0146175138652324
1783205161025111800,2.81011181640625,0.0083046678129583,-0.1418658007144927,-0.1560790349841117,-0.0858157873153686,-0.0058157038874924,0.0209114104509353
1783205161035049000,2.820049072265625,-0.0021010639324784,-0.0970168974235653,-0.2181780560225248,-0.0611471943557262,0.003002022858709,0.0242355689406394
1783205161044985900,2.82998583984375,-0.0189355866163969,-0.0491740730136632,-0.2631733820468187,-0.027664816007018,0.0060356808826327,0.0230472777038812
1783205161054922800,2.8399228515625,-0.026959099400416,0.0147524557128548,-0.3116892834126949,0.0055301561951637,0.0083869863301515,0.0224022585898637
1783205161064860000,2.84985986328125,-0.0258291455224156,0.0573196778073906,-0.3193213857263326,0.0296883881092071,0.0124635277315974,0.0237536877393722
1783205161074797800,2.8597978515625,-0.0393288246951997,0.0971925462514162,-0.3065519205242395,0.0487046912312507,0.0050279819406569,0.0183336231857538
1783205161084735000,2.86973486328125,-0.0692225162427872,0.1257841422244906,-0.2721580680131912,0.0664077699184417,-0.0010333987884223,0.0072936965152621
1783205161094672000,2.879671875,-0.0942308469016104,0.1425076057493686,-0.2271428682446479,0.0694011598825454,-0.0028558000922203,-0.0027562747709453
1783205161104608800,2.88960888671875,-0.1282707714084535,0.1390095345005393,-0.1343915193110704,0.0683124586939811,-0.0003961091861128,-0.019887963309884
1783205161114546000,2.8995458984375,-0.1304552758406847,0.1382449798688292,-0.0502531004220247,0.0604910179972648,-0.012504169717431,-0.0389130562543869
1783205161124482800,2.90948291015625,-0.070093746119365,0.1665314554154872,-0.0057493573069572,0.0479423925280571,-0.0115793338045477,-0.053399920463562
1783205161134421000,2.9194208984375,-0.0094495269991457,0.1612722197130322,0.077945993989706,0.026416327804327,0.0065133837051689,-0.0578556545078754
1783205161144358000,2.92935791015625,-0.0164942578788846,0.0546066194564104,0.2080371857583522,-0.0051232231780886,0.0099778901785612,-0.0460509285330772
1783205161154294800,2.939294677734375,0.0031115561492741,-0.0714583855360746,0.242592366310954,-0.0288394689559936,-0.0075023006647825,-0.0351210460066795
1783205161164231700,2.949231689453125,0.0705112408790737,-0.1078857897013425,0.1766916149020194,-0.0468344613909721,-0.0181385651230812,-0.0265946201980114
1783205161174168800,2.9591689453125,0.1303210550017655,-0.1018468017980456,0.1322317109286785,-0.0526148490607738,-0.0104406988248229,-0.0158796571195125
1783205161184106000,2.96910595703125,0.1566389338891953,-0.1023702411502599,0.1334849258601665,-0.0529569014906883,0.0099032130092382,-0.0153011325746774
1783205161194044000,2.9790439453125,0.1620084980983287,-0.0823451057314872,0.1235708500891923,-0.053873024880886,0.0240888055413961,-0.0126787181943655
1783205161203980800,2.988980712890625,0.1813186901807784,-0.0803758514851331,0.051544893798232,-0.0572083294391632,0.0315566249191761,-0.0024375240318477
1783205161213917700,2.998917724609375,0.1705296582061797,-0.1103986493051052,-0.0231494049191474,-0.0558186918497085,0.0293906759470701,0.0110657680779695
1783205161223854800,3.008854736328125,0.1292371322225779,-0.1738052458107471,-0.0905593918472528,-0.059716060757637,0.0184661746025085,0.0261032879352569
1783205161233791700,3.018791748046875,0.0892354497671127,-0.2209980818793177,-0.1640121660709381,-0.0535668209195137,0.0024307484272867,0.0437794849276542
1783205161243729000,3.02872900390625,0.0733213298637419,-0.208031925061345,-0.246190098541975,-0.0345720313489437,-0.0028069745749235,0.0599474981427192
1783205161253666800,3.038666748046875,0.0621164836298674,-0.1524102833434939,-0.297528071591258,-0.0074693085625767,0.0037782241124659,0.0681913122534751
1783205161263604000,3.04860400390625,0.0377339567191898,-0.0675423811361193,-0.3104688017070293,0.0272616166621446,0.0164310242980718,0.0664257109165191
1783205161273540600,3.05854052734375,0.0183865013662725,0.0339414325684309,-0.3140086662709713,0.055638663470745,0.0252764467149972,0.062951348721981
1783205161283477800,3.068477783203125,-0.0279591432884335,0.1070464162677526,-0.3220680540859699,0.0748209804296493,0.0229866113513708,0.0560431294143199
1783205161293415000,3.078414794921875,-0.0817391757275909,0.1492839680165052,-0.3199187670975923,0.0845346003770828,0.0078811608254909,0.044603519141674
1783205161303351800,3.088351806640625,-0.1356866736881435,0.1734098167523741,-0.2899731261670589,0.0803714096546173,-0.0131263779476284,0.0316509455442428
1783205161313290000,3.0982900390625,-0.1823172727640718,0.1731722086042165,-0.2192196740299463,0.0690154209733009,-0.0333075486123561,0.0172634851187467
1783205161323227000,3.108226806640625,-0.2041612211078405,0.174187815387547,-0.1280412735015153,0.0517998337745666,-0.0488059222698211,-0.0026762650813907
1783205161333163800,3.118163818359375,-0.1678391770131886,0.1848304976940155,-0.0440068995088338,0.0378925390541553,-0.0538041442632675,-0.0165763683617115
1783205161343100700,3.1281005859375,-0.1338263597089797,0.1738435319945216,0.0940425577878951,0.0214924365282058,-0.0468253046274185,-0.0278054997324943
1783205161353037800,3.138037841796875,-0.0981756390046328,0.1364031513944268,0.2204056689441204,0.0084171136841177,-0.0333899222314357,-0.0333363525569438
1783205161362975000,3.14797509765625,-0.0572260081745684,0.0966474795892834,0.2985428015917539,-0.008457607589662,-0.0207779854536056,-0.0373044870793819
1783205161372913000,3.157912841796875,0.007449585353583,0.0573681931242346,0.3510603398144244,-0.0291738063097,-0.004625647328794,-0.0363596007227897
1783205161382850000,3.16785009765625,0.0402000545717775,0.0250745277628302,0.3850228151708841,-0.0570796206593513,0.0100077334791421,-0.0311066508293151
1783205161392786700,3.17778662109375,0.0726065326578915,-0.0182721542716026,0.3935544966727495,-0.0823455601930618,0.0194161497056484,-0.0181282684206962
1783205161402723800,3.187723876953125,0.1218778555009514,-0.0359811217024922,0.3410843047231435,-0.1134897917509079,0.0199157744646072,-0.0005512202624231
1783205161412660700,3.19766064453125,0.1937831810869276,-0.0041314007163047,0.2188409038454294,-0.1218694299459457,0.0157625749707222,0.0187814645469188
1783205161422598000,3.207597900390625,0.1626502300679683,-0.0121048638135194,0.0892687675148248,-0.1227327287197113,0.0313722155988216,0.0340237133204937
1783205161432535800,3.217535888671875,0.0450601348888129,-0.0523605940952897,-0.0188338798075914,-0.1081902757287025,0.0404147133231163,0.0397178158164024
1783205161442473000,3.227472900390625,-0.0660831222385168,-0.0305175955995917,-0.1628051283687353,-0.0775841623544693,0.033440176397562,0.0356346070766449
1783205161452409900,3.237409912109375,-0.1230465339541435,0.0362830272585153,-0.3544768702596426,-0.0391129329800605,0.0182660147547721,0.0252224430441856
1783205161462346800,3.2473466796875,-0.1470788591876626,0.0951049263224005,-0.4785393032580614,-0.0066136224195361,0.0075022834353148,0.0089398147538304
1783205161472284000,3.257283935546875,-0.2044851192999631,0.1433469791829586,-0.4885463180094957,0.0157758388668298,-0.0012315534986555,-0.0107577238231897
1783205161482221800,3.267221923828125,-0.2226569550022482,0.1641106580093503,-0.4580418741524219,0.0337447822093963,-0.0223174802958965,-0.0279492679983377
1783205161492159000,3.277158935546875,-0.2151076356012374,0.1795475888550281,-0.4006687125921249,0.040738508105278,-0.0345009118318557,-0.0467687621712684
1783205161502096000,3.287095947265625,-0.1850170332420617,0.1447089151859283,-0.3051800476491451,0.0413289926946163,-0.0431038998067379,-0.0597543232142925
1783205161512032800,3.29703271484375,-0.1436539993055164,0.0870636586859822,-0.1827747342079878,0.0407340414822101,-0.0513160228729248,-0.0644931495189666
1783205161521970000,3.306969970703125,-0.0751276486333459,0.0230126267969608,-0.0435772759199142,0.0335775390267372,-0.0440608598291873,-0.0679155886173248
1783205161531906800,3.31690673828125,-0.0051207040145993,-0.0184416656196117,0.0787578948944807,0.0195767655968666,-0.0318289622664451,-0.0627764910459518
1783205161541844700,3.3268447265625,0.0662863166604191,-0.0456625577613711,0.2097445741981267,0.0021129557862877,-0.0151903349906206,-0.0540378354489803
1783205161551782000,3.336781982421875,0.1427921217791736,-0.0684668025046587,0.2726706937104463,-0.0188485197722911,-0.0084754414856433,-0.0427356474101543
1783205161561719000,3.346718994140625,0.2258843195509165,-0.0733121967092156,0.2924865702927112,-0.0345558747649192,0.0034378056880086,-0.0334052108228206
1783205161571655700,3.35665576171875,0.2822222928445786,-0.0782210115388035,0.2986117751747369,-0.0595448464155197,0.0176412425935268,-0.0178643353283405
1783205161581592800,3.3665927734375,0.2942632976416498,-0.1014531263053417,0.2757394336313009,-0.0786638036370277,0.0333414189517498,-0.0041554691269993
1783205161591530800,3.37653076171875,0.274456115822494,-0.1470312206536531,0.2051397107511758,-0.0884083062410354,0.0349393151700496,0.0153977265581488
1783205161601468000,3.386468017578125,0.234458671150729,-0.1980295864850282,0.0772983437359333,-0.0890752375125885,0.0354202091693878,0.0369042828679084
1783205161611404800,3.39640478515625,0.170516944855079,-0.2311287230104207,-0.0753764357626438,-0.0795576274394989,0.0305836405605077,0.0490746647119522
1783205161621342000,3.406342041015625,0.0890900499470531,-0.2303612457692623,-0.2389566401571035,-0.0580316595733165,0.0202517881989479,0.0636447444558143
1783205161631278800,3.41627880859375,0.0252042185571044,-0.1917369160816073,-0.3516360938757658,-0.0281105116009712,0.0123424660414457,0.069483995437622
1783205161641215700,3.4262158203125,-0.0191613581962883,-0.1110369472086429,-0.4405991564422845,0.0041669514030218,0.0027481275610625,0.0671094506978988
1783205161651154000,3.43615380859375,-0.0541230737231671,-0.0191696876332163,-0.4668032727569341,0.032585009932518,-0.0042527904734015,0.0548373386263847
1783205161661090800,3.4460908203125,-0.0788284759126603,0.0601297667920589,-0.4482879573792219,0.0583568289875984,-0.0074540232308208,0.0441472828388214
1783205161671028000,3.456028076171875,-0.1126915825478732,0.1120467087730765,-0.3935650180667638,0.0791880711913108,-0.0187596753239631,0.0315087139606475
1783205161680964900,3.46596484375,-0.137140744953975,0.1438648655772209,-0.3163467538297176,0.0885736793279647,-0.0272685624659061,0.0201961565762758
1783205161690901800,3.47590185546875,-0.1253047612097114,0.1561117682099342,-0.213998139989376,0.0863028019666671,-0.0344649590551853,0.0118977474048733
1783205161700839700,3.485839599609375,-0.1063475472833961,0.1550526145458221,-0.0800841750621795,0.0721456855535507,-0.0341982096433639,0.0049805054441094
1783205161710776800,3.49577685546875,-0.1023391153596341,0.1461646669521927,0.0529366404175758,0.0586322732269763,-0.0339942127466201,0.0011165242176502
1783205161720713700,3.505713623046875,-0.080922014125809,0.1141349132239818,0.1649456475287675,0.0363392457365989,-0.0244823135435581,-0.0001696175895631
1783205161730651000,3.51565087890625,-0.0563251138120889,0.0953790670886635,0.2535030519038438,0.011361988261342,-0.017808698117733,0.0022072535939514
1783205161740588000,3.525588134765625,-0.0472043803758919,0.089430680078268,0.3238876707285642,-0.0120742144063115,-0.0096101593226194,-0.002182406373322
1783205161750526000,3.53552587890625,-0.0245624135222286,0.0882499458611011,0.3378741105049848,-0.0344367772340774,-0.0001543397083878,-0.0067398739047348
1783205161760462800,3.545462890625,-0.0089687577448785,0.0990805519551038,0.3243886059880256,-0.0519737266004085,0.0118735656142234,-0.0136822592467069
1783205161770399700,3.555399658203125,0.0174981742244213,0.0993584921136498,0.2937731029719114,-0.0751821026206016,0.0233065150678157,-0.0131994280964136
1783205161780337000,3.5653369140625,0.0451480323679745,0.1054606083810329,0.2499292850703001,-0.0933293476700782,0.0248342920094728,-0.0097706476226449
1783205161790273800,3.575273681640625,0.0803096543811261,0.0997249873384833,0.1484720671117305,-0.1116156727075576,0.0141209289431571,-0.0023153945803642
1783205161800211000,3.5852109375,0.0524571132723242,0.0549745759859681,0.0124064771085977,-0.1178154647350311,0.0042298743501305,0.0075067793950438
1783205161810148900,3.59514892578125,-0.0247047446023672,-0.0195893743500113,-0.0916460180401802,-0.108436606824398,0.0003773453645408,0.0132371028885245
1783205161820085800,3.605085693359375,-0.0929147228017449,-0.0487879963055253,-0.1827028380155563,-0.0895358175039291,-0.0063760885968804,0.0153796840459108
1783205161830023000,3.61502294921875,-0.1373850020386278,-0.0183466808125376,-0.2901233482927083,-0.0580977350473403,-0.0112576624378561,0.0065531693398952
1783205161839959800,3.624959716796875,-0.1457677765890956,0.051750060981512,-0.363909299993515,-0.0197884049266576,-0.004443091340363,-0.0030243492219597
1783205161849897000,3.63489697265625,-0.1462217309016734,0.1108212586313486,-0.3694511520296335,0.0145658422261476,-0.0052433712407946,-0.018251771107316
1783205161859835000,3.6448349609375,-0.1395307818956673,0.1577528134152293,-0.3524666994810104,0.0359853021800518,-0.0028437091968953,-0.032680582255125
1783205161869772000,3.65477197265625,-0.1044201594173908,0.1804755173549056,-0.3011503537416458,0.0405004248023033,-0.0091601945459842,-0.0386045202612876
1783205161879708700,3.664708740234375,-0.07685914860107,0.1578311393484473,-0.2165688672602176,0.036070130765438,-0.023990387097001,-0.0418979153037071
1783205161889645800,3.674645751953125,-0.0688738489355891,0.1039504960790276,-0.1365583419561386,0.031648214906454,-0.0324581749737262,-0.0364613384008407
1783205161899583000,3.6845830078125,-0.0681388126593083,0.0662917965531349,-0.0801338594228029,0.0282635446637868,-0.0382087789475917,-0.0392859503626823
1783205161909521000,3.69452099609375,-0.0331659912165254,0.0549359975412487,-0.0080482818990945,0.0264254305511713,-0.0308238305151462,-0.0378909856081008
1783205161919457800,3.704457763671875,-0.0133800713811069,0.0528387330010533,0.0837690010547637,0.0248884409666061,-0.0118214916437864,-0.0380146317183971
1783205161929395000,3.71439501953125,-0.0075394555941224,0.0428249962478876,0.1715817245423793,0.0206593424081802,0.0082582104951143,-0.0425353460013866
1783205161939331800,3.724331787109375,-0.0025109599076211,0.0300680982664227,0.22044366286695,0.0088702272623777,0.023654781281948,-0.0412282310426235
1783205161949269000,3.73426904296875,0.0087772537607699,0.0051619128078222,0.2421592355906963,-0.0094515206292271,0.0274777486920356,-0.0365192294120788
1783205161959207200,3.744207275390625,0.0228591167356818,-0.0287295431390404,0.2388222001224756,-0.0284313578158617,0.0239042025059461,-0.0259666163474321
1783205161969143800,3.754143798828125,0.0546011395636945,-0.046240942171216,0.1956032361209392,-0.0449213832616806,0.0171522907912731,-0.0206293761730194
1783205161979081000,3.7640810546875,0.0944669937450438,-0.0261322201222181,0.1528600729376077,-0.0613718666136264,0.0129193114116787,-0.0173418372869491
1783205161989017900,3.774017822265625,0.1484285932961851,0.0173112002849578,0.1140314528495073,-0.0709539204835891,0.0156360007822513,-0.0159380845725536
1783205161998955000,3.783955078125,0.1821482728727161,0.0396668244779109,0.0647352147608995,-0.0727830901741981,0.0301121473312377,-0.0173532590270042
1783205162008893000,3.793892822265625,0.1772366815641522,0.0400645916238427,0.0169254158377647,-0.0683553144335746,0.0438900105655193,-0.0142762418836355
1783205162018830000,3.803830078125,0.1326067547861486,-0.0071057403519749,-0.0789671537309885,-0.0554149709641933,0.0511521436274051,-0.0120480693876743
1783205162028767000,3.81376708984375,0.0495509435020387,-0.092450027899444,-0.2048012725770473,-0.0446406193077564,0.0399990901350975,-0.0013285805471241
1783205162038703900,3.823703857421875,-0.0250916980933398,-0.1918593734174966,-0.3227069365113973,-0.0238883905112743,0.022590696811676,0.0112356394529342
1783205162048641000,3.83364111328125,-0.0647444940458983,-0.2230979767680168,-0.4402256469547748,0.0002358527854084,0.0019493335857987,0.0232022870332002
1783205162058579000,3.843578857421875,-0.0589608691431581,-0.1711725592195987,-0.49713586717844,0.031604815274477,-0.0123518053442239,0.0293288640677928
1783205162068516000,3.85351611328125,-0.0324147344578057,-0.0623199703127145,-0.5047071792155504,0.0661643892526626,-0.0115952007472515,0.0241876300424337
1783205162078453000,3.863452880859375,0.0048223055899143,0.0501543162226676,-0.4629162021905184,0.0998715460300445,-0.0119403069838881,0.0170272551476955
1783205162088390000,3.873389892578125,0.0151904818039387,0.1345288819551467,-0.3945750718921422,0.1238642334938049,-0.0045303273946046,0.0049894996918737
1783205162098327000,3.8833271484375,-0.0056496963247656,0.1551733183160424,-0.2847299648165702,0.1372478902339935,0.0016556228511035,-0.0061969058588147
1783205162108265000,3.893264892578125,-0.0215798175148665,0.1139531269162893,-0.1847796442896127,0.1403858810663223,0.0007887636311352,-0.0121448095887899
1783205162118201900,3.903201904296875,-0.0225792038157582,0.0856523305833339,-0.1064829371660947,0.1368855834007263,-0.0065261386334896,-0.019769674167037
1783205162128139000,3.913138916015625,0.0139386551119387,0.0653483782231807,-0.018970657929778,0.1213247403502464,-0.0167955551296472,-0.0231625419110059
1783205162138076200,3.923076171875,0.0504582676053047,0.0450672222167253,0.0778197372615337,0.0996389985084533,-0.0118262860924005,-0.022513935342431
1783205162148012800,3.9330126953125,0.0897784706026315,0.0242260942399501,0.1851128217667341,0.0731618478894233,0.0039044739678502,-0.0200289394706487
1783205162157951000,3.942950927734375,0.0940912923004478,-0.0296066182345151,0.2753735229283571,0.0446800366044044,0.0065835742279887,-0.0111855054274201
1783205162167888000,3.952887939453125,0.106148225319013,-0.1066509872093796,0.3023918782353401,0.0121721616014838,0.0011794874444603,0.0007065737154334
1783205162177825000,3.962824951171875,0.1128306256923824,-0.1495399886041879,0.2589151400804519,-0.0124556375667452,-0.0076185287907719,0.0139079242944717
1783205162187762000,3.972761962890625,0.1243763943184167,-0.1618161173313856,0.2307259874284267,-0.0330685041844844,-0.0081141432747244,0.0263576693832874
1783205162197699000,3.982698974609375,0.1192040331818163,-0.1530035730615258,0.1908393827199935,-0.0417106412351131,0.0020401054061949,0.0359656289219856
1783205162207636000,3.992635986328125,0.1029710565876215,-0.1331216455057263,0.1771352670162916,-0.0423660464584827,0.0176899041980505,0.0435588359832763
1783205162217574000,4.002573974609375,0.1005216176088899,-0.1025648869395256,0.1077735614985227,-0.0400150716304779,0.0337282195687294,0.0465606860816478
1783205162227511000,4.012510986328125,0.0893141410265117,-0.0629343028187751,0.0288835646569728,-0.0300053134560585,0.0375626385211944,0.0534247159957885
1783205162237448000,4.022447998046875,0.0469799970354884,-0.0492012532815337,-0.0569137273550033,-0.0267239324748516,0.0372211821377277,0.0592873655259609
1783205162247385000,4.032385009765625,-0.0098707480859011,-0.0462272059068083,-0.1364712481945753,-0.0175634585320949,0.026480121538043,0.0649444535374641
1783205162257322000,4.042322021484375,-0.0644555941019207,-0.0298006795018911,-0.2316080309599638,-0.0037351278588175,0.0127040054649114,0.0689249485731124
1783205162267260200,4.05226025390625,-0.1026332760006189,0.0067205404266715,-0.2667512405335903,0.0084725357592105,0.0050793751142919,0.064344048500061
1783205162277196800,4.06219677734375,-0.1325876116942614,0.0706231037557125,-0.2760825479805469,0.0323425084352493,0.0001488062553107,0.0592111274600029
1783205162287134000,4.072134033203125,-0.1660278167422861,0.1552358621582388,-0.2843114471435546,0.0583589300513267,0.0011951620690524,0.045673482120037
1783205162297071000,4.082071044921875,-0.1801103373043239,0.2390627308800816,-0.275146143913269,0.071795180439949,0.0030482991132885,0.0314727760851383
1783205162307009000,4.092009033203125,-0.2095102539855986,0.2813672103852033,-0.2116150442451238,0.0835871249437332,0.0057772402651607,0.0099957147613167
1783205162316946000,4.10194580078125,-0.2243677044428884,0.2926090276286006,-0.1269838734030723,0.0778894275426864,-0.0030454294756054,-0.0086183166131377
1783205162326883000,4.111883056640625,-0.2213147466130554,0.2896101380735635,-0.051975686430931,0.065547801554203,-0.0110511584207415,-0.0210827086120843
1783205162336820000,4.121820068359375,-0.2003088565286248,0.277249838194251,0.0187654907464981,0.0456607155501842,-0.0176594518125057,-0.0377066284418106
1783205162346756900,4.1317568359375,-0.1514963103037327,0.2689852831959724,0.1081038163661956,0.0242656804621219,-0.0219159796833992,-0.0497912541031837
1783205162356695000,4.141695068359375,-0.1146841446045786,0.2334709022223949,0.1956792239665985,-0.0057678893208503,-0.0151615273207426,-0.0589854456484317
1783205162366632000,4.1516318359375,-0.0837242120649665,0.1830982670739293,0.2799105818361044,-0.0299789514392614,-0.0079398341476917,-0.0665474981069564
1783205162376569000,4.161569091796875,-0.0436141738642007,0.1270037471473216,0.3101116588324308,-0.0573494248092174,-0.0033739078789949,-0.0724271908402443
1783205162386506000,4.171506103515625,0.0007310907535254,0.0750908968195319,0.3077642189234495,-0.0746780857443809,0.001792624592781,-0.0662127062678337
1783205162396443000,4.18144287109375,0.0590463554695248,0.0342193727269768,0.2486708094418048,-0.091033786535263,0.007820988073945,-0.0603732205927372
1783205162406380800,4.191380859375,0.1228469927940517,0.0187538003087043,0.1797796440452337,-0.1018131971359252,0.0136437229812145,-0.0526846759021282
1783205162416318000,4.20131787109375,0.1503667217519134,-0.0075187050670385,0.1264466977864503,-0.1089696288108825,0.0197980031371116,-0.0455821268260479
1783205162426255000,4.211255126953125,0.1608851200915872,-0.0512117163211107,0.0351595761865377,-0.1071892976760864,0.0267384648323059,-0.0302260722965002
1783205162436192000,4.22119189453125,0.1303152097828686,-0.1023340007930994,-0.0745247873693704,-0.0971511602401733,0.0202579535543918,-0.0195693038403987
1783205162446129200,4.231129150390625,0.0809196760382503,-0.1517854294434189,-0.1991682351261377,-0.0761497393250465,0.0157153997570276,-0.0047051352448761
1783205162456067000,4.241067138671875,0.0148198218606412,-0.1796191927865147,-0.3129565268695354,-0.0483901873230934,0.0075967814773321,0.0010414032731205
1783205162466004000,4.25100390625,-0.0223522631920874,-0.1938435329720377,-0.3982283337026834,-0.0126063544303178,0.0045032533816993,0.0097880233079195
1783205162475940900,4.26094091796875,-0.0387735288999974,-0.158961896944046,-0.416069695341587,0.0215247217565774,0.0061376034282147,0.0103512806817889
1783205162485878000,4.2708779296875,-0.042398514464125,-0.0979433646187186,-0.4142448180019855,0.0543143600225448,0.0036749786231666,0.0097949458286166
1783205162495815000,4.28081494140625,-0.0126266957305371,-0.024761516290903,-0.3833662801355123,0.052480574697256,0.0182228367775678,0.0053360830061137
1783205162505753000,4.290753173828125,-0.0444210332676768,0.0384001655429601,-0.1868517743885517,0.0626916661858558,0.0146605931222438,-0.0003436408005654
1783205162515690000,4.30068994140625,0.0198013366002589,0.0566638442471623,-0.2275841822713613,0.0814642757177352,-0.0135219823569059,0.0036838583182543
1783205162525627000,4.310626953125,0.100258948084712,0.0666460168182849,-0.3164636582076549,0.0846267789602279,-0.0261355098336935,0.010487169958651
1783205162535564000,4.32056396484375,0.0137767425484955,0.0599818827539682,-0.1345049165576696,0.0779302939772605,-0.0223595276474952,0.0026397993788123
1783205162545501000,4.3305009765625,-0.0601821545664221,0.0349760363131761,0.0515507390171289,0.0678622126579284,-0.0100599834695458,-0.0071132290177047
1783205162555439000,4.340439208984375,-0.0493023025032132,0.0410404509186744,0.147919109404087,0.0568561181426048,0.0044671669602394,-0.0148104634135961
1783205162565376000,4.3503759765625,-0.0248455413125455,0.0660717240616679,0.1553776087164878,0.0502400323748588,0.0122398687526583,-0.0208563730120658
1783205162575313000,4.36031298828125,-0.0024326339744031,0.0546627335578203,0.1600835944503545,0.0381100885570049,0.0173364616930484,-0.026601942256093
1783205162585249800,4.370249755859375,0.0207131176829338,0.0346150940462946,0.1697387270241975,0.0188413206487894,0.0122335795313119,-0.0292278192937374
1783205162595188000,4.38018798828125,0.075238926988095,0.0238081610888242,0.1560574076741933,-0.0067379334941506,0.0035800314508378,-0.036799419671297
1783205162605124900,4.390124755859375,0.1633415733329951,0.0533387914776802,0.1471446179002523,-0.0319868326187133,-0.0006322902627289,-0.0353421382606029
1783205162615062000,4.40006201171875,0.2327352814242243,0.0491784569278359,0.1394318515658378,-0.0535243451595306,0.0067992606200277,-0.0305737480521202
1783205162624999200,4.409999267578125,0.2547645962722599,-0.0227744341269135,0.1196077916771173,-0.0713036134839057,0.0142462579533457,-0.0170936249196529
1783205162634935800,4.419935791015625,0.2377065670307725,-0.1399395088270306,0.047279637569189,-0.0799469873309135,0.0093748122453689,0.0078373244032263
1783205162644874000,4.4298740234375,0.1678519634295255,-0.2389683305948972,-0.0561912582993507,-0.0751149505376815,0.0037270463071763,0.0260131321847438
1783205162654811000,4.439810791015625,0.0853559049200266,-0.3024012305855751,-0.175209851911664,-0.0459489673376083,0.0035046052653342,0.0395792424678802
1783205162664748000,4.449748046875,0.0414447208706289,-0.2989028670758009,-0.2952946134507656,-0.0102679319679737,0.0090628890320658,0.05231873691082
1783205162674685000,4.459684814453125,0.0126088678129017,-0.2524877373814582,-0.3647475043833255,0.0290807038545608,0.0075760832987725,0.0598983988165855
1783205162684622000,4.4696220703125,0.024951412839815,-0.1610328579992055,-0.405288189086318,0.0552782192826271,0.0023775927256792,0.0671472549438476
1783205162694560000,4.47956005859375,0.0287987359177321,-0.0711804453775286,-0.4179050940752029,0.0819767042994499,-0.0106341606006026,0.0717573463916778
1783205162704497000,4.489496826171875,0.018567922347784,-0.0048258127212524,-0.3865256209492683,0.1013717055320739,-0.017723761498928,0.0774197578430175
1783205162714433800,4.499433837890625,-0.0050474195826798,0.0704457013621926,-0.2977268090337515,0.1107204109430313,-0.016613595187664,0.0767075642943382
1783205162724371000,4.509370849609375,-0.0534196016289293,0.1321820265680551,-0.1976379568189382,0.1120812818408012,-0.0089508816599845,0.0624767020344734
1783205162734308900,4.519308837890625,-0.1106667987219989,0.1755918369665741,-0.0904945099174976,0.1171001642942428,-0.0052032135426998,0.0467923134565353
1783205162744246000,4.52924609375,-0.1645788600429892,0.208315418177843,-0.0049281040519475,0.109534665942192,-0.0059006949886679,0.0291054639965295
1783205162754183200,4.53918310546875,-0.2016797795556485,0.2173193933665752,0.0739811820119619,0.0993076637387275,-0.0032087522558867,0.0129696009680628
1783205162764119800,4.549119873046875,-0.205018130198121,0.2046867062866687,0.1587830332458019,0.0805156007409095,-0.000909911468625,0.0032863470260053
1783205162774057000,4.559056884765625,-0.1904785865835845,0.1921937199383974,0.2448310851484537,0.0570158921182155,-0.0048370924778282,-0.0064143179915845
1783205162783995000,4.568994873046875,-0.1440280933149159,0.1965367175787687,0.2874181809872388,0.021114882081747,-0.0055731902830302,-0.0160642825067043
1783205162793932000,4.57893212890625,-0.0917442907828837,0.2013289202913641,0.3471919739484786,-0.0153821744024753,-0.007080668117851,-0.0256642419844865
1783205162803869000,4.588868896484375,-0.0358936626147478,0.1989779732510447,0.360770417445898,-0.0450263507664203,-0.002715480979532,-0.0318813920021057
1783205162813806000,4.59880615234375,0.0079508128739893,0.1882745006680488,0.3397662078619003,-0.071772813796997,0.0113920085132122,-0.0403007790446281
1783205162823743000,4.608742919921875,0.028816052378714,0.1449941618680953,0.3128518974512815,-0.0982020199298858,0.0180893260985612,-0.0416158437728881
1783205162833681000,4.618680908203125,0.0299968596611171,0.0768462160542607,0.2536152801066637,-0.1137463897466659,0.018538948148489,-0.0369392372667789
1783205162843617800,4.62861767578125,0.047847646715492,0.0115752869814634,0.1374877317607402,-0.1207073628902435,0.0180159024894237,-0.0358148477971553
1783205162853555000,4.638554931640625,0.0691204441078007,-0.0512438650250434,0.0352244581162929,-0.1199529245495796,0.0211354047060012,-0.0185590628534555
1783205162863492000,4.6484921875,0.0608432488236576,-0.1204480418935418,-0.0793248811274766,-0.1102212071418762,0.0229687262326478,-0.0073815095238387
1783205162873430000,4.658429931640625,0.0258261498477309,-0.1487526376187801,-0.2007540430128574,-0.0904330313205719,0.0142041947692632,0.0052164373919367
1783205162883367200,4.6683671875,0.0090705376189202,-0.139852999587357,-0.3267570886850356,-0.0651053041219711,0.0051521104760468,0.0095547260716557
1783205162893303800,4.6783037109375,0.0060396454904228,-0.1024070660293102,-0.4360556677937507,-0.0321433655917644,-0.0103099355474114,0.0119339944794774
1783205162903241000,4.688240966796875,0.0173147804815322,-0.0307484817460179,-0.5021615863859653,0.0050442181527614,-0.0150796575471758,0.0109126726165413
1783205162913177900,4.698177734375,0.0159068864449858,0.0239352945998311,-0.5010843125432729,0.0372635871171951,-0.0179510097950696,0.0087204948067665
1783205162923116000,4.708115966796875,0.0125192898333072,0.0610945201709866,-0.458024923017621,0.0661221370100975,-0.0175214428454637,0.0037134860176593
1783205162933053000,4.718052978515625,-0.0033900808297097,0.0822553816214203,-0.3696463823407888,0.0783780291676521,-0.0166038013994693,0.0004310398362576
1783205162942990000,4.727989990234375,-0.0404978684745728,0.0714244832664728,-0.2649275322377681,0.0890320017933845,-0.0213657990097999,-0.0031053717248141
1783205162952926500,4.737926513671875,-0.0766521547868847,0.0455149659842252,-0.1397819801777601,0.0874722898006439,-0.0259323567152023,-0.0124778682366013
1783205162962864400,4.747864501953125,-0.0866790432825684,0.0272542098894715,-0.0229220259040594,0.0773184597492218,-0.0289734192192554,-0.0221946761012077
1783205162972801500,4.757801513671875,-0.0591077302679419,0.0260483412310481,0.0886211172610521,0.0634713023900985,-0.0214619077742099,-0.0254525933414697
1783205162982738400,4.767738525390625,-0.0303513721872121,0.0198293205857276,0.2031348006695509,0.0428171567618846,-0.0072161275893449,-0.0233782567083835
1783205162992675600,4.777675537109375,0.0060118076354265,-0.0112950087353587,0.2958300355017185,0.0136796981096267,-0.0008844095282256,-0.0131342038512229
1783205163002612500,4.787612548828125,0.0358590296927839,-0.0466509842768311,0.3222118464708328,-0.014776443131268,0.0032783776987344,-0.0019100450444966
1783205163012550400,4.79755029296875,0.0701228991486132,-0.0533791234880685,0.2979576951801777,-0.0316578075289726,0.0095674972981214,0.0117400186136364
1783205163022487300,4.8074873046875,0.0818762461107224,-0.0490688590735197,0.2367582533299922,-0.0401213318109512,0.0277528911828994,0.0192120503634214
1783205163032424400,4.817424560546875,0.0444838693708181,-0.0157604637116193,0.1656307071834802,-0.0321898646652698,0.0353595092892646,0.0176331251859664
1783205163042361600,4.827361572265625,0.0119946083720773,0.0478393172785639,0.0214911163181066,-0.0129887415096163,0.04183791577816,0.0006581374909728
1783205163052299500,4.837299560546875,0.0016777970191091,0.1465378841787576,-0.1706879905730486,0.0155659141018986,0.0376398488879203,-0.0220781303942203
1783205163062236700,4.847236572265625,0.0142437755383551,0.1912663759604096,-0.3307996420741081,0.0411277338862419,0.0311342813074588,-0.0438364259898662
1783205163072173300,4.85717333984375,0.0408922746196389,0.1946191935196518,-0.4331926795780658,0.0620035156607627,0.0172448456287384,-0.0595618933439254
1783205163082110500,4.8671103515625,0.0478509346511214,0.1285527301549911,-0.4524380627959966,0.0690124258399009,0.0061647654511034,-0.0546962991356849
1783205163092047400,4.87704736328125,0.022445713629201,-0.0310012874633073,-0.4154565318793058,0.0625682100653648,-0.0065723718143999,-0.0343915894627571
1783205163101985500,4.886985595703125,-0.051325844220072,-0.2234922367826104,-0.3646165714800357,0.064752273261547,-0.0266526043415069,-0.0023364531807601
1783205163111922400,4.89692236328125,-0.1037160297360271,-0.365339625057578,-0.3285276054888963,0.0793075338006019,-0.056700337678194,0.0208750255405902
1783205163121859600,4.906859619140625,-0.0829784351989626,-0.3486737369388342,-0.3220873433083295,0.1040565520524978,-0.0749658942222595,0.031105026602745
1783205163131796500,4.91679638671875,0.0097186262641102,-0.1758031416296958,-0.2476958269298076,0.1317228823900222,-0.0587245002388954,0.0273565296083688
1783205163141734400,4.926734375,0.1170324612963944,0.0398512411341071,-0.0840390501677989,0.1407757699489593,-0.0197688490152359,0.016817869618535
1783205163151671300,4.93667138671875,0.2028168207615613,0.1771297140583395,0.1455494576632976,0.1271698623895645,0.0128121599555015,0.0213067233562469
1783205163161608400,4.9466083984375,0.2361277003414928,0.1914715431436896,0.2818985407829285,0.0943565219640731,0.0219228342175483,0.0267435666173696
1783205163171545600,4.956545654296875,0.2141918359305709,0.1273410162776708,0.3167798845499753,0.0454275086522102,0.0143012013286352,0.0326551236212253
1783205163181483500,4.9664833984375,0.1641184029243886,0.0634814153075218,0.3477063532114028,0.000560700893402,0.0023808924015611,0.0377265810966491
1783205163191420700,4.976420654296875,0.0817715436272323,0.0016138649374246,0.3645961132138967,-0.0375341363251209,0.0013658944517374,0.0400021150708198
1783205163201357300,4.986357421875,-0.0038788872599601,-0.0498714076280593,0.3673854516714811,-0.0685029700398445,0.0063958065584301,0.036728024482727
1783205163211294500,4.99629443359375,-0.03678717738837,-0.0602966477915644,0.3657330082893371,-0.0883103609085083,0.0152306370437145,0.0334363877773284
1783205163221231400,5.0062314453125,-0.0191266522090882,-0.03431611109972,0.3171265060305595,-0.1048656329512596,0.0276609398424625,0.0338262729346752
1783205163231169500,5.01616943359375,0.0161226480875164,-0.0250236743584275,0.2751689402669668,-0.126461386680603,0.0339138843119144,0.0343561470508575
1783205163241106400,5.0261064453125,0.0626657880757004,-0.0013750877454876,0.1997808140665292,-0.1446539759635925,0.0272967293858528,0.0402348116040229
1783205163251043600,5.036043701171875,0.0988598218765109,0.0034711832419037,0.0886053351700306,-0.172224074602127,0.0028832061216235,0.0577745512127876
1783205163260980500,5.04598046875,0.1189751197967678,-0.0290001767739653,-0.0020417349606752,-0.1995885819196701,-0.0189664326608181,0.0684921741485595
1783205163270918400,5.05591845703125,0.0835565273478627,-0.0654918783470988,-0.0749549954801797,-0.2206198871135711,-0.0406359322369098,0.0808139219880104
1783205163280855300,5.065855224609375,0.0390834716320037,-0.0704071229174733,-0.1367903971463441,-0.2208728790283203,-0.0505519472062587,0.0776639357209205
1783205163290792400,5.07579248046875,-0.039692835702002,-0.073980889751017,-0.1829746406942606,-0.2016597688198089,-0.0502267144620418,0.0656124353408813
1783205163300729600,5.0857294921875,-0.0926906317222863,-0.0877405350342392,-0.2267535766661167,-0.1709074527025222,-0.0341942198574543,0.0574863329529762
1783205163310666500,5.09566650390625,-0.1280654580947011,-0.1062982282489538,-0.2173088719725608,-0.1355946660041809,-0.0154550783336162,0.0480012856423854
1783205163320604700,5.105604736328125,-0.1092889344975352,-0.1183127834305167,-0.1848532940477132,-0.1085199117660522,-0.013424951583147,0.0399500168859958
1783205163330541300,5.115541259765625,-0.030183249078691,-0.075355392974615,-0.1498591375559568,-0.0972465127706527,-0.0095881111919879,0.039454136043787
1783205163340478500,5.125478515625,0.0467502068676054,-0.0429264107957482,-0.0691273122400045,-0.105660505592823,-0.0150723587721586,0.041472278535366
1783205163350415400,5.135415283203125,0.099801121314615,-0.0256648948714137,0.0099450554311275,-0.1228443458676338,-0.0183672942221164,0.0500494539737701
1783205163360353500,5.145353515625,0.1114062919776886,-0.0180284086436033,0.0924064810186624,-0.1441024988889694,-0.0052174027077853,0.0559502206742763
1783205163370290400,5.15529052734375,0.0933609321992844,-0.0463014401867985,0.1850245589613914,-0.1643741726875305,0.0092630982398986,0.0594318322837352
1783205163380227600,5.1652275390625,0.0316234379496425,-0.1106575925022363,0.2085562411963939,-0.1770122051239013,0.020208690315485,0.057034458965063
1783205163390164500,5.17516455078125,-0.0036254239555448,-0.1518532339826226,0.1747241142213344,-0.1808375567197799,0.0249319858849048,0.0562585741281509
1783205163400102400,5.185102294921875,0.0066932140283286,-0.1717971208587288,0.1321937170058488,-0.1810964196920395,0.0309033263474702,0.0605883412063121
1783205163410039600,5.19503955078125,0.0825740921817719,-0.1338163497716188,0.0939092867970466,-0.1824724823236465,0.0374147556722164,0.0671873912215232
1783205163419976400,5.2049765625,0.168583419509232,-0.0679646982014179,0.0596545504957437,-0.1911887377500534,0.0501068457961082,0.0805127844214439
1783205163429913600,5.21491357421875,0.229032408318296,-0.0136681676074862,0.0572673630982637,-0.2026897072792053,0.066116027534008,0.0952103734016418
1783205163439851500,5.2248515625,0.2578941995348781,0.0183203773275017,0.0337146380752325,-0.2101047486066818,0.067326433956623,0.107077419757843
1783205163449788700,5.23478857421875,0.2314679649021476,0.0010562310546636,-0.0237467862904071,-0.2094278186559677,0.0708982869982719,0.1164570599794387
1783205163459725300,5.244725341796875,0.1899111619591713,-0.0273673148751258,-0.0950315688252449,-0.2003176659345626,0.0077502122148871,0.1261413842439651
1783205163469662500,5.254662353515625,0.1335258423924446,-0.057414078092575,-0.2699900763243437,-0.192065954208374,0.0212773326784372,0.1422714442014694
1783205163479599400,5.264599365234375,0.1231550358299165,-0.0911541428700089,-0.2582154673784971,-0.1780175119638443,0.0370352566242218,0.1655506789684295
1783205163489537500,5.27453759765625,-0.0594849660824984,-0.2234846379980444,-0.115167763403058,-0.1602213084697723,0.0038193436339497,0.1765390485525131
1783205163499474400,5.284474365234375,-0.0492706652559339,-0.1585837112814188,-0.276242706978321,-0.1629702299833297,-0.0013447920791804,0.1879440397024154
1783205163509411600,5.29441162109375,0.0804855224046856,-0.0167389533549547,-0.2428010406255722,-0.1547706872224807,-0.0064658285118639,0.1964577883481979
1783205163519348500,5.304348388671875,0.0220456083957105,-0.0037304186999797,-0.183742117935419,-0.1492073386907577,-0.0098472442477941,0.1942460387945175
1783205163529286400,5.314286376953125,-0.0314148367002606,0.0396080800279974,-0.2310340304642915,-0.1245180815458297,-0.0062846103683114,0.1897598057985305
1783205163539223600,5.3242236328125,-0.0100963004700839,0.0713116705417633,-0.2815010658979415,-0.0953540727496147,-0.0160347092896699,0.1797822713851928
1783205163549160400,5.334160400390625,-0.0706022070981562,0.1230658231765031,-0.315956293207407,-0.0725884735584259,-0.0048974063247442,0.1560097932815551
1783205163559097600,5.34409765625,-0.2189913451667875,0.1365805537879467,-0.2998679127156734,-0.0455523245036602,-0.0013796365819871,0.1330932974815368
1783205163569035500,5.354035400390625,-0.2363985531721264,0.1409983702301979,-0.3263292186617851,-0.0134981870651245,-0.0074309138581156,0.1196464747190475
1783205163578972700,5.36397265625,-0.2222341995455324,0.1658636391565203,-0.3618634733796119,0.008724826388061,-0.0136730978265404,0.1131454333662986
1783205163588909300,5.373909423828125,-0.1575564871255308,0.1799471095666289,-0.3775742527306079,0.029688537120819,-0.0176401510834693,0.1002085134387016
1783205163598846500,5.383846435546875,-0.1830515783879905,0.2101028861165046,-0.3097679599612951,0.0476558171212673,-0.0245542488992214,0.0869552940130233
1783205163608784400,5.393784423828125,-0.1934182932972908,0.2532107909590005,-0.2782978859424591,0.0696549117565155,-0.0313105285167694,0.0768325179815292
1783205163618721500,5.403721435546875,-0.1582617127854376,0.2757785965979099,-0.277658418995142,0.0891183540225029,-0.0398915000259876,0.0595523342490196
1783205163628658400,5.413658447265625,-0.1821038492091,0.2870738975942135,-0.2334340773433446,0.0961674228310585,-0.0336419306695461,0.0394861511886119
1783205163638595600,5.423595703125,-0.2369729920592158,0.2551312376275658,-0.099915833735466,0.1001656204462051,-0.0318759903311729,0.0260595567524433
1783205163648533500,5.433533447265625,-0.2244490991160273,0.2559264796584844,-0.0265086522191762,0.095219001173973,-0.0534507744014263,0.0069460873492062
1783205163658470400,5.443470458984375,-0.1886180534087121,0.2707657368719577,-0.0156458974212408,0.0879674777388572,-0.0422452576458454,-0.0041672838851809
1783205163668407600,5.453407470703125,-0.1465009862344712,0.2908522470891475,0.0566577067673206,0.0777518600225448,-0.0224254820495843,0.0008487803861498
1783205163678344400,5.463344482421875,-0.1723421875208616,0.1827080987125635,0.1997995187669992,0.059467926621437,-0.0204840376973152,-0.0051305489614605
1783205163688282400,5.473282470703125,-0.1724261394772678,0.1486304725438356,0.2073714153259992,0.0394957587122917,-0.0208734646439552,-0.0195364523679018
1783205163698219500,5.483219482421875,-0.1521667569112032,0.1741407613754272,0.2331400628328323,0.0199300460517406,-0.0157476775348186,-0.0280681550502777
1783205163708156700,5.49315673828125,-0.1187903378143906,0.1492754924491048,0.2570738961279392,0.0057585486210882,-0.0072614033706486,-0.0346698090434074
1783205163718093300,5.50309326171875,-0.0607148732036352,0.1356172617137432,0.25599077706635,-0.0069436635822057,0.0004969174042344,-0.0406062602996826
1783205163728030500,5.513030517578125,-0.0205519357718527,0.1398836869865656,0.2104927622169256,-0.0165889672935009,0.0012828488834202,-0.04601426795125
1783205163737968400,5.522968505859375,-0.0582462911330163,0.0593868394702672,0.1506967574238777,-0.0237739086151123,0.0048368372954428,-0.0589305981993675
1783205163747905500,5.532905517578125,-0.1423159556347876,-0.0901756532266735,0.1211480068564414,-0.0217770524322986,0.0064263036474585,-0.0775481611490249
1783205163757842400,5.542842529296875,-0.1597574312359094,-0.2151017173171043,0.0728285048454999,-0.0237986594438552,0.0057935365475714,-0.0819266662001609
1783205163767779600,5.552779541015625,-0.0163127638321369,-0.2458630585446953,0.012062778237462,-0.021830067038536,0.0106766168028116,-0.0775354355573654
1783205163777717500,5.562717529296875,0.1801256079386919,-0.201827225202322,-0.0540671057522296,-0.0271960720419883,0.019253859296441,-0.0554530434310436
1783205163787654400,5.572654296875,0.3882638429187238,-0.1733168777719139,-0.1186240413367748,-0.0289908610284328,0.020036157220602,-0.026255115866661
1783205163797591600,5.582591552734375,0.5126506125006824,-0.170882928623259,-0.1992453920155763,-0.0294771529734134,0.0139777325093746,0.0169698521494865
1783205163807528400,5.592528564453125,0.5380016191173345,-0.214947403538227,-0.2888911761492491,-0.0216122195124626,0.0022421195171773,0.0576804354786872
1783205163817466600,5.602466552734375,0.4927106711473316,-0.2778556951329112,-0.3606348083674907,0.0016286531463265,-0.0089562069624662,0.0995820835232734
1783205163827403500,5.612403564453125,0.4048722286965698,-0.2914610266372561,-0.4103115702062845,0.035823356360197,-0.0120115466415882,0.1314611881971359
1783205163837340400,5.62234033203125,0.316835194933787,-0.2422059973418712,-0.4317220225036144,0.0715254247188568,-0.0045903818681836,0.1534493118524551
1783205163847277300,5.63227734375,0.2312358366467058,-0.1467339912727475,-0.3790156837105751,0.1143395379185676,0.0128951882943511,0.1649213135242462
1783205163857215500,5.642215576171875,0.1479536692608147,-0.0252855401650071,-0.3277215498030185,0.149753987789154,0.0302965492010116,0.1678859442472458
1783205163867152400,5.65215234375,0.0683913991808891,0.0805225664794445,-0.2987877162635326,0.1787121593952179,0.0383838638663291,0.1624891012907028
1783205163877089500,5.662089599609375,-0.0479981611020863,0.135255734924972,-0.2388777297019958,0.1990690976381302,0.0411556810140609,0.1546048074960708
1783205163887026400,5.6720263671875,-0.1699463053602725,0.1575260189220309,-0.1737017854362726,0.2046955972909927,0.0410346649587154,0.143576830625534
1783205163896964600,5.681964599609375,-0.2416265169534832,0.2130962227135896,-0.0830406867802143,0.1977716535329818,0.0333935245871543,0.1288692653179168
1783205163906901200,5.6919013671875,-0.2500751232817769,0.2869265980780124,-0.0006733692169189,0.1811505556106567,0.0287332758307456,0.1152274385094642
1783205163916838400,5.70183837890625,-0.2556095957290381,0.371911989185214,0.0904658683449029,0.1586644202470779,0.0256187096238136,0.1036357581615448
1783205163926775600,5.711775634765625,-0.2510183954812586,0.4571437562689185,0.1786597001045942,0.131242960691452,0.0219088215380907,0.084847368299961
1783205163936713500,5.72171337890625,-0.2598564395185559,0.5173991952672601,0.2381383095115423,0.1036110669374466,0.0122058596462011,0.0704367384314537
1783205163946651000,5.73165087890625,-0.2595541686363518,0.5700368527382612,0.2546153970599174,0.0720218196511268,0.0065641836263239,0.0468458943068981
1783205163956588000,5.741588134765625,-0.3313959274668246,0.5548498050004244,0.2823644047290086,0.0403650924563407,0.0135589763522148,0.0193711258471012
1783205163966525200,5.751525146484375,-0.4415167827438563,0.5246335304349661,0.3552969544708728,0.0092325983569026,0.0130421072244644,-0.0190620347857475
1783205163976463000,5.761463134765625,-0.4836848494529724,0.4884802670359611,0.3622609482645988,-0.0254753157496452,0.0150671750307083,-0.0515065267682075
1783205163986400000,5.77139990234375,-0.4480268952902406,0.468608860874176,0.327929639595747,-0.0532231107354164,0.0120157450437545,-0.0832132846117019
1783205163996337000,5.7813369140625,-0.3813219878915697,0.4536737420707941,0.277924960976839,-0.0772834420204162,0.0117017570883035,-0.1065558940172195
1783205164006274000,5.791274169921875,-0.3022551731783896,0.4221566140398383,0.2321849540650844,-0.1192650347948074,0.0175657011568546,-0.1231373324990272
1783205164016212000,5.8012119140625,-0.2503923725374042,0.3587064706534147,0.2771463778197765,-0.1554499268531799,0.0170559734106063,-0.1436591148376464
1783205164026149000,5.811149169921875,-0.2289838199362158,0.3277148278012871,0.2526145786315202,-0.1519297659397125,-0.0088390074670314,-0.1552992612123489
1783205164036086000,5.8210859375,-0.0270867443680763,0.2395999064967036,-0.0573117867618799,-0.1445339024066925,-0.0259492862969636,-0.1535948365926742
1783205164046023200,5.831023193359375,0.000301174903661,0.1851435091659426,-0.1229196927040815,-0.1469757705926895,-0.0265772566199302,-0.1556014865636825
1783205164055961000,5.840961181640625,-0.0441671315718442,0.0975014660701155,-0.0601063859164714,-0.1492024362087249,-0.0148465661332011,-0.1592028886079788
1783205164065898000,5.85089794921875,-0.0309951499834656,0.0279746331185102,-0.062177346971631,-0.1344470232725143,-0.008938755840063,-0.1613053977489471
1783205164075835000,5.8608349609375,0.0502346149172633,-0.005380523994565,-0.1642950746655464,-0.1125361323356628,-0.0131281744688749,-0.1587189435958862
1783205164085772000,5.87077197265625,0.1155585893515497,-0.0454237805694341,-0.2866664858371019,-0.0930035486817359,-0.0176832117140293,-0.1536556929349899
1783205164095710000,5.8807099609375,0.1347420132491737,-0.1006777580186724,-0.3212555686593055,-0.071863904595375,-0.0160464309155941,-0.1445876359939575
1783205164105647000,5.890647216796875,0.1342624861039221,-0.1576601666957139,-0.2891927894443273,-0.0551184490323066,-0.0227756313979625,-0.1268657445907592
1783205164115584000,5.900583984375,0.1630547922808677,-0.189874337080121,-0.2545966923594475,-0.0451651476323604,-0.0171891190111637,-0.1158330664038658
1783205164125521000,5.91052099609375,0.1811686872508376,-0.2088759746700525,-0.2556067461848259,-0.0288106054067611,-0.0181007366627454,-0.1024763286113739
1783205164135459000,5.920458984375,0.1865543258119374,-0.2130950536698102,-0.2412175708264112,-0.0098275914788246,-0.0130252856761217,-0.0913789346814155
1783205164145396000,5.93039599609375,0.1633802979081869,-0.204490306931734,-0.2141512847244739,0.0006860885769128,-0.0123148597776889,-0.0835682526230812
1783205164155333000,5.9403330078125,0.1574527344901114,-0.1870785688817501,-0.2026379570633172,0.0159784909337759,-0.0088551472872495,-0.074580617249012
1783205164165270000,5.95027001953125,0.1536442821178585,-0.1874699062868952,-0.1582259838849306,0.026997584849596,-0.0014714431017637,-0.0632013604044914
1783205164175208200,5.960208251953125,0.1499318374659866,-0.1777788256168365,-0.1032785881668329,0.0340895801782608,0.0018457900732755,-0.0511574782431125
1783205164185144800,5.970144775390625,0.1454287538930773,-0.1623141299813985,-0.0698112028509378,0.0374783426523208,0.0063032479956746,-0.0410660915076732
1783205164195082000,5.98008203125,0.1283255703356117,-0.1529474589601159,-0.031285365101695,0.037491925060749,0.0088114133104681,-0.0278291143476963
1783205164205019000,5.990018798828125,0.0995293917011469,-0.1331947107419371,0.0199830498427152,0.0280064977705478,0.0148001639172434,-0.0200513042509555
1783205164214957000,5.99995703125,0.0770087862048298,-0.0991936569407582,0.0610235007613897,0.0164137575775384,0.0159506499767303,-0.0135473310947418
1783205164224894000,6.00989404296875,0.0572495351806282,-0.0628238281816244,0.0736813222825527,0.0111942710354924,0.0174262952059507,-0.0131182428449392
1783205164234831000,6.0198310546875,0.0329692265354096,-0.0329866160616278,0.0683528207361698,0.0073127136565744,0.0219395533204078,-0.0156362615525722
1783205164244768000,6.02976806640625,-0.0002224836442619,0.0066398764058947,0.0543283870369195,0.0053978594951331,0.0244084075093269,-0.0211585406213998
1783205164254706000,6.039705810546875,-0.0395020623702555,0.0355307475864887,0.0256254396438598,0.0025461465120315,0.0251495651900768,-0.0299461726099252
1783205164264643000,6.04964306640625,-0.0763771372377872,0.0557481907069683,-0.011995558220148,0.0046260217204689,0.0260889679193496,-0.0428717285394668
1783205164274580000,6.059580078125,-0.1066477723389864,0.0541477697730064,-0.0442325249582529,0.0085283517837524,0.0212875548750162,-0.0534000061452388
1783205164284517000,6.06951708984375,-0.1079095359031111,0.0559410829305648,-0.1023801780223846,0.0152443647384643,0.0151779819279909,-0.05961474776268
1783205164294455000,6.079455078125,-0.0631972646038979,0.0660799073681235,-0.12049801851511,0.016322411596775,0.0112988213077187,-0.0649887397885322
1783205164304392200,6.08939208984375,-0.0271641935184597,0.0639426030784845,-0.1171943007946014,0.0132944956421852,0.0078999726101756,-0.0681284293532371
1783205164314328800,6.099328857421875,0.0083659695461392,0.0399994174331426,-0.095387542656064,0.0113471923395991,0.0045718206092715,-0.0674269497394561
1783205164324266000,6.109265869140625,0.0384643898855894,0.0112768885567784,-0.0888344677507877,0.0103454766795039,0.0036813749466091,-0.0643224641680717
1783205164334204000,6.119203857421875,0.0527834956824779,-0.0074511927887797,-0.0965764601796865,0.0147953517735004,-9.76505689322e-05,-0.060701098293066
1783205164344141000,6.12914111328125,0.0679879329465329,-0.037109833471477,-0.0923053587317466,0.0197563245892524,0.0024431725032627,-0.0580182373523712
1783205164354078000,6.139077880859375,0.0643811406262219,-0.0349517786547541,-0.0918196210414171,0.0277993381023406,0.009716797620058,-0.0570416562259197
1783205164364016000,6.14901611328125,0.0644651656478643,-0.0419268783643841,-0.1137766013056039,0.0463961064815521,0.0183725506067276,-0.0507103726267814
1783205164373953000,6.158953125,0.050541196648404,-0.0575163694232702,-0.1478460441678762,0.0578295886516571,0.0180345941334962,-0.059047132730484
1783205164383890000,6.168889892578125,0.0422480731427669,-0.0529971384331584,-0.2105962225914001,0.0734353363513946,0.015318114310503,-0.055585891008377
1783205164393827000,6.1788271484375,0.0368099006768316,-0.0448521181613206,-0.2526321142882108,0.0585618503391742,0.0500712990760803,-0.0446767844259738
1783205164403765000,6.188764892578125,-0.0073147069275379,-0.0769391550347208,-0.1109060143053531,0.0564815998077392,0.058629211038351,-0.0439599864184856
1783205164413702000,6.198701904296875,-0.1622677335564047,-0.1683180465713143,-0.1691425146967172,0.0789147391915321,0.0316862799227237,-0.0522504076361656
1783205164423639000,6.20863916015625,-0.0198394035883247,-0.06618892070055,-0.5162754519343375,0.1207736060023307,0.0269661322236061,-0.0511537417769432
1783205164433576200,6.218576171875,-0.0549778639215976,-0.0117646720737218,-0.5242763875603675,0.1589313745498657,-0.0122209507972002,-0.0690704211592674
1783205164443514000,6.22851416015625,-0.0835688023075461,-0.0046913726866245,-0.5729752442777156,0.1917526423931121,-0.0270988624542951,-0.0874924808740615
1783205164453451000,6.238450927734375,-0.0557582737095654,0.0198202604964375,-0.5038192904651164,0.2342889159917831,-0.045768417418003,-0.1004447638988494
1783205164463388000,6.248387939453125,0.0251741887450218,0.025386370190978,-0.4815571897745132,0.2708315849304199,-0.0822298675775528,-0.1057591885328292
1783205164473325000,6.258324951171875,0.1176063887268304,0.0299251826643943,-0.4650245726466178,0.2978008985519409,-0.0916832983493805,-0.1024558022618293
1783205164483263000,6.268262939453125,0.1096133441463112,0.0257101953178644,-0.2862614121675491,0.3134558200836181,-0.0807088688015937,-0.1100062876939773
1783205164493200100,6.2782001953125,0.0680273881740868,-0.0153428228214383,-0.1074403840214014,0.3135069608688354,-0.0723156481981277,-0.095467559993267
1783205164503137000,6.288136962890625,0.1511286460351198,-0.0717123602971434,0.0181593415468931,0.2918601930141449,-0.0774244666099548,-0.079299084842205
1783205164513074000,6.298073974609375,0.1904677729286253,-0.0871960528939962,0.1515805545210838,0.2619872391223907,-0.0785693526268005,-0.0676746517419815
1783205164523011800,6.30801171875,0.2136613823156803,-0.0943476782143116,0.2341910331904888,0.2292153388261795,-0.0832200050354003,-0.0501084104180336
1783205164532949000,6.317948974609375,0.2671076527558267,-0.0982584219172596,0.2664239082753658,0.2013645321130752,-0.0740675181150436,-0.0242211502045393
1783205164542886100,6.32788623046875,0.2626031809434294,-0.1048141271710395,0.3354460065752268,0.1664317399263382,-0.0611925199627876,-0.0079969810321927
1783205164552823000,6.337822998046875,0.2210847372494638,-0.1106423949331045,0.3735872289210558,0.1415767222642898,-0.0430715754628181,0.0059984624385833
1783205164562761000,6.347760986328125,0.1952271693501621,-0.0898868994131684,0.3566758416086435,0.1203864440321922,-0.0335940681397914,0.0139319002628326
1783205164572698000,6.357697998046875,0.1715854508694261,-0.0503521768823266,0.297145794275403,0.0999168530106544,-0.026632834225893,0.0188968311995267
1783205164582635000,6.367635009765625,0.1469389392603188,-0.0241422153487801,0.2304454169213771,0.0856464654207229,-0.0249637942761182,0.0296488422900438
1783205164592572000,6.377572021484375,0.1222892127808183,-0.0200777423888444,0.1480447816103696,0.0678626745939254,-0.0285247061401605,0.0371094234287738
1783205164602510000,6.387510009765625,0.1059446655709296,-0.009240998815,0.1043944404542446,0.0515182092785835,-0.0306832585483789,0.0474283024668693
1783205164612447000,6.397447021484375,0.0723489046350121,0.0113879477158188,0.089812957394123,0.0349837094545364,-0.0315836705267429,0.0520177260041236
1783205164622384000,6.407384033203125,0.0357351841174066,0.0385357746213674,0.0845458306461572,0.022329531610012,-0.023807993158698,0.043641310185194
1783205164632322000,6.417322021484375,-0.0038692426487803,0.0599453501358628,0.0913812296241521,0.0151887983083724,-0.0200225766748189,0.0341719053685665
1783205164642259200,6.42725927734375,-0.0372629782065749,0.0832613437935709,0.1165074875742196,0.0067720469087362,-0.0149248000234365,0.0241213794797658
1783205164652195800,6.43719580078125,-0.0412240638572722,0.1018839189380407,0.1159679738700389,-0.0016845548525452,-0.0102197937667369,0.0195628460496664
1783205164662133000,6.447133056640625,-0.0246854553800076,0.0978328899815678,0.110863344207406,-0.0121274543926119,-0.0005861320532858,0.0138779897242784
1783205164672071000,6.45707080078125,-0.0171310944776982,0.0881207665234804,0.1425467687159776,-0.0287778042256832,0.0076875104568898,0.013819133862853
1783205164682008000,6.467008056640625,-0.0174169256817549,0.0827937262818217,0.1721013645023107,-0.0479041412472724,0.0131238438189029,0.0092771537601947
1783205164691945000,6.476945068359375,-0.0299296396438032,0.068012921257317,0.1570195307046175,-0.0567618124186992,0.0143851172178983,0.0088286772370338
1783205164701882000,6.486882080078125,-0.0448780563201755,0.0759495594754815,0.1067301899254321,-0.0643845275044441,0.0136136692017316,0.0074577471241354
1783205164711820000,6.496820068359375,-0.0567270456764847,0.0701879272088408,0.0310030410289764,-0.0578275546431541,0.0123974028974771,0.0029466180130839
1783205164721757000,6.5067568359375,-0.0654550534680485,0.0762321758091449,-0.0446440283685922,-0.0517645701766014,0.0122729167342185,-0.0029886495321989
1783205164731694000,6.516694091796875,-0.080630556898564,0.0664250675439834,-0.1045154364854097,-0.037597618997097,0.0110462643206119,-0.0109722735360264
1783205164741631000,6.526630859375,-0.0862567262172698,0.0687047029137611,-0.1677671346902847,-0.0248146392405033,0.0073597398586571,-0.0190353654325008
1783205164751569200,6.536569091796875,-0.0685026775356382,0.0609153642117977,-0.1985907274991273,-0.0155178094282746,-0.0001767394132912,-0.0248823352158069
1783205164761506000,6.546506103515625,-0.0458376951325684,0.042031507782638,-0.1931359692245721,-0.0111358575522899,-0.0042901844717562,-0.0284022260457277
1783205164771443200,6.556443115234375,-0.0223125887688249,0.0211909643277525,-0.1623778428673744,-0.0128490701317787,-0.012628274038434,-0.0237443577498197
1783205164781379800,6.5663798828125,0.015143793118,-0.0031184242814779,-0.1271428633570671,-0.0097560686990618,-0.0149906734004616,-0.0206081140786409
1783205164791318000,6.576318115234375,0.0361161462590098,-0.0269330151110887,-0.0796533824294805,-0.0138786407187581,-0.0166362412273883,-0.0149678057059645
1783205164801255000,6.5862548828125,0.0485481231350451,-0.0517863013386726,-0.0204202722162008,-0.0158021859824657,-0.0100602004677057,-0.0106698255985975
1783205164811192000,6.596192138671875,0.074766560235992,-0.0662634472414851,0.0401163218110799,-0.0186403170228004,-0.0039650234393775,-0.0053906417451798
1783205164821129000,6.60612890625,0.08750373060368,-0.0562280831784009,0.0831406400233507,-0.022028811275959,0.0085198488086462,0.0023107030428946
1783205164831067100,6.616067138671875,0.0974549235146492,-0.0556774635583162,0.1046264956444501,-0.0270928107202053,0.0177546255290508,0.0092860534787178
1783205164841003800,6.626003662109375,0.103425230095908,-0.0453390248954296,0.1179436578571796,-0.0322464033961296,0.0238444209098815,0.0159092638641595
1783205164850941000,6.63594091796875,0.0886301773503422,-0.0311094240128993,0.0969435399264097,-0.0406832955777645,0.0227282885462045,0.0179950520396232
1783205164860878800,6.64587890625,0.0616705664932727,-0.0286193607628345,0.07381693136096,-0.0516172759234905,0.0258366800844669,0.0202829465270042
1783205164870816000,6.65581591796875,0.0221562291633337,-0.0252601134628057,0.0707043522983789,-0.0854436829686164,0.0468367710709571,0.0252116620540618
1783205164880753200,6.665753173828125,-0.0450632766939699,-0.039786066943407,0.2082213101536035,-0.100745253264904,0.0445274040102958,0.0168827604502439
1783205164890690000,6.67568994140625,-0.0767559804875403,-0.005611702401936,0.0859399153530597,-0.0841433778405189,0.0199903678148984,0.0181349795311689
1783205164900628000,6.6856279296875,0.0984450305305421,0.0184635851904749,-0.2087368584603071,-0.0688878819346427,0.0068647642619907,0.0261718928813934
1783205164910564900,6.69556494140625,-0.0092160105042159,0.0658612961813807,-0.1363309629410505,-0.0521251372992992,0.0078381495550274,0.0217577032744884
1783205164920502000,6.705501953125,-0.0378119173262268,0.0364691974803805,-0.1413677880644798,-0.0402879789471626,0.0143152419477701,0.0178335756063461
1783205164930439000,6.71543896484375,-0.061436027085036,0.046990591494739,-0.10772270809412,-0.0341635085642337,0.0103961350396275,0.0192200168967247
1783205164940377000,6.725377197265625,-0.0262150030348449,0.0683215488150715,-0.0933902313590049,-0.0284844767302274,0.0155370663851499,0.0076746465638279
1783205164950313000,6.73531298828125,-0.0828549549497664,0.0524491491615772,-0.0797527511507272,-0.0144011490046978,0.0098062101751565,0.0047931065782904
1783205164960249600,6.74524951171875,-0.0397894279442727,0.0642816257745027,-0.1292488957256078,-0.0069772163406014,-0.001872319728136,0.0073584974743425
1783205164970186800,6.755186767578125,-0.0307036927562206,0.0791468942120671,-0.1015723687708377,-0.0067330030724406,-0.0003441981971263,-0.0009620164055377
1783205164980124700,6.765124755859375,-0.0539854918833822,0.0514388030752539,-0.0226110602587461,-0.0111211957409977,0.0009963829070329,-0.0110754426568746
1783205164990061800,6.775061767578125,-0.0567294568292796,0.0438043626740574,0.0039659810215234,-0.0083413897082209,0.0026161174755543,-0.012873075902462
1783205164999998700,6.784998779296875,-0.0200404791183769,0.0361766442745924,-0.0175865100950002,-0.0072964765131473,0.0015659811906516,-0.0118477847427129
1783205165009936000,6.794935791015625,0.0110218178171664,0.0474415501326322,-0.0202104288578033,-0.0066112466156482,0.0086662350222468,-0.0130576584488153
1783205165019873800,6.804873779296875,0.0128610890083014,0.0282034734383225,0.0097638536453247,-0.0140928057953715,0.0147158522158861,-0.0123005611822009
1783205165029810700,6.814810791015625,0.0045150662716478,0.0113338794410228,0.028948446586728,-0.0156992226839065,0.0085719404742121,-0.0073177870362997
1783205165039747800,6.824747802734375,0.0191978908143937,0.007480418883264,0.0228805248498916,-0.0202380046248435,0.0063846693374216,-0.0058929892256855
1783205165049684700,6.834684814453125,0.0308081029787659,-0.0063742112070322,0.0121136316418647,-0.0265651419758796,0.0063798758201301,-0.0029997311066836
1783205165059622700,6.84462255859375,0.0127442576956003,-0.0087760116517543,0.0169032040059566,-0.0279129743576049,0.0090417936444282,-0.0004978540819138
1783205165069559800,6.854559814453125,-0.0129372229844331,-0.0133361591741442,0.0331780469805002,-0.0252391621470451,0.0119960382580757,-0.0053786295466125
1783205165079497000,6.8644970703125,-0.032947160834074,-0.0123205523908138,-0.0089677348315715,-0.0156626403331756,0.0089611448347568,-0.0107634300366044
1783205165089433600,6.87443359375,-0.0018447510838508,0.0106134562119841,-0.077515201357007,-0.003812906332314,0.0056748036295175,-0.0095106791704893
1783205165099371800,6.884371826171875,0.0147922032013535,0.0208554487630724,-0.0940992564111947,0.0007803058251738,0.0093548325821757,-0.0086144590750336
1783205165109308700,6.89430859375,-0.000717062228173,0.0088186817497014,-0.0768693046689033,-0.0033198967576026,0.0095819998532533,-0.0098320571705698
1783205165119245800,6.904245849609375,0.0002583586752414,0.0062839025750756,-0.0489355880826711,-0.0026249280199408,0.005187667440623,-0.0106927007436752
1783205165129182700,6.9141826171875,0.0103588238637894,-0.0008405424773693,-0.0712719230532646,0.0014164187014102,0.0012216879986226,-0.0100245140492916
1783205165139121000,6.924120849609375,0.0300412833247333,0.0082458502978086,-0.1133908168584108,0.012022715061903,-0.0027242302894592,-0.0085535468533635
1783205165149057800,6.934057861328125,0.0119908089797943,-0.0044774376749992,-0.1311661275237798,0.0212550945580005,-0.0022283494472503,-0.0082840351387858
1783205165158994700,6.94399462890625,-0.0012627134121954,-0.0013283259943127,-0.1283171678334474,0.0347723588347435,-0.0054451529867947,-0.0131839113309979
1783205165168931800,6.953931884765625,0.0136268126837909,0.0082701079562306,-0.1239297465294599,0.0417778044939041,-0.0062957662157714,-0.0131013533100485
1783205165178868700,6.96386865234375,0.0184118550032377,0.0098602997571229,-0.0999719478368759,0.0438260100781917,-0.0061424644663929,-0.0121772997081279
1783205165188806700,6.973806640625,0.0089450846083462,-0.0081277768760919,-0.0556330398947,0.0405207611620426,-0.0081821801140904,-0.0155472643673419
1783205165198743800,6.983743896484375,-0.0013330752346664,-0.0251335644736886,-0.0243371533989906,0.0388794131577014,-0.0126066459342837,-0.0153990928083658
1783205165208681000,6.993680908203125,0.0130059043064713,-0.0261804431781172,-0.0122089087098836,0.0382541008293628,-0.0136492745950818,-0.0111966244876384
1783205165218617600,7.00361767578125,0.0288251855332404,-0.0243292623534798,0.0018564415216445,0.0361662022769451,-0.0080796238034963,-0.0078683076426386
1783205165228555800,7.0135556640625,0.0535419858995825,-0.0160939334496855,0.0238677823215723,0.0342143699526786,-0.0094689950346946,0.0001536661293357
1783205165238492700,7.02349267578125,0.0733792705960571,-0.0045712534382939,0.036304070046544,0.0300805754959583,-0.0037560793571174,0.0037794962991029
1783205165248429800,7.033429931640625,0.0681541563589125,0.0117900987759232,0.0721761784166097,0.0287620462477207,0.0020003435201942,0.0051174685359001
1783205165258366700,7.04336669921875,0.060174848042801,0.0212350957304239,0.0658025517314672,0.0236023440957069,0.0016217064112424,0.0063546425662934
1783205165268305000,7.053304931640625,0.041225013705343,0.0204044901251792,0.0531833086550235,0.0209386497735977,0.0032805895898491,0.0052371802739799
1783205165278241800,7.06324169921875,0.0157736885193735,0.0185261290326714,0.0550689762711524,0.0126004060730338,0.0035542724654078,0.0050540873780846
1783205165288178700,7.0731787109375,-0.0176070414263755,0.0163894092649221,0.0732090285956859,0.0079694353044033,0.0012112231925129,0.0027184947393834
1783205165298115800,7.08311572265625,-0.034752456690371,0.0279746331185102,0.061394087639451,0.0035661859437823,-0.000879708211869,-0.000513085629791
1783205165308052700,7.093052734375,-0.0395827994562685,0.032673020067811,0.0403559757858514,0.0016343286260962,-0.0042115887627005,0.0011338132899254
1783205165317990700,7.10299072265625,-0.0307337225683033,0.0285968566700816,0.0268640415281057,0.0016435263678431,-0.0040897624567151,-0.001921231043525
1783205165327927800,7.112927734375,-0.0308238850697875,0.0291156198471784,0.0153045366376638,0.0060353451408445,0.0003276225179433,-0.0081415763124823
1783205165337865000,7.122864990234375,-0.0362334159631282,0.0475125695422291,0.015996026033163,0.0063945944420993,0.0035066921263933,-0.0106341941282153
1783205165347801600,7.132801513671875,-0.0416137938272207,0.0466670586287975,-0.0094318452119827,0.0108596505597233,0.0052992654964327,-0.0132752507925033
1783205165357739800,7.14273974609375,-0.0214431124579161,0.0448453961595892,-0.0393260482162237,0.0146449534222483,0.0017274999991059,-0.0143724409863352
1783205165367676700,7.1526767578125,-0.0115672498054802,0.0477867103084921,-0.0354769715726375,0.0164758767932653,0.0015543941408395,-0.0171700902283191
1783205165377613800,7.16261376953125,-0.0261462486475706,0.0197884040534496,-0.0500824200302362,0.0187684409320354,-0.0028566652908921,-0.0177120771259069
1783205165387550700,7.17255078125,-0.0250333189696073,0.0058142392367124,-0.0549912348598241,0.0194933526217937,-0.0052146278321743,-0.0175525546073913
1783205165397487900,7.18248779296875,0.0013008534654974,0.0009188684105873,-0.0535170706540346,0.0237999223172664,-0.0044635357335209,-0.0148999467492103
1783205165407425800,7.19242578125,0.0252627438113093,0.004744564178586,-0.0454810637146234,0.0279456637799739,-0.0071557248011231,-0.0145185813307762
1783205165417362700,7.20236279296875,0.0338024624891579,0.0175537768691778,-0.0336485871016979,0.0295092109590768,-0.0031919074244797,-0.013781152665615
1783205165427299800,7.2122998046875,0.0380311130348592,0.0103679570183157,-0.0111947632312774,0.0303654167801141,-0.0026416978798806,-0.0119811221957206
1783205165437236700,7.22223681640625,0.0439600646924227,0.00095101711452,0.0084393270432949,0.0199992787092924,-0.0007046093232929,-0.010390848852694
1783205165447175000,7.2321748046875,0.0370874024439603,-0.0274698984667658,0.0308668474286794,0.0193468034267425,0.0006117913872003,-0.0041984664276242
1783205165457111800,7.24211181640625,0.024392390717566,-0.0367094359770417,0.0330102891981601,0.0205495040863752,0.0006465855985879,-0.0055119385942816
1783205165467048700,7.252048583984375,0.0156084880203008,-0.0347214770302176,-0.0010404489636421,0.0271075386554002,0.0001602922566235,-0.0057774558663368
1783205165476985600,7.261985595703125,0.0228335439030081,-0.0188479083329439,-0.0338484935879707,0.0317564159631729,-0.0037757530808448,-0.0022372477687895
1783205165486922800,7.2719228515625,0.0197099319897592,-0.0086108842179179,-0.0463052395790815,0.0368065685033798,-0.005788835696876,-0.0007296320982277
1783205165496860700,7.281860595703125,0.007174056347832,-0.0035176527321338,-0.0369055430710315,0.0344098582863807,-0.0025647282600402,-0.0036400698591023
1783205165506797800,7.2917978515625,0.0102486414875835,0.013457739727199,-0.0047509939193725,0.0297983288764953,-0.0059575960040092,-0.0047247754409909
1783205165516734700,7.301734619140625,0.0250482242777943,0.0110544779777526,0.0102250414162874,0.0255112387239933,-0.0077279582619667,-0.0008087947499006
1783205165526671600,7.311671630859375,0.024000761051476,0.0070443655535578,0.0250514391481876,0.0201143436133861,-0.0076006595045328,0.0021023068111389
1783205165536608800,7.32160888671875,0.0148326813422143,-0.0090194650188088,0.0296387669384479,0.0182108432054519,-0.011896289885044,0.0022552998270839
1783205165546546700,7.331546630859375,0.0135405226398259,-0.0205211022421717,0.0203565593302249,0.0205589514225721,-0.0096765449270606,0.0025168221909552
1783205165556483800,7.34148388671875,0.0236880418404936,-0.001038695397973,0.0243757318437099,0.018006270751357,-0.0091936364769935,0.0083596296608448
1783205165566420700,7.351420654296875,0.0311104469262063,0.0154494980663061,0.0458060578852891,0.0175314284861087,-0.0023477142676711,0.008200904354453
1783205165576358000,7.36135791015625,0.0131315034475177,0.0216635502755641,0.0639683220416307,0.013132894411683,0.0023900093510746,0.0033522895537316
1783205165586294500,7.37129443359375,-0.001732888207212,0.0143593647420406,0.040293431943655,0.0153816677629947,0.0018456592224538,0.0015919399447739
1783205165596232700,7.381232666015625,-0.0106120679724961,0.0194262927427887,0.0185877960920333,0.0168906841427087,0.0010005249641835,-0.0007745863404124
1783205165606169600,7.391169677734375,-0.0227647164504975,0.0247819745570421,0.0129155956745147,0.0174278449267148,-0.0011121607385575,-0.0037586581893265
1783205165616106800,7.401106689453125,-0.024607640903443,0.020927052694559,0.0161743052095174,0.0120838358998298,-0.0055538569577038,-0.0042884880676865
1783205165626044000,7.4110439453125,0.0131549573883414,0.0268581963092088,0.001859364131093,0.0062094354070723,-0.0029894984327256,-0.0025691511109471
1783205165635980800,7.420980712890625,0.0148810505285859,0.0466214659214019,0.0107505265951156,0.008397763594985,-0.0074276207014918,-0.0034882049076259
1783205165645918700,7.430918701171875,0.0155718823369592,0.0407265626639127,-0.0065150809824466,0.0093852635473012,-0.0070941932499408,-0.0039483993314206
1783205165655855600,7.440855712890625,0.0074022390805184,0.0326376564934849,-0.0270446587920188,0.0117245148867368,-0.0080511420965194,-0.0066547701135277
1783205165665792800,7.450792724609375,-0.0044611441273242,0.0207338682100176,-0.0261439105600118,0.0171632226556539,-0.0052806558087468,-0.0074992589652538
1783205165675729700,7.460729736328125,-0.0170484576955437,0.0192664260059595,-0.0393897611021995,0.0217843856662511,-0.0041786381043493,-0.0113416071981191
1783205165685666800,7.470666748046875,-0.0205033473897725,0.0257227625384926,-0.0473626396775245,0.0290462933480739,-0.0073480666615068,-0.0111693013459444
1783205165695604700,7.480604736328125,-0.0147484371248632,0.0225265968456864,-0.0544049594044685,0.0278813019394874,-0.0074855987913906,-0.014125008136034
1783205165705542000,7.4905419921875,-0.0095134590808302,0.0075584525555372,-0.0459030885189771,0.0266226921230554,-0.0123591851443052,-0.0143790747970342
1783205165715478800,7.500478759765625,-0.0028870997436344,0.0051844169005751,-0.0234060100287199,0.0230254493653774,-0.0144083760678768,-0.0145131079480052
1783205165725415700,7.510415771484375,0.0143861066184937,-0.010874737496674,-0.0137064537912607,0.0199963692575693,-0.0152973402291536,-0.0115316994488239
1783205165735352800,7.520352783203125,0.0256178408592939,-0.0152624510616064,-0.0033592473000288,0.0243342705070972,-0.012953070923686,-0.0134556973353028
1783205165745289700,7.530289794921875,0.0263506121132522,-0.0216086052179336,0.0020429040044546,0.0262906290590763,-0.0118135046213865,-0.0096399206668138
1783205165755228000,7.540227783203125,0.0378635013829916,-0.0305465294331312,-0.004149520894885,0.030943389981985,-0.0123180989176034,-0.0019470169208943
1783205165765164800,7.550164794921875,0.0493660884544253,-0.0470873298674821,-0.005000000244379,0.0318272933363914,-0.0094038024544715,-0.0037063010968267
1783205165775101700,7.560101806640625,0.0363238707255572,-0.0351879254981875,-0.002418751579523,0.0299801230430603,-0.0110182110220193,0.0034797063563019
1783205165785038600,7.57003857421875,0.0310061828341335,-0.021768179693818,0.0213461548894643,0.0264607574790716,-0.008774496614933,0.0038922301027923
1783205165794975700,7.579975830078125,0.0381857190746814,-0.0023670213922858,0.0301285962820053,0.0211805049329996,-0.0123866526409983,0.0048659890890121
1783205165804913700,7.58991357421875,0.0316340324088931,-0.0006610942572355,0.0319365224868059,0.021303541958332,-0.0068922853097319,0.0048007415607571
1783205165814850800,7.599850830078125,0.0115947223342955,0.0025590368330478,0.0102437461167573,0.0238205678761005,-0.0084376893937587,0.004317230079323
1783205165824788000,7.6097880859375,-0.0134067401923239,-0.0020385200902819,-0.0211427412718534,0.0298550240695476,-0.0141986384987831,0.0016298345290124
1783205165834724600,7.619724609375,-0.0162430595967918,0.0061743047207593,-0.0727028326392173,0.0380250513553619,-0.0128635894507169,0.0020063491538167
1783205165844661800,7.629661865234375,-0.0155403181549161,0.0219745159208774,-0.091055066409707,0.0494478829205036,-0.0154633671045303,0.0019347104243934
1783205165854598700,7.6395986328125,-0.0212449595373123,0.0182213008671998,-0.0896983911037445,0.055287092924118,-0.0167930349707603,-0.0009892371017485
1783205165864536800,7.649536865234375,-0.0381632149819284,0.0231081961259245,-0.1045797338932752,0.0651170834898948,-0.0201267804950475,-1.31884589791e-05
1783205165874473700,7.6594736328125,-0.0493616314750164,0.0308013809770345,-0.1492921513229608,0.0812932550907135,-0.0269061140716075,-0.0031674623023718
1783205165884411000,7.669410888671875,-0.0786818339835852,0.0189671507984399,-0.2103857947111129,0.0999329984188079,-0.0348226241767406,-0.0095230964943766
1783205165894347800,7.67934765625,-0.0851433581478893,0.0285565246596932,-0.2495136900067329,0.124191477894783,-0.0430761314928531,-0.0149395884945988
1783205165904284700,7.68928466796875,-0.0859244985882192,0.0565595070898532,-0.2631926712691784,0.1399400681257248,-0.0508174076676368,-0.020552733913064
1783205165914222600,7.69922265625,-0.0708127811089158,0.0658516515702009,-0.2401753682971,0.1526967585086822,-0.060248602181673,-0.0283686034381389
1783205165924159700,7.70915966796875,-0.0639843963935971,0.053221594838798,-0.1972270379304885,0.1607235372066497,-0.0658452361822128,-0.0336248837411403
1783205165934097000,7.719096923828125,-0.0344280470415949,0.0396659476950764,-0.1193593698740005,0.1663725674152374,-0.0643712356686592,-0.0354492701590061
1783205165944033800,7.72903369140625,-0.0033789749138057,0.0207195474237203,-0.0413128381192684,0.1666758954524994,-0.0676133632659912,-0.0414070263504982
1783205165953971700,7.7389716796875,0.0195974845912307,0.0131210551187396,0.0200730662137269,0.163912147283554,-0.0601748153567314,-0.040945965796709
1783205165963908600,7.74890869140625,0.041211861962825,0.0262298352777957,0.0757101977616548,0.1548877507448196,-0.0499389581382274,-0.0407662019133567
1783205165973846800,7.7588466796875,0.0649888241957873,0.0343196182310581,0.1555897901624441,0.1440889239311218,-0.0345858223736286,-0.0377705693244934
1783205165983783400,7.768783447265625,0.0642282881520688,0.0383200860440731,0.1962298435866832,0.1404904723167419,0.0080463280901312,-0.0459597893059253
1783205165993720600,7.778720458984375,0.001941854782775,0.0468710567682981,0.2675204713404178,0.1425667554140091,0.0219133682548999,-0.0547154992818832
1783205166003657500,7.788657470703125,-0.0276017812181264,0.0320037425041198,0.2108984204083681,0.1359557211399078,0.0130967069417238,-0.048263993114233
1783205166013594600,7.7985947265625,0.111686789419502,0.0439797192409634,0.13426175545156,0.1185363233089447,0.0019200327806174,-0.0349626541137695
1783205166023531800,7.80853173828125,0.1218656536065042,0.0380164269223809,0.1862333502292633,0.0927705094218254,0.0063675115816295,-0.0206399112939834
1783205166033468400,7.818468505859375,0.1071264227014034,-0.0075379942893981,0.2429571079701185,0.0597677826881408,0.0049329549074172,-0.0106930658221244
1783205166043406600,7.828406494140625,0.1020900359693914,-0.0313765505164861,0.2796598219454288,0.0296471640467643,-0.0015188190154731,-4.65465709567e-05
1783205166053343500,7.838343505859375,0.0818777074154466,-0.0144715929448604,0.2800228100389242,0.0060257529839873,0.0010133469477295,0.0006465737242251
1783205166063280600,7.84828076171875,0.0449915266320109,-0.0073348729327321,0.278189749392867,-0.0132310325279831,0.0076347640715539,0.0018503225874155
