time,seconds_elapsed,ax,ay,az,gx,gy,gz
1783204328946924300,0.10392431640625,0.1018335769902914,-0.0734545277893543,-0.0373477338805794,-0.003881799057126,-0.2134446650743484,-0.0083168288692832
1783204328956864000,0.113864013671875,0.0815886613409966,-0.0264051918447017,-0.0413271589055657,-0.0044867768883705,-0.2172096520662307,-0.0127451252192258
1783204328966804000,0.123803955078125,0.042564518680796,0.0449754522800445,-0.0479161819070577,-0.0058300755918025,-0.2146311700344085,-0.0149795170873403
1783204328976744200,0.133744140625,0.0035544776111841,0.0882107828944921,0.0056096565753221,-0.0094980159774422,-0.1991229653358459,-0.0190924927592277
1783204328986684200,0.14368408203125,-0.0234168236836791,0.0818020848959684,0.0662643240243196,-0.0193248130381107,-0.1690761148929596,-0.023638242855668
1783204328996623000,0.153623046875,-0.0306117036238312,0.0490899018615484,0.140806062528491,-0.0336323529481887,-0.1326580941677093,-0.020553758367896
1783204329006563000,0.16356298828125,-0.0351656406011432,0.0367541519016027,0.2045674638211727,-0.0512915104627609,-0.088422454893589,-0.0184493288397789
1783204329016503000,0.1735029296875,-0.0251558493707329,0.0321346754074096,0.2384489828959107,-0.0720088332891464,-0.0682310760021209,-0.0117168789729475
1783204329026443000,0.183443115234375,-0.022061025160551,0.0304284560114145,0.2136561946839094,-0.0768001228570938,-0.0552266016602516,-0.0017380146309733
1783204329036383200,0.19338330078125,-0.0100983462966978,0.0317225874751806,0.1803770254164934,-0.0765427574515342,-0.0423559360206127,0.0026652314700186
1783204329046323000,0.203322998046875,-0.0283167976196855,0.0391080215513706,0.1259945701047778,-0.0733232647180557,-0.0339693762362003,0.0011435011401772
1783204329056262100,0.21326220703125,-0.0288749429591,0.032273791617155,0.0839180541366338,-0.0615524426102638,-0.0405690148472785,-0.0013790009543299
1783204329066202000,0.2232021484375,-0.0008831395100802,-0.0031102409750223,0.0376142758622765,-0.0533027723431587,-0.0471510179340839,-0.0053593614138662
1783204329076142000,0.23314208984375,0.0305912453576922,-0.0261480022132396,0.014147767817974,-0.0486005507409572,-0.0570408962666988,-0.003379558911547
1783204329086082000,0.24308203125,0.027282120809704,-0.0106470662206411,-0.0128436994820833,-0.0420531705021858,-0.0512115024030208,-0.0022791407536715
1783204329096022000,0.25302197265625,0.0242301128279417,-0.0310077172040939,0.0015954524978995,-0.0342871695756912,-0.0470819026231765,0.0017749592661857
1783204329105961000,0.2629609375,0.0417008145235478,-0.0442892235815525,-0.0053489598125219,-0.0260705221444368,-0.0536151714622974,0.0016636392101645
1783204329115899600,0.272899658203125,0.0393044209063053,-0.0614180530369281,-0.0409264691501855,-0.0127788707613945,-0.0519983768463134,-0.0037958018947392
1783204329125839600,0.282839599609375,-0.0094358637999743,-0.0552665446698665,-0.0442623355746269,-0.0103860199451446,-0.0402130857110023,-0.0076640434563159
1783204329135779600,0.292779541015625,-0.029455811586976,-0.0468576127648353,0.0098164606153964,-0.0175841711461544,-0.0279426909983158,-0.0020772898569703
1783204329145719800,0.3027197265625,-0.0182351101968437,-0.0210316821128129,0.0727197837740182,-0.0362886153161525,-0.0106545137241482,0.0001134262420237
1783204329155658800,0.31265869140625,-0.0272147546619176,0.0081523267954587,0.1277513506442308,-0.0551256090402603,0.0148220639675855,0.0030203070491552
1783204329165598700,0.3225986328125,-0.0399964948236942,0.0171311675429344,0.1795546031177043,-0.0743744075298309,0.0159155577421188,0.0137152951210737
1783204329175538700,0.33253857421875,0.0837223854340612,-0.0128156424313783,0.1723819350093603,-0.084969975054264,0.0148605490103363,0.0147296786308288
1783204329185478700,0.342478759765625,0.0497751076467335,0.012952420553565,0.1598684903949499,-0.0933253765106201,0.0017876243218779,0.0160966794937849
1783204329195418600,0.352418701171875,0.0511054794676601,0.0178512985110282,0.1377560273081064,-0.1028709933161735,0.0113003337755799,0.0207044780254364
1783204329205357800,0.36235791015625,0.0863595290046185,0.0199900641053915,0.1437801099032163,-0.1095123887062072,0.0515047423541545,0.0327414348721504
1783204329215297800,0.3722978515625,0.0516132828593254,-0.042594694623351,0.2043558668971061,-0.11350978910923,0.0617406032979488,0.0410257279872894
1783204329225237500,0.382237548828125,-0.0264113293245434,-0.1702221266269683,0.2003460467338562,-0.1094322279095649,0.0118441516533494,0.0308162346482276
1783204329235177700,0.392177734375,-0.0264927970629185,-0.0131821376562118,-0.1260477615967392,-0.1007193177938461,0.0132989846169948,0.023514112457633
1783204329245117700,0.40211767578125,-0.0945700157281011,0.1256125850498676,-0.1933709470242261,-0.0898594781756401,0.036921489983797,0.0221713464707136
1783204329255057700,0.4120576171875,-0.0744075907304882,0.0721136345744132,-0.0747346307277679,-0.0780540853738784,0.0445578657090663,0.0144457947462797
1783204329264996900,0.421996826171875,-0.0906558379590511,0.0173375037699937,-0.0344639951378107,-0.0755030438303947,0.0218355096876621,0.0027132388204336
1783204329274936600,0.4319365234375,-0.0751173464350402,0.0136877490907907,0.0038508302092552,-0.0823329165577888,0.0050161741673946,0.0048421607352793
1783204329284876500,0.44187646484375,-0.0401025855466723,0.0069487962245941,0.0691816727757453,-0.0901903063058853,-0.0014854008331894,0.0145512465387582
1783204329294816800,0.451816650390625,0.0289917742718011,-0.0082838442206382,0.0718430009394884,-0.1129184141755104,0.0010250443592667,0.0227303225547075
1783204329304756700,0.4617568359375,0.0544985559720546,-0.0198912799060344,0.0624289836451411,-0.1422187685966491,0.0054514845833182,0.0258108004927635
1783204329314696700,0.47169677734375,0.0757831899326294,-0.0244078805476427,0.0815779207512736,-0.1769785284996032,0.0226746834814548,0.0213263314217329
1783204329324635600,0.4816357421875,0.0094171590995043,0.0087152213752269,0.1049257708519697,-0.2068938016891479,0.0559921599924564,-0.0032477197237312
1783204329334575600,0.49157568359375,-0.0766345460649579,0.0684089348375797,0.1112178567335009,-0.2271894067525863,0.1123821213841438,-0.0232307389378547
1783204329344515600,0.501515625,-0.0973269862860441,0.1033779568880796,0.1517179171651601,-0.2374162077903747,0.1581850349903106,-0.0309959836304187
1783204329354455800,0.511455810546875,-0.0239526841260492,0.1361421623706817,0.1946551416158676,-0.2528772354125976,0.1991430222988128,-0.0440571941435337
1783204329364395500,0.5213955078125,-0.0038249651156365,0.1708271067827939,0.2352063477128744,-0.2912030518054962,0.2593408226966858,-0.0504575669765472
1783204329374335700,0.531335693359375,-0.0703483054023236,0.0683481445610523,0.3913470497563481,-0.3533133268356323,0.3469170033931732,-0.0399433970451355
1783204329384274700,0.541274658203125,-0.0546795385621488,-0.0515711972832679,0.5856558621525764,-0.4118339121341705,0.4115945100784302,-0.0322085097432136
1783204329394214700,0.551214599609375,-0.061526481847465,-0.0279570974618196,0.6143138013601303,-0.4463438391685486,0.4375496208667755,-0.0322428606450557
1783204329404155000,0.56115478515625,-0.0464214133046567,0.0145142630428075,0.4804629647970199,-0.4464921653270721,0.4122807681560516,-0.035949982702732
1783204329414094600,0.571094482421875,-0.031413229265064,0.0482207178115844,0.3077805855363607,-0.4137336313724518,0.3756416738033294,-0.0328287668526172
1783204329424034600,0.58103466796875,-0.0887336377248168,0.1547065775871276,0.1734831742495298,-0.3738035261631012,0.356729507446289,-0.0342311896383762
1783204329433973800,0.590973876953125,-0.1151163985420018,0.2014431943207979,0.0659366995051503,-0.3374840915203094,0.3251466155052185,-0.0268076136708259
1783204329443913700,0.600913818359375,-0.1847659810904413,0.1297609369009733,0.0001800327420234,-0.2937834858894348,0.2690676152706146,-0.0248270221054554
1783204329453853700,0.610853759765625,-0.2285584341309964,0.0843196206748485,-0.0058878889948129,-0.2601434588432312,0.2035265415906906,-0.0346453040838241
1783204329463793700,0.620793701171875,-0.147893098179996,0.0288040696799755,-0.0774403825551271,-0.2519528865814209,0.1274538785219192,-0.0290811602026224
1783204329473733600,0.630733642578125,0.0116408995635807,-0.0996674119323492,-0.1944943980962037,-0.2591801285743713,0.0377496555447578,-0.0207446627318859
1783204329483673600,0.640673583984375,0.1661545849271118,-0.195430217641592,-0.2680991480112075,-0.2547105550765991,-0.0152629632502794,-0.0071753249503672
1783204329493612800,0.65061279296875,0.2392554769732058,-0.1888525928169488,-0.2774450685054063,-0.2237323224544525,-0.0444084517657756,0.0007001617923378
1783204329503552800,0.660552734375,0.1460541192498058,-0.1346878719091415,-0.3294321531131863,-0.1859641671180725,-0.0436025783419609,0.0016575683839619
1783204329513492500,0.670492431640625,0.0277838597867637,-0.1080424415677785,-0.3790799811184406,-0.1434058398008346,-0.0299851410090923,0.0050762896426022
1783204329523432700,0.6804326171875,-0.0541685933653265,-0.0904816504359245,-0.4171221270039677,-0.0983941555023193,-0.0042544780299067,0.0057388837449252
1783204329533372700,0.69037255859375,-0.1491404678925871,-0.0819686736345291,-0.4130313505589962,-0.0483518131077289,0.0209876671433448,-0.0007562991231679
1783204329543313000,0.70031298828125,-0.1494104439403861,-0.0583195024996995,-0.4218234365627169,0.0034096520394086,0.0420519411563873,-0.0007666854653507
1783204329553252600,0.710252685546875,-0.0757432232484221,0.0042675943166017,-0.4211988749235868,0.0455401688814163,0.0611480847001075,-0.0058653075248003
1783204329563191600,0.720191650390625,-0.0304525675393641,0.0476829576730728,-0.3784440213024616,0.070763498544693,0.0803809016942977,-0.0117487628012895
1783204329573131500,0.730131591796875,0.0116671299833804,0.0235305131912231,-0.3311950711324811,0.0767996087670326,0.0974742472171783,-0.012734399177134
1783204329583071700,0.74007177734375,0.031486732892692,-0.015339607951045,-0.2945060934215784,0.0773833766579628,0.0995666980743408,-0.0005400511436164
1783204329593011700,0.75001171875,0.0150534114208072,-0.0262122996211051,-0.2983399724960327,0.0740517079830169,0.1060191765427589,-0.0031177261844277
1783204329602951700,0.75995166015625,0.0210275904595851,-0.0881786341905593,-0.2711690569758415,0.0671740993857383,0.1077542230486869,0.0117059610784053
1783204329612891600,0.7698916015625,0.0592742459412664,-0.1481248611092567,-0.2123430662587284,0.0547372885048389,0.0957338064908981,0.0223937593400478
1783204329622830600,0.77983056640625,0.1294755440883338,-0.1519558175742626,-0.1684060171157121,0.0545711070299148,0.073388822376728,0.0374052003026008
1783204329632770800,0.789770751953125,0.1835630350414663,-0.140953362044692,-0.1821680004864931,0.0825151726603508,0.0657909214496612,0.0451225079596042
1783204329642710800,0.799710693359375,0.1780452945332974,-0.1087041203469038,-0.1632940809294581,0.0951260402798652,0.068611741065979,0.0524424724280834
1783204329652650500,0.809650390625,0.1437275759983807,-0.0893593684077262,-0.1511471315398812,0.076683759689331,0.1204610243439674,0.0686827003955841
1783204329662590700,0.8195908203125,0.0642089989297091,-0.0633007980436086,-0.021247955211997,0.0346713252365589,0.2159337550401687,0.085623063147068
1783204329672530700,0.82953076171875,-0.0594680149476975,-0.0467541523903608,0.1281345047429204,-0.0135650737211108,0.3109768629074096,0.1012907028198242
1783204329682470700,0.839470703125,-0.1685726058542728,-0.0416805023878812,0.2651560802966356,0.0761235281825065,0.2347385436296463,0.0852938890457153
1783204329692409900,0.849409912109375,-0.1206222294166684,-0.0148223060786724,0.0732394237339496,0.1458248645067215,0.1632185280323028,0.0691380947828292
1783204329702349600,0.859349609375,0.1761066546209156,0.0537894578546285,-0.0346329219639301,0.1793354153633117,0.038032379001379,0.0550475716590881
1783204329712289500,0.86928955078125,0.3297005217257887,0.1486918473422527,-0.0846457838892936,0.182992085814476,-0.0325892567634582,0.0615097358822822
1783204329722229800,0.879229736328125,0.2337999149810522,0.0159007489651441,0.013612638027966,0.143913134932518,-0.0654944777488708,0.0566784963011741
1783204329732169700,0.889169677734375,0.1745297606930136,-0.1031014780342578,0.0352624520391225,0.0927964150905609,-0.0513584166765213,0.0397879295051097
1783204329742109700,0.899109619140625,0.1741656035557389,-0.1041197151660919,-0.0474888964056968,0.0551435761153698,-0.0077124047093093,0.0166517160832881
1783204329752049700,0.909049560546875,0.1575182009417563,-0.1120335570305585,-0.0987453286513686,0.0416261702775955,0.0344068259000778,-0.0068562715314328
1783204329761988600,0.918988525390625,0.1153955808095633,-0.0460989033520221,-0.0682376699239015,0.0398298650979995,0.0643996149301529,-0.0321829356253147
1783204329771928800,0.9289287109375,0.0955850379895418,0.0009095160603523,-0.0585799070015549,0.0543428733944892,0.0779078975319862,-0.0505257248878479
1783204329781868800,0.938868896484375,0.0762923815637827,0.0032891046732664,-0.1359247202277183,0.0977015346288681,0.087820179760456,-0.0662660673260688
1783204329791808500,0.94880859375,0.041163346645981,-0.0136322195112705,-0.079023852354288,0.1432327926158905,0.1087462604045867,-0.0699697285890579
1783204329801748700,0.958748779296875,0.0929247327391058,0.0168844993054866,0.1088464514270424,0.1542646735906601,0.1288203746080398,-0.0560917258262634
1783204329811688700,0.968688720703125,0.1113631834883242,0.0723345838487148,0.1756912056878209,0.1229791939258575,0.082158014178276,-0.0509952455759048
1783204329821628700,0.978628662109375,0.0102412618987262,0.1217342823117971,0.0659849225610494,0.0834163352847099,0.091312363743782,-0.0457070060074329
1783204329831568000,0.98856787109375,-0.1065966266736388,0.1797176847249269,0.0275116917818784,0.0600471198558807,0.1010067835450172,-0.0456633418798446
1783204329841507600,0.998507568359375,-0.2381624210394918,0.1515460677295923,0.0633943215459585,0.0722510516643524,0.096434399485588,-0.0367225781083107
1783204329851447600,1.008447509765625,-0.2369515839450061,0.0558341154247522,-0.09037819006145,0.0919041186571121,0.0700826793909072,-0.0266358610242605
1783204329861387800,1.0183876953125,-0.2386704436268657,-0.0066921911150217,-0.2236874670937657,0.110311359167099,0.060787446796894,-0.0197007227689027
1783204329871327700,1.02832763671875,-0.2393381868205964,-0.040998365342617,-0.2055751795589923,0.1077909767627716,0.0749532058835029,-0.0040258737280964
1783204329881267700,1.038267822265625,-0.1518822408813983,-0.1002659623473882,-0.0396186014220118,0.1008585020899772,0.0100919175893068,0.0158458352088928
1783204329891207700,1.048207763671875,-0.0922470526732504,-0.1312543903291225,-0.1836860038340091,0.1058888062834739,-0.064152292907238,0.0273331012576818
1783204329901147600,1.058147705078125,-0.0122851888164877,-0.042152796074748,-0.2914011131435632,0.123874731361866,-0.1369498074054718,0.0318780541419982
1783204329911086600,1.068086669921875,0.0501893144708126,0.0228097977012395,-0.2441714521959423,0.157336488366127,-0.2001230120658874,0.0327217429876327
1783204329921026800,1.07802685546875,0.0434422513633966,0.0206546654939651,-0.2617366272419691,0.1942303329706192,-0.2453120648860931,0.0309219807386398
1783204329930966500,1.087966552734375,0.027598201021552,0.0168885909587144,-0.2534913614660501,0.2156459838151931,-0.2799979150295257,0.027617260813713
1783204329940906800,1.09790673828125,0.0340284532647579,0.0090039751887321,-0.2185001275837421,0.2243385463953018,-0.303815096616745,0.0277916975319385
1783204329950846700,1.1078466796875,0.0563409689683467,0.0393973598867654,-0.1250800856083631,0.2282869964838028,-0.3091480135917663,0.0381793603301048
1783204329960786700,1.11778662109375,0.0768895437393337,0.0652758975088596,-0.0769555216476321,0.2363955229520797,-0.3287554979324341,0.0391423590481281
1783204329970726700,1.1277265625,0.0754964088805019,0.0429506684541702,-0.0582242254316806,0.2357751578092575,-0.3344338536262512,0.042327232658863
1783204329980666600,1.13766650390625,0.0692174747414886,0.0173334121167659,0.0082546181261539,0.2194100469350814,-0.3357284069061279,0.0377876088023185
1783204329990606800,1.14760693359375,0.0698184363093227,0.024976035824418,0.0367141121521592,0.2027204632759094,-0.3328969180583954,0.0292958281934261
1783204330000545800,1.1575458984375,0.027788097570464,0.01473345875144,0.0992801661804318,0.1859060674905777,-0.327763944864273,0.0102188065648078
1783204330010485800,1.16748583984375,0.0192252902779728,0.0120060796141624,0.1154334286019206,0.1730493903160095,-0.3182250261306762,0.0040844813920557
1783204330020425500,1.177425537109375,0.0547064996343106,0.0318909297794103,0.1172562601149082,0.1708195209503173,-0.3004961013793945,0.004991287831217
1783204330030365700,1.18736572265625,0.0664385846126824,0.0532096121400594,0.1054743446454405,0.1771747171878814,-0.2758659124374389,0.0030684932135045
1783204330040305700,1.1973056640625,0.0490912170358002,0.0660503890126943,0.0767202515870332,0.1856387853622436,-0.2474792450666427,-0.0003070635721087
1783204330050246000,1.207245849609375,0.001114244852215,0.0752303052902221,0.058331777459383,0.1921636462211609,-0.227468341588974,-0.0065191583707928
1783204330060185600,1.217185546875,0.0043878596954047,0.0980032781124115,0.089175244012475,0.1890192478895187,-0.2223689258098602,-0.0204874388873577
1783204330070125600,1.22712548828125,-0.0139572136819362,0.1261959378957748,0.137822078281641,0.1701319962739944,-0.1974339336156845,-0.0269756913185119
1783204330080064800,1.237064697265625,-0.002509206341952,0.1191927811354398,0.2227484326779842,0.1316975206136703,-0.1420766711235046,-0.021870145574212
1783204330090004700,1.247004638671875,-0.0101439390040934,0.103860187447071,0.3287216667562723,0.0255244337022304,0.0299696698784828,0.0182330273091793
1783204330099944700,1.25694482421875,-0.1294930797450244,0.0990717841267585,0.4745288985729217,-0.0428165420889854,0.0706577077507972,-0.0007324086036533
1783204330109886000,1.266885986328125,-0.1310617173012346,0.2214975558340549,0.4959051563397049,-0.0633401125669479,0.1304573565721511,-0.048400841653347
1783204330119826000,1.276825927734375,0.0869113907337188,0.1867518211454153,0.4583990170270204,-0.0654378905892372,0.1162083745002746,-0.076838880777359
1783204330129766000,1.286765869140625,0.2253157258827239,0.0550415037423372,0.2342459782481193,-0.0573150515556335,0.0761064067482948,-0.0951997637748718
1783204330139705900,1.296705810546875,0.2014169639009982,0.0814975489914417,0.1405547181159258,-0.0526957958936691,0.0633533224463462,-0.1183972284197807
1783204330149646000,1.30664599609375,0.0836326613239944,0.1064560491591691,0.181940621471405,-0.0475714579224586,0.0474292784929275,-0.1408087909221649
1783204330159586000,1.3165859375,0.0171780023593455,0.15820844822824,0.1975856421098113,-0.0354580655694007,0.0605277679860591,-0.1606538593769073
1783204330169525800,1.32652587890625,0.0100300303008407,0.2154419090569019,0.1967828012943267,-0.0096827782690525,0.0655344352126121,-0.1919359266757965
1783204330179464700,1.336464599609375,0.0106968967117369,0.2548486212939024,0.1764262419641017,0.027064848691225,0.0640715584158897,-0.2298803776502609
1783204330189405000,1.346405029296875,0.0420852837964892,0.2836491838425398,0.1441512813031673,0.0605367310345172,0.0425978526473045,-0.2512913942337036
1783204330199345000,1.356344970703125,0.1149767708756029,0.2476519877880811,0.1451344471216201,0.0868490263819694,0.0364515446126461,-0.2605402767658233
1783204330209285000,1.36628515625,0.2286995961673557,0.2064437790870666,0.1311953536182642,0.0958626419305801,0.0430403985083103,-0.2602963745594024
1783204330219224800,1.376224853515625,0.2212989645220339,0.2046376064479351,0.062167994621396,0.0763768255710601,0.0069377892650663,-0.2729634344577789
1783204330229164800,1.386164794921875,-0.0280394419830292,0.215290517887473,0.0720274175956845,0.0397063642740249,-0.0088952034711837,-0.2545430660247803
1783204330239105000,1.39610498046875,-0.1531385976180434,-0.0175438399970531,0.1815934154689311,0.0043574273586273,-0.0054400181397795,-0.225547656416893
1783204330249045000,1.406044921875,-0.1220356033459305,-0.2278203291147947,0.241270177796483,-0.0113294096663594,0.0102342963218688,-0.1830183565616607
1783204330258985000,1.41598486328125,-0.1572113269496709,-0.3535404661923647,0.2050336200281977,-0.0216062813997268,-0.0094704329967498,-0.169398158788681
1783204330268925000,1.425925048828125,-0.2185674937315285,-0.3718482762992381,0.0453857866466045,-0.0301414299756288,-0.0323017165064811,-0.1523643285036087
1783204330278865000,1.435864990234375,-0.2724111659914255,-0.3968932857066393,-0.1518891820788383,-0.036515973508358,-0.0295245721936225,-0.1577311307191848
1783204330288803800,1.445803955078125,-0.1861330316599458,-0.2856494177490473,-0.3308601400896906,-0.0373398512601852,-0.0368331372737884,-0.1667816042900085
1783204330298744000,1.455744140625,-0.0988585797674953,-0.1471732594728469,-0.5633300485759973,-0.007695673033595,-0.0154687296599149,-0.1702996492385864
1783204330308683800,1.465683837890625,-0.15614289400056,-0.1412041219353675,-0.728944973668456,0.0369547829031944,0.0460106655955314,-0.1899780035018921
1783204330318624000,1.4756240234375,-0.1785342470940202,-0.0848041893213987,-0.6551768498852849,0.0906952396035194,0.1434024721384048,-0.2003286480903625
1783204330328564000,1.48556396484375,-0.2027112414952367,-0.0151069682389497,-0.5292328409239649,0.1711392402648925,0.1935259401798248,-0.2028341442346573
1783204330338504000,1.49550390625,-0.3158887809291482,0.0876227538734674,-0.5209884519308805,0.292594313621521,0.2123464941978454,-0.1860881894826889
1783204330348444000,1.50544384765625,-0.4978315943576395,0.2208604269742965,-0.575009380453825,0.4322545528411865,0.2185683995485305,-0.1478742659091949
1783204330358383900,1.5153837890625,-0.6673799133762717,0.2636538590401411,-0.2822767264455557,0.5694920420646667,0.1560560166835785,-0.0921548083424568
1783204330368324000,1.525323974609375,-0.83812672146447,0.1400502757251262,-0.2113634075716138,0.6749663949012756,0.1416814178228378,-0.0605973824858665
1783204330378264000,1.53526416015625,-0.9950463719911872,0.1032137062370777,-0.2041904472023248,0.721939206123352,0.2503690123558044,-0.056413821876049
1783204330388203800,1.545203857421875,-0.8118355844534934,0.0663724605739116,0.2254252506718039,0.7105039358139038,0.2098080962896347,-0.0785817503929138
1783204330398144000,1.55514404296875,-0.8837075192265212,0.1202507657557725,0.2154220353126525,0.6983130574226379,0.147577479481697,-0.0478273034095764
1783204330408084000,1.565083984375,-0.2958046087995171,-0.0448842668652534,-0.0209743989676237,0.7239519953727722,0.165902629494667,-0.0421305298805236
1783204330418023000,1.57502294921875,-0.1186249181196093,-0.0199801272332668,-0.3710349140897393,0.7578049898147583,0.259954571723938,-0.0911396145820617
1783204330427963100,1.584963134765625,-0.4896794136926531,0.2758177595645189,-0.2591907421514391,0.7978693246841431,0.3570536971092224,-0.1340146362781524
1783204330437902800,1.59490283203125,-0.5945083000414073,0.5163818349182605,0.0462134696424007,0.8533600568771362,0.3618532419204712,-0.132402092218399
1783204330447842800,1.6048427734375,-0.5197830216638744,0.5866647469341755,0.095342826731503,0.8844984173774719,0.3110688328742981,-0.1153951808810234
1783204330457783000,1.614782958984375,-0.4044173976011574,0.3780325178921222,0.0524108629778027,0.880830705165863,0.2254228889942169,-0.103146769106388
1783204330467723000,1.624722900390625,-0.1649180288694798,0.1387123051196336,0.0867418793857097,0.84540194272995,0.1532314717769622,-0.0948773846030235
1783204330477663000,1.6346630859375,0.2306429853200912,0.0259860896497964,0.2739808995261788,0.7714914679527283,0.0897768661379814,-0.0836657434701919
1783204330487603000,1.64460302734375,0.5584878692418337,0.0058604164659976,0.490918015576899,0.676362156867981,0.056234985589981,-0.0778390169143676
1783204330497543000,1.65454296875,0.7121209723785519,-0.0167167415231466,0.7167614916607737,0.577817976474762,0.0207691397517919,-0.0690591111779213
1783204330507483000,1.66448291015625,0.7150901974476873,0.0236456640034914,0.7519532165512443,0.4843361973762512,-0.0091422647237777,-0.0402695499360561
1783204330517422800,1.6744228515625,0.6275467924207448,0.1196411094248294,0.7352531339019537,0.3742866516113281,-0.0033671990968286,-0.0154486205428838
1783204330527362800,1.68436279296875,0.4874027009323239,0.126162035626173,0.7069283721715212,0.2504105567932129,0.0555387213826179,-0.0022329643834382
1783204330537303000,1.694302978515625,0.3479040677405893,0.0531833086550235,0.6084738431602716,0.1200354993343353,0.1430592536926269,-0.0021434822119772
1783204330547242800,1.70424267578125,0.2559313019640744,-0.052345104265213,0.4647591997087001,-0.0022001201286911,0.2245808690786361,-0.0140717588365077
1783204330557183000,1.714182861328125,0.2347990820862352,-0.0745686265110969,0.2861392470926046,-0.0851759612560272,0.2833565473556518,-0.0286333914846181
1783204330567122000,1.724121826171875,0.2491289284728467,-0.0386076708137989,0.1535489319846034,-0.1353820562362671,0.2997428774833679,-0.0273996293544769
1783204330577062000,1.734061767578125,0.2601056650392711,0.1509001710414886,0.1480921278834343,-0.1684667766094207,0.2945659160614013,-0.0079905120655894
1783204330587002000,1.744002197265625,0.2528979256175458,0.208119603344798,0.1630932976603508,-0.2059002816677093,0.2969526946544647,0.0064433007501065
1783204330596941800,1.75394189453125,0.2571272337503731,-0.0094394439965486,0.1125330309852957,-0.2376760691404342,0.3037594854831695,0.0087117813527584
1783204330606881800,1.7638818359375,0.1990411016151309,-0.1941319945245981,-0.1060085976526141,-0.258215069770813,0.3137845396995544,0.0058235763572156
1783204330616822000,1.773822021484375,0.1039174705922603,-0.2582090376377106,-0.3493997131258249,-0.2555221021175384,0.3456005156040191,0.0050683044828474
1783204330626762000,1.783761962890625,-0.0065188803747296,-0.2224368825107812,-0.5229764108777046,-0.2207137197256088,0.4027135372161865,-0.0146233569830656
1783204330636701700,1.79370166015625,-0.1099804238930344,-0.1511678820669651,-0.5564361974090337,-0.1676853895187378,0.4496988952159881,-0.0328806564211845
1783204330646642000,1.803641845703125,-0.1466523043386638,-0.1352934365868568,-0.6238438462495803,-0.1080510094761848,0.4721881151199341,-0.0573602430522441
1783204330656582000,1.813581787109375,-0.0078770169854164,-0.1286906773209571,-0.6165759010732174,-0.0529113225638866,0.469538003206253,-0.0707253143191337
1783204330666522000,1.823522216796875,0.108424865014106,-0.0865308669835329,-0.6632534810960292,0.0103895030915737,0.4374293684959411,-0.0741830989718437
1783204330676461800,1.8334619140625,0.0778575850538909,-0.034717093116045,-0.697150490000844,0.0171358231455087,0.50163733959198,-0.0851292237639427
1783204330686401800,1.84340185546875,-0.0697024817794561,-0.0302285495251417,-0.3061480158984661,-0.2579749524593353,0.7984776496887207,-0.0167510211467742
1783204330696342000,1.853342041015625,0.3706426999017596,-0.1940735423356294,2.5141005437344317,-0.3906017243862152,0.4321795701980591,0.0407626032829284
1783204330706282000,1.863281982421875,0.6768890616081654,-0.3726443951129913,0.3702840957224368,-0.3747912943363189,0.0344902016222476,0.0333316251635551
1783204330716221700,1.8732216796875,0.520088580481708,-0.3572060029625892,-1.3193567981764671,-0.2200672030448913,-0.0747987404465675,-0.0007427227683365
1783204330726162000,1.883161865234375,0.5489855891421437,-0.3787760297358036,-1.1470388683140278,0.0140047902241349,-0.1851653307676315,-0.0312959365546703
1783204330736102000,1.893101806640625,0.5997549685232341,-0.4684223983913659,-1.2397460858449338,0.2377771586179733,-0.3373087644577026,-0.0497029051184654
1783204330746042000,1.9030419921875,0.6578298486120998,-0.7186340075343847,-1.2333905793383717,0.3616042137145996,-0.4470025599002838,-0.0484882742166519
1783204330755981800,1.91298193359375,0.6732851918973028,-0.6067191084474325,-0.7100871284633874,0.3920859396457672,-0.4931985735893249,-0.0293292254209518
1783204330765921800,1.922921875,0.4091876807428896,-0.3036842561334371,-0.0915016411334276,0.344827264547348,-0.5368196964263916,0.0241210348904132
1783204330775862000,1.932862060546875,0.2330260810643434,-0.2789700861155986,0.0908130743473768,0.2419751733541488,-0.5639495849609375,0.0805560797452926
1783204330785802000,1.942802001953125,0.2084755771756172,-0.3283475727468729,0.1159524840399622,0.1156588196754455,-0.5525200366973877,0.151572123169899
1783204330795742000,1.952741943359375,0.2285860527902841,-0.3855447932183742,0.1909337830051779,0.0052782441489398,-0.5182432532310486,0.212293267250061
1783204330805681000,1.962680908203125,0.1570920114189386,-0.3259428496927022,0.1134273494765162,-0.0822298675775528,-0.5061804056167603,0.2451417744159698
1783204330815620900,1.972620849609375,-0.0412330508813261,-0.2990998509526252,-0.151089556133747,-0.1149894148111343,-0.484137624502182,0.258132129907608
1783204330825560800,1.982560791015625,-0.0479588520050048,-0.2429758126705885,-0.345777723236382,-0.102118544280529,-0.4122875332832336,0.2284985482692718
1783204330835501000,1.9925009765625,-0.0373421809226274,-0.2064578076124191,-0.397164211602509,-0.0801426768302917,-0.3399291634559631,0.1940625458955764
1783204330845440800,2.002440673828125,0.053613224504888,-0.3132265759825706,-0.2319192888662219,-0.0975458994507789,-0.3271982073783874,0.1593945771455764
1783204330855381000,2.012381103515625,0.1664360322169959,-0.4640267937809229,-0.1314662795141339,-0.1380895972251892,-0.3814822137355804,0.1125695556402206
1783204330865321000,2.022321044921875,0.3326701121211052,-0.4712690199941396,-0.1351636727273464,-0.1675388067960739,-0.3817348480224609,0.0864886939525604
1783204330875261000,2.032260986328125,0.5286962498292327,-0.3141875299692154,-0.1016270215675234,-0.18111053109169,-0.3260183334350586,0.0885819420218467
1783204330885201000,2.042200927734375,0.6210577226623892,-0.1185480534911155,0.0215808404281735,-0.1744617223739624,-0.2674948275089264,0.0997493937611579
1783204330895140900,2.052140869140625,0.5198555023781954,-0.0188297881543636,0.0726850047215819,-0.1634112000465393,-0.197366327047348,0.0891659930348396
1783204330905081000,2.0620810546875,0.311309490314871,-0.0454401471823453,-0.0053901686057448,-0.1698291152715683,-0.1028313115239143,0.0750148519873619
1783204330915021000,2.07202099609375,0.274606191817671,-0.0305453603893518,-0.0319444135323166,-0.2043063938617706,-0.0558638088405132,0.1234902441501617
1783204330924960800,2.081960693359375,0.3583293079040944,0.0014519523739814,0.0379784329995512,-0.2795161306858063,-0.1354414522647857,0.2004149556159973
1783204330934901000,2.09190087890625,0.3004574030414223,0.1284954470098018,0.1558656844943761,-0.3721286058425903,-0.234572023153305,0.2488528043031692
1783204330944841000,2.101841064453125,0.1756501430250704,0.1447434019774198,0.3298223214745521,-0.4499543607234955,-0.262877345085144,0.2698270380496979
1783204330954781000,2.111781005859375,-0.0104394148193299,0.065640639168024,0.4907826987594366,-0.5203043818473816,-0.2336392849683761,0.2833630740642547
1783204330964721000,2.121720947265625,-0.1627467492450028,0.0618856705486774,0.5392269961938262,-0.5779891014099121,-0.2059687674045562,0.2807154059410095
1783204330974660900,2.131660888671875,-0.2417718437083065,0.2309428450495004,0.4713587441042065,-0.5987918972969055,-0.1760976910591125,0.293222427368164
1783204330984601000,2.14160107421875,-0.2133298853389918,0.5674006590157747,0.2005766406193375,-0.5655978322029114,-0.2294075638055801,0.2822033166885376
1783204330994541000,2.151541015625,-0.3981188089136034,0.6329325771123171,-0.1153060028299689,-0.5475403070449829,-0.506668746471405,0.2369713932275772
1783204331004480800,2.161480712890625,-0.558326833461225,0.3885089037209749,-0.3828378723472356,-0.536553144454956,-0.6259230375289917,0.1759661585092544
1783204331014421000,2.1714208984375,-0.4263827073022723,0.3227572053939104,-0.2445452539443969,-0.5178215503692627,-0.596462070941925,0.0731282085180282
1783204331024361000,2.18136083984375,-0.1422036543667316,0.5634633195668458,0.142303607609868,-0.466972291469574,-0.6288089156150818,0.0271286256611347
1783204331034301000,2.191301025390625,0.1084960305541753,0.4041273286134004,0.0977864204913377,-0.3632078170776367,-0.8013620376586914,0.0999197363853454
1783204331044241000,2.201240966796875,0.2428211335655301,-0.2743658071905374,-0.1868508976057171,-0.2260016798973083,-0.9110646843910216,0.1675609797239303
1783204331054180900,2.211180908203125,0.4183749035440385,-0.6509907963722944,-0.1986655463010072,-0.1402111500501632,-0.8316968679428101,0.2073717713356018
1783204331064121000,2.22112109375,0.5074046746712177,-0.4845978726446628,-0.0383989964991807,-0.1477229297161102,-0.7727579474449158,0.2312628030776977
1783204331074060800,2.231060791015625,0.5189888756114989,-0.211238027626276,0.0502425790280103,-0.1967573165893554,-0.8158715963363647,0.255220353603363
1783204331084000800,2.241000732421875,0.4197898849084973,-0.0559989505976438,0.135858084732294,-0.2357625216245651,-0.7887025475502014,0.2652172744274139
1783204331093941000,2.25094091796875,0.2409603811949491,0.1528004517048597,0.4196516454815864,-0.2300779968500137,-0.6849364638328552,0.257481575012207
1783204331103881000,2.260880859375,0.0431378250567242,0.5172960271537304,0.5552206841394305,-0.1525726020336151,-0.3128843009471893,0.2076661139726638
1783204331113820700,2.270820556640625,-0.2028133866954594,0.9022948769271372,0.3704869248181581,-0.0109006874263286,-0.0624981671571731,0.1031967028975486
1783204331123760400,2.280760498046875,-0.7643303945001214,1.1700444808483124,0.436465417638421,0.1423863768577575,0.1179017499089241,-0.0333007685840129
1783204331133700600,2.29070068359375,-0.8749952935259788,1.2828396699011324,0.2767325363218784,0.2767311036586761,0.0479269251227378,-0.1460954993963241
1783204331143640600,2.300640625,-0.8411470191337168,0.9794447521030902,-0.3049363020211458,0.4070394337177276,-0.0557228773832321,-0.2288220077753067
1783204331153580500,2.31058056640625,-0.8302569379374385,0.5350023642361164,-0.507537141944468,0.5190770626068115,-0.0842093750834465,-0.2721154391765594
1783204331163520500,2.3205205078125,-0.7460761412113904,0.2133329540789127,-0.4203279373079538,0.604630708694458,-0.0559685826301574,-0.258873701095581
1783204331173460500,2.33046044921875,-0.6519920093040913,-0.0534141948014497,-0.2570969847425818,0.6373950242996216,0.0120568089187145,-0.1994844228029251
1783204331183400700,2.340400634765625,-0.2720506621159613,-0.2773106284707785,-0.0514513702958822,0.5087380409240723,0.0666128396987915,-0.0807644352316856
1783204331193340400,2.35034033203125,0.3470941761298104,-0.7937970928072929,0.5486196784391999,0.3185811936855316,0.0966133475303649,0.0362998731434345
1783204331203280400,2.3602802734375,0.2543821728259325,-1.1244915209412574,0.557149898636341,0.112272560596466,0.2657765746116638,0.0699960887432098
1783204331213220600,2.370220703125,0.2289863772194832,-0.5981570318073034,1.2494596706077457,-0.0521062612533569,0.4150667488574981,0.035195767879486
1783204331223160600,2.38016064453125,-0.0307068345613777,0.3231283767938613,1.3181874621361491,-0.1854544132947921,0.5079511404037476,0.0364921726286411
1783204331233100500,2.3901005859375,0.09334346960783,0.4671072241395712,1.1641156753212212,-0.2747206389904022,0.496744304895401,0.0589804388582706
1783204331243040500,2.40004052734375,0.3805333947971463,0.0792687670260667,0.8460130177348851,-0.3160446584224701,0.413701444864273,0.0657607316970825
1783204331252980500,2.40998046875,0.4563550170440226,-0.0396264924675226,0.4790931377485394,-0.3178966343402862,0.3151402473449707,0.0547288581728935
1783204331262920700,2.419920654296875,0.3516237458508461,0.0360480494588613,0.213612063281238,-0.2817614674568176,0.2412846088409423,0.053814623504877
1783204331272860400,2.4298603515625,0.2768639806818216,-0.0852203689068555,0.0525610851034522,-0.208761841058731,0.1798971593379974,0.0506015196442604
1783204331282800400,2.43980029296875,0.1578933909296989,-0.2304576918810605,-0.0938444048672914,-0.101343996822834,0.08087869733572,0.0329901427030563
1783204331292740600,2.44974072265625,0.0567443621374666,-0.1339127958834171,-0.4914665893703698,0.0093913022428751,-0.009494874626398,0.0099002681672573
1783204331302680600,2.4596806640625,0.0976758727889507,0.0617208353757858,-0.8495566816911101,0.1042277216911315,-0.0573565699160099,-0.0068200509995222
1783204331312620500,2.46962060546875,0.147123721242696,0.1174573356449604,-0.7560141823798417,0.1557401865720749,-0.1088282763957977,-0.010273371823132
1783204331322560500,2.479560546875,0.1928404934093356,-0.0567792873203754,-0.5407447072803974,0.197022259235382,-0.1345708072185516,-0.0116338860243558
1783204331332500500,2.48950048828125,0.019287395728752,-0.1195657061010599,-0.414665381501615,0.244600161910057,-0.24370077252388,-0.0212521590292453
1783204331342440700,2.499440673828125,-0.1771711420472711,-0.031138065585494,-0.590013180579245,0.3270410597324371,-0.3760399520397186,-0.0376891866326332
1783204331352380400,2.50938037109375,-0.2031393307141959,0.1371592304587364,-0.90842592702806,0.4124211966991424,-0.4370338022708893,-0.0457071661949157
1783204331362320600,2.519320556640625,-0.1540033246885985,0.1334253046274185,-0.9489142970219254,0.3937677145004272,-0.351287305355072,0.0294514372944831
1783204331372260600,2.529260498046875,0.1301303182026371,-0.1962239983677864,-0.4321168670400976,0.332777589559555,-0.2944613099098205,0.1248724907636642
1783204331382200600,2.53920068359375,0.3782094453616068,-0.6363806717395782,0.0145589789673686,0.3085444867610931,-0.3683166205883026,0.1176515743136406
1783204331392140500,2.549140625,0.1846860842546448,-0.2114268281966447,-0.3351674818947911,0.3346093595027923,-0.4643387794494629,0.0867956578731536
1783204331402080500,2.55908056640625,0.0589636456221342,0.4246557373791932,-0.5992734686166048,0.3482226133346557,-0.4777630567550659,0.0759205073118209
1783204331412020500,2.5690205078125,0.1885290599510073,0.2343523612320423,-0.2855716763377189,0.3397678732872009,-0.426984578371048,0.0776252001523971
1783204331421960700,2.578960693359375,0.1192855739854276,0.0354711263537406,-0.0100116909265518,0.3055369257926941,-0.3825385868549347,0.0761333331465721
1783204331431900400,2.588900390625,-0.042596740449965,0.0363216057032346,0.1482365047901868,0.2649711370468139,-0.3586891889572143,0.0756787285208702
1783204331441840600,2.598840576171875,-0.1012774409448727,0.0826391202419996,0.2071303000465035,0.2227722704410553,-0.3181958198547363,0.0772076472640037
1783204331451780600,2.608780517578125,-0.0867039950607344,0.113700028938055,0.2562985278412699,0.1847196817398071,-0.2353848367929458,0.0730816125869751
1783204331461720600,2.618720458984375,-0.1047247318545356,0.1463870775312185,0.4005503469094634,0.1345423460006714,-0.0713547766208648,0.0633570700883865
1783204331471660500,2.62866064453125,-0.1495433496050536,0.1414636496543884,0.6228337924242019,0.0558992028236389,0.1535795331001281,0.0359134636819362
1783204331481600500,2.6386005859375,-0.2632553612418473,0.1639127973496913,0.8656915316730737,-0.0651868134737014,0.3791635632514953,0.007146808784455
1783204331491540700,2.648540771484375,-0.2583607576007023,0.1976923173546791,1.0570280502602458,-0.1574442982673645,0.5005067586898804,-0.0005353456363081
1783204331501480700,2.658480712890625,-0.2053089298382401,0.2773416081309318,0.8421095805555582,-0.1926675140857696,0.4746187925338745,0.0019962722435593
1783204331511420400,2.66842041015625,-0.0720623427785933,0.2300274837702512,0.2422054128199815,-0.1667706817388534,0.4236626625061035,0.0053587793372571
1783204331521361700,2.678361572265625,0.0470386684201657,0.1263163494050502,-0.012885200536251,-0.1216905415058136,0.3935622870922088,0.0017685717903077
1783204331531301400,2.68830126953125,0.0633726211708039,0.0959802478522062,0.0660191170915961,-0.091469794511795,0.388798713684082,-0.0027843683492392
1783204331541241600,2.69824169921875,-0.0096871716799214,0.0818856715261936,0.227551156784594,-0.0987516567111015,0.395748883485794,-0.0001206579618155
1783204331551181600,2.708181640625,-0.1178015094401314,0.075353639408946,0.3148711283192038,-0.1116831675171852,0.388024091720581,0.0100195948034524
1783204331561121500,2.71812158203125,-0.1842034518368542,0.0750584558546543,0.2473784315437078,-0.1432067155838012,0.4457674026489258,0.0125095238909125
1783204331571061500,2.7280615234375,-0.2840528692726046,0.0682844316750764,0.4102323674902319,-0.2016694843769073,0.5286218523979187,0.0122911436483263
1783204331581001500,2.73800146484375,-0.3723032169925048,0.0872036516785621,0.6965808734193444,-0.2584818005561828,0.5773491263389587,0.0131532978266477
1783204331590941700,2.747941650390625,-0.1747666381888091,0.0947077436983585,0.722301882392168,-0.2800784707069397,0.5271690487861633,0.0143125709146261
1783204331600881700,2.757881591796875,0.0895909486738964,0.1095271271675825,0.4469567087754607,-0.2513720989227295,0.4333213269710541,0.0214813817292451
1783204331610821400,2.7678212890625,0.2243217464093118,0.1273714114159345,0.1504755158886313,-0.2264664471149444,0.3578702509403229,0.0558169856667518
1783204331620761600,2.77776171875,0.3203465640556067,-0.0283352831244468,0.056477966286242,-0.2119245082139969,0.3331930339336395,0.0743284374475479
1783204331630701600,2.78770166015625,0.2493975162811577,-0.1022241106778383,0.0933878932714462,-0.2058288007974624,0.3358790874481201,0.0851318165659904
1783204331640641500,2.7976416015625,0.0188914552137255,0.0233072258293628,0.0939817675113677,-0.2157821655273437,0.3690100312232971,0.0945998951792717
1783204331650581500,2.80758154296875,-0.1070396942660212,0.0329629429250955,0.0728401952832937,-0.2136710882186889,0.3994995057582855,0.1085705757141113
1783204331660521500,2.817521484375,-0.1244699908860027,-0.0338911636859178,-0.0668868398368358,-0.1911868155002594,0.420537918806076,0.1298468261957168
1783204331670461700,2.827461669921875,-0.0544251984748989,-0.0719271720916032,-0.2847302570775151,-0.1414208859205246,0.4260840713977813,0.1499223262071609
1783204331680401700,2.837401611328125,8.70937615633e-05,-0.1120300498992204,-0.3886842602878809,-0.0463001430034637,0.3742279708385467,0.1921490728855133
1783204331690341400,2.84734130859375,0.1210802023172378,-0.1689180582910776,-0.7072709019988774,0.035967830568552,0.4028132557868957,0.210346981883049
1783204331700281600,2.857281494140625,0.0251363409526646,-0.1851864715248346,-0.6131739836752415,0.0833351612091064,0.4854744970798492,0.2196228355169296
1783204331710221600,2.8672216796875,-0.1625193702299147,-0.1139449436098337,-0.3671905136212706,0.1024875491857528,0.558745801448822,0.2398234456777572
1783204331720161500,2.87716162109375,-0.3167537271954119,-0.0810696789681911,-0.5021539876013994,0.1394768357276916,0.6188059449195862,0.2554935216903686
1783204331730101500,2.8871015625,-0.3973358418423682,0.0175222126871347,-0.5923699728384614,0.1867575347423553,0.6027771830558777,0.2742855846881866
1783204331740041500,2.89704150390625,-0.3496013366451487,0.0287970554172992,-0.7914572516828775,0.230669617652893,0.5023995041847229,0.3061496913433075
1783204331749981700,2.906981689453125,-0.0928857889682054,-0.2350286530584096,-0.999814755436778,0.3047699332237243,0.3461827337741852,0.3045374155044555
1783204331759921700,2.916921630859375,0.0946062926178798,-0.2863005751341581,-1.114635605098307,0.3840884268283844,0.217575341463089,0.2791133224964142
1783204331769861400,2.926861328125,0.3188902643000706,-0.2179974387586116,-1.0248103727445006,0.4465691149234772,0.1104544848203659,0.2570527493953705
1783204331779801600,2.936801513671875,0.5095118030183017,-0.2074210996866226,-0.7815022593796253,0.4764671325683594,0.0361523479223251,0.2477324306964874
1783204331789741600,2.946741455078125,0.6115693249575793,-0.2338087558746338,-0.5058364755064249,0.4873575866222381,-0.0069162915460765,0.2410332560539245
1783204331799682600,2.9566826171875,0.594242050320655,-0.2324608483970165,-0.2021276694536209,0.4770272374153137,-0.0275490265339612,0.2251027524471283
1783204331809622500,2.96662255859375,0.4326179484300315,-0.1184293955475091,-0.0560854598373174,0.4645425975322723,-0.0069683822803199,0.1930643916130066
1783204331819562500,2.9765625,0.2761696417421102,0.0970136825531721,0.1787888794422149,0.4430817663669586,0.0254503339529037,0.1617948412895202
1783204331829502500,2.98650244140625,0.140975537343882,0.2331213581323623,0.380075129635632,0.3956644535064697,0.0651729777455329,0.139881819486618
1783204331839442400,2.9964423828125,0.1289249610008671,0.1360404555618763,0.6077738781973719,0.3268496990203857,0.1071502491831779,0.1052990779280662
1783204331849382700,3.006382568359375,0.0231438519611954,0.0906178440362215,0.7398048058569431,0.2186715602874755,0.1682106703519821,0.0649130418896675
1783204331859322600,3.016322509765625,-0.0460813676953315,0.1778893002539873,0.951850642734766,0.0914436876773834,0.2304799109697342,0.0224856287240982
1783204331869262300,3.026262451171875,-0.0077402753958478,0.2225146239221095,1.0171841156497596,-0.0179584398865699,0.2869711518287658,-0.0083383312448859
1783204331879202600,3.03620263671875,0.0947996232328936,0.1924246060848236,1.019964101757109,-0.0965305417776107,0.3190926015377044,-0.0390298999845981
1783204331889142500,3.046142578125,0.2355270310346037,0.1371364341050386,0.91432872133106,-0.1491007953882217,0.313183844089508,-0.0816255658864975
1783204331899082800,3.056082763671875,0.3357414093252271,0.1122989299684762,0.8385922200843692,-0.167720079421997,0.2162937819957733,-0.1258276104927063
1783204331909022500,3.0660224609375,0.299560709930025,0.1524579218775034,0.5723185339346528,-0.0199902802705764,-0.1329808533191681,-0.2277180254459381
1783204331918962400,3.07596240234375,-0.0584599704163149,0.5723837081253528,-0.5599623257085681,0.2447780817747116,-0.4457325637340545,-0.2781637012958526
1783204331928902700,3.085902587890625,0.0552212076907977,0.5286679005175828,-1.555233592496812,0.5367835760116577,-0.6669595241546631,-0.2940497398376465
1783204331938842600,3.095842529296875,0.0892184620996937,0.0039291561424732,-1.7319146860048171,0.7207573652267456,-0.6376607418060303,-0.2956240177154541
1783204331948782300,3.1057822265625,-0.1194139130728319,-0.0138151748627424,-1.2678750327423214,0.7410775423049927,-0.4985511004924774,-0.2887048423290252
1783204331958722600,3.11572265625,-0.1565970675088465,0.1112824464023113,-0.0496872832328081,0.6569423079490662,-0.4456770420074463,-0.2618533968925476
1783204331968662500,3.12566259765625,-0.2533241151403635,0.2014034468322992,0.3588604921713471,0.510127067565918,-0.415778249502182,-0.1993871182203292
1783204331978602800,3.135602783203125,-0.1414445430951192,0.3248515473246574,0.6961869056656956,0.3423779606819153,-0.3638449609279632,-0.1487780213356018
1783204331988542500,3.14554248046875,-0.2631741492317989,0.4410848941326141,1.0394970697447656,0.1648039817810058,-0.2447326779365539,-0.0882688835263252
1783204331998482400,3.155482421875,-0.4700365921223536,0.3665460782378911,1.404347449980676,-0.0209533758461475,-0.0301382411271333,-0.0189144164323806
1783204332008423700,3.165423583984375,-0.633047289533168,0.2451069794803857,1.696388614593446,-0.2082489728927612,0.1906660497188568,0.0266019366681575
1783204332018363400,3.17536328125,-0.7224404140800237,0.2343628826260566,1.829583909857273,-0.3580937087535858,0.3821874260902405,0.0444471500813961
1783204332028303600,3.1853037109375,-0.5542207863818853,0.2839420293092727,1.7915604686722155,-0.452674001455307,0.4495968222618103,0.0380531661212444
1783204332038243600,3.19524365234375,-0.3220333115661516,0.3151969992727041,1.412007609345019,-0.4844150841236114,0.3758638799190521,0.0314513184130191
1783204332048183600,3.20518359375,-0.2110729732576757,0.2853051343560218,0.6858794466629624,-0.4337527155876159,0.2669496238231659,0.0362596549093723
1783204332058123500,3.21512353515625,-0.0662248687967658,0.2035632552146911,-0.2139601460665464,-0.3154976963996887,0.1906116604804992,0.017831951379776
1783204332068063500,3.2250634765625,-0.1789778992082923,0.203598911049962,-0.7979796391889452,-0.1831497699022293,0.1514205783605575,-0.0274902563542127
1783204332078003700,3.235003662109375,-0.4948212335605174,0.1625175435990095,-0.8960039600893854,-0.0677286684513092,0.2054567039012909,-0.1075917854905128
1783204332087943700,3.244943603515625,-0.5655781928289682,0.2409749942421913,-0.6727551766738296,0.0162477269768714,0.364779531955719,-0.1953227072954177
1783204332097883400,3.25488330078125,-0.4607957029052078,0.3977250603556633,-0.3508165941864252,0.0585433021187782,0.510839581489563,-0.2755213677883148
1783204332107823600,3.26482373046875,-0.3722315765284001,0.4674152671754359,-0.1877040073037147,0.0966283679008483,0.5902579426765442,-0.323734700679779
1783204332117763300,3.274763427734375,-0.3058985711820423,0.474627098250389,-0.1148509525388479,0.1435363292694091,0.6549935936927795,-0.3497270941734314
1783204332127703600,3.28470361328125,-0.2613728354308754,0.4709118771195411,0.0052978141471743,0.1977007687091827,0.7243924140930176,-0.3757296800613403
1783204332137643300,3.294643310546875,-0.2254192593224346,0.327951851427555,0.0639706601291894,0.2550168335437774,0.768335223197937,-0.3907747268676758
1783204332147583200,3.304583251953125,-0.0668183046452701,-0.025033903491497,-0.0231540810942649,0.3121086061000824,0.7863746881484985,-0.3639870584011078
1783204332157523500,3.3145234375,0.1912884416617453,-0.2421323475837707,-0.2174474036604166,0.3415955305099487,0.797250509262085,-0.2965589463710785
1783204332167463400,3.32446337890625,0.2911914159156382,-0.040442485025525,-0.3883785553395747,0.3606318235397339,0.7813192009925842,-0.2389028370380401
1783204332177403400,3.3344033203125,0.180220592745766,-0.1654927600175142,-0.5050932559236884,0.3565497696399688,0.8090214729309082,-0.1884761452674865
1783204332187344400,3.344344482421875,0.1818677023656666,-0.5052127906501293,-0.5908721354961395,0.3345595002174377,0.8483774065971375,-0.1508555263280868
1783204332197284400,3.354284423828125,0.2245912110004574,-0.6277870309174061,-0.5974868774607778,0.2938020825386047,0.8952378630638123,-0.129543200135231
1783204332207224300,3.364224365234375,0.2593012167885899,-0.5419581747233867,-0.5640232915371656,0.2434520870447158,0.9055150151252748,-0.1093127653002739
1783204332217164300,3.374164306640625,0.3071712214663624,-0.4462620045095682,-0.4483598535716533,0.1845648288726806,0.8887713551521301,-0.0759252086281776
1783204332227104500,3.3841044921875,0.3488024778850376,-0.4164496345698833,-0.2756020709872245,0.1196851655840873,0.8718259334564209,-0.0315132662653923
1783204332237044200,3.394044189453125,0.3239331173054873,-0.4450847774237394,-0.1189627717718481,0.0463697016239166,0.8969389796257019,0.0137563375756144
1783204332246984200,3.403984130859375,0.1811553163126111,-0.4122323091357946,0.0136257897704839,-0.0341496393084526,0.9810472130775452,0.0632051154971122
1783204332256924400,3.41392431640625,-0.0463242365404963,-0.2591974641531706,0.1361538528084754,-0.0762327387928962,1.063071846961975,0.0721171051263809
1783204332266864400,3.423864501953125,-0.1400143276289105,0.0250987854212522,0.1169593229949474,-0.0806679725646972,1.0644651651382446,0.0647177770733833
1783204332276804400,3.433804443359375,0.0426728744260966,0.0421469508558511,-0.2527196464411914,-0.0373619645833969,1.012022852897644,0.0500639900565147
1783204332286744300,3.443744384765625,0.2430399639479815,-0.014606617501378,-0.4805680326066911,0.0063980333507061,0.912286937236786,0.0570739619433879
1783204332296684300,3.453684326171875,0.4032881013102829,-0.1847135933160781,-0.4209941461317241,-0.1491472870111465,0.4764345586299896,0.1016115695238113
1783204332306624500,3.46362451171875,0.7800805560134351,-0.3328220878124237,1.0156373245991763,-0.3015671968460083,0.3047890365123749,0.1375024616718292
1783204332316564200,3.473564208984375,1.0167321340985596,-0.5657669203341007,1.8304165612891317,-0.4105763137340545,0.1432182490825653,0.1240605860948562
1783204332326504200,3.483504150390625,0.4390072110757231,-0.3692395551055669,0.5865846674352884,-0.4522103071212768,0.1269314289093017,0.1285261809825897
1783204332336444400,3.4934443359375,0.3686610245652497,-0.494511948415637,-0.2531064538016915,-0.4414438903331756,0.1893462389707565,0.1188828200101852
1783204332346385200,3.50338525390625,0.57598845461905,-0.6173930626749992,-0.1800070230603218,-0.3668327629566192,0.2032727003097534,0.0878708437085151
1783204332356325400,3.513325439453125,0.544167667466402,-0.5881944407194852,-0.3900339213311672,-0.238269031047821,0.1608134359121322,0.0730592682957649
1783204332366265300,3.523265380859375,0.6322619843743741,-0.559759204351902,-0.5763417981013655,-0.1098348870873451,0.0247919540852308,0.0581197291612625
1783204332376205600,3.53320556640625,0.6655974138736724,-0.3961018430680036,-0.4246346945911645,-0.0331826731562614,-0.1800859272480011,0.0632420033216476
1783204332386145300,3.543145263671875,0.4363162184260785,-0.2806961792558431,-0.0642643823787569,-0.0288691520690917,-0.4081497192382812,0.0951567962765693
1783204332396085200,3.553085205078125,0.293176159992069,-0.2544447166681289,0.2349833526119589,-0.0798654109239578,-0.6173387765884399,0.1274396181106567
1783204332406025500,3.563025390625,0.2523293319493532,-0.2643167068630457,0.4831114334791898,-0.1603735834360122,-0.7485514283180237,0.1526712030172348
1783204332415965400,3.57296533203125,0.2869524631716311,-0.2553577398598194,0.5885261568918824,-0.2469793856143951,-0.8105985522270203,0.1561675071716308
1783204332425905200,3.5829052734375,0.3390430081538856,-0.2183066508382558,0.6129632635340094,-0.3185579776763916,-0.8421509265899658,0.1300959587097168
1783204332435845400,3.592845458984375,0.4457425106801092,-0.1547036549776792,0.5952814763709903,-0.3700965940952301,-0.8703030347824097,0.1042917147278785
1783204332445785300,3.602785400390625,0.5153817179650068,-0.0904419029474258,0.5611082808732986,-0.4016393423080444,-0.9253655076026917,0.0707350820302963
1783204332455725300,3.612725341796875,0.531772515469417,-0.1116693998932838,0.530017853821814,-0.4248903691768646,-0.9790946841239928,0.0759074538946151
1783204332465665300,3.622665283203125,0.5531770494826138,-0.2362315991073846,0.5990259235963225,-0.4416480362415313,-0.9903952479362488,0.0976505652070045
1783204332475605200,3.632605224609375,0.6024583822630345,-0.2708563377648592,0.7532406260132789,-0.4550636410713196,-0.95380038022995,0.1138306856155395
1783204332485545500,3.64254541015625,0.5607778798751533,-0.1942103204578161,0.7873316961854696,-0.4935460686683655,-0.970468282699585,0.1050614267587661
1783204332495485200,3.652485107421875,0.5938048279471695,-0.3118991267710924,0.6219698690712452,-0.5444815754890442,-1.0133532285690308,0.1000938192009925
1783204332505425400,3.66242529296875,0.7330822926688939,-0.4343003485590219,0.4028825892493128,-0.5962819457054138,-1.0864721536636353,0.0262286514043808
1783204332515366400,3.672366455078125,0.5656394214969128,-0.4391577254623174,0.2317316573396325,-0.6107264757156372,-1.130221247673035,-0.1369579583406448
1783204332525306000,3.68230615234375,-0.4044303301479667,-0.4945557875573634,0.2256128821983933,-0.6107856035232544,-1.0619657039642334,-0.2055090516805648
1783204332535246300,3.692246337890625,-0.3476240086901933,-0.2776671868234873,0.2694263049617409,-0.6380333304405212,-0.9516637921333312,-0.235692873597145
1783204332545186300,3.702186279296875,-0.0648171208906918,-0.1160819556385278,0.0889282835140824,-0.683791995048523,-0.8787485957145691,-0.235981285572052
1783204332555126500,3.71212646484375,0.07431808581613,-0.1982125418365001,-0.3027995822533965,-0.7207292318344116,-0.8260172605514526,-0.2185063809156417
1783204332565066200,3.722066162109375,0.1767586157236248,-0.234472188219428,-0.5492094610258936,-0.7394725680351257,-0.7533686757087708,-0.2025580406188964
1783204332575006200,3.732006103515625,0.2401004033647477,-0.1704746400833129,-0.5333353078067302,-0.7176579833030701,-0.7021034955978394,-0.1623584479093551
1783204332584946400,3.741946533203125,0.2730295170854777,-0.0705371790379285,-0.4420204214170575,-0.6619833111763,-0.7187303900718689,-0.0951767414808273
1783204332594886400,3.751886474609375,0.2700899565022439,0.0425549471348524,-0.471383878545463,-0.5636889338493347,-0.7527672052383423,0.0166238229721784
1783204332604826400,3.761826416015625,0.1964572956670075,0.102616324865818,-0.514402351538837,-0.4340790212154388,-0.730379581451416,0.1570395231246948
1783204332614766300,3.771766357421875,0.0428153516367077,0.342038244447112,-0.4332967244744301,-0.3023882210254669,-0.7053220272064209,0.3153809010982513
1783204332624706300,3.781706298828125,-0.1358393800318241,0.7220674891144037,-0.3612070552974939,-0.1978596895933151,-0.7099298238754272,0.3663745820522308
1783204332634646500,3.791646484375,-0.5249629450524226,1.032563178828359,-0.3813493873551488,-0.1274350136518478,-0.7115270495414734,0.2918347418308258
1783204332644586200,3.801586181640625,-1.127090013001859,0.9709346979111432,-0.3789493404760956,-0.0843788832426071,-0.6843686699867249,0.2183365523815155
1783204332654526200,3.811526123046875,-1.1722906523399057,0.8920692509889602,-0.3160407566204667,-0.0589757338166236,-0.622395396232605,0.1759942770004272
1783204332664466400,3.821466552734375,-0.9256710763394832,0.7964888161092996,-0.1986333975970745,-0.0393200069665908,-0.5176610350608826,0.0925635769963264
1783204332674407200,3.8314072265625,-0.8064313873223959,0.5926888295292854,-0.0396565953448414,-0.0161679573357105,-0.3886725306510925,0.0294051580131053
1783204332684347400,3.841347412109375,-0.6599338351540267,0.4250345075637102,0.0760422061949968,0.0150863686576485,-0.2775606513023376,-0.0223003793507814
1783204332694287400,3.851287353515625,-0.5536966894425451,0.3912532339930534,0.1113490818977355,0.0507233813405036,-0.1983863264322281,-0.0595185719430446
1783204332704227300,3.861227294921875,-0.4253808367833495,0.3848901287019252,0.1223264029860496,0.0982658639550209,-0.1555733382701873,-0.0733124166727066
1783204332714167300,3.871167236328125,-0.337900852381438,0.271574715167284,0.1810240911483764,0.149630069732666,-0.1240334138274192,-0.0794329047203064
1783204332724107300,3.881107177734375,-0.2549503281027078,0.1538818172007799,0.2510720253646373,0.1894145011901855,-0.0854253023862838,-0.0698822811245918
1783204332734047500,3.891047607421875,-0.2028109755426645,0.0708855540841817,0.2634527835100889,0.2024776488542556,-0.0407349541783332,-0.0701984092593193
1783204332743987200,3.9009873046875,-0.2114747224589809,0.0716132838368415,0.2810620899587869,0.1727738082408905,-0.0011135097593069,-0.0744605287909507
1783204332753927200,3.91092724609375,-0.2245167575247585,0.0686456662029027,0.2845335654616355,0.124478705227375,0.0224725566804409,-0.0665580481290817
1783204332763867400,3.920867431640625,-0.1118956098645925,0.0711240390151739,0.2836427541017532,0.076742872595787,0.0121062006801366,-0.0490525513887405
1783204332773807400,3.930807373046875,0.1062372918419539,0.0891430953085422,0.2288344745934009,0.0225972682237625,0.0218318067491054,-0.0381699092686176
1783204332783747300,3.940747314453125,0.0358852601125836,0.0394154800653457,0.3321475495517254,-0.032267577946186,0.0687085092067718,-0.0119811836630105
1783204332793687300,3.950687255859375,0.1939642002096399,0.0099602530002593,0.5000663676723838,-0.0647959783673286,0.0975077003240585,0.0219867285341024
1783204332803627300,3.960627197265625,0.352455447434634,-0.0216056826084852,0.47005613707304,-0.0811339393258094,0.1255579888820648,0.0428581908345222
1783204332813567500,3.9705673828125,0.2987071618406102,-0.1143108543127775,0.3179316849336028,-0.0899569764733314,0.1318506002426147,0.0469384342432022
1783204332823507200,3.980507080078125,0.1665549824215471,-0.1662608217805624,0.2300157933324575,-0.1029398813843727,0.1381013095378875,0.0462079308927059
1783204332833448400,3.990448486328125,0.0593403334474191,-0.1585375340521335,0.195933783249557,-0.1184406876564025,0.1463134437799453,0.0269939601421356
1783204332843388400,4.000388427734375,-0.158177614698559,-0.1417412975519895,0.2052034236371517,-0.1316861808300018,0.159176766872406,0.001130137592554
1783204332853328100,4.010328125,-0.3223721881316974,-0.0669306789785623,0.1792781242638826,-0.1217981427907943,0.095144011080265,-0.0061745145358145
1783204332863268400,4.020268310546875,-0.1624338108383119,0.0264630595117807,-0.1600017613857984,-0.0744596570730209,-0.0204984378069639,-0.0135189807042479
1783204332873208300,4.030208251953125,0.0020212766945362,0.0359188701212406,-0.5505962392091751,-0.0222709421068429,-0.091131217777729,-0.0175584759563207
1783204332883148500,4.0401484375,0.1516094518220052,-0.0226905552357435,-0.5667153071001172,0.0220155622810125,-0.1120910942554473,-0.0159025229513645
1783204332893088300,4.050088134765625,0.3199926725840196,-0.0293523512125015,-0.4260594666972756,0.0503079146146774,-0.1147877797484397,-0.0066574001684784
1783204332903028200,4.0600283203125,0.4403068954974413,-0.0625362434118986,-0.4535346258610486,0.0751988813281059,-0.1069045588374137,0.0107780490070581
1783204332912968400,4.069968505859375,0.5024075239710509,-0.1164379294693469,-0.5555903942346573,0.1096125468611717,-0.1221755966544151,0.0249523855745792
1783204332922908400,4.079908447265625,0.4810770050421357,-0.1762286735653877,-0.7393062086850404,0.1635333001613617,-0.1284731775522232,0.0130584416911005
1783204332932848400,4.089848388671875,0.2730883346006274,-0.2626847217470407,-0.915053820735216,0.2212834805250167,-0.1183130592107772,-0.0028567970730364
1783204332942788400,4.099788330078125,0.0951410205490887,-0.274116800865531,-0.8061182297199964,0.2432771921157837,-0.1102492734789848,-0.0095085743814706
1783204332952728300,4.109728271484375,-0.0137083900200203,-0.2162760217934846,-0.6341363999441265,0.2396198809146881,-0.1145599111914634,-0.01821294054389
1783204332962668500,4.11966845703125,-0.0670396923109889,-0.1143242983162403,-0.4968623109340667,0.2022400200366974,-0.1128682717680931,-0.0288080591708421
1783204332972608300,4.129608154296875,-0.0550082225272431,-0.0178436997264623,-0.2913911762714385,0.1452323943376541,-0.0959439873695373,-0.0264037791639566
1783204332982548200,4.13954833984375,0.0159273447111248,0.0345142640203237,-0.0965647697418928,0.0892767086625099,-0.0678031668066978,-0.0148786827921867
1783204332992489200,4.1494892578125,0.0509800995223224,0.0514724130839109,0.0232943663477897,0.0640133097767829,-0.0306122750043869,-0.0103127397596836
1783204333002429200,4.15942919921875,0.044360096860677,0.0314753347158432,0.0508393758773803,0.0772614702582359,0.0007919850759208,-0.0072192111983895
1783204333012369400,4.169369384765625,-0.0493575032891705,0.0231359609156847,-0.0222346281617879,0.1219304129481315,-0.0019340380094945,-0.0175470858812332
1783204333022309400,4.179309326171875,-0.1690583435446024,0.0880669905096292,-0.0748275697082281,0.1745917648077011,0.0088648134842515,-0.0109746698290109
1783204333032249300,4.189249267578125,-0.1503659180343151,0.140591542994976,-0.0753589001059532,0.1973204612731933,0.0610760375857353,-0.0008501890115439
1783204333042189300,4.199189208984375,-0.137869570685178,0.0604226122587919,0.2609270644247531,0.1952224224805832,0.0986929237842559,0.0030356291681528
1783204333052129300,4.20912939453125,-0.1786708425531163,0.0551589926421642,0.4366901663050055,0.1822410821914672,0.0935655906796455,0.0016305060125887
1783204333062069500,4.219069580078125,-0.1443405202649533,0.1400596280753612,0.4502425985783338,0.157337337732315,0.0740187913179397,0.007507037371397
1783204333072009200,4.22900927734375,-0.0763174064071849,0.2083855608046054,0.4198489216193556,0.117431104183197,0.0574911534786224,0.0015967884100973
1783204333081949200,4.23894921875,-0.0506372774340212,0.2203302656203508,0.4951519998848438,0.0553256534039974,0.0432509668171405,-0.0105956960469484
1783204333091889400,4.248889404296875,-0.0221049739001318,0.1924035632967949,0.5443854018703103,-0.0127376019954681,0.013690891675651,-0.0194843206554651
1783204333101829400,4.258829345703125,0.0538392883457243,0.2068348242312669,0.5107680866897106,-0.060534156858921,-0.0425313673913478,-0.0101169180124998
1783204333111769300,4.268769287109375,0.1633975047713145,0.2028524765968322,0.4675371399894356,-0.0848659202456474,-0.0983293876051902,-0.0057253325358033
1783204333121708800,4.278708740234375,0.1646077938765287,0.1915899088263511,0.4119605064570903,-0.0840177088975906,-0.1623395383358001,-0.0164922252297401
1783204333131649000,4.28864892578125,0.0394344404941424,0.1426794551849365,0.3291182648584246,-0.06710696965456,-0.1690278947353363,-0.0262324586510658
1783204333141589000,4.298589111328125,-0.0831976309075951,0.0132446814984083,0.3734720781087875,-0.0394588373601436,-0.1309905052185058,-0.0222731363028287
1783204333151529000,4.308529052734375,-0.1257712462102994,0.0043207858085632,0.4680830834344029,-0.0178716257214546,-0.1236708536744117,-0.0163913052529096
1783204333161470000,4.318469970703125,-0.1528171471113339,0.0535486348360776,0.2547776018843055,-0.0179563164710998,-0.1069312915205955,-0.0101648345589637
1783204333171410200,4.32841015625,-0.1453917828835547,0.0199696058392524,0.2036994488149881,-0.0435064472258091,-0.0405285097658634,-0.0112197520211339
1783204333181350000,4.338349853515625,-0.17493746471107,0.0002764788538217,0.3862678467959165,-0.0710501968860626,0.0369859896600246,-0.0209623947739601
1783204333191289900,4.348289794921875,-0.1401904513807967,0.0229828161805868,0.3493205104097723,-0.0951095893979072,0.0747325792908668,-0.0204790979623794
1783204333201230000,4.35822998046875,-0.0478897688241675,0.0711848292917013,0.23002982185781,-0.1052176207304,0.0743392258882522,-0.0207195803523063
1783204333211170000,4.368170166015625,0.0317159750713035,0.0898795928895473,0.2095809080690145,-0.1113389283418655,0.0696306973695755,-0.0200236234813928
1783204333221109800,4.37810986328125,0.10878113110587,0.0534855064719915,0.2085106484889984,-0.1134082004427909,0.0534455999732017,-0.02092563547194
1783204333231050000,4.388050048828125,0.1707933141110464,0.0631540830492973,0.108994627726078,-0.1105278432369232,0.0100457649677991,-0.0153768556192517
1783204333240990000,4.397989990234375,0.2071489682143553,0.0710427904725074,-0.0522659015491604,-0.0932138338685035,-0.0159125998616218,-0.0144045362249016
1783204333250930200,4.40793017578125,0.1426779938802123,0.0301227510631084,-0.0734603730082511,-0.0585522130131721,-0.0138305267319083,-0.006723343860358
1783204333260870000,4.417869873046875,0.1073617658272385,-0.0203916306436061,-0.0736141022652387,-0.0195827074348926,0.0046736495569348,0.0018347240984439
1783204333270809900,4.427809814453125,0.0757123897187411,-0.0021177228063344,-0.0304553440183401,0.0174276046454906,0.0302426069974899,0.0106886755675077
1783204333280750000,4.43775,0.0275192540338262,0.0248632230997085,-0.0192938985347747,0.0441894419491291,0.0371974520385265,0.0121760508045554
1783204333290690000,4.44768994140625,0.0181299327893182,-0.0269751006871461,-0.0551072624549269,0.0620307549834251,0.0143239768221974,0.0083931442350149
1783204333300629800,4.457629638671875,0.0807194042257964,-0.0315980843126773,-0.1204647007673978,0.0641745999455452,-0.0026499461382627,0.013521060347557
1783204333310570000,4.467570068359375,0.1112538048297166,-0.0498269839644432,-0.120458855548501,0.0592183545231819,-0.0045726490207016,0.0169923081994056
1783204333320511000,4.477510986328125,0.0937730931967496,-0.0387684143334627,-0.097217096170783,0.0452567301690578,0.013771204277873,0.0219170227646827
1783204333330451000,4.487450927734375,0.0774712160848081,-0.0039326632738113,-0.1220803192704916,0.0326659306883811,0.0345685742795467,0.024429989978671
1783204333340391000,4.497390869140625,0.0504848268186673,-0.0247954185605049,-0.1588651585713028,0.035220168530941,0.0572877377271652,0.0189894177019596
1783204333350331100,4.5073310546875,0.0342622985532507,-0.0501022937744855,-0.2385653027519583,0.0564171969890594,0.0735169276595115,0.0175058133900165
1783204333360271000,4.51727099609375,0.0821558302370831,-0.0748603029340505,-0.2636529822573065,0.1038041561841964,0.0759230926632881,0.0241160448640584
1783204333370210800,4.5272109375,0.1375613815188408,-0.0106271924763917,-0.316114698639512,0.1600036174058914,0.0898493155837059,0.0353967398405075
1783204333380151000,4.537151123046875,0.1511592238364741,-0.0121954647064208,-0.3784448980852961,0.2067151963710785,0.1202735304832458,0.0417744778096675
1783204333390091000,4.547091064453125,0.0997828550055623,-0.0067179100781679,-0.3277069367557764,0.2365925759077072,0.1408413350582122,0.0568440780043602
1783204333400031000,4.557031005859375,0.0533331289218738,-0.0073392568469047,-0.3209162537023425,0.2670170664787292,0.170880451798439,0.0650191828608512
1783204333409971000,4.566970947265625,0.0272715628830716,-0.0398708226174116,-0.3695613344058394,0.2831534445285797,0.1698241829872131,0.0663734376430511
1783204333419911000,4.576910888671875,0.1185151741348207,0.0214262343883514,-0.3182604784965515,0.3263182342052459,0.0166532769799232,0.0604910515248775
1783204333429851100,4.58685107421875,0.2433691959023475,0.0404576825946569,-0.1937888801753521,0.3848825991153717,-0.1586401760578155,0.0637964308261871
1783204333439790800,4.596790771484375,0.189093854226917,-0.0925882673263549,0.027488310906291,0.4004631638526916,-0.0946556031703949,0.0484795235097408
1783204333449730800,4.606730712890625,-0.2175286887357011,-0.017336919248104,0.2178410791531205,0.4399194419384002,-0.043222352862358,0.0474414378404617
1783204333459671000,4.616671142578125,-0.4284472386166453,0.0377115987569093,-0.024407296025753,0.4368607997894287,0.0620324313640594,0.0380708388984203
1783204333469611000,4.626611083984375,-0.3794033678539097,0.1095323878645896,-0.0983984149098396,0.3725967705249786,0.153156891465187,0.0215162374079227
1783204333479551000,4.636551025390625,-0.3633347149759531,0.0619084669023752,0.0354079979896545,0.27330482006073,0.2473742067813873,0.0146668525412678
1783204333489491000,4.646490966796875,-0.2544576857475564,0.0461836590260267,0.180851364929974,0.1726356595754623,0.347484827041626,0.0152124408632516
1783204333499432200,4.65643212890625,-0.1294523458758369,0.0219698397457599,0.3818713654026389,0.0982162803411483,0.4586169421672821,0.0114262234419584
1783204333509372000,4.666371826171875,-0.1281735215790569,0.0463818119466304,0.4847095163255929,0.0480903759598732,0.5356505513191223,0.0067103239707648
1783204333519312000,4.676311767578125,-0.2262727343466132,0.0360088864922523,0.4169672287032008,0.0124796526506543,0.5484379529953003,0.0071319020353257
1783204333529252000,4.686252197265625,-0.2669226515777408,0.0052636196166276,0.1899672760605812,-0.0090613113716244,0.5578224062919617,0.0119635835289955
1783204333539192000,4.696192138671875,-0.2517275666639209,0.0182832601875066,0.1662994002252817,-0.015124530531466,0.6103417873382568,0.016655808314681
1783204333549131800,4.7061318359375,-0.3203557337427511,0.0552449173599481,0.3071303049340844,-0.0283785313367843,0.6581631302833557,0.02174230851233
1783204333559072000,4.716072021484375,-0.376953563548997,0.0596644873678684,0.412337815336883,-0.0556003004312515,0.6730219721794128,0.0294636096805334
1783204333569012000,4.726011962890625,-0.235928122648783,0.0499994179219007,0.3911407135292887,-0.0787453800439834,0.6293103098869324,0.0412161536514759
1783204333578952200,4.7359521484375,-0.0497223910788074,0.0708037210196256,0.162156601332128,-0.0994346737861633,0.5825436115264893,0.0491377264261245
1783204333588892000,4.745891845703125,0.0767635792721062,0.1304500882089138,0.0535915971949696,-0.061256680637598,0.5096212029457092,0.0484499707818031
1783204333598831900,4.755831787109375,0.1285116309596225,0.1360936470538377,0.1701125287726521,-0.0012780353426933,0.2944644093513489,0.0215224809944629
1783204333608772000,4.765772216796875,0.3916388723097741,-0.079590838587284,0.7870762601196766,-0.058787528425455,0.1026438251137733,0.0361209288239479
1783204333618712000,4.775712158203125,0.6624624037835747,-0.1523912863820791,0.3121794050171971,-0.0794360786676406,-0.178278386592865,0.0342226289212703
1783204333628651800,4.78565185546875,0.6964655764766037,-0.0928220760822296,-0.2479489249080419,-0.0712277293205261,-0.2610872983932495,0.0592751950025558
1783204333638592000,4.795592041015625,0.6020934944733977,-0.177128837275505,-0.5112643457740546,-0.0526753515005111,-0.2076243311166763,0.034345343708992
1783204333648532000,4.805531982421875,0.4340036671673878,-0.193318924576044,-0.5983151449784636,-0.0070441355928778,-0.1965328305959701,-0.013165621086955
1783204333658472000,4.815471923828125,0.3296151084646582,-0.344940395629406,-0.829776753205061,0.0602041408419609,-0.2088315635919571,-0.0685873329639434
1783204333668412000,4.825411865234375,0.3890067337078973,-0.4304740682691335,-0.9119918028160928,0.1344252079725265,-0.1813336759805679,-0.1024448871612548
1783204333678353200,4.835353271484375,0.3787147645352408,-0.2686696413755416,-0.6086845633015037,0.1778262108564376,-0.1519661992788314,-0.0873442366719245
1783204333688292900,4.84529296875,0.3398481870569289,-0.2041840174615383,-0.134614222151041,0.1734759211540222,-0.1517902612686157,-0.1047184541821479
1783204333698232800,4.85523291015625,0.1227294308289885,0.1120750580847263,0.2400929507106542,0.1157899796962738,-0.1701911091804504,-0.1473255753517151
1783204333708173000,4.865173095703125,0.099340189271979,0.2478554014056921,0.2890042811349034,0.0252343416213989,-0.2082551419734954,-0.1855386346578598
1783204333718113000,4.875113037109375,0.2269497933579608,0.0847621037453413,0.1245145606800913,-0.0522870793938636,-0.2377059757709503,-0.1808789074420929
1783204333728052700,4.885052734375,0.3046266515500843,-0.0726005413085222,0.0205845228672027,-0.108708769083023,-0.228577047586441,-0.136553555727005
1783204333737993000,4.894992919921875,0.2986579158714041,-0.2771358564257621,0.1238277474597096,-0.1332396864891052,-0.2157198339700698,-0.108664683997631
1783204333747933000,4.904932861328125,0.0583310468070209,-0.1761082620561122,0.1380336752057075,-0.1624689400196075,-0.2110574394464492,-0.0976336002349853
1783204333757873200,4.914873046875,-0.1048013407547026,-0.0550794976651668,0.0583513589426875,-0.1702482998371124,-0.2506985664367676,-0.0871596559882164
1783204333767812900,4.924812744140625,-0.080418083191663,-0.0635983196854591,-0.0913397285699844,-0.141189232468605,-0.2883941829204559,-0.0674305334687233
1783204333777752800,4.9347529296875,-0.0054364189002662,-0.1085860469251871,-0.2200616778120398,-0.0804672837257385,-0.2802222967147827,-0.0489351451396942
1783204333787693000,4.944693115234375,-0.0466862382533028,-0.0626794512748718,-0.1302621644213795,-0.0113609200343489,-0.299439400434494,-0.0473859831690788
1783204333797633000,4.954633056640625,-0.0415488753648474,0.1107061078190803,0.0638686610594391,0.0699168890714645,-0.6210104823112488,-0.0594431795179843
1783204333807573000,4.964572998046875,-0.0269782424923032,0.2617968329966068,0.1677247568532824,0.0723242759704589,-0.5625054836273193,-0.0828399434685707
1783204333817513000,4.974512939453125,-0.1711858570925891,0.3453261800765991,0.529141363248229,0.050418447703123,-0.4548991322517395,-0.0620811395347118
1783204333827453000,4.984452880859375,-0.3230905655341222,0.252227040618658,0.3926137086912989,0.0179353430867195,-0.3739230930805206,-0.0367766693234443
1783204333837393200,4.99439306640625,-0.2708667495610192,0.1741378387659788,0.1778229570195078,-0.0120811443775892,-0.299209713935852,-0.0137893268838524
1783204333847332900,5.004332763671875,-0.3407068497128784,0.1680564730256795,0.1493394975960254,-0.0494008213281631,-0.2387487590312957,-0.0042834398336708
1783204333857272800,5.01427294921875,-0.3242592805199324,0.0406622652560472,0.1419330207318067,-0.0800127908587455,-0.1758574247360229,0.0035702222958207
1783204333867214000,5.024214111328125,-0.2368919627122581,-0.0266594588667154,0.05162321973145,-0.1068840697407722,-0.0736622363328933,0.0067428648471832
1783204333877153800,5.03415380859375,-0.1922828960591927,0.0312432795256376,0.1358642222121358,-0.1329241842031479,0.0584686361253261,0.0132897133007645
1783204333887094000,5.044093994140625,-0.161960786499083,0.1177408287614583,0.3031938422679901,-0.142255887389183,0.1525004804134369,0.008983751758933
1783204333897034000,5.054033935546875,-0.1132060348760336,0.1423544610142707,0.4007876627966761,-0.1549152284860611,0.1368405669927597,0.0109702032059431
1783204333906974000,5.063973876953125,-0.0235892576411366,0.1301432142168283,0.4089455425500869,-0.1868465840816497,0.0480351187288761,0.0155022107064723
1783204333916914000,5.073913818359375,0.0643508916184306,0.0993956092536449,0.3337982393682003,-0.2277628630399704,-0.0142572820186614,0.0200820490717887
1783204333926854000,5.08385400390625,0.084445585142076,0.074503160059452,0.227948339408636,-0.2346475422382354,-0.0573243200778961,0.0240045543760061
1783204333936794000,5.093794189453125,0.056436392166838,0.0486234533935785,0.0139323715016245,-0.1727104187011718,-0.0029657413251698,0.0246423818171024
1783204333946733800,5.10373388671875,-0.0481241986345499,0.0207528651714324,-0.0348816360279917,0.0309285633265972,0.283985435962677,-0.0371468365192413
1783204333956675000,5.113675048828125,-0.0969544997118413,0.1267360361218452,0.9325257645398378,0.0420224927365779,0.1011271998286247,-0.0334205403923988
1783204333966615000,5.123614990234375,0.1355310447350144,-0.1592787078082561,0.064426587203145,0.0168068800121545,-0.1226003170013427,-0.0350044295191764
1783204333976554800,5.1335546875,0.2333245890868827,-0.1783884819477796,-0.516696015433967,0.0035981340333819,-0.1638699918985366,-0.02449213527143
1783204333986495000,5.143494873046875,0.2013818195223808,-0.1382160460352897,-0.4078542401820421,-0.0069533390924334,-0.1278001964092254,-0.0346727967262268
1783204333996435000,5.15343505859375,0.1186742371540516,-0.0224485631734132,-0.2344444234296679,0.0060745780356228,-0.1210916936397552,-0.0343838408589363
1783204334006375200,5.163375244140625,0.0227037069782614,-0.039825229910016,-0.2106587664335966,0.0499334894120693,-0.1725914776325225,-0.0295713283121585
1783204334016315000,5.17331494140625,0.0375007324852049,-0.0506704490512609,-0.3342354617416858,0.0977465435862541,-0.2094826400279998,-0.0252538118511438
1783204334026254800,5.1832548828125,0.055712754067406,-0.0605401011586189,-0.2526025959327816,0.1206185072660446,-0.2367075532674789,-0.0308018531650304
1783204334036195000,5.193195068359375,0.1376180436095222,-0.0234247147291898,-0.0912985197767615,0.1432593613862991,-0.2356140613555908,-0.0415807291865348
1783204334046135000,5.203135009765625,0.2049958453010767,0.0482610498219728,0.0824506119325757,0.1487327516078949,-0.2326823472976684,-0.0332893878221511
1783204334056074800,5.21307470703125,0.2037701759636402,0.060416767039895,0.2342752043426036,0.1436474472284317,-0.3019996285438537,-0.0209775939583778
1783204334066015000,5.223014892578125,0.1588142321016639,0.1021411085695028,0.1137675412163138,0.1425483226776123,-0.428695946931839,-0.0085483025759458
1783204334075955000,5.232954833984375,0.1055111329918727,0.0670212798714637,-0.1736091387167573,0.1342246085405349,-0.4854263365268707,0.0134725766256451
1783204334085895200,5.242895263671875,0.0948684141527861,-0.0516793338328599,-0.2970198298081755,0.140331819653511,-0.4365666210651397,0.0213539935648441
1783204334095835000,5.2528349609375,0.0595741787359118,-0.1211848317354917,-0.3672054189294576,0.1460823863744735,-0.3087713718414306,0.005266104824841
1783204334105774800,5.26277490234375,-0.1456680790742859,-0.23178280300498,-0.3412628761604428,0.1525613069534301,-0.1431825160980224,-0.0106404433026909
1783204334115715300,5.27271533203125,-0.183640886050649,-0.1967354550212621,-0.1064715389892458,0.1652938723564148,-0.0265922471880912,-0.0167135149240493
1783204334125655300,5.2826552734375,-0.1034279335096478,-0.0601478869706392,0.0829559311062097,0.1754428893327713,0.0116470577195286,-0.018259510397911
1783204334135595300,5.29259521484375,0.0077867083534598,0.0188315417200326,0.1390600956439971,0.1718582659959793,0.0200176388025283,-0.0187106486409902
1783204334145535200,5.30253515625,0.0530674271903932,0.1117751983553171,0.2798638200849294,0.1463094502687454,0.0200424119830131,-0.0248613394796848
1783204334155476200,5.312476318359375,0.0715774818710982,0.1740875698834657,0.4091588930398225,0.0863033831119537,-0.0109780877828598,-0.0325501523911953
1783204334165416200,5.322416259765625,0.0529739036880433,0.1577835008144378,0.4435153361499309,0.0251205191016197,-0.0531884357333183,-0.033469058573246
1783204334175356400,5.3323564453125,0.011151654741913,0.0904419029474258,0.3630389468997717,-0.011092877946794,-0.0597328916192054,-0.0297768544405698
1783204334185296400,5.34229638671875,-0.0465045615434646,0.1405465348094701,0.3115969289541244,-0.0310842674225568,-0.0426113232970237,-0.0297336280345916
1783204334195236000,5.352236083984375,-0.0078806702472269,0.1479699628084897,0.2666115398019552,-0.0545917227864265,-0.0191281046718359,-0.0345693975687027
1783204334205176300,5.36217626953125,-0.0101475192006677,0.0755868636429309,0.1231467794582247,-0.0738739371299743,-0.017638973891735,-0.0380551666021347
1783204334215116300,5.3721162109375,0.0130954457534477,0.0276034617185592,0.0301025850579142,-0.0793422162532806,-0.0202526003122329,-0.0324524082243442
1783204334225056500,5.382056396484375,0.0189827502263709,-0.0206926594167947,0.0267678876772522,-0.0710406228899955,0.0017897463403642,-0.0253918524831533
1783204334234996200,5.391996337890625,-0.0154075951533392,-0.0093447514504194,0.1194397416338324,-0.0571378618478775,-0.0095989946275949,-0.0138776749372482
1783204334244936200,5.401936279296875,0.0044702772818505,0.0332739085704088,0.1172387244582176,-0.0483531467616558,-0.0497507229447364,-0.0040379147976636
1783204334254876400,5.41187646484375,0.0206760005429387,0.0399123236715793,0.0683984134435653,-0.0518967472016811,-0.0766702219843864,-0.0026528050657361
1783204334264816400,5.42181640625,0.0573486116409301,0.0292623348414897,0.1147837325215339,-0.0580296218395233,-0.0964274108409881,0.0021280376240611
1783204334274756000,5.431756103515625,0.1224513445399701,0.0297433963567018,0.093177465391159,-0.0583223029971122,-0.102917805314064,0.004351511131972
1783204334284696300,5.4416962890625,0.1083197606718167,0.0432511127054691,0.0213102067932486,-0.0483616180717945,-0.1003533974289894,0.0040504280477762
1783204334294636300,5.45163623046875,0.088982205658406,0.0324421339213848,-0.0830669902652502,-0.0361555516719818,-0.1075782924890518,0.0003140126354992
1783204334304576500,5.461576416015625,0.0548943868892267,-0.0159679689824581,-0.1827738574251532,-0.0250953324139118,-0.0852667987346649,0.0032813320867717
1783204334314516200,5.47151611328125,0.0531565667785704,-0.0355769248157739,-0.215327927288413,-0.0184414237737655,-0.0364673100411891,0.0076015111990273
1783204334324456200,5.481456298828125,0.0773331227883696,-0.0065396309018135,-0.2016547912448644,-0.0051696561276912,-0.0149260098114609,0.0230885855853557
1783204334334396400,5.491396484375,0.110074531917274,0.0075970310002565,-0.200821847552061,0.0128996260464191,-0.0471800863742828,0.0427387207746505
1783204334344336400,5.50133642578125,0.1754845406671986,0.0299672682404518,-0.1266919047191739,0.1103523969650268,-0.2693578600883484,0.0547753907740116
1783204334354276400,5.5112763671875,0.1619930448008701,-0.0777963563859462,0.0974208020493388,0.1047959774732589,-0.3071193695068359,0.0444801412522792
1783204334364216300,5.52121630859375,-0.1349832381265238,-0.1100713170468807,0.3512202065512538,0.0882945507764816,-0.2548614144325256,0.0339689701795578
1783204334374157300,5.5311572265625,-0.4172200709531083,-0.0744669197022914,0.2739277080342173,0.0549089014530181,-0.1537182927131652,0.0234878305345773
1783204334384097300,5.54109716796875,-0.3591426335809752,-0.0526198295533657,0.1183759117946028,-0.0091985808685421,-0.0453125722706317,0.0099909724667668
1783204334394037200,5.551037353515625,-0.2208523897983133,-0.04942249481678,-0.007398293557763,-0.0873839259147644,0.0346107520163059,0.0037730243057012
1783204334403977500,5.5609775390625,-0.0959580725530162,-0.1169897181332111,-0.1187552665010094,-0.1149399057030677,0.1125945523381233,0.0077277510426938
1783204334413917200,5.570917236328125,-0.009936579863727,0.0124900637388229,-0.1519049641698598,-0.1051000580191612,0.1595615297555923,0.0059274542145431
1783204334423857200,5.580857177734375,0.067504825604707,0.1234551147550344,0.0466951156795024,-0.0879386663436889,0.1311665326356887,0.0078592924401164
1783204334433797400,5.59079736328125,0.058479771095328,0.0727858347475528,0.0908127820864319,-0.0893179178237915,0.1079813241958618,0.021969785913825
1783204334443737300,5.6007373046875,-0.0249458233492448,0.0574111554831266,0.1006081999137997,-0.1166663318872451,0.1188585236668586,0.036570057272911
1783204334453677300,5.61067724609375,-0.1193571779169142,0.0499327824264764,0.3301870631337165,-0.141667291522026,0.1010489016771316,0.0471294932067394
1783204334463617300,5.6206171875,-0.0883352860569954,-0.0117763625115156,0.4521773660331964,-0.1327400803565979,0.2431561350822448,0.0399140268564224
1783204334473557200,5.63055712890625,-0.1032545131715014,-0.0475982019990682,0.9065493195012212,-0.1448904871940612,0.2252189517021179,0.0356425829231739
1783204334483497500,5.64049755859375,0.0196133397474885,-0.0439449401885271,1.1966115852564572,-0.1757193654775619,-0.0129692256450653,0.0381509028375148
1783204334493437200,5.650437255859375,0.2530370052946731,0.0335825361281633,0.1781958819851279,-0.1683578491210937,-0.1630450189113617,0.0554124489426612
1783204334503377200,5.660377197265625,0.2366163241086527,0.0504699580430984,-0.241314893721044,-0.1404002457857132,-0.1718732416629791,0.0596717484295368
1783204334513317400,5.6703173828125,0.2744461789503693,-0.0301262581944465,-0.4196890548825264,-0.0913725048303604,-0.1057709157466888,0.0353237949311733
1783204334523257300,5.68025732421875,0.2193128687387332,-0.1052612864166498,-0.6821198018684983,-0.0304271895438432,-0.0201673805713653,0.007187710609287
1783204334533197300,5.690197265625,0.0851493494972586,-0.167913849684596,-0.7538561275631189,0.0309229865670204,0.1380741745233535,-0.0187011435627937
1783204334543137300,5.70013720703125,0.0602273819476366,-0.1120984389603138,-0.4280079704165458,0.0764603838324546,0.2689747512340545,-0.0332816019654274
1783204334553077200,5.7100771484375,0.0985396865440532,0.0168459208607673,0.0040492753908038,0.0826477035880088,0.2000854015350341,-0.0366209410130977
1783204334563017500,5.720017578125,0.1449859785616397,0.0046861119896173,-0.0797059893995523,0.048426404595375,0.0610645785927772,-0.0236022770404815
1783204334572957200,5.729957275390625,0.1077316220529377,-0.0668389090418815,-0.2038847422540187,0.0071359588764607,0.0135154360905289,-0.0052312589250504
1783204334582897200,5.739897216796875,0.0519978982627391,-0.1001192473530769,-0.0627864187806844,-0.0230407789349555,0.0033106245100498,-0.0014457670040428
1783204334592837400,5.74983740234375,0.0336221009535714,-0.0003682487905025,0.0756216426953673,-0.0481242947280406,-0.0820503458380699,-0.0138920508325099
1783204334602778000,5.759778076171875,0.1241344387887045,0.1187900455534458,-0.039135201819241,-0.0836893767118454,-0.1860260069370269,-0.024700665846467
1783204334612718300,5.76971826171875,0.1961007738469168,0.0787538032412528,-0.1651727342829108,-0.1232714056968689,-0.1858710199594497,-0.0175812374800443
1783204334622658300,5.779658203125,0.1271077555110678,0.0113332949191331,0.0683911069199442,-0.1646650731563568,-0.0889599695801734,-0.0165965463966131
1783204334632598500,5.7895986328125,0.0202644605999812,0.0329074133455753,0.383833020864427,-0.2051195502281189,-0.0048738527111709,-0.0064230044372379
1783204334642538200,5.799538330078125,-0.0567187893047928,0.0247369663715362,0.3854471780627965,-0.2244336456060409,0.015874721109867,0.0114988721907138
1783204334652478200,5.809478271484375,-0.0808596894793212,-0.0431453142434358,0.1136538517087697,-0.1924802362918853,0.0407622307538986,0.0221342053264379
1783204334662418400,5.81941845703125,-0.151391059830971,0.0180628954350948,0.0270940508916974,-0.1590169072151184,0.0695822089910507,0.0231669731438159
1783204334672358400,5.8293583984375,-0.0954813949519768,0.0991980408549308,0.1847080403581261,0.0084067024290561,0.2747310996055603,-0.0193730294704437
1783204334682298000,5.839298095703125,-0.0135136711655184,0.1848521250039339,0.7932099405691028,-0.0071541871875524,0.0963579565286636,0.0216143131256103
1783204334692238300,5.84923828125,0.1933738331010565,-0.0667032999634742,0.3009618454322219,0.0022126827389001,0.0028892564587295,0.0174350142478942
1783204334702178300,5.85917822265625,0.1639062214784324,-0.0062660746574401,-0.0121212304264307,-0.0150884222239255,-0.0185006186366081,0.0395494773983955
1783204334712118300,5.8691181640625,-0.0707615989109501,-0.0146978029161691,0.0569701337173581,-0.0399634093046188,-0.043403036892414,0.0302590429782867
1783204334722058200,5.879058349609375,0.0208211081020534,-0.1036164418190717,-0.087103113913536,-0.0543256364762783,-0.0578539334237575,0.0082921721041202
1783204334731998200,5.888998291015625,0.0297371127463877,-0.0744984838843345,-0.315232655107975,-0.0478091463446617,-0.0339379496872425,-0.0109672769904136
1783204334741938400,5.8989384765625,0.0930937326304614,-0.0756359634816646,-0.4143471093326806,-0.03486805036664,0.0154719445854425,-0.0379933007061481
1783204334751878100,5.908878173828125,0.0731991282561793,-0.0615554156810045,-0.4091428186878562,0.0090687833726406,0.0824981108307838,-0.0476717613637447
1783204334761818400,5.918818359375,-0.0312239903032779,-0.0362935486525297,-0.3509258997797966,0.0677165538072586,0.1549151092767715,-0.0404569953680038
1783204334771758300,5.92875830078125,-0.0967300433062016,0.1510229206383228,-0.0926484730809927,0.1350143700838089,0.2232685983180999,-0.0012986767105758
1783204334781698300,5.9386982421875,-0.1784514641813933,0.1563905851513147,0.1076578261643648,0.1947036385536193,0.3154185116291046,0.0303068589419126
1783204334791638300,5.94863818359375,-0.2372182720571756,-0.0528308419555425,0.3478904776066541,0.2282669246196746,0.3396900296211242,0.0443563684821128
1783204334801578200,5.958578125,-0.1448712661407888,0.0480173041939735,0.3203185800701379,0.2240906357765197,0.3050589859485626,0.0649067163467407
1783204334811518200,5.968518310546875,-0.093227734273672,0.1090221002548933,0.0552653756260871,0.1813093572854995,0.2453026920557022,0.0724959298968315
1783204334821458400,5.97845849609375,-0.09220116770491,-0.0132364981919527,-0.1584650533378124,0.1041470393538475,0.2242970615625381,0.068741425871849
1783204334831398100,5.988398193359375,-0.0828407802939415,-0.1226607495069503,-0.1530745924711227,0.0233829542994499,0.1986867785453796,0.0620808638632297
1783204334841338400,5.99833837890625,-0.0251653478514403,-0.1327478437572717,-0.1375932379618287,-0.0111109213903546,0.1697575002908706,0.059636540710926
1783204334851278300,6.0082783203125,0.0680407591123133,-0.1075701478809118,-0.2068286867514252,0.0216480903327465,0.1642655283212661,0.0583454445004463
1783204334861218300,6.01821826171875,0.0900739464178681,-0.0548468579530715,-0.2018880154788494,0.0790579915046691,0.148092582821846,0.0475719347596168
1783204334871159300,6.0281591796875,0.104388010713458,0.0508469746619462,-0.080900167620182,0.119121253490448,0.0998803004622459,0.0399108193814754
1783204334881099300,6.038099365234375,0.123273036186397,0.1285164897978305,-0.0249292740732431,0.118953138589859,0.0453903712332248,0.0308303274214267
1783204334891039500,6.04803955078125,0.0366498147442936,0.0930120456963777,-0.0250625450640916,0.0999291166663169,0.0383348576724529,0.0259703267365694
1783204334900979200,6.057979248046875,-0.0184322036715224,0.0598930354267358,0.0532893993780016,0.0845007076859474,0.0531115718185901,0.0210260935127735
1783204334910919200,6.067919189453125,-0.0406368750864639,0.0673240622103214,0.0829363496229052,0.0773634389042854,0.0694154426455497,0.0240309387445449
1783204334920859400,6.077859375,-0.0356504649760201,0.0748369220584631,0.0962751391455531,0.0699497014284133,0.0863796174526214,0.0411657616496086
1783204334930799400,6.08779931640625,-0.0484059016527608,0.0548766685694456,0.1194444178089499,0.0765543356537818,0.1061961948871612,0.0521590262651443
1783204334940739300,6.0977392578125,-0.0900067264005541,0.00458791231215,0.1198188040792942,0.0829607993364334,0.1273944824934005,0.0665472447872161
1783204334950679300,6.10767919921875,-0.085559135874547,-0.0036409868508577,0.1321782271757721,0.0886154845356941,0.1460698992013931,0.0785474479198455
1783204334960619300,6.117619384765625,-0.0804541774183511,0.0070113400667905,0.1266658934950828,0.0982604771852493,0.1520150303840637,0.0959518104791641
1783204334970559200,6.127559326171875,-0.0852094091214239,0.008963058656454,0.1437181505829095,0.1087187081575393,0.1360688209533691,0.1084449663758277
1783204334980499200,6.137499267578125,-0.0467198482619598,0.0391267262518405,0.0420332613483071,0.1243946179747581,0.0984354764223098,0.1250600963830948
1783204334990439400,6.147439453125,0.0392545904152095,0.0489455249547958,-0.0781833098769188,0.1216582208871841,0.0706302151083946,0.1327185481786728
1783204335000379400,6.15737939453125,0.1178331832200288,0.047787002569437,-0.0708259328514337,0.1153359711170196,0.0264525804668664,0.1323630362749099
1783204335010319400,6.1673193359375,0.1340075249621644,-0.0108265144407749,-0.1168544013157486,0.1122379153966903,-0.0114463306963443,0.1314825862646103
1783204335020259300,6.17725927734375,0.1256970484629273,-0.0263368027836084,-0.1893324852883815,0.106345884501934,0.0106784114614129,0.1270322054624557
1783204335030199300,6.18719921875,0.0346171398729085,0.0285001182973384,-0.0822387227475643,0.0901219099760055,0.0615991130471229,0.1244982033967971
1783204335040139300,6.19713916015625,-0.115721926687099,0.0627495939016342,0.0869274650856852,0.0691714659333229,0.0807957723736763,0.1137481182813644
1783204335050079200,6.207079345703125,-0.2009173072831705,0.0587105476438999,0.0685460052207112,0.0676665157079696,0.0530083440244197,0.1227993965148925
1783204335060019200,6.217019287109375,-0.1771991260327398,-0.0290261879980564,-0.0642944852560758,0.0809826999902725,0.037485048174858,0.12493946403265
1783204335069959400,6.22695947265625,-0.1462915447348728,-0.0767062230616807,-0.1263388534978032,0.0972697958350181,0.0478000044822692,0.1076653972268104
1783204335079899400,6.2368994140625,-0.0062912090986967,0.0162000241726636,-0.0951537339001894,0.1149153634905815,0.0236323475837707,0.1045143455266952
1783204335089839000,6.246839111328125,0.1328666478313505,-0.0501788661420345,-0.1458487328708171,0.1235543936491012,0.022160418331623,0.1022472009062767
1783204335099779300,6.256779296875,0.1999056094899773,-0.1419254219472408,-0.0909329013347625,0.1241979822516441,0.0274228788912296,0.0877667814493179
1783204335109719300,6.26671923828125,0.2689519654482603,-0.0141430916428565,-0.0566769959896802,0.1128811463713646,-0.0065665133297443,0.0787376016378402
1783204335119659300,6.2766591796875,0.2603973414622247,-0.0024754502028226,-0.1441138719022273,0.0997030586004257,-0.0080406833440065,0.064657837152481
1783204335129599000,6.286598876953125,0.2001512548141181,-0.0078121350556612,-0.1630091265082359,0.0692058727145195,0.0161496084183454,0.0535817481577396
1783204335139539200,6.296539306640625,0.1825695487583987,0.0526449639946222,-0.1272758420869708,0.0432571358978748,0.0097550423815846,0.0510423146188259
1783204335149479200,6.306479248046875,0.1036873150981962,0.0711725543320179,-0.2457370940774679,0.0242229886353015,0.0416128411889076,0.0544136129319667
1783204335159419100,6.316419189453125,-0.0307411752223968,0.0844224965274333,-0.1931312930494546,0.0148502811789512,0.1823317110538482,0.0504724159836769
1783204335169359000,6.326359130859375,-0.2548394150741398,0.0922463220208883,0.2701940744638443,0.0252094455063343,0.4347618520259857,0.0341693423688411
1783204335179299000,6.336299072265625,-0.2232670497246086,0.1559364116430282,1.5001520490050315,-0.0101091247051954,0.3307925462722778,0.0541205517947673
1783204335189240300,6.346240234375,0.18457838609647,0.0595768090844154,0.9514090364471076,-0.0491803586483001,0.0550690963864326,0.0513711050152778
1783204335199180000,6.356179931640625,0.4051410357005894,0.0204617732703685,0.0528477930903434,-0.0766460299491882,-0.07573152333498,0.0828678756952285
1783204335209120300,6.366120361328125,0.3810549709858372,-0.1599877328604459,0.0108683077558875,-0.0795430094003677,-0.0319217257201671,0.0497786365449428
1783204335219060200,6.376060302734375,0.3947800929449498,-0.0497235235899686,-0.0941337432026863,-0.0739944279193878,0.0612020380795002,0.0091666113585233
1783204335229000200,6.386000244140625,0.3133421651862561,-0.156596921378374,-0.3333130861997604,-0.0473460406064987,0.1540025472640991,-0.032308392226696
1783204335238940200,6.395940185546875,0.1720329754412174,-0.2611860076218843,-0.554104539591074,0.0016202367842197,0.3201553523540497,-0.0851515904068946
1783204335248880000,6.405880126953125,0.0821038443215191,-0.2286380752384662,-0.3417740405529737,0.0481560453772544,0.4817509055137634,-0.1178179234266281
1783204335258820400,6.4158203125,0.0283455122575163,0.0488520014524459,0.2533995915293693,0.0781372115015983,0.4388529360294342,-0.1018434688448906
1783204335268760300,6.42576025390625,-0.0502193442828953,0.2017605897068977,0.2943751605182886,0.0823284909129142,0.2376910597085952,-0.0593599304556846
1783204335278700000,6.435699951171875,-0.065417096077837,0.1393172852754592,0.0523529953107237,0.0724077448248863,0.0812913849949836,-0.032647181302309
1783204335288640300,6.44564013671875,-0.0450355119042098,0.0947942529380321,0.0508767852783203,0.0592211037874221,0.039723165333271,-0.0155965583398938
1783204335298580200,6.455580322265625,0.0154573525791987,0.0229834007024765,0.0053556818142533,0.0531645119190216,0.0537384189665317,-0.0111865857616066
1783204335308520200,6.465520263671875,0.0672768620677292,-0.0697463209211826,-0.1143535244107246,0.0632163435220718,0.0739861652255058,-0.0027928347699344
1783204335318460200,6.475460205078125,0.0419318468004465,-0.1002414124280214,-0.1529623642683029,0.0815142095088958,0.0806058794260025,0.0046429042704403
1783204335328400100,6.485400146484375,0.0003416165119037,-0.091444942510128,-0.1472916251555085,0.0948481261730194,0.0877980142831802,0.009378271177411
1783204335338340400,6.49534033203125,-0.0450386171767488,-0.0421843602567911,-0.063190031145513,0.1016301214694976,0.0979605913162231,0.0155134573578834
1783204335348280000,6.505280029296875,-0.038322131870687,0.0064198039144277,0.1174222643315792,0.1058946400880813,0.0787778422236442,0.0243144053965806
1783204335358220000,6.515219970703125,-0.0243178641766309,0.0687041183918714,0.1705032816559076,0.098345398902893,0.0498764663934707,0.0281238667666912
1783204335368160300,6.52516015625,-0.0399613139124587,0.1008504842370748,0.1700873943313956,0.0818298012018203,0.0606452226638793,0.0349881649017334
1783204335378100200,6.535100341796875,-0.0646640492208302,0.1029214452922344,0.2935971618831157,0.0537340864539146,0.0891194194555282,0.0366063043475151
1783204335388040200,6.545040283203125,-0.1026345911748707,0.1202671323686838,0.3461024251461029,0.0295331440865993,0.1147707179188728,0.0353274568915367
1783204335397980200,6.554980224609375,-0.1222045301720499,0.1507329977810382,0.3257143016338348,0.0011528031900525,0.1334190368652343,0.0389576070010662
1783204335407920000,6.564920166015625,-0.1167620468571782,0.1533510713249445,0.3232224848181009,-0.026166969910264,0.1479870527982711,0.0286285355687141
1783204335417860400,6.5748603515625,-0.1148316633164882,0.1109060143053531,0.3004875059187412,-0.0443388968706131,0.189972847700119,0.0140484478324651
1783204335427800000,6.584800048828125,-0.1762531138869002,0.1156423951774835,0.3090124654188752,-0.0580413937568664,0.2462393194437027,-0.0068011749535799
1783204335437740000,6.594739990234375,-0.2398961494969204,0.125938163742423,0.3222442874357104,-0.0673209130764007,0.2827320992946625,-0.0217457693070173
1783204335447680300,6.60468017578125,-0.2675755625285208,0.1554097574204206,0.2709177125632763,-0.0786340236663818,0.3489976525306701,-0.032638631761074
1783204335457620200,6.6146201171875,-0.2935074377730489,0.2027016699492931,0.2723661578059196,-0.1011272445321083,0.3835766315460205,-0.0472386069595813
1783204335467560200,6.624560302734375,-0.2277258557643741,0.1989297501951455,0.2194356548681855,-0.131764531135559,0.3491848409175873,-0.0870022624731063
1783204335477500200,6.634500244140625,-0.189876419439353,0.2362164015382528,0.1099108657881617,0.0060319807380437,0.0437948703765869,-0.2411773800849914
1783204335487440100,6.644440185546875,-0.5858289536971598,0.996181951892376,-0.9509653843328356,0.3173190355300903,-0.3376004099845886,-0.2863786816596985
1783204335497380400,6.65438037109375,-0.2508246630074456,0.9187567669063806,-2.128794527707994,0.6279874444007874,-0.4368655383586883,-0.2990034818649292
1783204335507320000,6.664320068359375,-0.0660661711037158,0.2505927174150943,-1.763085192555189,0.7705546617507935,-0.3079453706741333,-0.28507861495018
1783204335517260000,6.674260009765625,-0.0791612149983644,-0.0867471400827169,-0.4228711920499801,0.743550181388855,-0.1985346227884292,-0.2475879043340683
1783204335527200300,6.6842001953125,-0.0830852565743029,-0.372508786034584,0.2488467505306005,0.6134108304977417,-0.1115613803267479,-0.1691375821828842
1783204335537140200,6.69414013671875,-0.079705185681954,-0.4480184927880764,0.6019146307751536,0.4485747218132019,-0.0133103337138891,-0.0771631300449371
1783204335547080200,6.704080078125,-0.1522778160702437,-0.273413621032238,0.9231877350911496,0.2893909215927124,0.0764842629432678,-0.0366599112749099
1783204335557020200,6.714020263671875,-0.0968906772280111,0.0221919580638408,1.0108233484461904,0.1409976929426193,0.1257660090923309,-0.010582847520709
1783204335566960000,6.723960205078125,0.0015992518901824,0.0751215842187404,0.7450491362512112,0.0233869086951017,0.1516657918691635,-0.0054163145832717
1783204335576900400,6.733900390625,0.007107493917644,-0.0198801739901304,0.4518564635157585,-0.0571324378252029,0.1978736966848373,-0.0007216355297714
1783204335586840000,6.743840087890625,0.07108458378762,-0.0346726694524288,0.3321288448512554,-0.0984138324856758,0.2739474475383758,0.0134543720632791
1783204335596780000,6.753780029296875,0.0537148582484573,0.0420972664952278,0.267199276562035,-0.1029661670327186,0.3899646699428558,0.0096865203231573
1783204335606720300,6.76372021484375,-0.0493983832888305,0.1702232956707477,0.1519224998265504,-0.0672545060515403,0.5145119428634644,-0.0274760294705629
1783204335616660200,6.77366015625,-0.1149810817245393,0.2409393384069204,0.1656701624110341,-0.016152486205101,0.5860824584960938,-0.065492570400238
1783204335626600200,6.78360009765625,-0.1290308690607547,0.3154927673488855,0.2388110942065715,0.012482619844377,0.5499169826507568,-0.1028822883963584
1783204335636540200,6.7935400390625,0.017096023164317,0.278510651910305,0.1119613685771822,0.0242711007595062,0.4686784148216247,-0.1152380779385566
1783204335646480100,6.803480224609375,0.19409107799232,0.0893383256196975,-0.0748573803246021,0.0302482973784208,0.4080398082733154,-0.1206698641180992
1783204335656420400,6.81342041015625,0.2547987908028066,-0.0197691148310899,-0.027264439022541,0.0425997525453567,0.3544166684150696,-0.1094890683889389
1783204335666360000,6.823360107421875,0.1741090510629117,-0.0288940860509872,0.031029929035902,0.0542327053844928,0.2708658277988434,-0.0887544974684715
1783204335676300300,6.83330029296875,0.0167475019875913,-0.0247971721261739,-0.1074827618584036,0.082912340760231,0.1753743141889572,-0.0505760982632637
1783204335686240300,6.843240234375,-0.1295487554550171,-0.0388362188726663,-0.3781231187850237,0.1141277849674224,0.1094727888703346,-0.0318854972720146
1783204335696180200,6.85318017578125,-0.2155034299857914,-0.1160299331903457,-0.668393766593933,0.1630425900220871,0.1278466284275055,-0.0523344650864601
1783204335706120200,6.8631201171875,-0.1358859225872904,-0.0671247402459383,-0.6965031320080161,0.1423162817955017,0.4554785490036011,-0.0749367102980613
1783204335716061200,6.873061279296875,-0.1272100103091448,0.017795768931508,0.3200955849692225,-0.1078072264790535,0.9238267540931702,-0.0280862972140312
1783204335726001200,6.883001220703125,0.4474162160459906,-0.2480611531108617,3.42652898440212,-0.3189144134521484,0.6098690629005432,0.0319536030292511
1783204335735941000,6.892941162109375,0.6669993896260857,-0.1868441756039857,0.9190098648846148,-0.4870553314685821,0.1808729320764541,0.1065420657396316
1783204335745881000,6.902881103515625,0.8832375636272132,-0.4484399330705404,-0.0669599050730466,-0.4955731928348541,-0.0484926104545593,0.1284183412790298
1783204335755821300,6.9128212890625,0.7985483789876103,-0.6001099194407463,-0.5413970337092876,-0.3573592007160187,-0.1282154619693756,0.0799969583749771
1783204335765761000,6.922760986328125,0.5585812466137111,-0.3872632875740527,-1.0497796865671871,-0.1298813074827194,-0.1630187034606933,0.0106176231056451
1783204335775701200,6.932701171875,0.5043468214705586,-0.5268418541342019,-1.3627882358849048,0.1293559223413467,-0.2494592815637588,-0.0479183457791805
1783204335785641200,6.94264111328125,0.6853514042008668,-0.5920522851914167,-1.4486349199965596,0.3422101438045501,-0.378016710281372,-0.0777492150664329
1783204335795581200,6.952581298828125,0.667356824761629,-0.3369049732118845,-1.050013495323062,0.4497146606445312,-0.4747061431407928,-0.0947745963931083
1783204335805521200,6.962521240234375,0.4018227049328386,0.0569756866753101,-0.2246142265498638,0.4634339213371277,-0.5588958263397217,-0.0839488431811332
1783204335815461000,6.972461181640625,0.1994590347662568,0.1023193877458572,0.2982324204683304,0.3957391381263733,-0.6585744023323059,-0.0378769673407077
1783204335825401000,6.982401123046875,0.2007723823871463,-0.1321405255138873,0.442759841607511,0.2575988173484802,-0.7468957304954529,0.0049977945163846
1783204335835341300,6.99234130859375,0.2730346316520124,-0.2205266649752855,0.5626762608423829,0.0721711590886116,-0.7756466269493103,0.0304582417011261
1783204335845281000,7.002281005859375,0.2920627188574523,-0.0549491492837667,0.7238640171423554,-0.1073256358504295,-0.7246481776237488,0.0443919003009796
1783204335855221200,7.01222119140625,0.2821648635689169,0.180709618371725,0.8848115349456668,-0.2435647994279861,-0.625262975692749,0.0431058555841445
1783204335865161200,7.0221611328125,0.3008594079710543,0.327090266162157,0.9287643661797046,-0.3223786652088165,-0.5430852770805359,0.0230866074562072
1783204335875101200,7.03210107421875,0.2372957212075591,0.2822860787957906,0.7024521035403013,-0.3470099866390228,-0.4862919449806213,-0.0160927828401327
1783204335885041200,7.042041259765625,0.0071377429254353,0.1369330204874277,0.314147197958827,-0.3294893205165863,-0.4232669174671173,-0.047398243099451
1783204335894981000,7.051981201171875,-0.1577442647825926,0.0599438888311386,0.0424921110317111,-0.267228364944458,-0.3494602143764496,-0.0735365897417068
1783204335904921300,7.06192138671875,-0.1197092062249779,0.073180971544981,-0.0318973595201969,-0.184289813041687,-0.2894962131977081,-0.0915267765522003
1783204335914861300,7.071861328125,-0.1701117250550538,0.0995581063389778,-0.0338218978419899,-0.1130252331495285,-0.3068823516368866,-0.0948499292135238
1783204335924801000,7.081801025390625,-0.2055463918559253,0.0500853426396846,0.0054278702676296,-0.0976257696747779,-0.3812836110591888,-0.0619327239692211
1783204335934741200,7.0917412109375,-0.0729996236287057,0.0815951641470193,0.1886889266878366,-0.1476712822914123,-0.3820686340332031,0.0093018198385834
1783204335944681200,7.10168115234375,0.1317402741499245,0.28210078535676,0.524150715354085,-0.2664831578731537,-0.2742383182048797,0.099325455725193
1783204335954621200,7.11162109375,0.3128873706234619,0.462739676579833,0.8708280177786946,-0.4421036541461944,-0.0894597992300987,0.189103215932846
1783204335964561200,7.12156103515625,0.4717519081402569,0.2656412334650754,0.9408508175536988,-0.5964990854263306,0.0634162947535514,0.3081837892532348
1783204335974501000,7.131501220703125,0.7892429366342723,-0.0397153397947549,0.6594079115837812,-0.7081501483917236,0.1092406138777732,0.4037989974021911
1783204335984441300,7.14144140625,0.9266935512550176,0.1064478658527135,0.5111535788759589,-0.8048705458641052,0.0834396407008171,0.47437784075737
1783204335994381300,7.15138134765625,1.0212389439985154,0.3277630508571863,0.596637859416008,-0.8681825399398804,0.0347668640315532,0.536406934261322
1783204336004321000,7.161321044921875,1.1164531759142875,0.25352877086699,0.4433183522731065,-0.8676403164863586,0.0037405036855489,0.5719699859619141
1783204336014261200,7.17126123046875,1.0400032657012344,0.1124807162761688,0.1854746408164501,-0.830721378326416,-0.0687449946999549,0.5712932348251343
1783204336024201200,7.181201171875,0.8543811792381107,0.1711848341792821,0.0239560451269149,-0.8392671942710876,-0.3166115283966064,0.5936064720153809
1783204336034141200,7.19114111328125,0.759300802835077,0.4950830263018608,0.1363023213684558,-0.7926324009895325,-0.4087453186511993,0.6256228089332581
1783204336044081200,7.2010810546875,0.6464635282061993,0.5842015716910361,0.3319780382037162,-0.7241271138191223,-0.4141938984394073,0.6950621008872986
1783204336054021000,7.211021240234375,0.5879444114811718,0.5121545726120471,0.4316436965703964,-0.6564115285873413,-0.4084042906761169,0.7573558688163757
1783204336063961300,7.22096142578125,0.4985026254869997,0.4935971716582775,0.3546948969244957,-0.6171165704727173,-0.4291809499263763,0.8029356002807617
1783204336073901000,7.230901123046875,0.3529916001379489,0.4424924228429794,0.2456353872686624,-0.6145783066749573,-0.4369926750659942,0.8272619843482971
1783204336083841000,7.240841064453125,0.2209165593420155,0.4035644340336322,0.2968707767263054,-0.6659080386161804,-0.4317561089992523,0.7502571940422058
1783204336093781200,7.25078125,-0.2674757919484749,0.5064531461000442,0.4528630102097988,-0.7145354747772217,-0.3588151037693023,0.7243553400039673
1783204336103721200,7.26072119140625,-0.1421757434464991,0.1708779601871967,0.5934732579052447,-0.7744702100753784,-0.2672481834888458,0.7208895087242126
1783204336113661200,7.2706611328125,0.1500884162671864,-0.183164025786519,0.6494909132033586,-0.8273717761039734,-0.169379249215126,0.7353318333625793
1783204336123600100,7.28060009765625,0.2931437190271914,-0.3444558269828557,0.5670540375351906,-0.7471230030059814,0.2031871378421783,0.7001913785934448
1783204336133540000,7.2905400390625,0.1577999039599671,-0.3320160321265459,0.1477937294587492,-0.4982782006263733,0.6933062672615051,0.5824707746505737
1783204336143480300,7.300480224609375,-0.4865919325387105,-0.5022527718007564,-1.2443234767630695,-0.2850767374038696,0.604912519454956,0.4392832815647125
1783204336153420300,7.310420166015625,-1.0119012068107724,-0.3018751608848571,-2.325358425554633,-0.0404503755271434,0.3498301208019256,0.2978940904140472
1783204336163360000,7.320360107421875,-1.2046905545547604,-0.0926098946362733,-2.69223008248508,0.1614204347133636,0.0276997443288564,0.2528083622455597
1783204336173300200,7.33030029296875,-0.7886483317419886,-0.1704308009415865,-2.311667169332504,0.2534157335758209,-0.2980427145957947,0.3023114204406738
1783204336183240200,7.340240234375,-0.2912376662101596,-0.3537906415611505,-1.4906766569122671,0.3066523373126983,-0.3920145034790039,0.3704670369625091
1783204336193179100,7.35017919921875,-0.1134141977339982,-0.3715992699742317,-0.7257160747498274,0.3549875020980835,-0.3253186643123626,0.4355862736701965
1783204336203120000,7.3601201171875,0.0021915186949074,-0.3977607161909341,-0.4932318454772234,0.403776079416275,-0.2903380393981933,0.4807066321372986
1783204336213060000,7.37006005859375,0.0144006466004997,-0.3654395783007145,-0.7729621023103594,0.4449423849582672,-0.2600442171096802,0.4768427312374115
1783204336222999300,7.379999267578125,-0.0988077263630926,-0.0614507862627506,-0.6920400151193141,0.4951096773147583,-0.1710402965545654,0.4703486263751983
1783204336232939300,7.389939208984375,-0.0045827977456152,0.1255903732180595,-0.3646843760192394,0.5059137344360352,-0.1044068336486816,0.4628934264183044
1783204336242879200,7.399879150390625,0.0061257894039154,0.2278419564247131,-0.0740571698576211,0.4819399416446686,-0.0755578801035881,0.4549106359481811
1783204336252819200,7.409819091796875,-0.0588262099128216,0.2908832267493009,0.2410384148672223,0.4298343360424042,-0.0586873404681682,0.4568653106689453
1783204336262759200,7.41975927734375,0.0288848798312246,0.2716694077134132,0.5190718046545982,0.3697608709335327,-0.0750559344887733,0.4648973941802978
1783204336272699100,7.42969921875,0.105900461103022,0.1780664103865623,0.6394394747883081,0.3046784102916717,-0.1054436638951301,0.4714449942111969
1783204336282639400,7.439639404296875,0.1098547516867518,0.0323965412139892,0.6693734252810478,0.2468683868646621,-0.1279737502336502,0.4704976975917816
1783204336292579000,7.4495791015625,0.1010863388195633,-0.0538017328143119,0.6914929026305675,0.18764328956604,-0.1259121745824813,0.4640966057777405
1783204336302519300,7.459519287109375,0.0647387218922376,-0.0710755236983299,0.7014291902333497,0.1312127709388733,-0.0969955846667289,0.4637599587440491
1783204336312459300,7.469459228515625,0.0224637607425451,-0.0721539665848016,0.6905337022095919,0.0937996879220008,-0.0338245928287506,0.44911989569664
1783204336322399200,7.479399169921875,-0.0959837549835443,-0.0332803383111953,0.5914239241600037,0.0765141770243644,0.056680005043745,0.4118401408195495
1783204336332339200,7.489339111328125,-0.3719260177105665,0.0964361749261617,0.4163362373232841,0.075233906507492,0.1277974247932434,0.3862849175930023
1783204336342279200,7.499279052734375,-0.2945157380327582,-0.0012310030996799,0.2388371054306626,0.0776227638125419,0.1630584746599197,0.3585757911205292
1783204336352219100,7.50921923828125,-0.215182381337881,-0.0105330844521522,0.0345262467190623,0.0838657543063163,0.1425514966249466,0.3346920013427734
1783204336362159400,7.519159423828125,-0.1923081400983035,0.0591489390611648,-0.1032376716345548,0.0762416571378707,0.0844466462731361,0.3168757259845733
1783204336372099000,7.52909912109375,-0.1150619649410247,0.0780453627109527,-0.1238879532143473,0.0581530779600143,0.0195312406867742,0.3188192844390869
1783204336382039300,7.539039306640625,-0.0086930095434188,0.047328152886033,-0.0734495593532919,0.0329065769910812,-0.0061738565564155,0.3242907524108886
1783204336391979300,7.548979248046875,0.0773955205000937,0.0291658887296915,0.0300911868810653,0.0117233460769057,0.0089100785553455,0.3357016444206238
1783204336401919200,7.558919189453125,0.157743022673577,0.0874678555727005,0.153474989965558,-0.0062604481354355,0.0194532666355371,0.3481332659721374
1783204336411859200,7.568859130859375,0.2251147234179079,0.0887812762588262,0.1417494808584451,-0.0081327948719263,0.0070809172466397,0.3661083281040191
1783204336421799200,7.578799072265625,0.1522644451320171,-0.0432639721870422,-0.0289189282312989,0.0135911423712968,-0.0246850028634071,0.3638172149658203
1783204336431739400,7.588739501953125,0.0252684428997337,-0.243539876294136,-0.1991463155552744,0.0468392372131347,-0.0538616441190242,0.3412042260169983
1783204336441679400,7.598679443359375,-0.0601166150495409,-0.3341191418856382,-0.2401657236859202,0.0839732885360717,-0.078981913626194,0.3031274080276489
1783204336451619000,7.608619140625,-0.1521231369651854,-0.3042944969862699,-0.1916220575302839,0.1168635487556457,-0.0824455022811889,0.2608519196510315
1783204336461559300,7.618559326171875,-0.2204040615089237,-0.2096405293017625,-0.182869426754117,0.1365941017866134,-0.0721941962838172,0.2305531203746795
1783204336471499300,7.628499267578125,-0.2453612465023994,-0.1113385605037212,-0.2150263139933347,0.1328507512807846,-0.0646235793828964,0.207760140299797
1783204336481439200,7.638439208984375,-0.2302534014806151,-0.0353594826728105,-0.1697661995530128,0.1217786520719528,-0.0382937118411064,0.1899465322494506
1783204336491379200,7.648379150390625,-0.1978074681669473,-0.0497702853411436,-0.1100245552957057,0.1235147416591644,-0.0037832306697964,0.1767328530550003
1783204336501319200,7.658319091796875,-0.1917847007460892,-0.1393430042386055,-0.1274117434263229,0.1308227181434631,0.0329010151326656,0.1516719758510589
1783204336511259400,7.66825927734375,-0.2263588782601058,-0.1425391699314117,-0.0907227657154202,0.1375100165605545,0.0543981529772281,0.1272928416728973
1783204336521199000,7.67819921875,-0.2013360806845128,-0.0647206017136573,-0.0396092490717768,0.1429290175437927,0.0677339360117912,0.1142372265458107
1783204336531139000,7.68813916015625,-0.1188647182248532,-0.0016740706920623,0.0083572017177939,0.1485665738582611,0.0779984518885612,0.1134992912411689
1783204336541079300,7.698079345703125,-0.0142255092293024,-0.0121790980935096,0.0343164033606648,0.1615790426731109,0.1041373759508133,0.1132188588380813
1783204336551019300,7.708019287109375,0.0883658273257315,-0.0920756416290998,-0.0486021183446049,0.17200668156147,0.1014254763722419,0.1108544915914535
1783204336560959000,7.717958984375,0.1310883861124515,-0.0964116250067949,-0.1636567767620086,0.1598011404275894,0.0639436170458793,0.1159547045826911
1783204336570899200,7.727899169921875,0.153046973811835,-0.0869493846565485,-0.1220528467416763,0.0384604334831237,-0.2717618942260742,0.1029350757598877
1783204336580839200,7.737839111328125,-0.0198033093616366,-0.0780301651418209,0.314949161991477,0.031455785036087,-0.3405545353889465,0.0952212288975715
1783204336590779400,7.747779296875,-0.0427662517979741,-0.1470721371859312,0.564475711479783,0.0239832177758216,-0.3384993970394134,0.0971646606922149
1783204336600719000,7.757718994140625,-0.046637101881951,-0.1857347530573606,0.5970455634340643,0.0112320035696029,-0.2438738197088241,0.0778253227472305
1783204336610659000,7.7676591796875,-0.2043868465572595,-0.1601701036900281,0.5422594957575202,-0.0164291821420192,-0.08688285946846,0.0554474554955959
1783204336620599300,7.777599365234375,-0.2961453850612044,-0.0511807366609573,0.4200090806171297,-0.0240466222167015,0.0994923412799835,0.0294275730848312
1783204336630539300,7.787539306640625,-0.341122590906918,0.1112532203078269,0.222879365581274,-0.0006449604406952,0.2722624242305755,-0.0085933050140738
1783204336640479200,7.797479248046875,-0.3556917990073561,0.278079859277606,-0.0572498274415731,0.0376499630510807,0.3659633696079254,-0.0481545627117157
1783204336650419200,7.807419189453125,-0.3192395526617765,0.3284598009496927,-0.3075625588715076,0.076380580663681,0.4010027050971985,-0.0786304771900177
1783204336660359200,7.817359130859375,-0.2380737198427319,0.2512310153186321,-0.416308472533524,0.1018284186720848,0.4064973592758178,-0.100797563791275
1783204336670299400,7.82729931640625,-0.1715826013252139,0.0809334853678941,-0.3393538276687264,0.1126642897725105,0.4414462745189667,-0.093866154551506
1783204336680239000,7.837239013671875,-0.0064941843248903,-0.1290899057716131,-0.0923901144057512,0.0964589565992355,0.4294087886810303,-0.0742144286632537
1783204336690178000,7.847177978515625,0.0777633308991789,-0.1890975074887275,0.1757455662235617,0.0237541571259498,0.2913029491901397,-0.0425342470407485
1783204336700118300,7.8571181640625,0.1754464371465146,-0.1070563531398773,0.4924246207475662,-0.0541651435196399,0.1139795705676078,-0.0234833247959613
1783204336710058200,7.867058349609375,0.197751207935065,0.0270768074959516,0.8168594039648771,-0.1053641736507415,-0.0035050446167588,-0.0068245301954448
1783204336719998200,7.876998291015625,0.172504538475722,-0.00775835904181,0.9337994377374648,-0.156292051076889,-0.0463909953832626,-5.63724897801e-05
