time,seconds_elapsed,ax,ay,az,gx,gy,gz
1783197304768696300,0.1036962890625,0.0157533763837069,-0.0131704472184181,-0.1454495044201612,-0.0066246781498193,-0.0837671980261802,0.0407698862254619
1783197304778634200,0.11363427734375,-0.0347406201221048,0.0016714403435587,-0.1231190146684646,0.0206498187035322,-0.0641492903232574,0.0314863733947277
1783197304788571400,0.1235712890625,-0.0807516990602016,0.0309288067489862,-0.0490600912451744,0.0493029803037643,-0.0332948192954063,0.0125075876712799
1783197304798508300,0.13350830078125,-0.1172626898556947,0.0432417603552341,0.0457376688241958,0.0772621780633926,0.005539929959923,-0.0038058722857385
1783197304808445200,0.143445068359375,-0.162108086015284,0.0578054154977202,0.1455313374847173,0.0921229571104049,0.0456407144665718,-0.0209337770938873
1783197304818383000,0.153383056640625,-0.1826623598746955,0.0389706589072942,0.2114379341125488,0.0856357589364051,0.0649944394826889,-0.0342671610414981
1783197304828320300,0.1633203125,-0.1109070372186601,-0.0070063716307282,0.2042296101689338,0.0708483979105949,0.068990908563137,-0.0295075457543134
1783197304838257400,0.17325732421875,0.0222316324871033,-0.0507791701227426,0.0949362917572259,0.0517721809446811,0.0426314696669578,-0.0178125407546758
1783197304848194300,0.1831943359375,0.1283676559116691,-0.0476505167081952,0.0004430675923824,0.0274231266230344,-0.0018556183204054,-0.0100065506994724
1783197304858132500,0.193132568359375,0.1719560377474874,-0.0696089582771062,0.0024222587108612,-0.0118023054674267,-0.0314390733838081,-0.0040541198104619
1783197304868069400,0.2030693359375,0.1838998657803982,-0.1016281906113028,0.1256470718413591,-0.0545099899172782,-0.0415568314492702,0.0111890276893973
1783197304878006300,0.21300634765625,0.178801373597607,-0.1576794559180736,0.2124976722985506,-0.0935213044285774,-0.0341396629810333,0.0264532007277011
1783197304887944200,0.222944091796875,0.1714738802537322,-0.198541043138504,0.1826286037355661,-0.109272763133049,-0.0192427989095449,0.0448008477687835
1783197304897881300,0.23288134765625,0.1341343296796083,-0.1533189226210117,0.1029495023429393,-0.1061571240425109,-0.0131260510534048,0.0480608232319355
1783197304907818200,0.242818359375,0.0464640834026038,-0.062212710545957,0.0417623354524374,-0.0905960276722908,-0.0047175800427794,0.0408334471285343
1783197304917755400,0.25275537109375,-0.0362986632190644,0.0111482937410473,-0.0122340431511402,-0.0647364631295204,0.0002699885517358,0.0175651423633098
1783197304927693300,0.262693359375,-0.1036729943118989,0.0406087815031409,-0.0382914444714784,-0.041613258421421,0.0078619448468089,-0.0117390630766749
1783197304937630500,0.27263037109375,-0.1771357784729451,0.0657335781484842,-0.0255862766772508,-0.0149552831426262,0.0265988819301128,-0.0287220422178506
1783197304947567000,0.282567138671875,-0.2114444369185715,0.0913470350936055,-0.000734744015336,-0.0031628794968128,0.0548952594399452,-0.0408343113958835
1783197304957504300,0.292504150390625,-0.2373074116453528,0.0875695623815059,0.0133767834454774,-0.0032829865813255,0.0610325150191783,-0.0610711388289928
1783197304967442200,0.302442138671875,-0.2040828951746225,0.0860708482563495,-0.0057382513910531,-0.0025354530662298,0.059879969805479,-0.0798702239990234
1783197304977379300,0.31237939453125,-0.1116605589997023,0.088785367912054,-0.0548281532526016,0.004713405855,0.0340467765927314,-0.0937708541750907
1783197304987316500,0.32231640625,0.0109868926342576,0.0023117840737104,-0.1426490600466728,0.0218226313591003,0.0087490705773234,-0.0939601138234138
1783197304997253400,0.33225341796875,0.1834730917356908,-0.0374640537366271,-0.1710977404177188,0.0434056892991066,0.0081892739981412,-0.0768125504255294
1783197305007191300,0.34219140625,0.2809837640255689,-0.1052522263273596,-0.024877251625061,0.0475790649652481,0.0246259942650795,-0.037565141916275
1783197305017128200,0.352128173828125,0.3094903851289302,-0.2447860769629478,0.147547938004136,0.031992383301258,0.0558757930994033,0.0126514229923486
1783197305027065300,0.3620654296875,0.3259134774677455,-0.3396557332247495,0.2210474739789962,-0.0097005395218729,0.074665792286396,0.05958903580904
1783197305037002200,0.372002197265625,0.318807225659117,-0.2761003758981823,0.1960872202455997,-0.055435799062252,0.0539455935359001,0.0886033773422241
1783197305046940400,0.3819404296875,0.2153373527038842,-0.1715396389663219,0.1323018535554408,-0.0951345711946487,0.0406359806656837,0.1028170138597488
1783197305056877300,0.391877197265625,0.0620010405566543,-0.120621060372889,0.0470224479377269,-0.134920597076416,0.0134525634348392,0.099999651312828
1783197305066814500,0.401814453125,-0.0636369711954146,-0.060495092973113,-0.0032844284981489,-0.1602136641740799,-0.0142193892970681,0.0885851457715034
1783197305076752100,0.411752197265625,-0.1204674041811376,-0.0043330607682466,-0.0804781428158283,-0.1644153445959091,-0.0272582247853279,0.0685318112373352
1783197305086689300,0.421689208984375,-0.0980184026163071,0.0559410829305648,-0.0982458546966314,-0.1507949382066726,-0.0285661481320858,0.0457960106432437
1783197305096626200,0.431626220703125,-0.0696701869450509,0.0949663946345448,-0.1154892504423856,-0.1214317232370376,-0.0242728665471076,0.0312106758356094
1783197305106563300,0.441563232421875,-0.0339319340877234,0.096523268687725,-0.0941600466877222,-0.0867357403039932,-0.0124033065512776,0.0164573322981596
1783197305116501200,0.451501220703125,-0.0085321198932826,0.062171794013679,-0.0393213720411062,-0.0622591599822044,0.0083219446241855,0.0163215100765228
1783197305126438400,0.4614384765625,0.0205495246190577,0.0245808990269899,0.0200081842839717,-0.0414676889777183,0.0284603014588356,0.0268605127930641
1783197305136375300,0.471375244140625,0.0319702055606991,0.0007610475003719,0.0630249037116766,-0.0357373654842376,0.0472619533538818,0.0395179837942123
1783197305146312200,0.481312255859375,0.0565679826572537,-0.0038517069920897,0.0855173060268163,-0.0354502759873867,0.0594536401331424,0.0673767775297164
1783197305156250000,0.49125,0.0997661961317062,-0.0376613298743963,0.0811199478507041,-0.049285665154457,0.0580552108585834,0.0988681241869926
1783197305166187300,0.501187255859375,0.1088370990768075,-0.0256684020027518,0.073339376977086,-0.0666296780109405,0.0412955731153488,0.1154159903526306
1783197305176124400,0.51112451171875,0.0478162286639213,0.0646884530097246,0.0665074851304292,-0.0914255678653717,0.0090899663046002,0.1146977320313453
1783197305186061300,0.521061279296875,0.0194227856114506,0.1258975394710898,0.0904109232872724,-0.1150864362716674,-0.0132346730679273,0.1110218316316604
1783197305195999500,0.53099951171875,-0.026296105447039,0.1412602360367774,0.1600315720021724,-0.1407193690538406,-0.0186776407063007,0.1011375114321708
1783197305205936000,0.54093603515625,-0.0317750483147799,0.1410962776467204,0.2032610573977231,-0.1623188257217407,-0.034911148250103,0.0944749116897583
1783197305215873300,0.550873291015625,0.0357380336616188,0.1381768830686807,0.232016027238965,-0.169303223490715,-0.0418225862085819,0.0915057584643364
1783197305225810000,0.560809814453125,0.1469085441220551,0.1111065053135156,0.2755529711484908,-0.1702784299850464,-0.0325278043746948,0.1023716032505035
1783197305235747800,0.570747802734375,0.2225397583633661,0.0790904878497123,0.328664383611083,-0.1435285806655883,-0.0251202229410409,0.1191090419888496
1783197305245684700,0.580684814453125,0.2766424468856305,0.0460424969896674,0.2737649186879396,-0.1128435730934143,-0.014374891296029,0.1412758231163025
1783197305255622000,0.590621826171875,0.3184070473603904,-0.0538297898650169,0.2647013222664594,-0.0838475972414016,-0.0043888352811336,0.1834706813097
1783197305265559800,0.600559814453125,0.3480880460053682,-0.1438593126192688,0.2948772648215294,-0.0758493021130561,0.0108722988516092,0.2259929180145263
1783197305275496700,0.61049658203125,0.3051359162464738,-0.2112912191182374,0.3300871098905801,-0.0826901644468307,-0.0051000099629163,0.2615573108196258
1783197305285433900,0.620433837890625,0.2600046888828277,-0.2021893365129828,0.3121364426583051,-0.0986847281455993,-0.0301775150001049,0.2877725064754486
1783197305295370800,0.630370849609375,0.2585471835508942,-0.1379518421411514,0.2867494879454374,-0.1187457889318466,-0.0303016193211078,0.3064481914043426
1783197305305309000,0.640308837890625,0.1162783549934625,-0.1963061236932873,0.2128676746547222,-0.1362834125757217,-0.0206984542310237,0.3133362233638763
1783197305315245800,0.650245849609375,-0.0421305842429399,-0.2229746426492929,0.0563292054653167,-0.1411407440900802,-0.0093989297747612,0.2938458621501922
1783197305325183000,0.660182861328125,-0.1070505079209804,-0.0893707665845751,-0.0661193625956773,-0.1363124996423721,-0.0184109155088663,0.2594335377216339
1783197305335119600,0.67011962890625,-0.1036221409074962,0.0571823151633143,-0.112312373971939,-0.1303233206272125,-0.0278166681528091,0.2231809943914413
1783197305345057800,0.680057861328125,-0.0973204104147851,0.0591883942887187,-0.0842652601391077,-0.1271665841341018,-0.0165317840874195,0.1964117884635925
1783197305354994700,0.68999462890625,-0.1080007943831384,-0.0205035665854811,-0.0444715944111347,-0.1257204860448837,0.0118010528385639,0.1907509714365005
1783197305364931800,0.699931884765625,-0.1095059382490813,-0.0784483905538916,-0.0166261406302452,-0.1322157979011535,0.050278652459383,0.1981656700372696
1783197305374869000,0.709868896484375,-0.1255935880884528,-0.1297574297696352,-0.0377963544309139,-0.1494294106960296,0.0904905274510383,0.2067525088787078
1783197305384807000,0.719806884765625,-0.1381283677518367,-0.1443999953672289,-0.0899731163918972,-0.1711358875036239,0.1271177232265472,0.2148279100656509
1783197305394743800,0.729743896484375,-0.1593603947423398,-0.0974102806553244,-0.1468932734876871,-0.1861396133899688,0.1398915648460388,0.2017400711774826
1783197305404680700,0.7396806640625,-0.1301198333412409,-0.0366843015357851,-0.250222130537033,-0.1854601204395294,0.1435341089963913,0.1946803033351898
1783197305414618600,0.74961865234375,-0.042807460591197,-0.0122609311580657,-0.3562842119425535,-0.1582085341215133,0.14717997610569,0.2006018459796905
1783197305424555800,0.7595556640625,-0.0121415425620973,0.0065635962992906,-0.4309492845654487,-0.1206357255578041,0.1530092805624008,0.2001041173934936
1783197305434493000,0.769492919921875,-0.0474856815353035,0.0607049363315105,-0.4597743970334529,-0.0814545005559921,0.1563046723604202,0.1941540837287902
1783197305444429800,0.779429931640625,-0.1256041094824671,0.1066162081569433,-0.4824100072115659,-0.0509457364678382,0.1522248983383178,0.1849464923143386
1783197305454368000,0.789367919921875,-0.1600067298218608,0.1646115932688117,-0.4661754962474107,-0.0298103597015142,0.1417650729417801,0.1580653339624405
1783197305464304600,0.7993046875,-0.1853052755989134,0.2140314577370882,-0.4091857810467481,-0.0151861822232604,0.1356459707021713,0.1313823610544204
1783197305474241800,0.80924169921875,-0.190973676624149,0.2021039963170885,-0.2884031003713607,-0.0006844718009233,0.1293680965900421,0.1122485995292663
1783197305484178700,0.8191787109375,-0.1921278150953352,0.1720811984971165,-0.2584317404776811,0.0149479815736413,0.1164663881063461,0.101439394056797
1783197305494116900,0.829116943359375,-0.1115120173744857,0.1735077241688966,-0.2738660409748554,0.0364018753170967,0.1080132499337196,0.1010300666093826
1783197305504053800,0.8390537109375,-0.0745915689952671,0.1761865879893303,-0.2639981424331665,0.058101262897253,0.1057605370879173,0.0991303622722625
1783197305513991000,0.848990966796875,-0.1050971818961203,0.1996560186430812,-0.1734936956435442,0.0724439844489097,0.1197437345981597,0.0888838469982147
1783197305523928800,0.8589287109375,-0.1839927316956222,0.2171227017506957,-0.0349696065723896,0.0804071426391601,0.1435889452695846,0.0743003636598587
1783197305533865700,0.86886572265625,-0.2536003017332405,0.2398652794346213,0.0988175171047449,0.0694050937891006,0.1694546341896057,0.0557844676077365
1783197305543802600,0.878802734375,-0.2921384144421666,0.2436561961501836,0.1940788030326366,0.0477355644106864,0.1873057186603546,0.0302193984389305
1783197305553739800,0.88873974609375,-0.2734479616932571,0.2479725980445742,0.2604272982090711,0.0255327895283699,0.2050823271274566,0.0071297911927104
1783197305563677700,0.898677734375,-0.1973061675813049,0.2187082173764705,0.3466407698065042,0.0071110962890088,0.2261732518672943,0.0070616654120385
1783197305573614800,0.90861474609375,-0.0499876544188708,0.0962605260983109,0.3293734086632728,-0.0073386831209063,0.252086877822876,0.0252294838428497
1783197305583552000,0.918552001953125,0.0373027256950736,0.0471694551929831,0.3179384069353342,-0.0238626822829246,0.2542191743850708,0.0502586849033832
1783197305593490000,0.928489990234375,0.0782341632813215,0.0354378086060285,0.2878945663273334,-0.0439652875065803,0.2580000758171081,0.0761794969439506
1783197305603426800,0.9384267578125,0.0617431202728301,0.0325277663782238,0.2404845803767442,-0.0763755440711975,0.2451491355895996,0.0935630053281784
1783197305613363700,0.94836376953125,0.0330444106634706,0.0461909655496478,0.1908762075990438,-0.1101244539022445,0.222761794924736,0.0991346016526222
1783197305623300900,0.95830078125,-0.0006727846950292,0.0725102326765656,0.1540127501040697,-0.1370480507612228,0.2034175992012024,0.1008210852742195
1783197305633238800,0.96823876953125,-0.0298145618967711,0.0952864203691482,0.1186848316133022,-0.152874156832695,0.1961788684129715,0.0877276510000228
1783197305643176000,0.978176025390625,-0.0806143364161253,0.0869391555234789,0.0974783774554729,-0.1666167974472046,0.207614928483963,0.084629900753498
1783197305653112800,0.98811279296875,-0.1181237636644393,0.0612152239412069,0.0809235484957694,-0.1786076724529266,0.2220567166805267,0.0756734237074852
1783197305663051000,0.998051025390625,-0.137791610078141,0.0500730676800012,0.0512140544086694,-0.1884365975856781,0.2259420603513717,0.0547584630548954
1783197305672987600,1.007987548828125,-0.1165161092720925,0.0529649897292256,-0.028154081338644,-0.1937946230173111,0.2209433019161224,0.0339152328670024
1783197305682924800,1.0179248046875,-0.0946655119918286,0.0652133536666631,-0.0900859291166067,-0.1907094717025756,0.2183330208063125,0.0114844813942909
1783197305692861700,1.02786181640625,-0.0582587852884083,0.0384542338177561,-0.1517068112492561,-0.1806997060775756,0.2271209210157394,0.0003071946557611
1783197305702800000,1.0377998046875,-0.0125429629698395,-0.032585341784358,-0.2018459299027919,-0.1681106090545654,0.2275534570217132,-0.0059929201379418
1783197305712736800,1.04773681640625,0.0485918892115354,-0.1109948616325855,-0.2340373039335012,-0.1604928970336914,0.2124946117401123,0.0081769619137048
1783197305722674000,1.057673828125,0.146676635062322,-0.186021168783307,-0.374386854866147,-0.1466588079929351,0.1718991994857788,0.0284229088574647
1783197305732611800,1.06761181640625,0.2586213447656482,-0.2000923642337322,-0.508480852535367,-0.1276491582393646,0.114021249115467,0.0441653877496719
1783197305742548700,1.077548828125,0.2827308268886059,-0.1587453315839171,-0.5223205773174763,-0.1170375794172287,0.0616447106003761,0.0601746514439582
1783197305752485600,1.087485595703125,0.2362451161760836,-0.1166831364020705,-0.3962549878031015,-0.1127269864082336,0.0438433438539505,0.0624873414635658
1783197305762423800,1.097423828125,0.0785786658700555,-0.095930271230638,-0.2411749007284641,-0.106065034866333,0.0440944321453571,0.0605008602142334
1783197305772360700,1.107360595703125,-0.0213208012524992,-0.0866191297888755,-0.1655015278458595,-0.1108470037579536,0.0444030947983264,0.0639222264289856
1783197305782297900,1.1172978515625,-0.0272920576818287,-0.0852367355197668,-0.1488286254644394,-0.1160254254937172,0.0381622314453125,0.0608416721224784
1783197305792235000,1.127235107421875,-0.0399329280681908,-0.0371259078234434,-0.151449621617794,-0.1147681400179863,0.0155120473355054,0.0456179790198802
1783197305802173000,1.1371728515625,-0.0602092617690563,-0.0069552259653806,-0.1423492003172635,-0.1083977594971656,0.0114294122904539,0.0381304249167442
1783197305812109800,1.14710986328125,-0.104765757984668,0.0089446462169289,-0.0705114600747823,-0.1065591126680374,0.0415241979062557,0.0332927927374839
1783197305822046700,1.157046630859375,-0.0922713103316724,-0.0047661914885044,-0.0042114802151918,-0.1081894859671592,0.0560241788625717,0.0364210307598114
1783197305831984600,1.166984619140625,-0.0482711328245699,-0.0503039538264274,-0.0587818593144416,-0.1093210652470588,0.0407573394477367,0.0471903197467327
1783197305841921800,1.176921875,0.0643367900278419,-0.0380097049206495,-0.1631996806442737,-0.104051373898983,0.017817860469222,0.0507587045431137
1783197305851859000,1.18685888671875,0.1543484848644584,0.0200701436042785,-0.1974801359087228,-0.0936128422617912,-0.0038365684449672,0.0567079409956932
1783197305861796900,1.196796875,0.1418382551204413,0.0325604996040463,-0.1703273405671119,-0.0789532586932182,0.0018475307151675,0.0649615451693534
1783197305871734000,1.206734130859375,0.0861839532420039,0.0326776962429285,-0.0733510674148797,-0.0700353905558586,0.0239147506654262,0.0701166242361068
1783197305881670700,1.216670654296875,0.0327870749015361,0.0005231470912694,-0.0300578691333532,-0.0683518499135971,0.0365750938653945,0.0793547630310058
1783197305891607800,1.22660791015625,0.0001754296321421,-0.0053279170244932,-0.0138666127890348,-0.0759146958589553,0.0426875799894332,0.07957474142313
1783197305901545700,1.236545654296875,-0.0220002348840236,0.0434469275385141,-0.0167366152673959,-0.0820477232336998,0.0332044698297977,0.0708314925432205
1783197305911483000,1.24648291015625,-0.0834842658292502,0.075959788608551,-0.0239724117398262,-0.0854147598147392,0.0319250859320163,0.0609881877899169
1783197305921419800,1.256419677734375,-0.1421962017126381,0.0591460164517164,-0.0292792859762907,-0.0973343327641487,0.0285046584904193,0.0544854402542114
1783197305931358000,1.26635791015625,-0.1464075357973575,0.0604421937420964,-0.0285123932570219,-0.1159887090325355,0.0221644714474678,0.0494605861604213
1783197305941294800,1.276294921875,-0.1550729997467249,0.0603767272904515,-0.0411620314717292,-0.129146546125412,-0.0027086120098829,0.0347465761005878
1783197305951231700,1.286231689453125,-0.1507942264489829,0.0958297334656119,-0.0600233838081359,-0.1416325122117996,-0.0158028416335582,0.021527711302042
1783197305961169700,1.296169677734375,-0.16925854229182,0.1296074999049306,-0.0462193148612976,-0.1458660066127777,-0.0234978571534156,0.0030322456732392
1783197305971106800,1.30610693359375,-0.1542117798075079,0.1114125025227665,-0.0403571448296308,-0.1387740075588226,-0.0197582468390464,-0.0030837035737931
1783197305981043700,1.316043701171875,-0.1044509198818355,0.0956339186325669,-0.0273503637403249,-0.1332746893167495,-0.0041519571095705,-0.0152477268129587
1783197305990982000,1.32598193359375,-0.1069348456520587,0.0760556501984596,-0.0045312136888504,-0.1211232244968414,0.0178833045065403,-0.0226023122668266
1783197306000918800,1.335918701171875,-0.0970085679866373,0.0512733833804726,0.0105114571422338,-0.1136848106980323,0.0413053669035434,-0.0257720462977886
1783197306010856000,1.34585595703125,-0.0621107114762067,0.0127121820569038,-0.0312204831719398,-0.1069683134555816,0.0464687012135982,-0.020753052085638
1783197306020793900,1.3557939453125,0.014865487633273,0.0040153731212019,-0.1166916119694709,-0.0975342243909835,0.0372390411794185,-0.0206975564360618
1783197306030730800,1.365730712890625,0.0717051999039947,-0.0192442141741514,-0.1623240668535232,-0.0971552580595016,0.029218666255474,-0.0115509303286671
1783197306040667600,1.375667724609375,0.1235313217964023,-0.0782978761672973,-0.2040542536020279,-0.0958802551031112,0.0174716301262378,0.0068613300099968
1783197306050605800,1.385605712890625,0.2047588216748088,-0.1555237391889095,-0.2659223884940147,-0.0914676636457443,0.0020489990711212,0.0311767887324094
1783197306060542700,1.395542724609375,0.2517744745455682,-0.1749529545411467,-0.3233481570243835,-0.0829807445406913,-0.0114778792485594,0.0529877506196498
1783197306070480000,1.40547998046875,0.22365846019499,-0.1535199981510639,-0.3637421267330646,-0.0723230391740799,-0.0354455299675464,0.0610637851059436
1783197306080417000,1.4154169921875,0.1567776847727596,-0.114860012628138,-0.368234177455306,-0.055810272693634,-0.0449862442910671,0.0600806437432765
1783197306090355000,1.42535498046875,0.0767306999158114,-0.0797287857532501,-0.311634922876954,-0.0374461784958839,-0.0471021272242069,0.058908324688673
1783197306100291800,1.435291748046875,-0.0236811006430536,-0.0596381838828325,-0.2215507473260164,-0.0185845829546451,-0.0333814583718776,0.0479589141905307
1783197306110228700,1.445228759765625,-0.0869857711441814,-0.0284802445530891,-0.1252057578146457,-0.0146210035309195,-0.0152125740423798,0.0454675257205963
1783197306120166700,1.455166748046875,-0.0829188139662146,-0.0094502576515078,-0.0600906038254499,-0.0142556931823492,-0.0139541495591402,0.0341296568512916
1783197306130103800,1.465103759765625,-0.026487097974494,0.0202814482674002,-0.0543640428721904,-0.0115776173770427,-0.0199963301420211,0.0285162441432476
1783197306140041000,1.475041015625,0.0217715406946837,0.0400692677989602,-0.0165004684239625,-0.009903104044497,-0.0106222387403249,0.0315906479954719
1783197306149979000,1.484978759765625,0.0398099592756479,0.0120309217944741,0.0331318697512149,-0.0080402223393321,0.0033465730957686,0.0424739234149456
1783197306159915800,1.494915771484375,0.0489392413444817,-0.0015425532668828,0.0577805733174085,-0.0130399353802204,0.0115680769085884,0.0477145910263061
1783197306169852700,1.504852783203125,0.0465644750371575,0.0390618443220853,0.1159048455059528,-0.0227072108536958,0.0144679928198456,0.053728811442852
1783197306179790800,1.514790771484375,0.0700741646360605,0.0837757230564951,0.1065437274426221,-0.0330644026398658,0.0195046216249465,0.064467042684555
1783197306189727700,1.524727783203125,0.0700338326256722,0.0873515357166528,0.0414408484131097,-0.0458217412233352,0.0094914017245173,0.0687688440084457
1783197306199665000,1.534664794921875,0.0750045337103307,0.1180988484188914,-0.0137011930942535,-0.0624337494373321,-0.0107243880629539,0.0703646093606948
1783197306209602800,1.544602783203125,0.027479323882237,0.1436921393588185,0.0017541501909494,-0.0880954340100288,-0.0247933343052864,0.0723228305578231
1783197306219540000,1.5545400390625,-0.0318351079389452,0.1577484295010566,0.0277303029686212,-0.1133113726973533,-0.0389042124152183,0.0682824701070785
1783197306229477600,1.5644775390625,-0.1011765013210475,0.1662105528980493,0.0116647188305854,-0.1284378618001938,-0.051153153181076,0.0557546913623809
1783197306239415600,1.57441552734375,-0.160102810607478,0.1891056907951831,0.013793547552824,-0.1452790796756744,-0.0542184822261333,0.036096516996622
1783197306249352700,1.584352783203125,-0.1958630561009049,0.201040166477859,0.0562047023028135,-0.155737042427063,-0.0389841347932815,0.0317140184342861
1783197306259289900,1.594289794921875,-0.1721251837693154,0.1805915449500083,0.054027358263731,-0.1674443036317825,-0.0324127860367298,0.0260342955589294
1783197306269227800,1.604227783203125,-0.1241420010406523,0.1606327527657151,-0.0068365680217742,-0.1614452600479126,-0.0392504520714283,0.0198280662298202
1783197306279164700,1.61416455078125,-0.0633113925028592,0.1854895461246371,-0.0703016167163848,-0.1492439657449722,-0.0425069071352481,0.0108118448406457
1783197306289101800,1.624101806640625,-0.0349284708444029,0.2127969475060701,-0.0821867002993822,-0.1272662281990051,-0.0378626212477684,0.0018428501207381
1783197306299039500,1.63403955078125,-0.0395377182055264,0.1898775519505143,-0.0662888739436864,-0.0997412726283073,-0.0234033390879631,-0.0026930808089673
1783197306308976600,1.6439765625,-0.0446746427025646,0.1438715875789523,-0.0435837056607007,-0.0776588693261146,0.0023832493461668,-0.0061131119728088
1783197306318914600,1.65391455078125,-0.0422495344474911,0.1254559331834316,-9.64461117982e-05,-0.0579459480941295,0.0248200837522745,-0.0076291519217193
1783197306328851700,1.663851806640625,-0.0334026495166122,0.1184951542600989,-0.0378828636705875,-0.0381325632333755,0.0404528379440307,-0.0062624178826808
1783197306338788900,1.673788818359375,0.0011273965947329,0.0716805038541555,-0.1007411786437034,-0.0173628367483615,0.0483609810471534,-0.0052913231775164
1783197306348726800,1.683726806640625,0.0087371409460902,0.0495198177114129,-0.1414461139976978,-0.0055296113714575,0.0479825437068939,-0.0029876888729631
1783197306358663700,1.69366357421875,-0.0020212036292999,0.0601379500985145,-0.1573895330607891,0.0007928134873509,0.0399702489376068,-0.0029194331727921
1783197306368600600,1.7036005859375,0.0215457691147923,0.0456534976720809,-0.1794505582213401,0.0051899580284953,0.0285388976335525,-0.0009002245496958
1783197306378538500,1.71353857421875,0.0529044186484068,0.0370280004069209,-0.1692483131587505,0.0034715654328465,0.0173713155090808,0.0044900253415107
1783197306388475600,1.7234755859375,0.0620227409318089,0.0196411045372486,-0.1397322958171367,0.0034238947555422,0.0207918789237737,0.0148140350356698
1783197306398412800,1.733412841796875,0.0202540488038212,-0.0045189387291669,-0.1117857197493314,0.0088808592408895,0.0243793483823537,0.0142751690000295
1783197306408350700,1.743350830078125,-0.0396650709122419,0.0129220254153013,-0.1124234331309795,0.0187747683376073,0.0194240044802427,0.0044680777937173
1783197306418287900,1.753287841796875,-0.0443963372178375,0.0402285500138998,-0.1283113226145505,0.0385324694216251,0.0224477164447307,-0.0125880390405654
1783197306428224800,1.763224853515625,-0.0306164528641849,0.058439914008975,-0.1188607727020978,0.0615951754152774,0.025043498724699,-0.0312413536012172
1783197306438162700,1.77316259765625,0.0010396452460438,0.0653065849080681,-0.0913590177923441,0.0800118744373321,0.0299354344606399,-0.0408597514033317
1783197306448099600,1.783099609375,0.0707225455421954,0.0481175496980547,-0.0186737208098173,0.0877696573734283,0.0400013849139213,-0.0391635820269584
1783197306458036700,1.79303662109375,0.1421945942774415,-0.0173515322953462,0.0927998642504215,0.084024429321289,0.0536003187298774,-0.0252288822084665
1783197306467974700,1.802974609375,0.1659423304159194,-0.0728138917982578,0.162904497089982,0.0720444619655609,0.0683691427111625,-0.0037662007380276
1783197306477911800,1.812911865234375,0.1173973490860313,-0.0705477004319429,0.2076630917489528,0.0485426746308803,0.0723380744457244,0.011834530159831
1783197306487848700,1.8228486328125,0.0521276621222496,-0.0530079520881175,0.2022749689698219,0.0162457227706909,0.0691516026854515,0.0215076617896556
1783197306497787000,1.832786865234375,0.0200484432291239,-0.0325225056812167,0.1448603063553571,-0.0189987998455762,0.0535311847925186,0.0252820495516061
1783197306507723800,1.842723876953125,-0.0178018333461135,0.0009913491249084,0.1100695634812116,-0.0514422208070755,0.0362715050578117,0.0254988297820091
1783197306517661700,1.85266162109375,-0.0974259896811097,0.0350818347752094,0.0904319660753011,-0.0835864245891571,0.0310997143387794,0.0207517724484205
1783197306527598600,1.8625986328125,-0.160265015431866,0.0576797432914376,0.0550496870487928,-0.1004058793187141,0.0316616408526897,0.008854366838932
1783197306537535700,1.87253564453125,-0.2179460738975554,0.0989344214826822,-0.0195709619104862,-0.1075873523950576,0.0348423942923545,-0.0057326946407556
1783197306547473700,1.8824736328125,-0.2412503771174698,0.1386845403298735,-0.0985480525135994,-0.1041926220059394,0.0351968631148338,-0.0190114825963974
1783197306557410800,1.892410888671875,-0.2195042631249874,0.1864312108889222,-0.1878086367219686,-0.0923225656151771,0.0175629779696464,-0.0399599559605121
1783197306567347700,1.90234765625,-0.1546520709209144,0.2301218840554356,-0.2340688681155443,-0.0773292332887649,-0.0020418828353285,-0.0519124902784824
1783197306577286000,1.912285888671875,-0.0949200712747871,0.2137245837450027,-0.2626099029451608,-0.0544495843350887,-0.0021459041163325,-0.0584247894585132
1783197306587222800,1.922222900390625,-0.0760495857838541,0.1696793980523943,-0.2383949146211147,-0.0423492416739463,0.0065410612151026,-0.0615705177187919
1783197306597159700,1.93215966796875,-0.0438189026560634,0.0984147815227508,-0.1958399674862623,-0.0416673868894577,0.0076494845561683,-0.0535185150802135
1783197306607097600,1.94209765625,0.0230444832399487,0.0275540696188807,-0.224406721279025,-0.0364300161600112,-0.0017757089808583,-0.0451993308961391
1783197306617034800,1.95203466796875,0.0464803038850426,0.0010822422787547,-0.2551373751074076,-0.0347094312310218,-0.0180917996913194,-0.0437590442597866
1783197306626972700,1.96197265625,0.0081809683680534,0.0091267247855663,-0.2548591426879167,-0.0255596078932285,-0.0217746868729591,-0.0489982813596725
1783197306636909800,1.971909912109375,-0.0469368885461241,0.022178514060378,-0.2207283250272274,-0.0109365563839674,-0.0204567499458789,-0.0571362040936946
1783197306646846700,1.9818466796875,-0.0677151804197579,0.019873451988399,-0.1856646104305982,-0.0017859349027276,-0.0160928927361965,-0.0729694962501525
1783197306656785000,1.991784912109375,-0.0481215682860463,0.0162540924474596,-0.1259849254935979,0.0061553968116641,-0.0078818276524543,-0.0733461380004882
1783197306666721800,2.0017216796875,-0.0133885469485074,-0.0052624505728483,-0.0789163003265857,0.0077543584629893,-0.0010518846102058,-0.0699183866381645
1783197306676658700,2.01165869140625,0.0088101331170648,-0.0517629204630851,-0.0597030658125877,0.0029423534870147,0.0023802297655493,-0.0688280090689659
1783197306686596600,2.0215966796875,0.0374414765786379,-0.052762745155394,-0.0577402413070201,-0.0054961396381258,-0.0039634201675653,-0.0689300075173378
1783197306696533800,2.03153369140625,0.105095355265215,-0.0819029149219393,-0.0782242264091968,-0.0148969292640686,-0.0119236707687377,-0.0617989599704742
1783197306706470700,2.041470703125,0.178389650991559,-0.1099175877898931,-0.1032604679882526,-0.0165946949273347,-0.0174966007471084,-0.0500941015779972
1783197306716408800,2.051408935546875,0.1979636085767298,-0.1190051496088504,-0.0996107133090496,-0.0158260501921176,-0.0156099153682589,-0.0382821075618267
1783197306726345700,2.061345703125,0.1878297525752335,-0.1274006375104188,-0.0735346072882413,-0.0112262396141886,-0.0082132527604699,-0.028200976550579
1783197306736284000,2.071283935546875,0.1513791867300868,-0.1470125159531831,-0.0648901130616664,-0.0093089872971177,-0.004101637750864,-0.0174588281661272
1783197306746220800,2.081220703125,0.1225257980156689,-0.1166278990834951,-0.0661690469563007,-0.0069832475855946,-0.0011591115035116,-0.0157224461436271
1783197306756157700,2.09115771484375,0.082828140008077,-0.1128612400263547,-0.0917342808455228,-0.0002307230606675,0.0003868732601404,-0.0094196917489171
1783197306766095600,2.101095703125,0.0373623469278216,-0.0990782138675451,-0.0918950243651866,0.0023538749665021,0.0055411551147699,-0.0111605999991297
1783197306776032800,2.11103271484375,0.001103138936311,-0.064392977194488,-0.0800602096647024,0.0042411340400576,0.0063901916146278,-0.014075837098062
1783197306785970700,2.120970703125,-0.0121382546264678,-0.0283083951175212,-0.0758750329345464,0.0053833639249205,0.0042293025180697,-0.0245585702359676
1783197306795907800,2.130907958984375,-0.0112965431053191,-0.0012222352713346,-0.0963625251680612,0.0065913018770515,-0.0112360836938023,-0.0296335536986589
1783197306805844700,2.1408447265625,0.0107959731720387,0.0178749716475605,-0.0987970588386058,0.0126214977353811,-0.0216708816587924,-0.0367282181978225
1783197306815783000,2.150782958984375,0.0108417850751429,0.0265171277865767,-0.0712386053055524,0.0143736042082309,-0.0204230975359678,-0.0418988540768623
1783197306825719800,2.1607197265625,-0.0196380357973277,0.0249614227771759,-0.0060930561780929,0.0186184160411357,-0.0042846081778407,-0.0405678078532218
1783197306835656700,2.17065673828125,-0.0286724061243236,0.0138946698397397,0.0475578699886798,0.0163168720901012,0.015242357738316,-0.0388667173683643
1783197306845594600,2.1805947265625,-0.0026987375646829,-0.0038216041147708,0.0777881730794906,0.0112669868394732,0.0294215586036443,-0.0287712067365646
1783197306855531800,2.19053173828125,0.0249833423480391,-0.010792612171173,0.0583580809444189,0.0012820959091186,0.038739874958992,-0.0236214064061641
1783197306865469700,2.2004697265625,0.0514184909395873,0.0006450199052691,-0.0119178168088197,-0.0081300484016537,0.0280347652733325,-0.0151450959965586
1783197306875406800,2.21040673828125,0.0651073360089212,0.0007388356685638,-0.0739572166144847,-0.0083373980596661,0.0185910612344741,-0.0111874425783753
1783197306885343700,2.22034375,0.0557136308502405,-0.022616905477643,-0.1595505104869604,-0.002884310670197,0.0125744473189115,-0.0085272109135985
1783197306895281700,2.23028173828125,0.0466493768416345,-0.006995557975769,-0.2366922023564577,0.0086566610261797,-0.005886741913855,-0.0129254087805747
1783197306905218800,2.24021875,0.045984483192116,-0.0089355861276388,-0.2916542111217975,0.0248127281665802,-0.0121893789619207,-0.0107679832726717
1783197306915156500,2.250156494140625,0.0655756841730326,-0.0288625218689441,-0.2836217113137245,0.0373783968389034,-0.0233587995171546,-0.0128435883671045
1783197306925093600,2.26009375,0.0808710145909339,-0.0556850623428821,-0.2286824989020824,0.042593665421009,-0.0279500894248485,-0.0059300218708813
1783197306935030800,2.27003076171875,0.0840618465214967,-0.0457692330062389,-0.1605225703895091,0.0495140776038169,-0.0226926188915967,-0.0053817392326891
1783197306944968700,2.27996875,0.0394051048018038,-0.0489759200930595,-0.0552630375385284,0.0449699275195598,-0.0087347263470292,-0.0031276398804038
1783197306954905900,2.28990576171875,-0.0213288384284824,-0.0525844659790396,0.0101145667791366,0.0438303612172603,0.0006454596295952,0.0030101472511887
1783197306964842800,2.2998427734375,-0.0251182938393205,-0.0249029705882072,0.0382481898516416,0.0372158661484718,0.0035118199884891,-0.0044869175180792
1783197306974780700,2.30978076171875,-0.0312278627607971,0.0151209967643022,0.0553992311388254,0.0294969100505113,0.0035740113817155,-0.0097143072634935
1783197306984717600,2.319717529296875,-0.0391919004425406,0.0026052140623331,0.1119517239660024,0.0175041630864143,0.0062600756064057,-0.0103910155594348
1783197306994655500,2.329655517578125,-0.0343644072208553,-0.0163213124647736,0.1282920333921909,-0.0015131346881389,0.0045162853784859,-0.011561831459403
1783197307004592600,2.339592529296875,0.0144200819533318,-0.0096077863007783,0.1209165361881256,-0.0177142098546028,3.84463928639e-05,-0.0047252308577299
1783197307014529800,2.34952978515625,0.057508697573468,-0.0068745619446039,0.0973024363666772,-0.0333279184997081,0.0014007473364472,0.0080799991264939
1783197307024467700,2.3594677734375,0.0318240020230412,-0.0127905079901218,0.05442074149549,-0.0407853014767169,0.0084565263241529,0.0153999645262956
1783197307034404900,2.36940478515625,-0.0020370587855577,0.0249582079067826,-0.0024251813203096,-0.0373488813638687,-0.0007054526358842,0.0149483773857355
1783197307044342800,2.3793427734375,-0.0294536926951259,0.1046282492101192,-0.0559966125100851,-0.0389307998120784,-0.0028405087068676,0.0045151785016059
1783197307054279700,2.38927978515625,-0.0709666564963757,0.1331049866318702,-0.0509819992184638,-0.0422725342214107,-0.0060741193592548,-0.0070490660145878
1783197307064216600,2.399216552734375,-0.0939507147859781,0.1084875549867749,-0.0556225185006856,-0.0385238677263259,-0.0029614167287945,-0.0139040425419807
1783197307074154500,2.409154541015625,-0.093864351676777,0.1122217730790376,-0.0900491042375564,-0.0287698917090892,0.0068272207863628,-0.0172684416174888
1783197307084091600,2.419091552734375,-0.1222659780357033,0.1174193417221307,-0.1387929691404104,-0.013586145825684,0.0131857842206954,-0.0250778961926698
1783197307094029600,2.429029541015625,-0.1449446236379444,0.1215858137518167,-0.1998492031276225,0.0016341563314199,0.0138967242091894,-0.0373860299587249
1783197307103966700,2.438966796875,-0.1327631143916398,0.1232838498413562,-0.2130348479151725,0.010006601922214,0.0024107762146741,-0.0487007349729537
1783197307113903900,2.44890380859375,-0.0812746269557625,0.0875301071539521,-0.2270972755372524,0.0147160263732075,-0.0093157347291708,-0.0557344406843185
1783197307123841800,2.458841796875,0.0030568302873522,0.031837446026504,-0.2512169867932796,0.0270608440041542,-0.0205731820315122,-0.0503103770315647
1783197307133778700,2.46877880859375,0.0907418357420712,0.0066267246633768,-0.2371434532552957,0.0349175408482551,-0.0228643156588077,-0.0386194922029972
1783197307143716900,2.478716796875,0.1228113369587808,-0.0453130136713385,-0.1893009211063384,0.0376571342349052,-0.0244494285434484,-0.0288163963705301
1783197307153653500,2.488653564453125,0.1250257250726223,-0.0736249159201979,-0.1371475400209426,0.0396718829870224,-0.0235104449093341,-0.0178611949086189
1783197307163590700,2.498590576171875,0.111478845757246,-0.0601569470599293,-0.0811702167332172,0.0360390655696392,-0.0273113101720809,-0.0144139984622597
1783197307173528600,2.508528564453125,0.056699792343378,-0.062173547579348,-0.0270832372367382,0.0355377197265625,-0.021735256537795,-0.0172546859830617
1783197307183465700,2.5184658203125,0.0059402037039399,-0.0331605113238096,0.0042436289191246,0.030362132936716,-0.0205709226429462,-0.0172078143805265
1783197307193403600,2.528403564453125,-0.0103536362320184,-0.0160790281414985,0.0315565832585096,0.0215668212622404,-0.0207291021943092,-0.0262364037334918
1783197307203340800,2.5383408203125,-0.0065074821978807,-0.0359659241333603,0.0550543632239103,0.0152151826769113,-0.0086695114150643,-0.0284979604184627
1783197307213278700,2.54827880859375,-0.000367372007668,-0.0351405792251229,0.086269585698843,0.0053439647890627,-0.0016932869330048,-0.0218222457915544
1783197307223215900,2.5582158203125,0.0257922475781291,-0.058913669000566,0.0768435857057571,-0.0034998608753085,0.0050077587366104,-0.0144524816423654
1783197307233152500,2.568152587890625,0.0628283582262694,-0.066589902716875,0.0392144045352935,-0.0069253416731953,0.0064964396879076,-0.0013361391611397
1783197307243090700,2.578090576171875,0.082358184408769,-0.0289154210999608,-0.0181792152911424,-0.0069186827167868,0.0028457785956561,0.0033009571488946
1783197307253027600,2.588027587890625,0.0745791479051113,0.0116901455327868,-0.0770288791447877,-0.0055530136451125,-0.0014570909552276,0.0010915987659245
1783197307262965800,2.5979658203125,0.0476287432678043,0.0362076239347457,-0.1264741703152656,-0.0013297731056809,-0.0221647657454013,0.0013022546190768
1783197307272902700,2.607902587890625,0.0260461492739617,0.0526125230297446,-0.1258995852977037,-0.0024515613913536,-0.0227901022881269,0.0006748300511389
1783197307282839800,2.61783984375,-0.0217765821959823,0.046632571837306,-0.0939449426323175,-0.0007484694942831,-0.0187239870429039,-0.0042951609939336
1783197307292777700,2.62777783203125,-0.0405578550335019,0.0234817056134343,-0.0924281083285808,0.0081050340086221,-0.0050539188086986,-0.0069496976211667
1783197307302714600,2.637714599609375,-0.0576804739437997,0.00634089345932,-0.1152823296934366,0.0237910524010658,0.0094083771109581,-0.0055036013945937
1783197307312652500,2.647652587890625,-0.0897829275820404,0.032296295709908,-0.1648246514976024,0.0434137620031833,0.0126541629433631,-0.0167650058865547
1783197307322589700,2.657589599609375,-0.0951129634983837,0.0557572507962584,-0.1971785226136445,0.0584976375102996,0.007295083720237,-0.0337000489234924
1783197307332527600,2.667527587890625,-0.0613760405261069,0.0460249613329768,-0.1922246995985508,0.0668523237109184,0.0024219802580773,-0.0366167165338993
1783197307342464800,2.67746484375,0.0018987462934106,0.0005702011033892,-0.1340548347026109,0.0640735775232315,-0.0058327540755271,-0.0293532125651836
1783197307352401700,2.687401611328125,0.0686830025386065,-0.0513505402699112,-0.1024386302113533,0.057484645396471,-0.0137731581926345,-0.0255939327180385
1783197307362339800,2.69733984375,0.0972410615682601,-0.0601680529758334,-0.0732780021786689,0.0510925240814685,-0.0202454384416341,-0.012576668523252
1783197307372276700,2.70727685546875,0.1173793750379234,-0.0614843962714076,-0.0499614239990711,0.0501479245722293,-0.0256073884665966,0.0021501234732568
1783197307382215000,2.71721484375,0.1158018965881317,-0.0552145222216844,-0.021902619728446,0.0408995635807514,-0.0207346007227897,0.0108429472893476
1783197307392151600,2.727151611328125,0.0680721040986478,-0.0334425431355834,0.0180453597784042,0.0301213003695011,-0.0180524140596389,0.0096145691350102
1783197307402088700,2.737088623046875,0.0101384591113775,0.0227463770762085,0.0709358229666948,0.0206236708909273,-0.013673379085958,0.0009891225490719
1783197307412026600,2.747026611328125,-0.0345431978538632,0.0405102895647287,0.1161988600164651,0.0101128024980425,-0.004593682475388,-0.0050254464149475
1783197307421963800,2.7569638671875,-0.0458921287335455,0.0498670237138867,0.1244932256311178,0.0078794751316308,0.0006708540022373,-0.0112220896407961
1783197307431901700,2.766901611328125,-0.0553567802365869,0.0435194082528352,0.1131681140184402,-0.0025445874780416,0.0124722365289926,-0.0148851312696933
1783197307441838800,2.7768388671875,-0.0511919887073338,-0.0063356327623128,0.0876145705670118,-0.0153879486024379,0.010096963495016,-0.008648807182908
1783197307451776800,2.78677685546875,0.0100432551085948,-0.034881051506102,0.0340899011284112,-0.0257864333689212,0.0092830900102853,-0.0013502724468708
1783197307461713700,2.796713623046875,0.0288080152027308,-0.0344493820905685,-0.0154845693796873,-0.0253715105354785,0.006986646912992,0.0031850908417254
1783197307471650600,2.806650634765625,0.008259148170799,-0.0209328979134559,-0.0636503421336412,-0.0206575393676757,0.0043941144831478,0.0110363326966762
1783197307481588500,2.81658837890625,-0.0312692907497286,0.0069756842315196,-0.1297533381164073,-0.0160044617950916,0.0011093714274466,0.0108294039964675
1783197307491525600,2.826525634765625,-0.0452238740831613,0.056552492827177,-0.1586445015579461,-0.0095502026379108,-0.010188952088356,-0.0017957802629098
1783197307501463600,2.836463623046875,-0.0605815291475504,0.071317808021605,-0.1785106470227241,-0.0006680274382233,-0.0040748659521341,-0.0065215593203902
1783197307511400700,2.846400634765625,-0.0764225838147103,0.0323798823401331,-0.2087310132414102,0.0067099016159772,-0.007491691969335,-0.0152853643521666
1783197307521338600,2.856338623046875,-0.0518983103457838,0.021926877386868,-0.246766437125206,0.0200603287667036,-0.0175962559878826,-0.0236468911170959
1783197307531275800,2.86627587890625,-0.0251085030976682,0.0467787023097276,-0.2445329789847135,0.0359861254692077,-0.0231863148510456,-0.0312031637877225
1783197307541212700,2.876212646484375,-0.0009404226552695,0.032986323800683,-0.1915460696846246,0.0442142263054847,-0.0225809812545776,-0.0321493856608867
1783197307551150600,2.886150634765625,-0.0062877019673585,0.0175654673069715,-0.127296008092165,0.0505858398973941,-0.0160785093903541,-0.03301502764225
1783197307561087500,2.89608740234375,-0.0109639501500874,0.0148445179104804,-0.0404021530151367,0.0534929446876049,-0.0024559069424867,-0.036979142576456
1783197307571025700,2.906025634765625,-0.0191583625216037,0.0113306645706295,0.0349397959560155,0.0490366742014884,0.0047995359636843,-0.0388174802064895
1783197307580962600,2.915962646484375,0.0064103054337203,-0.0226756499275565,0.0742190824210643,0.0460496731102466,0.0087245032191276,-0.0286636482924222
1783197307590900700,2.925900634765625,0.0872722599353641,-0.058348436333239,0.0581476530641317,0.0348166301846504,-0.0003712964244186,-0.0109266396611928
1783197307600837600,2.935837646484375,0.1502103621464222,-0.0691316961541771,0.058714054775238,0.0188754834234714,-0.0092334980145096,0.0021422908175736
1783197307610774800,2.94577490234375,0.1399775758150964,-0.049224926418066,0.0935667569696903,-0.0003004241734743,-0.0110406391322612,0.0080210389569401
1783197307620712700,2.955712646484375,0.0515911440927535,-0.0429237804472446,0.1394312670439481,-0.0222768280655145,-0.0060344291850924,0.0037149738054722
1783197307630649600,2.965649658203125,-0.0351950858913362,-0.0367675959050655,0.1675491080254316,-0.0358206219971179,-0.0011048410087823,-0.0023748339153826
1783197307640587500,2.97558740234375,-0.0696961251039058,-0.0096504563987255,0.1512111366868019,-0.0422939695417881,0.0096569927409291,-0.0082753337919712
1783197307650524700,2.985524658203125,-0.0627406799428165,0.0008344049975275,0.1317331137567758,-0.0485103018581867,0.021064955741167,-0.0144988391548395
1783197307660462600,2.995462646484375,-0.0614000059235841,0.0109936877012252,0.0986959365516901,-0.0468162670731544,0.0329325310885906,-0.0128490105271339
1783197307670399700,3.005399658203125,-0.0342012525483965,-0.0083460958018898,0.0315635975211858,-0.0461051985621452,0.0335717648267746,-0.0093608424067497
1783197307680337700,3.015337646484375,0.0111531891118735,0.0028536358654499,-0.0698772538244724,-0.0501702465116977,0.0316050201654434,-0.0063892863690853
1783197307690274800,3.02527490234375,0.0543367164738476,0.0148880647912621,-0.0892979936093091,-0.0550106465816497,0.0267165079712867,-0.0010871838312596
1783197307700211700,3.035211669921875,-0.0212962513331323,0.0293748553052544,-0.1173743335366249,-0.0440562665462493,0.0195030681788921,-0.004571930039674
1783197307710150000,3.04514990234375,-0.022293226481229,0.053130117163062,-0.1847252837538719,-0.0366995483636856,0.0133224055171012,-0.0098199555650353
1783197307720086500,3.05508642578125,-0.0452641330283135,0.0526356116443872,-0.2110936507195234,-0.030611827969551,0.0121053401380777,-0.0160243213176727
1783197307730024700,3.065024658203125,-0.0616891250632703,0.0294511354118585,-0.1738262885987758,-0.0250932984054088,0.0432266592979431,-0.0212890785187482
1783197307739961600,3.074961669921875,-0.1433598386645317,0.0253372703522443,-0.0670335548311471,-0.0174385756254196,0.0209788773208856,-0.035274401307106
1783197307749899500,3.0848994140625,-0.0966297978021204,0.0496378911331295,-0.1310766956746578,-0.0141260465607047,0.0206384919583797,-0.0383922159671783
1783197307759836700,3.094836669921875,-0.056521293971315,0.0492848399117588,-0.1242436347842216,-0.0049104439094662,0.0099522927775979,-0.0422324948012828
1783197307769774600,3.104774658203125,-0.0503497657295316,0.0402788188964128,-0.1908013887971639,0.0057398839853703,-0.0129640223458409,-0.0454171858727932
1783197307779711700,3.114711669921875,-0.0125292267054319,0.0579740500628948,-0.2073538796693086,0.0111285243183374,-0.0247309319674968,-0.0514668226242065
1783197307789649000,3.12464892578125,-0.0259171160668134,0.0529693736433982,-0.125498018759489,0.0148790432140231,-0.0145927835255861,-0.0584595575928688
1783197307799586800,3.1345869140625,-0.0841479904349893,0.060069853298366,-0.0421983887821435,0.0237846542149782,0.0086414320394396,-0.064594954252243
1783197307809523500,3.1445234375,-0.0825135941661894,0.0410901352792978,-0.0164396781474351,0.0285462141036987,0.0201293788850307,-0.0627330765128135
1783197307819461600,3.154461669921875,0.0048358226586133,0.02022591868788,-0.0237409410715103,0.0286857634782791,0.01736874692142,-0.0545190833508968
1783197307829398500,3.1643984375,0.0834027250256389,-0.0078583122849464,-0.0609030892521142,0.026744557544589,0.007995274849236,-0.045225866138935
1783197307839336700,3.174336669921875,0.1355412008028477,-0.0403919238820672,-0.0975830068737268,0.022116782143712,-0.011934757232666,-0.0332943722605705
1783197307849273600,3.184273681640625,0.13421046365574,-0.0485454197213053,-0.0840916571378707,0.0131178060546517,-0.0201614201068878,-0.0255883783102035
1783197307859211800,3.194211669921875,0.0879440217170864,-0.0679863255113363,-0.0213864868998527,0.0048289829865098,-0.0135424016043543,-0.0219425112009048
1783197307869148700,3.204148681640625,0.0231251472607254,-0.0616664748400449,0.0532172109246253,-0.0008403630927205,0.0004700166173279,-0.0248695518821477
1783197307879085800,3.2140859375,-0.021635420159623,-0.0494260019481182,0.0976917279452085,-0.0077930772677063,0.0143104651942849,-0.0294999908655881
1783197307889023700,3.224023681640625,-0.021885303267464,-0.0568640429943799,0.0931248584210872,-0.0058446964249014,0.0248349830508232,-0.0296802129596471
1783197307898960600,3.233960693359375,0.0456582469124347,-0.1007782957836985,0.0195014038056135,-0.00536026712507,0.0239359010010957,-0.0168586894869804
1783197307908898600,3.243898681640625,0.1252454322379082,-0.1245049160689115,-0.0559767387658357,-0.0068114474415779,0.012634202837944,-0.011538527905941
1783197307918835700,3.253835693359375,0.1793084463369101,-0.1290641868084669,-0.0738216075360775,-0.0039919577538967,0.0032191290520131,0.0026396084576845
1783197307928773600,3.263773681640625,0.1507280293449759,-0.1377308928668499,-0.0572878213644027,-0.0081691546365618,0.0065617910586297,0.014491818845272
1783197307938710800,3.273710693359375,0.1077343254666775,-0.151102707876265,-0.029426000970602,-0.0092336190864443,0.0100444070994853,0.0211388021707534
1783197307948648700,3.283648681640625,0.0475680991217494,-0.125160457368195,0.0141565356463193,-0.0088500194251537,0.0202195812016725,0.0190342813730239
1783197307958585900,3.2935859375,0.0034744711775332,-0.1198930383592843,0.0480430231571197,-0.0223772805184125,0.0291957668960094,0.0222143642604351
1783197307968523800,3.303523681640625,0.023425810707733,-0.1805681640744209,0.0227273801147937,-0.0286649018526077,0.0243238154798746,0.0309816654771566
1783197307978460700,3.313460693359375,0.0942527664724737,-0.2016799256861209,-0.0483995815098285,-0.0283581055700778,0.0141822313889861,0.0415147356688976
1783197307988398800,3.32339892578125,0.1398434280414134,-0.1698039012148976,-0.095963881239295,-0.0200473666191101,0.0015227939002215,0.0520581752061843
1783197307998335500,3.33333544921875,0.1205998714543879,-0.1765069059848785,-0.1024842229187488,-0.0059853410348296,0.0021366528235375,0.0614418238401412
1783197308008272600,3.343272705078125,0.0590445288386195,-0.1711988627046346,-0.0988759692937135,0.0075221983715891,0.0111015830188989,0.0649359300732612
1783197308018210600,3.35321044921875,-0.0253968915849924,-0.1480278304755687,-0.0751537329226732,0.0225986205041408,0.0257002338767051,0.0637622773647308
1783197308028147700,3.363147705078125,-0.0672292965989559,-0.1292617552071809,-0.0538449874341487,0.0376437827944755,0.0340445823967456,0.0653020516037941
1783197308038085600,3.373085693359375,-0.0726000298518687,-0.1220090075999498,-0.0563128388524055,0.0458090342581272,0.0326632000505924,0.0679444447159767
1783197308048022800,3.383022705078125,-0.0341145971782505,-0.1374690270602703,-0.0589063624769449,0.05496421828866,0.0256058610975742,0.0726100727915763
1783197308057960700,3.392960693359375,-0.0049212359197437,-0.1057493621945381,-0.0287801042824983,0.0615254454314708,0.0206411965191364,0.0757696479558944
1783197308067897900,3.40289794921875,-0.0125450818616896,-0.071627312362194,0.0500631308078765,0.059768408536911,0.0310962609946727,0.0866499319672584
1783197308077835800,3.412835693359375,-0.0337844153758138,-0.04036795848459,0.1585135686546564,0.0471295788884162,0.0472914725542068,0.0984410718083381
1783197308087772700,3.422772705078125,-0.049030499824509,0.0148661452203989,0.2190583459883928,0.0250860042870044,0.0572233721613884,0.1058917716145515
1783197308097710600,3.432710693359375,-0.0902837897762656,0.0806254423320293,0.2249181779325008,-0.0071353139355778,0.0530057214200496,0.1027148887515068
1783197308107647700,3.442647705078125,-0.1397157830737531,0.1551455535262823,0.1852484308451414,-0.039464384317398,0.0499079711735248,0.0935284867882728
1783197308117584600,3.452584716796875,-0.1909818599306046,0.2215653603732585,0.1114063650429248,-0.0554502829909324,0.038040392100811,0.0628273040056228
1783197308127522800,3.462522705078125,-0.2386837414998561,0.2825488213852047,-0.0166144501924514,-0.0491565018892288,0.0202587340027093,0.024135960265994
1783197308137459700,3.472459716796875,-0.2019332428600639,0.3153951521933079,-0.1163011513471603,-0.0214095581322908,0.0180626921355724,-0.0082643246278166
1783197308147397600,3.482397705078125,-0.1041681574176996,0.2895426257953047,-0.1386047530919313,0.0088327527046203,0.0279394835233688,-0.0248048808425664
1783197308157334500,3.49233447265625,-0.011454217885062,0.1992003838300705,-0.1210614976167678,0.0401438027620315,0.0502378642559051,-0.0254746656864881
1783197308167272400,3.5022724609375,0.0539513704180717,0.1284901863127946,-0.0554845713347196,0.0571032017469406,0.0844863131642341,-0.0187554880976676
1783197308177209600,3.512209716796875,0.0791444830592721,0.0926125249847769,0.0093429978847503,0.0537066049873828,0.1038578823208808,-0.0103383008390665
1783197308187147500,3.5221474609375,0.0548420356474816,0.069402329789102,-0.0176502229809761,0.0361838042736053,0.1050736159086227,-0.0055139847099781
1783197308197084700,3.532084716796875,0.0587990296449512,0.0810091809526085,-0.0988672014653682,0.012342388741672,0.0872687846422195,-0.0045445943251252
1783197308207022600,3.542022705078125,0.0671474635343998,0.0577472555696964,-0.2014887870281934,-0.0153169929981231,0.0618064701557159,-0.004612797871232
1783197308216959700,3.551959716796875,0.0570600770231336,0.0536237458989024,-0.3133616005390882,-0.0500882938504219,0.0269140005111694,-0.0075776949524879
1783197308226897700,3.561897705078125,0.1128634319834411,0.0441325717151164,-0.3963713076591491,-0.0858657285571098,-0.0075017642229795,-0.0036354179028421
1783197308236834600,3.57183447265625,0.1648997625604271,0.0363812269359827,-0.4755249238729476,-0.1109300702810287,-0.0453932210803031,-0.0107228886336088
1783197308246772500,3.5817724609375,0.1763797724738717,0.0395034506097435,-0.575665798535943,-0.116129994392395,-0.0673440992832183,-0.011694585904479
1783197308256709400,3.59170947265625,0.1188319119337946,0.0514858570873737,-0.6570446895837784,-0.0916803181171417,-0.0787187218666076,-0.0216920934617519
1783197308266647300,3.601647216796875,0.0814534175887703,0.0613327128410339,-0.6947650561690331,-0.0489546917378902,-0.0873222574591636,-0.0383584275841712
1783197308276584400,3.61158447265625,0.0841196411233395,0.0482964133962988,-0.7037298683911561,0.0050297137349843,-0.0922317951917648,-0.0395517908036708
1783197308286522400,3.6215224609375,0.1138456479538232,0.0074365797415375,-0.678742726650834,0.0629742443561554,-0.0888499170541763,-0.0339743271470069
1783197308296459500,3.63145947265625,0.0941772170182317,-0.0293538125172257,-0.5943325050830841,0.1185003519058227,-0.0819494053721427,-0.0307692103087902
1783197308306396400,3.641396484375,0.0581705224830657,-0.0256523276507854,-0.4566220704823732,0.1611585617065429,-0.0807456895709037,-0.0293716192245483
1783197308316334600,3.65133447265625,0.0032000381503254,-0.0200064307183027,-0.2713642872869968,0.1892881989479065,-0.0762963443994522,-0.0321250632405281
1783197308326271500,3.661271484375,-0.0645882805708795,-0.0008311901271343,-0.0666699822157621,0.1993491351604461,-0.0664259642362594,-0.03825593739748
1783197308336209400,3.67120947265625,-0.1088755313910543,0.0063718731194734,0.1432277367174625,0.1967432349920272,-0.053078468888998,-0.044911440461874
1783197308346146300,3.681146240234375,-0.1264262395203113,-0.0087286653786897,0.3239437848299741,0.1884297579526901,-0.0349813848733902,-0.0468580462038517
1783197308356084200,3.691084228515625,-0.1234009734150022,-0.0040460605204105,0.4366238230705261,0.1767632514238357,-0.0156292580068111,-0.0453107506036758
1783197308366021400,3.701021484375,-0.0653991585623472,-0.0113087449997663,0.5177361721366643,0.1421786546707153,0.0058838478289544,-0.025004556402564
1783197308375959300,3.710959228515625,-0.0725648854732513,-0.0440869790077209,0.6282043795466423,0.0801017060875892,0.0142485704272985,-0.0164046771824359
1783197308385896400,3.720896484375,-0.0829221749670803,-0.0283422973871231,0.6642576897025108,0.0153570771217346,0.0034799792338162,-0.0097823468968272
1783197308395834400,3.73083447265625,-0.1053101670596748,0.0314531228840351,0.6597405045390129,-0.046869546175003,0.0021918080747127,-0.0084116179496049
1783197308405771500,3.740771484375,-0.1069178945172578,0.0533750318348407,0.6109925479829311,-0.0989379659295082,0.0030449212063103,-0.0098538184538483
1783197308415709400,3.75070947265625,-0.101293478764221,0.09873334595263,0.4978793790221214,-0.1245764791965484,-0.0029842089861631,-0.0124397473409771
1783197308425646600,3.760646484375,-0.0756764416225254,0.1622352195262908,0.3611462650209665,-0.1362442672252655,0.0067616594024002,-0.0192595347762107
1783197308435584500,3.77058447265625,-0.0512629350516945,0.1673436485812068,0.2288309674620628,-0.1330516785383224,0.0152566106989979,-0.0198294501751661
1783197308445521400,3.780521484375,-0.0696933486249297,0.1380409817293286,0.0988344682395458,-0.1266914308071136,0.0208783186972141,-0.0335605032742023
1783197308455459300,3.790459228515625,-0.063304743566364,0.1268082245752215,-0.0108563250571489,-0.1221502050757408,0.0184476524591445,-0.0386314280331134
1783197308465396500,3.800396484375,-0.0382914444714784,0.1015425581544637,-0.0856038152664899,-0.1202018782496452,0.0175948031246662,-0.0419617369771003
1783197308475334400,3.81033447265625,0.0079166914086788,0.049698681409657,-0.1604331385403871,-0.1157362833619117,0.0124959135428071,-0.0372314304113388
1783197308485271600,3.820271484375,0.039600992700085,0.0320610256493091,-0.2496107206404209,-0.1041603833436966,0.0043917871080338,-0.0378356240689754
1783197308495209500,3.83020947265625,0.0305284823197871,0.0381888608798384,-0.308942030531168,-0.087422676384449,0.0025153236929327,-0.0397360548377037
1783197308505146600,3.840146728515625,-0.0124137105669826,0.0357286082461476,-0.3507166409432888,-0.0701889321208,-0.0058304565027356,-0.0463110841810703
1783197308515084500,3.85008447265625,-0.0515111376591026,-0.0083960724234581,-0.383816361990571,-0.0454817153513431,-0.0164631269872188,-0.0581123493611812
1783197308525021400,3.860021484375,-0.0298183612890541,-0.0400870957165956,-0.4067033165812492,-0.0138087691739201,-0.0171867720782756,-0.0606724061071872
1783197308534959400,3.86995947265625,0.0161029204737395,-0.098224227386713,-0.4202367518931627,0.0233292784541845,-0.0153180323541164,-0.0490272007882595
1783197308544896300,3.879896240234375,0.0659504357695579,-0.1416352068290114,-0.413798243278265,0.0610998831689357,-0.0060042971745133,-0.0424676463007926
1783197308554834400,3.88983447265625,0.0679931205783039,-0.1254334290906786,-0.3428191656917333,0.0949899330735206,0.0074790213257074,-0.0332565754652023
1783197308564771300,3.899771240234375,0.0366770680774003,-0.1183639290958643,-0.2669540696293115,0.1180174201726913,0.0172216370701789,-0.0348611623048782
1783197308574709500,3.90970947265625,0.007056202121824,-0.0893204977020621,-0.1831067426413297,0.1336134225130081,0.0180903617292642,-0.0377182029187679
1783197308584646400,3.919646484375,0.0017470628630369,-0.04287643417418,-0.0821878693431615,0.1389402747154235,0.0216517634689807,-0.0394743606448173
1783197308594583600,3.92958349609375,0.0267860809210687,-0.0407280239686369,-0.0067336921691894,0.1321241706609726,0.0193047188222408,-0.0365382246673107
1783197308604521500,3.939521484375,0.0684211367320269,-0.0627805735617876,0.0515261890977621,0.113282099366188,0.0194648243486881,-0.0307357870042324
1783197308614458400,3.949458251953125,0.0942728594124317,-0.0576359041497111,0.0901578253090381,0.0963214933872222,0.0151670146733522,-0.0245316866785287
1783197308624396300,3.959396240234375,0.0936105230461806,-0.0638379736602306,0.096463647454977,0.0881100445985794,0.017814390361309,-0.0184942763298749
1783197308634333400,3.96933349609375,0.0926231925092637,-0.067059858316183,0.0863414818912744,0.0741295143961906,0.0123485177755355,-0.010944215580821
1783197308644271400,3.979271240234375,0.1184762303639203,-0.0785901371121406,0.092679452741146,0.0520290993154048,0.0079436153173446,-0.0039766379632055
1783197308654208500,3.98920849609375,0.1235181700538843,-0.0951923123449087,0.0813613553911447,0.0371729210019111,0.0016617509536445,0.006650973111391
1783197308664146400,3.999146484375,0.1047750372696667,-0.1004950949281454,0.068937927147746,0.031001154333353,0.0174677427858114,0.0125049296766519
1783197308674083600,4.00908349609375,0.0409220852360129,-0.0499006337225437,0.0049754503250122,0.0384801104664802,0.0067533133551478,0.021771665662527
1783197308684021500,4.019021484375,-0.0042133799113333,-0.0464341266557574,-0.1736672986447811,0.0347210578620433,-0.0221049673855304,0.016284754499793
1783197308693958400,4.02895849609375,0.0267657687854021,0.0422290761813521,-0.2369301027655601,0.0356523655354976,-0.0468862131237983,0.003245385363698
1783197308703896600,4.038896484375,0.0336252792913466,0.0487657844737172,-0.2448427755862474,0.0457510203123092,-0.0464292205870151,0.0025419041048735
1783197308713833200,4.048833251953125,-0.0266179578125476,-0.0045183542072772,-0.2139467020630836,0.0539690032601356,-0.0293769985437393,0.0039254166185855
1783197308723771400,4.058771484375,-0.0197971718817949,-0.0187055772528052,-0.2205547220259904,0.0598062686622142,-0.0365587286651134,0.0068100406788289
1783197308733708300,4.068708251953125,0.0295569338738918,-0.0036626141607761,-0.2391442716836929,0.0611599534749984,-0.0385025702416896,0.0067605064250528
1783197308743646500,4.078646484375,-0.0136806617628782,0.0061117608785629,-0.2136930195629596,0.0685230121016502,-0.0401797890663147,0.0049113985151052
1783197308753583400,4.088583251953125,-0.0545451715927571,0.0112774730786681,-0.2174117478251457,0.0782315656542778,-0.036017533391714,0.0014735232107341
1783197308763521500,4.098521484375,-0.0700024145741015,0.0446162635788321,-0.1900584614753723,0.0801511853933334,-0.0463547445833683,-0.0077926311641931
1783197308773458400,4.10845849609375,-0.0759891608335077,0.0974400912716984,-0.163072254872322,0.0790646225214004,-0.059494249522686,-0.0203504990786314
1783197308783396600,4.118396728515625,-0.0840047095067799,0.0989803064510226,-0.1383563312888145,0.0685471147298812,-0.0677417665719986,-0.0317481197416782
1783197308793333500,4.12833349609375,-0.056962827193737,0.0659153644561767,-0.1047439845442771,0.0628804415464401,-0.0754558742046356,-0.0448420830070972
1783197308803271400,4.138271484375,-0.0669138009089976,0.0658989978432655,-0.0786228703379631,0.063540443778038,-0.0798080563545227,-0.0512429401278495
1783197308813208300,4.148208251953125,-0.0526297664254903,0.0720367699459195,-0.0482090273737907,0.0649527162313461,-0.0824778750538826,-0.0513124465942382
1783197308823146200,4.158146240234375,-0.0102262104600667,0.0113449853569269,-0.0430991370141506,0.0622332654893398,-0.080134317278862,-0.0476101338863372
1783197308833083400,4.16808349609375,0.0091959175642579,-0.0229758019179105,-0.0257563725471496,0.0535452365875244,-0.0922785997390747,-0.0434510745108127
1783197308843021300,4.178021240234375,0.0416796986702829,-0.0339940395385026,-0.0761117642998695,0.0519825741648674,-0.101730078458786,-0.0444523245096206
1783197308852958500,4.18795849609375,0.0451640336547046,0.0098795889794826,-0.1097369705259799,0.0590671151876449,-0.0985270962119102,-0.0422485582530498
1783197308862896400,4.197896484375,0.0121676999166607,0.0407215942278504,-0.1247626902222633,0.0665278434753418,-0.1022526770830154,-0.0405414700508117
1783197308872833500,4.20783349609375,0.0012916472457349,0.0514160067215561,-0.1063847374886274,0.0541513375937938,-0.101516842842102,-0.0402354747056961
1783197308882771500,4.217771484375,0.0185905725710093,0.0381444372162222,-0.0447697005748748,0.0425944291055202,-0.1209249794483184,-0.0508063323795795
1783197308892708600,4.22770849609375,-0.0155637720957398,0.0314279884427785,-0.0334685543596744,0.0203391909599304,-0.1155347377061843,-0.0472265109419822
1783197308902646500,4.237646484375,-0.0149169986248016,0.0120338444039225,0.0082744918704032,0.0166993532329797,-0.0926336497068405,-0.0361112244427204
1783197308912583400,4.24758349609375,-0.0378991572182625,0.0109723526522517,0.0242594119876623,0.0125370994210243,-0.062135923653841,-0.0293156374245882
1783197308922521300,4.257521240234375,-0.0801752143464982,0.0368456295773386,0.0293500131249427,0.0158406235277652,-0.0692631006240844,-0.0447147451341152
1783197308932458500,4.26745849609375,-0.0562814208008348,0.070668696463108,-0.0790893188059329,0.0198611989617347,-0.0729294791817665,-0.05528349801898
1783197308942396400,4.277396484375,-0.0233092716559767,0.0967936100617051,-0.1033960770666599,0.0294322967529296,-0.0758010074496269,-0.0522616580128669
1783197308952333600,4.28733349609375,0.0027818858034908,0.044847734247148,-0.1315805535435676,0.0302762519568204,-0.0863378047943115,-0.0533056184649467
1783197308962271500,4.297271484375,0.0028049744181334,0.0268885914474725,-0.1100596266090869,0.0260598175227642,-0.0943206623196601,-0.0552477501332759
1783197308972209400,4.30720947265625,-0.0246793909654021,0.0067240475580096,-0.0391670582622289,0.0217135362327098,-0.0803166925907135,-0.0458848774433136
1783197308982146600,4.317146484375,-0.0871438843153417,-0.0232782919958233,-0.0140226801335811,0.0239598974585533,-0.0684737786650657,-0.0602378286421299
1783197308992084500,4.32708447265625,-0.1294235216401517,0.0488236521407961,-0.0784200412422418,0.0328338146209716,-0.077827863395214,-0.0728047490119934
1783197309002021400,4.337021484375,-0.1511044614419341,0.0849447668358683,-0.1463221956014633,0.0442210547626018,-0.08709117770195,-0.0851565450429916
1783197309011959300,4.346959228515625,-0.1916528910599648,0.08622837690562,-0.2369493919879197,0.0561669282615184,-0.1074630171060562,-0.0962470099329948
1783197309021896400,4.356896484375,-0.1960534641064703,0.0850321528583765,-0.3138169430911541,0.0487373992800712,-0.0770429298281669,-0.0851033478975296
1783197309031834400,4.36683447265625,-0.2171533891499042,0.0553475009515881,-0.2507365097999572,0.0568507201969623,-0.1110259294509887,-0.110417753458023
1783197309041771500,4.376771484375,-0.1910855395007878,0.1151134028673172,-0.3709013508379459,0.066239520907402,-0.1438637971878051,-0.1473846137523651
1783197309051709400,4.38670947265625,-0.1708469074618071,0.2470546064168214,-0.381820804259181,0.0750524550676345,-0.1537710279226303,-0.1669396758079528
1783197309061646300,4.396646240234375,-0.0625316403020173,0.2086173237338662,-0.3229495130956172,0.1041159480810165,-0.1430871486663818,-0.1813022494316101
1783197309071584500,4.40658447265625,-0.0614860037066042,0.0837868289723992,-0.3278220875680446,0.1325241476297378,-0.1220790594816207,-0.1799530833959579
1783197309081521400,4.416521484375,-0.0428561220385134,0.0856374252751469,-0.2808534156441688,0.173491433262825,-0.112498790025711,-0.1873513609170913
1783197309091459600,4.42645947265625,-0.0553987927474081,0.1088593109086155,-0.2756780588328838,0.2007113397121429,-0.081041008234024,-0.1962455213069915
1783197309101396200,4.436396240234375,-0.037317777133733,0.1268707684174179,-0.1937169839829206,0.2217212319374084,-0.0671599209308624,-0.201693058013916
1783197309111334400,4.44633447265625,-0.0201086489837616,0.0957934931084513,-0.1211222878932952,0.2383790463209152,-0.0595470070838928,-0.2165742814540863
1783197309121271300,4.456271240234375,-0.0460419855330139,0.0691775811225175,-0.0340928237378597,0.2420077174901962,-0.027121027931571,-0.2184453457593917
1783197309131209500,4.46620947265625,-0.0408572033062577,0.0013841478347778,0.0469955599308013,0.2490001171827316,-0.0116706993430852,-0.211291030049324
1783197309141146400,4.476146484375,0.0509904747858643,-0.0272317057967185,0.0264268191546201,0.2547630369663238,-0.0110622532665729,-0.2017256021499633
1783197309151084500,4.48608447265625,0.127693190716207,-0.0238973006770014,-0.0176379480212926,0.2585684359073639,-0.0200759880244731,-0.1872875541448593
1783197309161021400,4.496021484375,0.1921695353452116,-0.0505690345034003,0.0260544787108898,0.2562960684299469,-0.033083003014326,-0.1752273738384246
1783197309170959400,4.50595947265625,0.1950782623987644,-0.0861284236624836,0.0582002600342035,0.2486487776041031,-0.0474294498562812,-0.1528546959161758
1783197309180896500,4.515896484375,0.1751340101964771,-0.1044037928044795,0.1059545293778181,0.2391812950372696,-0.0484086908400058,-0.1340155899524688
1783197309190834400,4.52583447265625,0.1638869322560727,-0.1070706739261746,0.1366156251013278,0.2258974611759185,-0.0517189987003803,-0.1201216205954551
1783197309200771300,4.535771240234375,0.1297504155069589,-0.0983934464737772,0.1634744059324264,0.218289315700531,-0.0475322380661964,-0.1078460663557052
1783197309210709200,4.545709228515625,0.1261463266003877,-0.1264244859546422,0.2061293063104152,0.2069794088602066,-0.0317873619496822,-0.0901144742965698
1783197309220646400,4.555646484375,0.0927559520434588,-0.1381374278411269,0.2593266434907913,0.1942150294780731,-0.0121820513159036,-0.0838978290557861
1783197309230584300,4.565584228515625,0.0284834594234824,-0.1031628528326749,0.2974164279103279,0.1864234209060669,0.0096928877755999,-0.0831910222768783
1783197309240521500,4.575521484375,-0.0078420187372714,-0.0794295105457305,0.337526904502511,0.1775998324155807,0.0362573862075805,-0.0834501534700393
1783197309250459400,4.58545947265625,-0.0177533910945057,-0.0572282001316547,0.3378770331144333,0.1646837592124939,0.0480868816375732,-0.0867633894085884
1783197309260396500,4.595396484375,-0.0237993932604789,-0.0439700746297836,0.2780371891796588,0.1557273417711258,0.0500346235930919,-0.090482510626316
1783197309270334500,4.60533447265625,0.0334222309999167,-0.0375789122879505,0.2354623683005571,0.1335517317056656,0.0456047244369983,-0.0866699293255806
1783197309280272400,4.6152724609375,0.0807692347168922,-0.0651046325951814,0.2086503492206335,0.1087023094296455,0.0344652533531188,-0.0831361785531044
1783197309290209500,4.62520947265625,0.1207732552599161,-0.119492640864849,0.1894657562792301,0.076414942741394,0.0233151316642761,-0.0648895353078842
1783197309300147500,4.6351474609375,0.1619789066776633,-0.1826718583554029,0.2203273430109024,0.0439653471112251,0.0118677411228418,-0.0404675081372261
1783197309310084400,4.64508447265625,0.1760817393753677,-0.2050415110737085,0.2054506763964891,0.0156562123447656,0.0050505809485912,-0.0217321701347827
1783197309320022300,4.655022216796875,0.1641498209759593,-0.2025087777256965,0.1709603777736425,-0.0135546484962105,0.0088159199804067,-0.0007412862032651
1783197309329959400,4.66495947265625,0.0908514335963875,-0.1743923980489373,0.1421843651443719,-0.0279210731387138,0.0107869254425168,0.0072668390348553
1783197309339897300,4.6748974609375,0.0015378770917654,-0.1175073122665286,0.0683235946416854,-0.0423835515975952,-0.0084590902552008,-0.0002084644511342
1783197309349834500,4.68483447265625,-0.0079539546791464,-0.0636228696048259,-0.0166635500311851,-0.0476001501083374,-0.0225253738462924,-0.0115513997152447
1783197309359772400,4.6947724609375,-0.0103958679385483,-0.0367944839119911,-0.0657704030275344,-0.0380112454295158,-0.02388571575284,-0.0139726437628269
1783197309369709600,4.70470947265625,-0.0168605339080095,-0.0243386147037148,-0.0999836382746696,-0.0151695804670453,-0.0050568999722599,-0.0118080265820026
1783197309379647500,4.7146474609375,-0.0360370896734297,-0.0069841597989201,-0.1095265426456928,0.0101121980696916,0.0161325186491012,-0.0105293532833457
1783197309389584600,4.724584716796875,-0.0479117249276489,-0.0054541737526655,-0.1088689555197954,0.0260181948542594,0.0292848050594329,-0.0193984806537628
1783197309399522600,4.7345224609375,-0.0472937391597777,0.0186883338570594,-0.114630587786436,0.0348339229822158,0.0301137510687112,-0.0216529592871665
1783197309409459500,4.74445947265625,-0.0183974611517041,0.0044511341899633,-0.0944558147639036,0.0288940072059631,0.0243536010384559,-0.0217179395258426
1783197309419397400,4.7543974609375,0.0340072643462568,-0.040250469584763,-0.0801443808168172,0.0197227485477924,0.0144432755187153,-0.0093983095139265
1783197309429334500,4.76433447265625,0.0937447438850998,-0.0558966592669486,-0.0621814386248588,0.0091641126200556,-0.0034017683938145,-0.001422407804057
1783197309439272400,4.7742724609375,0.1289217095978558,-0.088951372128725,-0.0266886849611997,-0.0057377070188522,-0.0153021868318319,0.0099919261410832
1783197309449210400,4.78421044921875,0.1373909933879971,-0.1117889346197247,0.0253705880999565,-0.0245401561260223,-0.0180047620087862,0.0195441525429487
1783197309459147500,4.7941474609375,0.0885601077888161,-0.1197895779848098,0.054409635579586,-0.0382800064980983,-0.0154957491904497,0.0268083792179822
1783197309469085400,4.80408544921875,0.040516280914098,-0.1080477022647857,0.0457066891640424,-0.0376208759844303,-0.0066322172060608,0.024456275627017
1783197309479022600,4.814022705078125,-0.0166545630071312,-0.0587710456594824,0.0234743990898132,-0.0277798864990472,0.0026604207232594,0.0238110944628715
1783197309488960500,4.82396044921875,-0.0344638490073382,-0.0512467876344919,-0.0044102176576852,-0.0207102578133344,0.0156625062227249,0.0255591925233602
1783197309498897400,4.8338974609375,-0.0344281201068311,-0.032406185825169,-0.0378349328756332,-0.0135216871276497,0.0188049264252185,0.0264018941670656
1783197309508835300,4.84383544921875,-0.0112247930433601,0.0013829787909984,-0.0883288563162088,-0.0147904166951775,0.0138059062883257,0.0232463143765926
1783197309518772500,4.8537724609375,-0.0078049746625125,0.0391480613008141,-0.1197597673684358,-0.0146812023594975,0.0033144233748316,0.013784990645945
1783197309528710400,4.86371044921875,-0.0453233158696442,0.0497933739557862,-0.1251665948480367,-0.0159067884087562,-0.0059752147644758,0.0040154503658413
1783197309538647300,4.873647216796875,-0.0832188198260962,0.0445545965194702,-0.0724988344997167,-0.0190176777541637,-0.0050784638151526,-0.0037992661818861
1783197309548585500,4.88358544921875,-0.0899738470442593,0.036494331921637,-0.0614396803468465,-0.016688210889697,-0.0005055498331785,-0.0074826842173933
1783197309558522400,4.8935224609375,-0.0701480335898697,0.0199918176710605,-0.0824035579204559,-0.0074011851102113,-0.0012873988598585,-0.0106380358338356
1783197309568460500,4.90346044921875,-0.056027080713585,0.0191261407524347,-0.1078314291656017,-0.0084725748747587,-0.0045638857409358,-0.0083961859345436
1783197309578397400,4.9133974609375,-0.0450927219841629,0.016598375840485,-0.092992756474018,-0.0101507045328617,-0.0076785227283835,-0.0068199629895389
1783197309588335600,4.923335693359375,-0.0387491981763392,0.0371314607813954,-0.0858615894198417,-0.0054355785250663,-0.0161287318915128,-0.0108322817832231
1783197309598273500,4.9332734375,-0.0379904156982898,0.0360302215412259,-0.095249595490098,-0.0058191707357764,-0.02000492811203,-0.0105105210095644
1783197309608210400,4.94321044921875,-0.0330118235681205,0.0240703191563487,-0.090271807077527,-0.0084636909887194,-0.0185830667614936,-0.01081199105829
1783197309618148400,4.9531484375,-0.055923474208638,0.0369032049834728,-0.0572100799530744,-0.006897535175085,-0.0173239801079034,-0.0185883827507495
1783197309628085200,4.963085205078125,-0.0688094784624874,0.0383940280631184,-0.0384025036305189,-0.0085100792348384,-0.0125454701483249,-0.0228217430412769
1783197309638023400,4.9730234375,-0.0948231137063354,0.0504299182936549,-0.0296884512990713,-0.0127792479470372,-0.0159730836749076,-0.0318866744637489
1783197309647960300,4.982960205078125,-0.0763834208481013,0.045483694063127,-0.0442763640999794,-0.0115978689864277,-0.0180005468428134,-0.0347812660038471
1783197309657898500,4.9928984375,-0.0569764173276722,0.0580851092219352,-0.0660591568410396,-0.0021541072055697,-0.0188882499933242,-0.0407279394567012
1783197309667835400,5.00283544921875,-0.0474819552082568,0.0348319516673684,-0.0946001916706562,0.0096626048907637,-0.0119725540280342,-0.0428294390439987
1783197309677773600,5.012773681640625,-0.0154861768148839,-0.0041544893309473,-0.0825666395276784,0.0170635748654603,-0.0090413000434637,-0.0391010232269763
1783197309687710500,5.02271044921875,0.0404921693861484,-0.0469105119958519,-0.0975765771329402,0.0219257082790136,-0.0051512205973267,-0.0310108754783868
1783197309697648600,5.032648681640625,0.0603429711513221,-0.0614645225271582,-0.1046551372170448,0.0284186694771051,-0.0095354048535227,-0.021957965567708
1783197309707586600,5.042586669921875,0.0605181815877556,-0.0743824562892317,-0.103770755597949,0.0258503165096044,-0.0144052607938647,-0.014783676713705
1783197309717523500,5.0525234375,0.0638265024181455,-0.0774082338511943,-0.1023608888000249,0.0230406560003757,-0.0197812784463167,-0.0168453436344862
1783197309727461400,5.06246142578125,0.0428232426822185,-0.0827066325202584,-0.074922846776247,0.0171595979481935,-0.0261744614690542,-0.0185375176370143
1783197309737398300,5.072398193359375,0.0075866557367146,-0.08176175288558,-0.0504845710903406,0.0169018507003784,-0.0229318849742412,-0.0173023547977209
1783197309747336400,5.08233642578125,0.0064105246294289,-0.0935460064426064,-0.0374362889468669,0.018429173156619,-0.0195685811340808,-0.0143132228404283
1783197309757273300,5.0922734375,0.0191322051670402,-0.0963011503696441,-0.0535462967485189,0.0200958307832479,-0.0163658093661069,-0.0138128530234098
1783197309767211500,5.10221142578125,0.0209891581453382,-0.0840168383359909,-0.0625812515974044,0.0302981361746788,-0.0155817754566669,-0.0148099400103092
1783197309777148400,5.1121484375,0.0538103545121848,-0.0782119514495134,-0.0660422057062387,0.0358163937926292,-0.009954729117453,-0.0165570508688688
1783197309787086600,5.122086669921875,0.0481673071239143,-0.0636696313560009,-0.044961423754692,0.0390468053519725,-0.0060856882482767,-0.011998251080513
1783197309797023500,5.1320234375,0.0296530877247452,-0.0614744593992829,0.0007025953114032,0.0357465744018554,-0.0066291503608226,-0.0155666079372167
1783197309806961700,5.141961669921875,0.042112610194832,-0.0833814630419015,0.0459393288761377,0.0265030059963464,0.0030735442414879,-0.0062402179464697
1783197309816899600,5.151899658203125,0.0646278819289058,-0.0999634722694754,0.0662602323710918,0.0177833102643489,0.011325241997838,-0.0001582431141287
1783197309826836200,5.161836181640625,0.0523178509321063,-0.0969520154938101,0.0845785638719797,0.0178637374192476,0.020187709480524,0.0068445391952991
1783197309836774400,5.1717744140625,0.0259844091493636,-0.0753799428939819,0.058831543675065,0.012290152721107,0.0220621861517429,0.0178206954151392
1783197309846711300,5.181711181640625,0.0236463946558535,-0.0455590973868966,0.0139010995805263,0.0022407136857509,0.0084678120911121,0.0132128922268748
1783197309856649500,5.1916494140625,0.0265391934879124,-0.0143114339470863,-0.0293956058323383,-0.0048638014122843,-0.0109887095168232,0.0078402310609817
1783197309866586400,5.20158642578125,0.0361177536942064,-0.0099625910878181,-0.0469733480989933,-0.0075213694944977,-0.0114867212250828,0.0149396853521466
1783197309876524500,5.211524658203125,0.0076321023136377,-0.0357578343406319,-0.0587847819238901,-0.0059054009616374,-0.0109296226873993,0.016413390636444
1783197309886461400,5.22146142578125,-0.0103458182517439,-0.0349380423903465,-0.0721656570225954,-0.0028917677700519,-0.0138910571113228,0.0158525295555591
1783197309896399600,5.231399658203125,-0.0137643945235759,-0.0103688338011503,-0.0625321517586708,-0.006135313771665,-0.0136446608230471,0.0118508636951446
1783197309906336500,5.24133642578125,-0.0527834956824779,0.0071957567229866,-0.0252554372876882,-0.0048886863514781,-0.0049885893240571,0.0148844700306653
1783197309916274400,5.2512744140625,-0.0663349781077355,0.0182528650492429,0.0026923078238964,-0.0028493115678429,0.0054618502035737,0.0105603840202093
1783197309926212400,5.26121240234375,-0.0557669684726744,0.02249181779325,0.020749942561984,-0.0034314775839447,0.0091458009555935,0.0095915263518691
1783197309936149200,5.271149169921875,-0.0178477183144539,0.0343500133693218,0.0224053085535764,-0.0096891922876238,0.0089124180376529,0.0084882043302059
1783197309946087400,5.28108740234375,-0.0093041271790862,0.0388689520984888,0.0249199217230081,-0.0177396610379219,0.0050012995488941,0.0107790548354387
1783197309956024300,5.2910244140625,-0.0118114338248968,0.0417298944875597,0.0242477215498685,-0.0300995744764804,-0.0036797160282731,0.0082623427733778
1783197309965962500,5.30096240234375,-0.0228855663511902,0.0376230436906218,0.040677462825179,-0.0419770069420337,-0.012051629833877,0.0052811997011303
1783197309975899400,5.3108994140625,-0.0484659247443079,0.0483724012419581,0.0548842673540115,-0.0463545434176921,-0.0036157639697194,0.0033501926809549
1783197309985837600,5.320837646484375,-0.0603122837521135,0.0299129077047109,0.0667027154415845,-0.0488073155283927,0.013348039239645,0.0015536244027316
1783197309995774500,5.3307744140625,-0.052833764564991,-0.0032183775246143,0.0562421117037534,-0.0432731658220291,0.0265397056937217,0.0038865024689584
1783197310005712400,5.34071240234375,-0.045519057637453,-0.0136754741311073,0.0168868373930454,-0.0402909591794014,0.0307275243103504,0.0043291198089718
1783197310015650600,5.350650634765625,-0.0076650547351688,-0.00646218175143,-0.0324590850561857,-0.0438015386462211,0.0305419042706489,0.0082279881462454
1783197310025587200,5.360587158203125,0.0433754697374999,-0.0565688594400882,-0.1049596731215715,-0.0469019897282123,0.017808798700571,0.0124743990600109
1783197310035525400,5.370525390625,0.0860180951558053,-0.0939648163765668,-0.1476192496746778,-0.0479677766561508,0.004348789807409,0.0190353356301784
1783197310045462300,5.380462158203125,0.0860131997849792,-0.0880325037181377,-0.1343131933778524,-0.0438766255974769,-0.0045917080715298,0.0246495455503463
1783197310055400400,5.390400390625,0.0325415026426315,-0.0834425455793738,-0.1773223140209913,-0.0304985586553812,-0.0047262497246265,0.0218751039355993
1783197310065337300,5.40033740234375,-0.0200498314686119,-0.0308411284655332,-0.1886146924078464,-0.0141166560351848,-0.003619972616434,0.0144989462569355
1783197310075275500,5.410275634765625,-0.0570762975055724,0.0066954059854149,-0.1501332783222198,-0.0017504636198282,0.0039069899357855,0.0073788193985819
1783197310085212400,5.42021240234375,-0.0622550883829593,-0.0142892221152782,-0.1241769992887973,0.0079748686403036,0.0028353338129818,0.0042304303497076
1783197310095150600,5.430150634765625,-0.0336279827050864,-0.016033435434103,-0.1286456691354513,0.0115188201889395,-0.0028798645362257,0.0040779076516628
1783197310105088500,5.440088623046875,0.0005525193162262,-0.005234978044033,-0.0827612853169441,0.0122115081176161,7.54450447857e-05,0.0066049811430275
1783197310115025400,5.450025390625,0.0007586363475769,-0.0115150812268257,-0.02051496476233,0.0102798175066709,-8.2617625594e-06,0.0079852472990751
1783197310124963600,5.459963623046875,0.0053225832622498,0.005533376468718,0.0440828873544931,0.0009907111525535,0.0068416548892855,0.0126750729978084
1783197310134900200,5.469900146484375,-0.0084708912253379,0.0063122518867254,0.1166413430869579,-0.0082775065675377,0.0107376966625452,0.0124190673232078
1783197310144838400,5.47983837890625,0.0093285309679806,-0.004143967936933,0.1336883394777774,-0.0235462076961994,0.0151923662051558,0.0185989327728748
1783197310154775300,5.489775390625,0.0541936547413468,-0.0370768079847097,0.1263935062944889,-0.0359475016593933,0.0145304314792156,0.0289799608290195
1783197310164713500,5.49971337890625,0.0619900807712227,-0.027641163380444,0.1157587150335311,-0.0419257655739784,0.0169211514294147,0.033450610935688
1783197310174650400,5.509650390625,0.0167000826492905,-0.0084691376596689,0.0999403836548328,-0.0562674030661582,0.0149156637489795,0.0309578645974397
1783197310184588500,5.519588623046875,-0.0363628875616937,-0.0014940379500389,0.0936240401148796,-0.0619591102004051,0.0234385784715414,0.0271825678646564
1783197310194526500,5.5295263671875,-0.0782232765611261,0.0036915479943156,0.0583463905066251,-0.0608081817626953,0.0282088872045278,0.0205165985971689
1783197310204463400,5.53946337890625,-0.0865238527208566,0.0185106392025947,0.0132592945456504,-0.0591240003705024,0.0340657122433185,0.0148411355912685
1783197310214401500,5.549401611328125,-0.043327685073018,0.0143245856896042,-0.0033610008656978,-0.0569917559623718,0.0425058081746101,0.0217780992388725
1783197310224338400,5.55933837890625,0.0098409374695271,-0.0201993229418992,-0.0476782814979553,-0.0486874878406524,0.0426320433616638,0.0312767960131168
1783197310234276000,5.569276123046875,0.025355536661297,-0.031328327460587,-0.0790063166975975,-0.0519546791911125,0.0413739010691642,0.0369603633880615
1783197310244213000,5.579212890625,-0.0095742493573576,0.0011193594187498,-0.0551449641168117,-0.0579590424895286,0.0380332320928573,0.0295549128204584
1783197310254151200,5.589151123046875,-0.0271196967896074,0.0260711375847458,-0.012169161221385,-0.0670691579580307,0.0437423139810562,0.0261645913124084
1783197310264089000,5.599089111328125,-0.0244176712892949,-0.0024687282010912,-0.024839842224121,-0.0729342401027679,0.0369499251246452,0.0219317637383937
1783197310274026200,5.609026123046875,0.0109241295963525,0.002543839263916,-0.0611070873916149,-0.0750682353973388,0.0217107608914375,0.0190527476370334
1783197310283964200,5.618964111328125,0.0429335711888968,0.0056388826698064,-0.0870510914653539,-0.0738162845373153,0.0180843323469162,0.0200948435813188
1783197310293901000,5.628901123046875,0.0250126415077596,-0.0055956280499696,-0.0345499198555946,-0.0691232234239578,0.0345287322998046,0.0204607490450143
1783197310303839000,5.6388388671875,-0.0206084882646799,-0.0235594470247626,0.0319330153554677,-0.0682108253240585,0.0188437812030315,0.0183406062424182
1783197310313776000,5.648776123046875,-0.0258935890607535,-0.0481856464982032,-0.0952314753115177,-0.0595689639449119,0.0016294098459184,0.0091748544946312
1783197310323714000,5.658714111328125,0.0972045289501547,0.0077715107843279,-0.1171083760768175,-0.0565278977155685,0.0078260535374283,0.0191832799464464
1783197310333652000,5.66865185546875,0.0638194881554693,-0.0866726135417818,-0.0970779799610376,-0.0354561991989612,-0.0310493074357509,0.011083566583693
1783197310343589000,5.678589111328125,0.106372827855125,-0.0453089220181107,-0.101238022249937,-0.0598286464810371,-0.0107070188969373,0.0426185876131057
1783197310353527000,5.688527099609375,0.1635138611599803,-0.0927905119001865,0.1149485676944255,-0.0754746869206428,-0.0078109400346875,0.0531584322452545
1783197310363464200,5.698464111328125,0.034845687931776,-0.186797121591866,0.1084942769885063,-0.0910584405064582,-0.0030835624784231,0.0567052289843559
1783197310373402000,5.708402099609375,0.058951809053868,-0.1144125611215829,0.1515717866927385,-0.1100374907255172,0.0108219515532255,0.0721206814050674
1783197310383339300,5.71833935546875,0.0621621494024991,-0.1009562826991081,0.16078209810853,-0.1219687238335609,0.013383911922574,0.0786265209317207
1783197310393277200,5.728277099609375,0.025324337805435,-0.0645768093287944,0.0928910496652126,-0.1246855035424232,-0.0024173622950911,0.0730428621172905
1783197310403215000,5.738215087890625,0.0542780450891703,-0.0336623233661055,0.0526484711259603,-0.1391627192497253,0.0067769354209303,0.0733989253640174
1783197310413152000,5.748152099609375,0.0094118253372609,-0.0651890960082411,0.0610363602429628,-0.1479757577180862,0.011859324760735,0.0707945302128791
1783197310423090000,5.75808984375,-0.0192363231286406,-0.0881508694007992,0.0035305122137069,-0.148790955543518,0.0217625554651021,0.0720811039209365
1783197310433027000,5.768027099609375,-0.0312360460672527,-0.0616992080658674,-0.0748065269201993,-0.1433378905057907,0.0195557028055191,0.0675011500716209
1783197310442965000,5.777965087890625,-0.0218975782271474,-0.0428667895630002,-0.2044938140630721,-0.1323731243610382,0.0020368969999253,0.0649892538785934
1783197310452902100,5.787902099609375,0.0038283991817384,-0.0335223303735256,-0.2714665786176919,-0.1218742430210113,-0.0149233844131231,0.0633047297596931
1783197310462840000,5.797840087890625,-7.56955847144e-05,-0.0222536251232027,-0.2993032645702362,-0.1066082045435905,-0.0209599714726209,0.06556948274374
1783197310472778000,5.807778076171875,-0.0323249372825026,-0.0102390699416399,-0.2847363945573568,-0.0880096554756164,-0.0139322159811854,0.0614861361682415
1783197310482715100,5.817715087890625,-0.0813853207886219,0.0116381230846047,-0.2532569681882858,-0.0733667984604835,-0.0018545137718319,0.0553281083703041
1783197310492653000,5.827653076171875,-0.1125485938806086,0.0638233606129884,-0.2255968078464269,-0.0522347390651702,0.0143554927781224,0.0482991598546505
1783197310502590000,5.83758984375,-0.147004844103381,0.1122071600317955,-0.2416448563277721,-0.0314900502562522,0.0172799099236726,0.0361096076667308
1783197310512528000,5.84752783203125,-0.1436100140333175,0.1584957407370209,-0.2687427066117525,-0.0093270577490329,0.020799845457077,0.0245052017271518
1783197310522465000,5.857465087890625,-0.1666878880862146,0.183164025786519,-0.3125122902333736,0.0158832240849733,0.0148503445088863,0.0020326492376625
1783197310532403000,5.86740283203125,-0.1788628945264965,0.2167465619146823,-0.3729758190244436,0.0417887568473815,0.0053671305067837,-0.0139862140640616
1783197310542341000,5.877341064453125,-0.1650451623804867,0.217894270645082,-0.3920622122883796,0.0666568204760551,-0.0030615078285336,-0.0294389408081769
1783197310552278000,5.887278076171875,-0.1260481269229203,0.1996422823786735,-0.3898194017976522,0.0879115760326385,-0.014044334180653,-0.0372830517590045
1783197310562216000,5.8972158203125,-0.0899246741402894,0.1583008026868105,-0.3354167804807424,0.1013797149062156,-0.0154600711539387,-0.0372737310826778
1783197310572153000,5.907153076171875,-0.062437970669195,0.1015901966884732,-0.2758171750426292,0.1027199849486351,-0.021354142576456,-0.0306125823408365
1783197310582091000,5.917091064453125,-0.0531521828643977,0.0861722628042101,-0.2021697550296783,0.0994264557957649,-0.0326054692268371,-0.0364342518150806
1783197310592028200,5.927028076171875,-0.069002736012265,0.1022846086934208,-0.1027332292437553,0.0967515408992767,-0.0319256410002708,-0.039271280169487
1783197310601966000,5.936966064453125,-0.0889598476961255,0.089356153537333,-0.0149035546213388,0.0910489112138748,-0.0228945948183536,-0.0503902435302734
1783197310611904300,5.946904296875,-0.0858017489913851,0.091420684851706,0.0955056160777807,0.0859535485506057,-0.0081206634640693,-0.0575051866471767
1783197310621841000,5.9568408203125,-0.0890546133074909,0.0928296748667955,0.1998743375688791,0.086648903787136,0.0082604400813579,-0.0698167085647583
1783197310631779000,5.966779052734375,0.0101544603981077,0.0513853193223476,0.1841588820427656,0.0864996314048767,0.0192248225212097,-0.0613415315747261
1783197310641716000,5.976716064453125,0.0891778012957423,-0.0027443302720785,0.189376324430108,0.0868437066674232,0.0294135436415672,-0.0517328456044197
1783197310651654000,5.98665380859375,0.1306086397714912,-0.0877285523355007,0.2044143190860748,0.0771033093333244,0.0398570671677589,-0.0352744348347187
1783197310661592000,5.996592041015625,0.1528071006413549,-0.1568351140484213,0.2232178037554025,0.0562062785029411,0.0357557982206344,-0.0098375175148248
1783197310671529000,6.006529052734375,0.1987566586505621,-0.1741086126714944,0.2387602408021688,0.0259282682090997,0.0325616039335727,0.0131937656551599
1783197310681467100,6.016467041015625,0.1767475098077207,-0.2001391259849071,0.2621715115278959,-0.0149533851072192,0.0211150683462619,0.0261162221431732
1783197310691404000,6.026404052734375,0.1501033215753734,-0.2091518690019846,0.2816366749763488,-0.0616780444979667,0.0207939762622118,0.0425490029156208
1783197310701342200,6.03634228515625,0.1081361112006008,-0.1870098875597119,0.2832183912098407,-0.0941417142748832,0.0272963494062423,0.0512072071433067
1783197310711279000,6.046279052734375,0.0652079468391835,-0.1858893590971827,0.1955623195886612,-0.1123169586062431,0.029809758067131,0.0584251619875431
1783197310721217300,6.05621728515625,0.0389968893270939,-0.1497714592725038,0.0210445415943861,-0.1122937873005867,0.0223861970007419,0.0554088652133941
1783197310731155200,6.0661552734375,0.0337123730529099,-0.0741466017067432,-0.1517068112492561,-0.0981685444712638,0.0065941475331783,0.0490678288042545
1783197310741091800,6.076091796875,0.0057748570743948,-0.0266325708597898,-0.3124415630847215,-0.0668857246637344,-0.0059559987857937,0.0377874746918678
1783197310751030000,6.086030029296875,-0.0024419132594019,0.0111027010336518,-0.3809147953301668,-0.0328187346458435,-0.0062812082469463,0.0258277002722024
1783197310760967000,6.095966796875,-0.0226518306605517,0.0174655140638351,-0.3549661150813102,0.0004121884703636,0.0097009539604187,0.0132317468523979
1783197310770905000,6.105905029296875,-0.0197776634637266,-0.0161202369347214,-0.3360878116101026,0.0365842431783676,0.020089104771614,0.0131384441629052
1783197310780843000,6.115843017578125,-0.0005841565635055,-0.038118718253076,-0.3186509391188621,0.0658031180500984,0.0318043492734432,0.0201023425906896
1783197310790780200,6.1257802734375,0.0418014984190464,-0.0658154112130403,-0.273982360830903,0.0823507234454155,0.0343773253262043,0.0313204824924469
1783197310800718000,6.135718017578125,0.0714466950982809,-0.0655275341823697,-0.2104518456846475,0.0798657312989234,0.0272730775177478,0.0424836538732051
1783197310810655200,6.1456552734375,0.0620089316021651,-0.069195409040153,-0.1417734462559223,0.057613730430603,0.0066454005427658,0.0511057414114475
1783197310820593200,6.15559326171875,0.0328987916477024,-0.0523717000111937,-0.0728676678121089,0.0328141041100025,-0.0115546425804495,0.045162096619606
1783197310830530000,6.165530029296875,-0.0081073916751891,-0.0194222010895609,-0.0413064083784818,0.0075549157336354,-0.0249625779688358,0.0424155406653881
1783197310840468200,6.17546826171875,-0.0193312348704785,0.0215688577294349,-0.0003197334736585,-0.0124265160411596,-0.0281612984836101,0.0403976626694202
1783197310850406100,6.18540625,-0.0564995205309242,0.0199599612280726,0.029269349104166,-0.0213361196219921,-0.0302500165998935,0.0389947108924388
1783197310860343000,6.195343017578125,-0.0665031012162566,0.0344324309557676,-0.0005921206742525,-0.015464648604393,-0.023193972185254,0.0372868254780769
1783197310870281000,6.205281005859375,-0.0668785103999078,0.0440142060324549,-0.0121621469587087,-0.0038912864401936,-0.0116451000794768,0.0370943807065486
1783197310880218000,6.215218017578125,-0.0870202579356729,0.0410515568345785,0.0153670804798603,0.015237133949995,0.0027700578793883,0.0299901328980922
1783197310890156000,6.225156005859375,-0.0901688581597059,0.0699684392392635,0.0446311688870191,0.0334379039704799,0.0198371466249227,0.0221077445894479
1783197310900094000,6.235093994140625,-0.0803818428345024,0.0646627340465784,0.0784404995083808,0.0484112575650215,0.0406414940953254,0.0169348195195198
1783197310910031000,6.245031005859375,-0.0418324050139635,0.0532061050087213,0.0899146642029285,0.053730621933937,0.0520649701356887,0.0173549521714448
1783197310919969000,6.254968994140625,0.0032910043694078,0.0618833324611186,0.1088122568964958,0.0493494570255279,0.0617311783134937,0.0161575935781002
1783197310929906200,6.26490625,0.016606339951232,0.0400493940547108,0.1279144322514533,0.0337421372532844,0.0611485950648784,0.0231612399220466
1783197310939844000,6.274843994140625,0.0266890502873808,-0.0199012167781591,0.1228244156360626,0.012520738877356,0.0523319356143474,0.0302007738500833
1783197310949782000,6.284781982421875,0.0362171954806894,-0.033920682041347,0.108056470093131,-0.0207258537411689,0.0322616882622242,0.0400692299008369
1783197310959719000,6.294718994140625,0.0436594012454152,-0.046604514786601,0.1060948146313428,-0.0586050599813461,0.0231249164789915,0.0527357570827007
1783197310969656800,6.30465673828125,0.0398689959865063,-0.0866357886627316,0.0730330875068902,-0.0882746800780296,0.0118844145908951,0.0616490244865417
1783197310979594000,6.314593994140625,0.0411604240365326,-0.0629930472686886,0.0234235456854105,-0.1040131598711013,0.0059319837018847,0.0685846954584121
1783197310989532000,6.324531982421875,0.0286315626572817,-0.012189619487524,0.0151993226975202,-0.0993779897689819,0.0130209513008594,0.0738857463002204
1783197310999469000,6.334468994140625,-0.0135795394759625,0.0159241298407316,-0.0179284554004669,-0.0872994884848594,0.0295477304607629,0.0729435235261917
1783197311009407000,6.344406982421875,-0.0409716234661638,0.0372767144709825,-0.036451369562745,-0.0625884383916854,0.0449420697987079,0.0728169679641723
1783197311019345200,6.35434521484375,-0.0620754940323531,0.0157616327553987,-0.0551999091744422,-0.0470563471317291,0.0597031712532043,0.0689854770898819
1783197311029282000,6.364281982421875,-0.1231036709688603,0.0478533458039164,-0.0836240396261215,-0.0353210940957069,0.0659668147563934,0.0542878732085228
1783197311039220000,6.374219970703125,-0.1436929430764168,0.0989908278450369,-0.132747259235382,-0.0202734358608722,0.0602868273854255,0.0361046083271503
1783197311049157000,6.3841572265625,-0.1366575645469129,0.1041226377755403,-0.1301256785601377,-0.0115854311734437,0.0606315210461616,0.0247158780694007
1783197311059095000,6.394094970703125,-0.1137313008591532,0.064573886719346,-0.1174777939110994,-0.0085821840912103,0.0614198185503482,0.0163442324846982
1783197311069033200,6.404033203125,-0.0704473087973892,0.0578574379459023,-0.0911971052289009,-0.001624641008675,0.0666632056236267,0.0127368280664086
1783197311078969900,6.413969970703125,-0.0506677456375211,0.0446408134981989,-0.0301548997670412,-0.0032542292028665,0.0687745586037635,0.0232962630689144
1783197311088908000,6.423907958984375,-0.0144198627576231,-0.0028001521125435,-0.0268950211882591,-0.0190936662256717,0.063169464468956,0.0379955917596817
1783197311098845000,6.433844970703125,0.0514451597508043,-0.0110457101494073,-0.0383896441489458,-0.0364452265202999,0.02750707231462,0.0517590753734111
1783197311108783000,6.443783203125,0.0622923516534268,0.0269464591145515,-0.0260281752258539,-0.0624352619051933,-0.004133203998208,0.0503222867846488
1783197311118721000,6.453720947265625,0.0021004063453525,0.0746083739995956,0.0352191974192857,-0.0806869715452194,-0.0071838544681668,0.0437538661062717
1783197311128658200,6.463658203125,-0.0893375949673354,0.0987356840401887,0.0855564689934253,-0.0814295336604118,0.0003781453706324,0.0310258604586124
1783197311138596000,6.47359619140625,-0.1326272130522877,0.1062906294643878,0.1261550213634967,-0.0824370011687278,0.0126992603763937,0.0197300612926483
1783197311148533000,6.483532958984375,-0.1262558513894677,0.1011073816075921,0.1588584365695715,-0.0778209418058395,0.0332061052322387,0.0116147380322217
1783197311158471200,6.49347119140625,-0.0879623610913753,0.086940909089148,0.1550847632497549,-0.0756874829530716,0.0524469092488288,0.015151148661971
1783197311168409000,6.5034091796875,-0.0600136661317199,0.0852837895318865,0.1386994456380605,-0.0739265531301498,0.0665463507175445,0.0201763790100812
1783197311178346200,6.51334619140625,-0.0380131389867514,0.1052007884010672,0.088020813280344,-0.078711986541748,0.0643641576170921,0.0151483314111828
1783197311188284200,6.5232841796875,-0.0518623622495681,0.1171253272116184,0.0377723890334367,-0.0808771550655365,0.0525490939617157,0.0069166417233645
1783197311198221000,6.533220947265625,-0.0599349748723208,0.1318146545603871,0.0031055647999048,-0.0826279148459434,0.0456440523266792,-0.0025959031190723
1783197311208159000,6.543158935546875,-0.0641228550162166,0.1305973877251148,-0.0125175362676382,-0.0815457701683044,0.0360954850912094,-0.0047439313493669
1783197311218097000,6.553096923828125,-0.0204426301784813,0.0798605954393744,0.0038812253475189,-0.1105459928512573,0.0268362089991569,0.0002015586942434
1783197311228034000,6.563033935546875,0.0088723116330802,0.054752749928832,0.0615922405600547,-0.1285927295684814,0.0144650405272841,0.0009544815402477
1783197311237972500,6.572972412109375,0.0367000105615705,0.0140641811877489,0.0109030868083238,-0.1428137421607971,0.0159116685390472,0.0035734341945499
1783197311247909600,6.58290966796875,0.0147035020045936,0.0094511344343423,0.0119277536809444,-0.1500489115715026,0.020052533596754,0.0064952624961733
1783197311257847600,6.59284765625,-0.0394371073752641,0.0040291093856096,-0.0379302099436521,-0.1554569900035858,0.0222078301012516,0.0004323099274188
1783197311267785200,6.60278515625,-0.0840754366554319,0.0220458275914192,-0.0797206024467945,-0.1578823626041412,0.0220643859356641,-0.0181938223540782
1783197311277722400,6.612722412109375,-0.1275361735235899,0.0477531002998352,-0.1397673671305179,-0.1429044753313064,0.0243363287299871,-0.0421921014785766
1783197311287660300,6.622660400390625,-0.1291587332241237,0.0441293568447232,-0.134155372467637,-0.1154626682400703,0.0404948927462101,-0.0602017529308795
1783197311297597400,6.632597412109375,-0.1466601223189383,0.0166205876722931,-0.1260924775213003,-0.0720744505524635,0.0599596723914146,-0.0702194944024086
1783197311307535400,6.642535400390625,-0.0650794981539249,-0.0392941917732357,-0.1826794571399688,-0.0209069550037384,0.0797930061817169,-0.0719768777489662
1783197311317473500,6.6524736328125,-0.0067053428575396,-0.0329717107534408,-0.1948410195767879,0.0226985774934291,0.0957773029804229,-0.0726067200303077
1783197311327410400,6.662410400390625,0.0272941035084426,-0.0299082315295934,-0.1611561921179294,0.0573531538248062,0.1120214760303497,-0.071577101945877
1783197311337348400,6.672348388671875,0.0672019702006131,-0.0719455845311284,-0.0839127934396267,0.0683245807886123,0.1196980401873588,-0.0626395344734191
1783197311347285500,6.682285400390625,0.0986419413421303,-0.1058189202994108,-0.0292202492654323,0.0654349476099014,0.1235948130488395,-0.0506043881177902
1783197311357223400,6.692223388671875,0.0864808903619647,-0.1076420440733432,-0.0117079734504222,0.0563192144036293,0.1272009909152984,-0.0443267859518528
1783197311367161600,6.70216162109375,0.0556707415565848,-0.0791711518704891,-0.0074362874805927,0.0467535108327865,0.1226397380232811,-0.0365062057971954
1783197311377098200,6.71209814453125,0.040602936284244,-0.0623711159780621,-0.0544435378491878,0.034436922520399,0.115705668926239,-0.0316398106515407
1783197311387036400,6.722036376953125,0.031221579150483,-0.050716918541491,-0.139798931312561,0.0300682485103607,0.0952159166336059,-0.0266235992312431
1783197311396973300,6.731973388671875,0.0418519134320318,-0.0114960842654109,-0.2178559844613075,0.022165585309267,0.074541799724102,-0.0232240743935108
1783197311406911500,6.741911376953125,0.0428301838796585,0.0024269348859786,-0.2803787838697433,0.0139749264344573,0.0689476281404495,-0.0166259054094553
1783197311416848400,6.751848388671875,0.0029985972940921,0.0045773909181356,-0.3029875060409307,0.0246858932077884,0.0351920612156391,-0.0286415554583072
1783197311426786300,6.761786376953125,-0.0217548087555915,0.0458344071969389,-0.3919955767929554,0.0376532264053821,0.0145694594830274,-0.0376749336719512
1783197311436724500,6.771724365234375,-0.0082722999133169,0.0641889790549874,-0.3604302257061004,0.0516236387193203,0.0049724923446774,-0.0410241223871707
1783197311446661400,6.781661376953125,-0.0036035774499177,0.0313920403465628,-0.2945031708121299,0.0723752975463867,0.0093785300850868,-0.0426735840737819
1783197311456599600,6.791599609375,-0.015698650521785,0.0202878780081868,-0.2245493446201086,0.0920217037200927,0.0184644367545843,-0.041385143995285
1783197311466536400,6.801536376953125,-0.0049201399412006,0.0323921572998166,-0.1388286249756813,0.1068635582923889,0.0286817513406276,-0.0360228978097438
1783197311476474600,6.811474609375,0.0147584470622241,0.041052433617413,-0.0740302818506956,0.1103397831320762,0.0303243901580572,-0.0332343019545078
1783197311486412500,6.82141259765625,0.0241461608715355,0.0459478044435381,-0.0116331546485424,0.1029238402843475,0.0258141532540321,-0.0345442481338977
1783197311496349400,6.831349365234375,0.0076945000253617,0.032376375208795,0.0667389557987451,0.0831168442964553,0.022842064499855,-0.0324443466961383
1783197311506287400,6.841287353515625,-0.014324147298187,0.0083218381434679,0.123991121327877,0.0643864423036575,0.0226687844842672,-0.0331365764141082
1783197311516224500,6.851224609375,-0.0151943542614579,-0.0128314245223999,0.1447679518967866,0.0461219511926174,0.0267013441771268,-0.0299844592809677
1783197311526162400,6.861162353515625,-0.014374050854519,-0.0161707980781793,0.1464455297201871,0.0371860153973102,0.0273011922836303,-0.0269882995635271
1783197311536100400,6.871100341796875,0.0016886837393045,-0.0078857848137617,0.1359293964028358,0.0302407592535018,0.0356123819947242,-0.0180102512240409
1783197311546037500,6.88103759765625,0.0209284409340471,-0.0335033334121108,0.1070440781801938,0.0157421715557575,0.034291461110115,-0.0105754556134343
1783197311555975400,6.890975341796875,0.030650793525204,-0.0349462256968021,0.0531885693520307,0.0030932212248444,0.0188579112291336,-0.0088332155719399
1783197311565912600,6.90091259765625,0.0371849445343017,0.0133732763141393,0.0335977336972951,-0.0123355640098452,0.0117971282452344,-0.0096437409520149
1783197311575850500,6.9108505859375,0.0015522709432989,0.0393923914507031,0.030356559818983,-0.01809012144804,0.0129577331244945,-0.0166627690196037
1783197311585787600,6.92078759765625,-0.0478312801025807,0.039952071160078,0.0185620771288871,-0.0220911614596843,0.0152651146054267,-0.0199853666126728
1783197311595725600,6.9307255859375,-0.0203968182753771,0.031363691034913,-0.0123246440440416,-0.0203497223556041,0.0159679222851991,-0.0276374276727437
1783197311605663500,6.94066357421875,0.01896232849285,0.0169786073297262,-0.0592243423849344,-0.0088936286047101,0.0171730332076549,-0.0269865486770868
1783197311615600400,6.950600341796875,0.0351301308963447,-0.0141144500702619,-0.0766343268692493,0.0012229215353727,0.0230644792318344,-0.024146020412445
1783197311625538300,6.960538330078125,0.0417298214223235,-0.042589141665399,-0.0932850174188613,0.0076043885201215,0.0266120992600917,-0.0246878378093242
1783197311635475500,6.970475341796875,0.0439784771319478,-0.027641163380444,-0.0605962152600288,0.0151605755090713,0.0263178199529647,-0.0177870541810989
1783197311645413400,6.980413330078125,0.0395016239788383,-0.0387757208570837,-0.0468476758927106,0.0165474824607372,0.028681568801403,-0.019153356552124
1783197311655351300,6.990351318359375,0.0404598745517432,-0.0424050172701477,-0.0386667075246572,0.0118720373138785,0.0239888131618499,-0.0226642005145549
1783197311665288400,7.000288330078125,0.0604687894880771,-0.0665495707064867,-0.0347913273960351,0.0122226094827055,0.0173066407442092,-0.0156071409583091
1783197311675226400,7.010226318359375,0.1056219729552045,-0.1033078142613172,-0.0731464847534894,0.0035462975502014,0.007994364015758,-0.0044857808388769
1783197311685163500,7.02016357421875,0.1442481658063829,-0.1218430033832788,-0.1000701475143432,0.0049566719681024,-0.0024132095277309,0.0059520862996578
1783197311695101400,7.030101318359375,0.1265774480266496,-0.0936117651551961,-0.104231358847022,0.0062083578668534,-0.0077307438477873,0.0127159841358661
1783197311705038600,7.04003857421875,0.0837847100805491,-0.0661357292085886,-0.1052116020560264,0.0146609665825963,-0.0077078146860003,0.0110961217433214
1783197311714976300,7.049976318359375,0.0440548303037881,-0.0498299065738916,-0.0949234322756528,0.024661935865879,-0.0056965956464409,0.0081237666308879
1783197311724914400,7.05991455078125,0.013231748951599,-0.0269406138956546,-0.0869680893570184,0.0300119370222091,-0.0039824107661843,0.0077628861181437
1783197311734851300,7.069851318359375,-0.0125831488497555,-0.0359983650982379,-0.0739478642642497,0.0343100130558013,-0.0050490060821175,0.0096742361783981
1783197311744789200,7.079789306640625,-0.0094308222986757,-0.0222995100915431,-0.0567792873203754,0.0328907631337642,-0.0049116164445877,0.0059752827510237
1783197311754726400,7.089726318359375,0.0090157752243801,-0.0203790634229779,-0.0574275220960378,0.0370652675628662,-0.008966545574367,0.0037289059255272
1783197311764664300,7.099664306640625,0.0291758986670523,-0.0158761990457773,-0.0846820242464542,0.039245992898941,-0.0164371225982904,0.0032778300810605
1783197311774601500,7.1096015625,0.0521599934892728,0.0089843937054276,-0.0658417146980762,0.0491513572633266,-0.0170600358396768,0.0073319608345627
1783197311784539400,7.119539306640625,0.0581561286315321,0.0356052741274237,-0.0115448918431997,0.0526755228638649,-0.0103736147284507,0.0108211059123277
1783197311794477600,7.1294775390625,0.0187283005412668,0.0403536376982927,0.0661164399862289,0.0520496815443038,-0.0008291122503578,0.0119114052504301
1783197311804414500,7.13941455078125,-0.0399300419913604,0.047083822736144,0.1397223589450121,0.0410905964672565,0.0089169340208172,0.0109713859856128
1783197311814352600,7.1493525390625,-0.0718842097327113,0.0572352143943309,0.1609428416281938,0.0232532769441604,0.0068396683782339,0.0068083326332271
1783197311824289300,7.159289306640625,-0.0677033438514918,0.0706181353196501,0.1284907708346843,0.0095978267490863,-0.002689329907298,0.0011232057586312
1783197311834227200,7.169227294921875,-0.0452380487389862,0.096025256037712,0.0925578721880912,-0.0037629855796694,-0.0093405749648809,-0.0001215559896081
1783197311844164400,7.179164306640625,-0.0290517608307302,0.0705649438276886,0.0710030429840087,-0.0135880876332521,-0.0053645111620426,-0.0016723652370274
1783197311854102300,7.189102294921875,-0.0303158624824136,0.0561009496673941,0.03207797678411,-0.0131249632686376,-0.0145055446773767,-0.0051983906887471
1783197311864040400,7.19904052734375,-0.0355886883188039,0.0796352622509002,-0.0297223535686731,-0.0103119816631078,-0.0201509222388267,-0.0122344233095645
1783197311873977300,7.208977294921875,-0.0381472867604345,0.0997872389197349,-0.0559247163176536,-0.0005791932344436,-0.0214758440852165,-0.0217403098940849
1783197311883915500,7.21891552734375,-0.0615010916778817,0.1009741106167435,-0.0383159943908453,0.0125201260671019,-0.0126907154917716,-0.0243109464645385
1783197311893852400,7.228852294921875,-0.0629109219431877,0.0591407557547092,-0.0093663787603378,0.0257523097097873,-0.0023746956139802,-0.0256052426993846
1783197311903790600,7.23879052734375,-0.0415319607626646,0.0437239909142255,0.0181593415468931,0.0320169888436794,0.0009815427474677,-0.0275106709450483
1783197311913727500,7.2487275390625,-0.0177886085383594,0.0325496859490871,0.0438508321642875,0.0340146273374557,0.0034604133106768,-0.0313629321753978
1783197311923665400,7.25866552734375,0.0097884766299277,0.0058151160195469,0.0654670361667871,0.0266184825450181,0.0051059620454907,-0.0262412820011377
1783197311933602300,7.268602294921875,0.0317157193429768,-0.038870413403213,0.0689180534034967,0.0195182282477617,0.0012899180874228,-0.0230468194931745
1783197311943540200,7.278540283203125,0.0485494383092969,-0.0536029953718185,0.097491236937046,0.0037706904113292,0.0019442569464445,-0.0151180569082498
1783197311953478400,7.288478515625,0.0520776124354451,-0.0497597639471292,0.1540957522124052,-0.0141057772561907,0.0039956895634531,-0.0018224907107651
1783197311963415300,7.298415283203125,0.0410470267899334,-0.0502872949525713,0.144437112507224,-0.0271479729562997,-0.003892752341926,-0.0007988470606505
1783197311973353500,7.308353515625,0.0069716656435281,-0.040602936284244,0.080588617452979,-0.0270566251128911,-0.016292430460453,-0.0046164882369339
1783197311983290400,7.318290283203125,-0.0126841250061988,0.0148614690452814,0.0519511365115642,-0.0255752429366111,-0.0133131528273224,-0.0143514461815357
1783197311993228500,7.328228515625,-0.0216463068798184,0.039493221476674,0.0473556254148483,-0.019250500947237,-0.0057332627475261,-0.0204149316996336
1783197312003165400,7.33816552734375,-0.033387671143189,0.0175020466819405,0.0626899726688861,-0.015723492950201,0.0116859953850507,-0.0253998357802629
1783197312013103400,7.348103271484375,-0.0353173240315169,-0.0160068396881222,0.0703396106392145,-0.0164294950664043,0.0210214406251907,-0.0241888966411352
1783197312023040500,7.35804052734375,-0.0074546268548816,-0.0254775556057691,0.0401642526060342,-0.0201885215938091,0.0267615094780921,-0.0255691744387149
1783197312032978400,7.367978515625,0.0117142570607364,-0.0293240019008517,0.012611059769988,-0.015463275834918,0.0292081572115421,-0.0190385710448026
1783197312042916600,7.37791650390625,0.0365239233423024,-0.0301098915815353,-0.0407908600717783,-0.0149120055139064,0.0197434052824974,-0.018057893961668
1783197312052853200,7.387853271484375,0.0512464223083108,-0.0220282919347286,-0.0849795458883047,-0.0131567157804965,0.0056643383577466,-0.0144908558577299
1783197312062791400,7.39779150390625,0.0693955347221344,-0.0256353765159845,-0.1197697042405605,-0.0047532888129353,-0.0051863566040992,-0.0158205982297658
1783197312072728300,7.407728271484375,0.0373313672676682,-0.0076493457093834,-0.1176186636865139,0.003071610815823,-0.0063147377222776,-0.0169492457062006
1783197312082666500,7.41766650390625,0.0126833212886005,-0.0288958396166563,-0.112976390838623,0.0111929550766944,-0.0058467853814363,-0.0097735356539487
1783197312092603400,7.427603271484375,0.0283976808361709,-0.0565457708254456,-0.1180839431107044,0.0164654813706874,-0.0106822866946458,-0.0107474531978368
1783197312102541600,7.43754150390625,0.0302237272195518,-0.0417082671776413,-0.128931500339508,0.0241187065839767,-0.0108017530292272,-0.0103126354515552
1783197312112478500,7.447478515625,0.0048680078951641,-0.0254667419508099,-0.0913029036909341,0.0306013729423284,-0.0109287854284048,-0.0125251896679401
1783197312122416400,7.45741650390625,-0.0103694913882762,-0.0053378538966178,-0.0635123949676752,0.0360638312995433,-0.007141594775021,-0.0183031968772411
1783197312132353500,7.467353515625,-0.0139103058002889,-0.0025721885755658,-0.0211000711739063,0.0384601429104805,-0.0098614813759922,-0.0184938795864582
1783197312142291500,7.47729150390625,0.0237727975144982,-0.0132838444650173,-0.0042366146564483,0.0330186039209365,-0.0148867545649409,-0.0128954574465751
1783197312152228400,7.487228271484375,0.0453757036440074,-0.0114738724336028,0.0109749830007553,0.038043987005949,-0.0235859714448452,-0.0091784838587045
1783197312162166300,7.497166259765625,0.0333881095346063,0.0050450084298849,0.0387619845926761,0.0382364615797996,-0.0174887329339981,-0.0082281036302447
1783197312172104400,7.5071044921875,-0.0124506815765053,0.0277259190544486,0.1053226612150669,0.0365980863571167,-0.002144131809473,-0.0128942281007766
1783197312182041300,7.517041259765625,-0.0502745085362345,0.0410576943144202,0.1753033754140138,0.0311941932886838,0.013980558142066,-0.0175734777003526
1783197312191979500,7.5269794921875,-0.0403895127292722,0.0412608156710863,0.2084855140477418,0.021330377086997,0.0211031828075647,-0.0207753963768482
1783197312201916400,7.53691650390625,-0.0313029007583856,0.0390071915253996,0.2077384950727224,0.0188403688371181,0.0325706638395786,-0.0268655251711606
1783197312211854300,7.546854248046875,-0.0090414576549082,0.0195636553868651,0.1809697306126356,0.0088441930711269,0.0331650823354721,-0.0231818407773971
1783197312221791500,7.55679150390625,0.0502745450688526,-0.0338593072429299,0.1344558167189359,-0.0053878864273428,0.0286366492509841,-0.0085754301398992
1783197312231729400,7.5667294921875,0.0953673766508698,-0.0630897856414318,0.0945779798388481,-0.01769994571805,0.015670783817768,0.00237761833705
1783197312241666800,7.576666748046875,0.0966360814124345,-0.0494604887396097,0.0483124877482652,-0.0338814407587051,0.0054410700686275,0.0071757463738322
1783197312251604700,7.586604736328125,0.0376496394366025,-0.0351122299134731,0.0337386034727096,-0.0360646992921829,0.0079574910923838,0.001115723978728
1783197312261542000,7.5965419921875,-0.0246258341472595,0.0060080082431435,0.0352022462844848,-0.0291972216218709,0.0140883112326264,-0.0087236789986491
1783197312271479800,7.606479736328125,-0.0277057530492544,-0.0019441198050975,-0.0028793548285961,-0.0240464005619287,0.02555588260293,-0.0077601475641131
1783197312281417000,7.6164169921875,0.0165528561983257,-0.0408195016443729,-0.064115037035942,-0.01349444873631,0.0186618641018867,-0.0008453638292849
1783197312291355000,7.62635498046875,0.0791807964816689,-0.0337058702468872,-0.1350163732111454,-0.0056168176233768,0.0027718462515622,0.0001727626658976
1783197312301292800,7.636292724609375,0.0882622208207845,-0.0212698747828602,-0.1507441036969423,0.0005897199735045,-0.006084025837481,0.008372837677598
1783197312311229700,7.646229736328125,0.0388749799804762,-0.0163376790776848,-0.1167722759902477,0.0004480397328734,-0.0047652283683419,0.0061453701928257
1783197312321167600,7.656167724609375,-0.0165551212206482,0.010268588297069,-0.080685648086667,0.004978522658348,-0.0003983620554208,-0.0067963888868689
1783197312331104800,7.666104736328125,-0.0594822626687586,0.0212619837373495,-0.0364876099199056,0.0030695684254169,0.0023508188314735,-0.0162279736250638
1783197312341042700,7.676042724609375,-0.0593990778973326,-0.0051046296626329,-0.0160983173638582,0.0019737416878342,0.0037258332595229,-0.0186122879385948
1783197312350979800,7.685979736328125,-0.0048378684852272,-0.0316045140534639,-0.0211637840598821,0.0069282869808375,-0.0010050060227513,-0.0121368123218417
1783197312360917800,7.695917724609375,0.0651443800836801,-0.046638124795258,-0.0447884052753448,0.0078683737665414,-0.0073050959035754,-0.003314851084724
1783197312370855000,7.70585498046875,0.1013589452158659,-0.0419590270683169,-0.0378337638318538,0.0062244040891528,-0.0101365698501467,0.0054211160168051
1783197312380792800,7.715792724609375,0.0885282878784462,-0.034795419049263,-0.0089209730803966,0.0057574971579015,-0.0077947592362761,0.0081069273874163
1783197312390730000,7.72572998046875,0.0523187277149409,-0.0189212658300995,0.0333002120554447,0.0043620010837912,-0.0024527246132493,0.0086121289059519
1783197312400668000,7.73566796875,0.0110622594254091,-0.008261924649775,0.0403939697086811,-0.002709642983973,0.0004553594626486,0.0059163616970181
1783197312410604800,7.745604736328125,0.0013986878167837,-0.0046048634469509,0.0493587819308042,-0.0107899410650134,-0.0015284293331205,0.0028835532721132
1783197312420542700,7.755542724609375,-0.0088575889879837,-0.0041866380348801,0.0567716885358095,-0.015556369908154,-0.0032606348395347,0.0003880327567458
1783197312430480000,7.76547998046875,-0.0262322464305907,-0.0247650234222412,0.0285112242132425,-0.0171918161213397,-0.0023072231560945,6.60566147416e-05
1783197312440417800,7.775417724609375,-0.0203188211357221,-0.0115530751496553,0.0394464597254991,-0.0172734484076499,-0.0049942741170525,-0.0017331767594441
1783197312450354700,7.785354736328125,0.0073208444073796,-0.0095741762921214,0.0290776259243488,-0.0101385740563273,0.0065502626821398,0.0059335315600037
1783197312460292900,7.79529296875,0.0251556301750242,-0.0216024677380919,0.0063777183383703,-0.0021643992513418,0.0078930016607046,0.0125379944220185
1783197312470229800,7.805229736328125,0.0195524033404886,-0.0202887547910213,-0.0394008670181035,0.0035771094262599,0.0081617143005132,0.0099613852798938
1783197312480168000,7.81516796875,0.0109346509903669,0.0135313894852995,-0.0554021537482738,0.0037934873253107,0.0012582950294017,0.0055897170677781
1783197312490104800,7.825104736328125,-0.0026406872345134,0.0224316120386123,-0.0571866990774869,0.0025878744199872,-0.0016509420238435,0.0032450703438371
1783197312500043000,7.83504296875,-0.0145721307098865,0.0002022445738315,-0.0480231494128704,0.0005103079602122,-0.0081677585840225,0.0014828948769718
1783197312509979600,7.844979736328125,-0.0091743633195757,0.0065542439490556,-0.0496685785323381,-0.0016729515045881,-0.0102125331759452,0.0048898765817284
1783197312519917800,7.854917724609375,0.0077615008469671,-0.0071200611382722,-0.0351817880183458,0.0003499137237668,-0.0148103348910808,0.0055773165076971
