time,seconds_elapsed,ax,ay,az,gx,gy,gz
1783204156316607500,0.102607421875,-0.237714019684866,-0.0050967386171221,0.3869575826257467,-0.4024657011032104,-0.0274967420846223,0.1860756129026413
1783204156326544600,0.112544677734375,-0.3049091217532754,-0.0115717798501253,0.3071674220740795,-0.4334595799446106,0.0293492302298545,0.1770022213459015
1783204156336481300,0.122481201171875,-0.3794477184522897,0.0196972186386585,0.4310229343235492,-0.4683621525764465,0.096499353647232,0.1876983940601349
1783204156346419500,0.13241943359375,-0.4168614302411675,0.0297404737472534,0.660764002367854,-0.4938318431377411,0.1037676483392715,0.2210843116044998
1783204156356356400,0.1423564453125,-0.3691964466162025,0.0490805495113134,0.7814414691030979,-0.4936924576759338,0.0112548898905515,0.2722590565681457
1783204156366293500,0.15229345703125,-0.2659578981988131,0.1162032439306378,0.7372633046805858,-0.4705280065536499,-0.1418142765760421,0.3276570439338684
1783204156376230400,0.16223046875,-0.1135476148553192,0.1766121199250221,0.6905149975091218,-0.4277536571025848,-0.2946997582912445,0.3773655891418457
1783204156386167600,0.17216748046875,0.0202360747557133,0.2668894799605011,0.6757961518049239,-0.3878602981567383,-0.4418439269065857,0.4191628396511078
1783204156396104400,0.1821044921875,0.126822253100574,0.3721548580303788,0.6453770481437444,-0.3502539098262787,-0.6004138588905334,0.454273372888565
1783204156406041300,0.192041259765625,0.1094706477399915,0.4624024074494838,0.4218248978674411,-0.3251419067382812,-0.6171272993087769,0.4813854098320007
1783204156415978500,0.201978515625,-0.0067684712216258,0.5230789944693446,0.4533610228598118,-0.3318813741207123,-0.5662313103675842,0.499776154756546
1783204156425915400,0.211915283203125,-0.1153936811134219,0.524372541411221,0.5683557677835226,-0.3715179860591888,-0.5623923540115356,0.5033064484596252
1783204156435852500,0.2218525390625,-0.2331679737530648,0.4187015051499009,0.2941840218603611,-0.4351488947868347,-0.4873827397823334,0.4745284616947174
1783204156445790500,0.23179052734375,-0.4116371197216212,0.2753784913644194,0.2512672556757926,-0.4932012856006622,-0.3248364329338074,0.4070117175579071
1783204156455727400,0.241727294921875,-0.5410404753565788,-0.0083031334429979,0.1872095017850399,-0.538806676864624,-0.1484707444906234,0.2971389293670654
1783204156465664500,0.25166455078125,-0.7137734157606959,-0.3719143272727728,-0.1140448968529701,-0.5745622515678406,0.0293554402887821,0.1508339196443557
1783204156475601400,0.261601318359375,-0.769286920928955,-0.6943848246797919,-0.3826888192653656,-0.6191425323486328,0.1556938588619232,-0.0029453891329467
1783204156485538600,0.27153857421875,-0.6824979875311256,-0.956235141429305,-0.7386608965188265,-0.6690546870231628,0.1930441707372665,-0.1403514444828033
1783204156495475500,0.281475341796875,-0.5337824670523404,-1.1287643759548665,-1.110133909764886,-0.7006353139877319,0.1906397342681884,-0.2458751499652862
1783204156505412400,0.291412353515625,-0.3501023084372281,-1.2905740635454654,-1.3625965127050876,-0.6641989946365356,0.1858154088258743,-0.3289415538311004
1783204156515349500,0.301349609375,-0.1772279137358069,-1.4060942936480043,-1.5971470268577337,-0.5396019816398621,0.1592878997325897,-0.3926250636577606
1783204156525286400,0.311286376953125,-0.0488115233115851,-1.3325097097381948,-1.9008347901225089,-0.3524805605411529,0.1061841994524002,-0.4079861640930176
1783204156535224300,0.321224365234375,0.080168200083822,-1.0742822596609591,-2.1915175258636475,-0.1577575206756591,0.0938739106059074,-0.3706118762493133
1783204156545161500,0.331161376953125,0.193430860517919,-0.7657398959718644,-2.1259324162751434,0.0228687152266502,0.0929836109280586,-0.3002351820468902
1783204156555098600,0.3410986328125,0.3202604201421141,-0.4444331816472113,-1.896574794590473,0.1688171327114105,0.0900466069579124,-0.2202616482973098
1783204156565035300,0.35103515625,0.4693360791701823,-0.1684153694659471,-1.6175240444540977,0.2707155346870422,0.058231420814991,-0.1526490449905395
1783204156574972400,0.360972412109375,0.6340552244666964,0.0819306797116994,-1.3041004845947026,0.3310464322566986,0.0226676352322101,-0.0938465371727943
1783204156584909300,0.370909423828125,0.8098046631477773,0.2585287711113691,-0.9369891736894844,0.3534532189369201,-0.0311322137713432,-0.0364612713456153
1783204156594846500,0.380846435546875,0.937717487964034,0.3954892641276121,-0.6556967821061611,0.3482632040977478,-0.0371160060167312,0.0191076844930648
1783204156604783600,0.39078369140625,1.0135125875301658,0.530877685521543,-0.2984545387864112,0.3182965219020843,-0.0253874473273754,0.0731157884001731
1783204156614721500,0.400721435546875,1.0133923221513628,0.6523720215976238,0.0349245983868837,0.2770771980285644,-0.0131843388080596,0.1242607533931732
1783204156624658400,0.410658447265625,1.0100690229475495,0.7199760697931051,0.2814695017158985,0.2229979932308197,-0.0082156807184219,0.1665530800819397
1783204156634595300,0.42059521484375,0.987792893731594,0.7526169411569833,0.4370394181340932,0.1661071926355362,-0.015906523913145,0.2020950019359588
1783204156644532500,0.430532470703125,0.9075693101987242,0.7434200737446546,0.5459662413209676,0.1037676408886909,-0.012582367286086,0.2377786934375763
1783204156654469400,0.440469482421875,0.7886161830380558,0.6804141669943928,0.6174257959008217,0.036888375878334,-0.0118115488439798,0.2673346400260925
1783204156664406500,0.450406494140625,0.62852104428038,0.572806609712541,0.6374164445281029,-0.0225392635911703,0.0067512160167098,0.2881933152675628
1783204156674343400,0.460343505859375,0.406163656746596,0.4599348482921719,0.5938584578305482,-0.075838379561901,0.0115981735289096,0.2944799065589905
1783204156684280300,0.4702802734375,0.2204144367724657,0.290239668148756,0.5054255566179752,-0.114093892276287,-0.0076721934601664,0.2921642959117889
1783204156694218500,0.480218505859375,0.0936896526969969,0.1086298860669136,0.3759650639683008,-0.1347763538360595,-0.0424573123455047,0.2912969291210174
1783204156704155400,0.4901552734375,-0.0002095510974526,-0.0538897033587098,0.269375743818283,-0.1533950567245483,-0.086599476635456,0.2844004034996032
1783204156714092500,0.500092529296875,-0.0906637290045618,-0.1778103897988796,0.1930693337291479,-0.1682712733745575,-0.1374400556087494,0.2721750736236572
1783204156724029400,0.510029541015625,-0.1573074077352881,-0.2496767716139555,0.1100415064305067,-0.1685538440942764,-0.1792069524526596,0.2617469429969787
1783204156733966300,0.51996630859375,-0.2341613687045872,-0.3072676675781607,0.0231523275285959,-0.1585828959941864,-0.2124441415071487,0.2456938922405243
1783204156743903500,0.529903564453125,-0.32530367500633,-0.3355772317394614,-0.0861918442875146,-0.1292393803596496,-0.217615470290184,0.2156150788068771
1783204156753840400,0.53984033203125,-0.450466908853501,-0.3083157153263688,-0.1827168665409088,-0.1065611913800239,-0.1908134222030639,0.1876113712787628
1783204156763778600,0.549778564453125,-0.5507889853022992,-0.287231426243484,-0.1500339096009731,-0.0951460823416709,-0.156065821647644,0.1521641612052917
1783204156773715500,0.559715576171875,-0.587863016808033,-0.2486097269043326,-0.084236618566513,-0.0935536548495292,-0.1339213997125625,0.1185911819338798
1783204156783652600,0.569652587890625,-0.5741179845720529,-0.2200958723425865,0.0168675481706857,-0.1054470688104629,-0.1340510994195938,0.0923198983073234
1783204156793589200,0.57958935546875,-0.4864236267670989,-0.1791194265708327,0.1489291632294654,-0.1148150861263275,-0.2006472051143646,0.0687977075576782
1783204156803526400,0.5895263671875,-0.4036738857574761,-0.1018231286615133,0.1268915189445018,-0.11210398375988,-0.2373953759670257,0.0592856928706169
1783204156813463600,0.599463623046875,-0.3209603851050138,-0.03784560040012,0.1717746167659759,-0.1178081110119819,-0.2518424987792969,0.0583239868283271
1783204156823400400,0.609400390625,-0.2103825798407196,0.0460363595098257,0.3504658810526132,-0.1345239728689193,-0.2777297496795654,0.0603546425700187
1783204156833338600,0.619338623046875,-0.1175876840263605,0.1439449450761079,0.3829530231595039,-0.1594473272562027,-0.2913645803928375,0.0657331943511962
1783204156843275500,0.629275634765625,0.0059074704781174,0.1729676259428262,0.4446884715825319,-0.1960335671901703,-0.291143000125885,0.0678594633936882
1783204156853212400,0.63921240234375,0.088589553079009,0.1815504531100392,0.4497399097532034,-0.2358193844556808,-0.2732224464416504,0.0718340203166008
1783204156863149300,0.6491494140625,0.1657658778704702,0.2003114138118922,0.4737012155771255,-0.292798787355423,-0.2536998689174652,0.0701967105269432
1783204156873086500,0.65908642578125,0.2216138756901025,0.2054528683535754,0.4522562764883041,-0.3497229218482971,-0.2542649209499359,0.0777121037244796
1783204156883023600,0.669023681640625,0.2871472550913691,0.1804110738165676,0.3884983823269605,-0.3939931988716125,-0.2677660882472992,0.0910034105181694
1783204156892961500,0.67896142578125,0.3568943066649139,0.1171431551292538,0.2933101616352796,-0.4174146950244903,-0.2841744422912597,0.0957051441073417
1783204156902898400,0.6888984375,0.3800799519412219,0.0202874396167695,0.1123100358843803,-0.4317294657230377,-0.2876804769039154,0.1021643802523613
1783204156912836400,0.69883642578125,0.358793564414978,-0.0915612623661756,-0.0515764579802751,-0.4332494437694549,-0.2729990184307098,0.0907397344708442
1783204156922773200,0.708773193359375,0.2773139894716441,-0.2143525063849985,-0.253636907416582,-0.4291353821754455,-0.2572450637817383,0.0689622685313224
1783204156932710400,0.71871044921875,0.1671001952141523,-0.3005499036304652,-0.4682745143532753,-0.4191054105758667,-0.2329572290182113,0.0394875928759574
1783204156942647300,0.728647216796875,0.0669355012841522,-0.3664657064780592,-0.6798615015476942,-0.3901270031929016,-0.204817995429039,0.0134943416342139
1783204156952584200,0.738584228515625,-0.03495937743932,-0.3712010644368827,-0.8697311624526977,-0.3230575621128082,-0.1867598742246627,0.0022652756888419
1783204156962522400,0.7485224609375,-0.1527862770490348,-0.3422491107188165,-1.047445106139779,-0.2087672054767608,-0.1536141782999038,0.0004588535521179
1783204156972459300,0.758459228515625,-0.2320173424132168,-0.2935115294262767,-1.1531067900508642,-0.087177999317646,-0.1242072507739067,0.0067103463225066
1783204156982396400,0.768396484375,-0.2371851004399359,-0.2593513395406305,-1.166882217425108,0.0332370921969413,-0.0870604217052459,0.0226981006562709
1783204156992333300,0.778333251953125,-0.2359275015942752,-0.2218612745799124,-1.1044050107240675,0.1322249472141266,-0.0254927463829517,0.0304543729871511
1783204157002270200,0.788270263671875,-0.2783360259957611,-0.1610088926017284,-0.9303151027530432,0.1969253867864608,0.0301931537687778,0.0212355740368366
1783204157012207400,0.798207275390625,-0.2719590383097529,-0.0619116817727684,-0.7000152317821979,0.2299874573945999,0.067681148648262,0.0038377302698791
1783204157022145300,0.808145263671875,-0.2220209951862692,0.0006250000305473,-0.4953431385427713,0.2453624159097671,0.0853983610868454,-0.0127076897770166
1783204157032082400,0.81808251953125,-0.1252842298783361,0.0257366449333727,-0.3239280027389526,0.2512942850589752,0.0934902429580688,-0.0184218287467956
1783204157042019300,0.828019287109375,-0.024726152716577,0.0563017329365015,-0.110434305140376,0.2403298020362854,0.0848613306879997,-0.0144318807870149
1783204157051956500,0.83795654296875,0.0624409663438796,0.0889383665166795,0.0770154351413249,0.2146265506744384,0.0628751516342163,-0.0004016312304884
1783204157061893000,0.84789306640625,0.1143428568862378,0.1305709381096065,0.2333171729654073,0.178851768374443,0.0367820337414741,0.0094520654529333
1783204157071830300,0.857830322265625,0.1340190327368676,0.1572347808904945,0.3604875088512897,0.1362939029932022,0.0127225760370492,0.0118964444845914
1783204157081768200,0.867768310546875,0.1500523220404982,0.1482256911352276,0.4491396057724952,0.0857593566179275,-0.0237086694687604,0.0107273170724511
1783204157091705300,0.877705322265625,0.143323890568316,0.1460083073467016,0.4528250162869691,0.0409451574087142,-0.0469864681363105,0.0127672050148248
1783204157101642500,0.887642578125,0.1087827385410666,0.1555088338807225,0.4263233783304691,-0.0021644961088895,-0.03610185906291,0.0092840576544404
1783204157111579400,0.897579345703125,0.0714751905404031,0.1347944010235369,0.4497504311472177,-0.0432832613587379,-0.0241989251226186,0.0019279452972114
1783204157121516300,0.907516357421875,0.0325055545464158,0.1071449082061648,0.4097837469398975,-0.0767935514450073,-0.020750131458044,-0.0018042084993794
1783204157131454200,0.9174541015625,0.0101543142676353,0.0531627042584121,0.3268231396585703,-0.1040384024381637,-0.0366595350205898,-0.0039945179596543
1783204157141391400,0.927391357421875,0.0122191378429532,0.0028527590826153,0.2154968541145324,-0.1094270423054695,-0.0619007088243961,-0.0024019475094974
1783204157151328300,0.937328369140625,-0.0129540279887616,-0.0107252460233867,0.0606084902197122,-0.0963883474469184,-0.0675172284245491,0.0012911788653582
1783204157161265400,0.947265380859375,-0.0464931633666157,-0.0319588804490864,-0.0609551117002964,-0.0810682475566864,-0.0494540780782699,-0.0032159548718482
1783204157171202300,0.957202392578125,-0.070307900326699,-0.0358195013999938,-0.1190706160604953,-0.0702953338623046,-0.033732533454895,-0.0061044581234455
1783204157181139200,0.96713916015625,-0.0735704092539846,-0.0426138377152383,-0.1774801349312066,-0.054911058396101,-0.0301172938197851,-0.0096856104210019
1783204157191077000,0.9770771484375,-0.0607243716843426,-0.0402950393788516,-0.2255284187853336,-0.0420007035136222,-0.0287401583045721,-0.0083673559129238
1783204157201014300,0.98701416015625,-0.019441636442393,-0.0391376860372722,-0.2381535070806741,-0.0262632872909307,-0.0360537320375442,-0.0035808561369776
1783204157210951400,0.996951416015625,0.0317182035610079,-0.0266977450504899,-0.2366664833933114,-0.0161037612706422,-0.0418824292719364,0.0024943859316408
1783204157220888300,1.006888427734375,0.0773763774082064,0.0020993103668093,-0.2134019276618957,-0.0071345008909702,-0.054454680532217,0.0138437133282423
1783204157230825500,1.016825439453125,0.1081185755439102,0.0302744344934821,-0.2034223854392766,0.0002599311992526,-0.0478890873491764,0.022938635200262
1783204157240763400,1.026763427734375,0.1412333480298519,0.055496846294403,-0.1406231071770191,-0.0025960430502891,-0.0338385179638862,0.0349617451429367
1783204157250700300,1.0367001953125,0.1554834071785211,0.0772143187142908,-0.0635392829746007,-0.0120609235018491,-0.0261663999408483,0.0453482531011104
1783204157260637200,1.04663720703125,0.182343357053399,0.0946595206424593,-0.0148000942468643,-0.0244659278541803,-0.0498546846210956,0.0546141900122165
1783204157270574300,1.05657421875,0.1923372200623154,0.0978323054596781,-0.0125619599312543,-0.0267524756491184,-0.0482921749353408,0.0643986761569976
1783204157280511500,1.066511474609375,0.1421845112748444,0.1060837087154388,-0.0244499661237001,-0.0385798402130603,-0.0170474350452423,0.0634982660412788
1783204157290449400,1.076449462890625,0.1089155711404979,0.0851268454045057,0.0737917969197034,-0.0564650222659111,-0.0043779853731393,0.0625048503279686
1783204157300386300,1.08638623046875,0.0721693102844059,0.0627202216766774,0.1085018757730722,-0.071722537279129,-0.0059881322085857,0.0603109337389469
1783204157310323200,1.0963232421875,0.0583143879331648,-0.0011868716970086,0.092658994475007,-0.0892321988940239,-0.0174785777926445,0.0593008995056152
1783204157320260400,1.10626025390625,0.0517246342793107,-0.0535197010025382,0.0678092153787612,-0.0984957367181778,-0.0358429364860057,0.0546262525022029
1783204157330197200,1.116197265625,0.0291129894986748,-0.0793434396974742,0.0516518613040447,-0.1043742299079895,-0.0491038598120212,0.0480994209647178
1783204157340134400,1.126134521484375,-0.0183374745927751,-0.0829119458340108,0.0524859740406274,-0.1139784008264541,-0.0566674992442131,0.0425619110465049
1783204157350072300,1.136072265625,-0.0617920009158551,-0.0996140743099153,0.0527618683725595,-0.117808423936367,-0.0693573728203773,0.0363910086452961
1783204157360009500,1.146009521484375,-0.0747686791278421,-0.100214232160151,0.0317523980915546,-0.1190521195530891,-0.0713278502225875,0.028440672904253
1783204157369946400,1.1559462890625,-0.1070231815226376,-0.1030477020204067,0.0145516724437475,-0.1225979477167129,-0.0671517699956893,0.0142760146409273
1783204157379883300,1.16588330078125,-0.1366448511958122,-0.1161151272557675,0.0026057985842227,-0.1249045133590698,-0.0588632188737392,-0.0086277024820446
1783204157389821200,1.1758212890625,-0.1627998676717281,-0.1314408528119325,-0.042544425740838,-0.1219846606254577,-0.0605225637555122,-0.0294178035110235
1783204157399758300,1.18575830078125,-0.1655129260227084,-0.1128333291061222,-0.1123848546862602,-0.1091801822185516,-0.0534326955676078,-0.0437844954431057
1783204157409695500,1.195695556640625,-0.1691311165198683,-0.0871681419737637,-0.1940823101639747,-0.0988101363182067,-0.0344419255852699,-0.0521810762584209
1783204157419632400,1.20563232421875,-0.1440079273097217,-0.0795541598387062,-0.206260239213705,-0.0814063847064971,-0.0192046482115983,-0.0578323043882846
1783204157429569300,1.2155693359375,-0.0940463571801781,-0.0656447308212518,-0.2201280210465192,-0.0595609694719314,-0.026773951947689,-0.0595176853239536
1783204157439507200,1.225507080078125,-0.0359580330878496,-0.0475178302392363,-0.2454986091464757,-0.0395744815468788,-0.0312360785901546,-0.0580992884933948
1783204157449444400,1.2354443359375,0.0018155249893665,-0.0409535032875835,-0.2742196767181158,-0.0223331302404403,-0.0091585610061883,-0.0576754249632358
1783204157459381200,1.24538134765625,0.0311795666396617,-0.0377677128583192,-0.2339069555521011,-0.0109862014651298,0.0144655425101518,-0.060500506311655
1783204157469318400,1.255318359375,0.0349671223543584,-0.0238100607849657,-0.2233206796079874,-0.0009096795693039,0.0277554038912057,-0.0582594759762287
1783204157479255600,1.265255615234375,0.0508021126069128,0.0034323125362396,-0.2350029340952634,0.006285382900387,0.0279162600636482,-0.0563638396561145
1783204157489193500,1.275193359375,0.0785768392391502,0.0222936648726463,-0.2135527343094349,0.0131835835054516,0.0267236158251762,-0.0479164831340312
1783204157499130400,1.28513037109375,0.11860504437536,0.0403600674390792,-0.1656225238770246,0.0212513636797666,0.0142562938854098,-0.037056379020214
1783204157509067300,1.2950673828125,0.1655650946013629,0.0536862897410988,-0.1199473988950252,0.0226505696773529,0.0036423907149583,-0.0229045953601598
1783204157519004400,1.30500439453125,0.1886662764646113,0.0801784292168915,-0.0765700294613838,0.0153180882334709,0.0061353757046163,-0.0180962570011615
1783204157528941300,1.31494140625,0.1662685666956007,0.0696127576693892,-0.012474866169691,0.0028480626642704,0.0163779892027378,-0.0116672199219465
1783204157538879500,1.32487939453125,0.1277946052640676,0.0483877449415624,0.0077244567722082,-0.0090104602277278,0.0192637909203767,-0.0120496498420834
1783204157548816400,1.33481640625,0.1058405476093292,0.0592763648331165,0.0011725509107112,-0.0164691172540187,0.0129518769681453,-0.0061626443639397
1783204157558753300,1.344753173828125,0.0807956843324005,0.0807122438326478,-0.021814941444993,-0.0135891744866967,0.0054617365822196,0.0022175249177962
1783204157568690200,1.354690185546875,0.0647656098991632,0.0878036633983254,-0.0307692322731018,-0.0065482044592499,-0.020023139193654,0.0114205665886402
1783204157578628400,1.36462841796875,0.0545749091438949,0.0720092974171042,-0.0646007747262716,0.0070496289990842,-0.0283846668899059,0.0174457021057605
1783204157588565200,1.374565185546875,0.0327902167066931,0.0539006631441414,-0.1074047281861305,0.0147164817899465,-0.004190067294985,0.0221760887652635
1783204157598502400,1.38450244140625,-2.74725288152e-05,0.0178454532921314,-0.0254758020401,0.0105068236589431,0.0210862606763839,0.017552575096488
1783204157608439600,1.394439453125,-0.05900865380764,0.0152732647165656,0.009401450073719,0.0016799392178654,0.0244312137365341,0.001272982917726
1783204157618376200,1.404376220703125,-0.0920110519602894,-0.0077132047258317,0.0259907658249139,-0.0082043837755918,0.0182625334709882,-0.0068496586754918
1783204157628314400,1.414314453125,-0.0742749042615294,-0.060581748343259,0.0315735343933105,-0.0182563215494155,-0.0045380969531834,-0.0143376244232058
1783204157638251300,1.424251220703125,-0.0489132301203906,-0.0876880741946399,0.0077682959139347,-0.0189303681254386,-0.0266026519238948,-0.015136307105422
1783204157648188400,1.4341884765625,-0.0501011247307062,-0.0796494369067251,-0.0087713354766368,-0.0157888829708099,-0.0366107486188411,-0.017340213060379
1783204157658125300,1.444125244140625,-0.0526820811346173,-0.0539124997124075,0.0003548047870397,-0.01155552174896,-0.0424241609871387,-0.0158411189913749
1783204157668063500,1.4540634765625,-0.0478894400306046,-0.0199574770100414,-0.0297603474915027,-0.0118876313790678,-0.0302412174642086,-0.0197468176484107
1783204157678000000,1.464000244140625,-0.0686406977668404,-0.0033323592931032,-0.0422971729815006,-0.0127212004736065,-0.0076006213203072,-0.0257192216813564
1783204157687937300,1.473937255859375,-0.0598784223794937,0.0145940502807497,-0.0046504561543464,-0.017209967598319,0.0024694784078747,-0.0272118765860795
1783204157697874400,1.48387451171875,-0.0306469210676848,0.0272208921417593,0.0176724348127841,-0.0280210673809051,0.0020625474862754,-0.0271604787558317
1783204157707811300,1.493811279296875,0.0275499779656529,0.0356572965756058,0.0203267487138509,-0.0289885178208351,-0.0281195268034935,-0.0221853069961071
1783204157717749200,1.503749267578125,0.0748757927641272,0.0204417533956468,-0.0337204832941293,-0.0239833705127239,-0.0438622720539569,-0.0168898776173591
1783204157727686400,1.513686279296875,0.077421970115602,0.0064120589993894,-0.0960159036874771,-0.0191325843334198,-0.0262605510652065,-0.0143338656052947
1783204157737623300,1.523623291015625,0.0676765289098024,0.0027276713982224,-0.0682394234895706,-0.0205227546393871,-0.0116160940378904,-0.0108382003381848
1783204157747560200,1.533560302734375,0.0369128495946526,0.031493308763951,-0.0805330878734588,-0.0169059671461582,-0.007395404856652,-0.0130521282553672
1783204157757498400,1.543498291015625,0.0355493061564862,0.0351641062311828,-0.0938648631334304,-0.0151456175372004,-0.0057820617221295,-0.0187065508216619
1783204157767435300,1.553435302734375,0.053508887347579,0.0037982232391834,-0.0799976658225059,-0.0175801739096641,-0.015143409371376,-0.0148123474791646
1783204157777372400,1.563372314453125,0.0787406514987349,-0.0104269937291741,-0.0952092634797096,-0.0193149596452713,-0.0230290275067091,-0.0103696621954441
1783204157787309300,1.573309326171875,0.0966797744236886,-0.0219932206213474,-0.0870814866036176,-0.015813548117876,-0.0235138591378927,-0.0024584787897765
1783204157797247500,1.58324755859375,0.0914724150389432,-0.022507746014744,-0.0786935974866151,-0.0170572437345981,-0.0196208506822586,0.0052676172927021
1783204157807184100,1.59318408203125,0.0796333625547587,-0.0030656711809337,-0.0410252533495426,-0.0217947848141193,-0.0239862985908985,0.0061083827167749
1783204157817121300,1.603121337890625,0.0651435033008456,0.0242355927206575,-0.0059241293519735,-0.0227050520479679,-0.040182314813137,0.0029711788520216
1783204157827058400,1.613058349609375,0.0226176361300051,0.0226199742175638,-0.0957487771838903,-0.0184851679950952,-0.0185651909559965,0.0017079978715628
1783204157836995300,1.622995361328125,0.0002630348503589,0.0245336988843977,-0.0281055660218,-0.0213102493435144,-0.0050618983805179,-0.0084197372198104
1783204157846933200,1.632933349609375,-0.0190783560879528,0.0363340267933905,-0.0340466465085744,-0.0187467001378536,-0.007494494318962,-0.0176072362810373
1783204157856870400,1.642870361328125,-0.0100558223292231,-0.0012266191855072,-0.1027419970721006,-0.0116736106574535,-0.0107294367626309,-0.0233697853982448
1783204157866807300,1.652807373046875,0.009184154061228,-0.0225695592045784,-0.1746609858572483,0.0076811267063021,-0.0054885200224816,-0.017627578228712
1783204157876744200,1.662744140625,-0.0142220020979642,0.0006979191362857,-0.2131687034279108,0.0265094079077243,0.01332245208323,-0.0148978382349014
1783204157886682400,1.672682373046875,-0.0353420931465923,0.0293307239025831,-0.1927332336425781,0.0417828038334846,0.0283671412616968,-0.0127282440662384
1783204157896619300,1.682619384765625,-0.0125147597886621,0.0124158294588327,-0.1599444782406091,0.0478446930646896,0.024450697004795,-0.0099239349365234
1783204157906556400,1.692556396484375,0.0622413521185517,-0.0042154257379472,-0.1187602349370717,0.0414628945291042,0.0139236142858862,0.0023058264050632
1783204157916492300,1.7024921875,0.130462655429542,-0.004258680357784,-0.0652069239258766,0.0339317396283149,0.0083043444901704,0.0135070821270346
1783204157926430200,1.71243017578125,0.1468451965622604,0.0198097391024231,-0.0028512977778911,0.0206290930509567,0.0089296326041221,0.0275216568261384
1783204157936367400,1.722367431640625,0.1434212134629487,0.0617218582890927,0.0540671057522296,-0.0062885414808988,0.0094401612877845,0.0382398143410682
1783204157946304000,1.732303955078125,0.1234513153627514,0.0987374376058578,0.1098106202840804,-0.0243197567760944,0.012649486772716,0.0398205779492855
1783204157956241200,1.7422412109375,0.0997286406002938,0.1025660559833049,0.1615513289153576,-0.0484575852751731,0.0125261824578046,0.0367715246975421
1783204157966179000,1.752178955078125,0.0645059360496699,0.0762340755052864,0.1576391239076852,-0.0645354390144348,0.0109549891203641,0.0256526935845613
1783204157976116200,1.7621162109375,0.0107578331187367,0.0370903981186449,0.0898515358388423,-0.075075164437294,0.0194741748273372,0.0232704952359199
1783204157986053000,1.77205322265625,-0.0134779057323932,0.0065744099542498,0.0831003080129623,-0.0797877237200737,0.0190495178103446,0.0175143033266067
1783204157995990300,1.781990234375,-0.0293159647248685,-0.0203673729851841,0.0484662170052528,-0.0765338763594627,0.0034298123791813,0.0082584870979189
1783204158005928200,1.79192822265625,-0.0529569525532424,-0.0485913046896457,-0.0907037687540054,-0.0608086064457893,-0.0023414841853082,0.0032867148984223
1783204158015865000,1.801864990234375,-0.0655861325018107,-0.0950653249643743,-0.1466992122203111,-0.0452299155294895,-0.0013707615435123,-0.0006467739585787
1783204158025802200,1.81180224609375,-0.0797768626786768,-0.1149181725561618,-0.184904147452116,-0.0320470668375492,-0.0052359006367623,-0.0018736061174422
1783204158035739100,1.8217392578125,-0.0911883374005556,-0.1145449553295969,-0.2032423526972532,-0.0157578401267528,-0.0193099062889814,-0.0060100276023149
1783204158045677300,1.83167724609375,-0.0492344248987734,-0.1059995375633239,-0.2193026761382818,-0.0032122433185577,-0.0252714436501264,-0.0082626212388277
1783204158055614200,1.8416142578125,-0.0433764926508069,-0.0976123790986835,-0.21865327231884,0.0100433733314275,-0.0194007717072963,-0.0060181096196174
1783204158065551400,1.85155126953125,-0.056456485106796,-0.0615270663693547,-0.2022042418211698,0.018984692171216,-0.0075304801575839,-0.0087552145123481
1783204158075488000,1.861488037109375,-0.0494989210538566,-0.011803542779386,-0.1508791282534599,0.0247024986892938,-0.0122860856354236,-0.0142021775245666
1783204158085426200,1.87142626953125,-0.0391707115240395,0.0136880413517355,-0.1222322949618101,0.0383528098464012,-0.0032904115505516,-0.0135533399879932
1783204158095363000,1.881363037109375,-0.0515238510102033,0.0215048525825142,-0.1179798982143402,0.0405134297907352,0.0246272385120391,-0.023018479347229
1783204158105300200,1.89130029296875,-0.0438506860338151,0.0525027790449559,-0.002935468930006,0.0324098244309425,0.0288860872387886,-0.0276029855012893
1783204158115237000,1.901237060546875,-0.0237407949410378,0.0865584856428205,0.0097480715543031,0.0225867535918951,0.0362097807228565,-0.0251992158591747
1783204158125175300,1.91117529296875,0.0427723892778158,0.0621798311896622,0.0806423934668302,0.0063286875374615,0.0180155970156192,-0.0189762078225612
1783204158135112200,1.9211123046875,0.0979823814548552,0.0448022876702249,0.114267015171051,-0.0071935122832655,-0.0060918685048818,-0.0139236589893698
1783204158145049000,1.931049072265625,0.1351581197693944,0.0230054664038121,0.1083580833882093,-0.0242949053645133,-0.0269403420388698,-0.0111090540885925
1783204158154986200,1.940986328125,0.1291211776927113,0.0239535609088838,0.0877571939080953,-0.0319637432694435,-0.0309470668435096,-0.0049062850885093
1783204158164924200,1.950924072265625,0.0945082756035029,0.0270953660659492,0.0430243182122707,-0.0351083576679229,-0.0130939902737736,-0.0074268784373998
1783204158174861300,1.960861328125,0.0489940402716398,0.0301234817154705,0.0121633160024881,-0.0334734432399272,0.0034397132694721,-0.008928901515901
1783204158184798200,1.970798095703125,0.0307797536671161,0.0294973126411437,-0.0239583832144737,-0.0351413823664188,0.0019408864900469,-0.0100215962156653
1783204158194736000,1.980736083984375,0.012680033352971,0.0120014034390449,-0.1176566576093435,-0.0308281257748603,0.007975342683494,-0.010948110371828
1783204158204673300,1.99067333984375,0.0044175241813063,-0.0150638597495853,-0.1379915896296501,-0.017261654138565,0.0019203159026801,-0.0101524908095598
1783204158214610200,2.000610107421875,-0.0076864628493785,-0.036593116120994,-0.1645458345562219,-0.0099430223926901,-0.0059525212273001,-0.0075644301250576
1783204158224547000,2.010547119140625,-0.0259656313836574,-0.0369011591568589,-0.1786047550469637,0.0054276469163596,-0.0001966832205653,-0.002153777051717
1783204158234485200,2.0204853515625,-0.0478689817644655,-0.061630819004774,-0.1529331381738185,0.0208044722676277,0.000278424937278,-0.0060760807245969
1783204158244422100,2.030422119140625,-0.0499310288608074,-0.0571910829916596,-0.1150070198833942,0.0136513784527778,-0.0013671210035681,-0.0056211687624454
1783204158254359300,2.040359375,-0.042961335978657,-0.0460816599562764,-0.0559504352807998,0.0089128157123923,0.0030289590358734,-0.0093341479077935
1783204158264296200,2.050296142578125,-0.0417315019227564,-0.0266533213868737,0.0221884509325027,-0.002708887681365,-0.0084879454225301,-0.0088530471548438
1783204158274234400,2.060234375,-0.0263707050532102,0.0150396020911633,0.0716319885373115,-0.0194764174520969,-0.0243673101067543,-0.0141559336334466
1783204158284171000,2.0701708984375,-0.0124411100305616,0.0393882997974753,0.1143897647678852,-0.025752019137144,-0.0391776524484157,-0.0121398735791444
1783204158294108200,2.080108154296875,-0.0254011293686926,0.0344508433952927,0.0873047739654779,-0.0320685021579265,-0.0312337093055248,-0.0156062440946698
1783204158304045300,2.09004541015625,-0.0515375872746109,0.0442338401325047,0.1108002158433198,-0.0381051376461982,-0.0203738138079643,-0.0165059976279735
1783204158313983200,2.099983154296875,-0.0423868970915675,0.0485129787564277,0.0993055928826332,-0.0407224893569946,-0.0310725290328264,-0.0133943585678935
1783204158323920100,2.109920166015625,-0.0177346863940358,0.0159628544159233,0.0374450567752122,-0.0398114547133445,-0.0326482094824314,-0.0176093876361846
1783204158333857300,2.119857177734375,-0.0268520588293671,-0.0084634385712444,0.0055588031709194,-0.0434141755104064,-0.0273338705301284,-0.0266185943037271
1783204158343794200,2.129794189453125,-0.0197762752242386,-0.0412855117209255,-0.0160369425654411,-0.0508452281355857,-0.031779546290636,-0.0357211045920848
1783204158353732000,2.139732177734375,0.0122378425434231,-0.0600774520829319,-0.0767372027218341,-0.0485538467764854,-0.0353098325431346,-0.0342694148421287
1783204158363669200,2.149669189453125,0.0467401238650083,-0.06752250739187,-0.1509586232304573,-0.0371799282729625,-0.0416286215186119,-0.0261194333434104
1783204158373606100,2.159606201171875,0.0745060826689004,-0.027967618855834,-0.1977145291864872,-0.016309268772602,-0.0411401987075805,-0.0170476399362087
1783204158383544300,2.16954443359375,0.0584472205325961,0.0206302617050707,-0.231398772123456,0.0013590967282652,-0.0344652272760868,-0.0109556149691343
1783204158393481200,2.179481201171875,0.0389507851630449,0.0199202137395739,-0.2284878531128168,0.0146117843687534,-0.0289554148912429,-0.0151048200204968
1783204158403418400,2.18941845703125,0.0164051913559436,0.0080856913000345,-0.2379769814699888,0.0269894897937774,-0.0135353058576583,-0.018202606588602
1783204158413355000,2.19935498046875,0.0014938918195664,-0.0057983110152184,-0.188367439648509,0.0310287065804004,0.0040620630607008,-0.0237758047878742
1783204158423293200,2.209293212890625,-0.0058601242050528,0.0148377959087491,-0.1332306588381528,0.0253800302743911,0.00986298173666,-0.0267286747694015
1783204158433230000,2.21922998046875,0.0195689160838723,0.0463581388100981,-0.0854910025417804,0.0239136945456266,-0.0073780571110546,-0.0245962813496589
1783204158443167200,2.229167236328125,0.0643916620202362,0.0281577346004545,-0.0945715500980615,0.0299983732402324,-0.0295696333050727,-0.0216033775359392
1783204158453104400,2.2391044921875,0.0919005773231387,-0.0097530399903655,-0.1386813254594802,0.0443115308880806,-0.0335196331143379,-0.020883260294795
1783204158463042300,2.249042236328125,0.0661462506026029,0.01885974490121,-0.1872463266640901,0.0563109517097473,-0.0059557720087468,-0.0190943703055381
1783204158472979200,2.258979248046875,0.0319701324954628,0.0451778429843485,-0.1453665023118257,0.0625952184200286,0.0172416921705007,-0.015669547021389
1783204158482916000,2.268916015625,0.0122857733383774,0.0373049176521599,-0.1342366210103034,0.0693725943565368,0.0257013924419879,-0.0175323393195867
1783204158492854000,2.27885400390625,0.0171959033422172,0.0103774554990231,-0.1309574532091617,0.0619237311184406,0.0164764691144227,-0.0208240058273077
1783204158502791200,2.288791259765625,0.028418869754672,-0.0175759887009859,-0.1235182431191205,0.0686822533607482,0.0078756138682365,-0.019525846466422
1783204158512728300,2.298728271484375,0.0260083014816045,-0.0122891343392431,-0.0949129108816385,0.0667117834091186,0.0021839058026671,-0.0174816027283668
1783204158522665200,2.308665283203125,0.0276683436483144,0.0102988373048603,-0.056317515027523,0.0676464065909385,-0.0015731686726212,-0.0059831412509083
1783204158532603100,2.31860302734375,0.0328374168492853,0.0334735227957367,-0.0167056356072425,0.0704584345221519,-0.0117890536785125,-0.0033466117456555
1783204158542540300,2.328540283203125,0.0378461849220097,0.0429816481143236,-0.0235059632718563,0.0708688721060752,9.69413667917e-05,-0.0023536966182291
1783204158552477200,2.338477294921875,0.0184846279785037,0.0476931868061423,0.0099959088355302,0.0629696696996688,0.0139211434870958,-0.0040629133582115
1783204158562414000,2.3484140625,0.0028717560440301,0.0751011259526014,0.0908691884487867,0.0482094064354896,0.0168740991503,-0.0034020945895463
1783204158572352300,2.358352294921875,0.0016080197185277,0.0783968064971268,0.1311070908129215,0.0330080799758434,0.0052302265539765,-0.0063608665950596
1783204158582289200,2.3682890625,0.0277951848983764,0.0606299713991582,0.1428746854960918,0.0212226510047912,-0.0085158199071884,-0.0070141404867172
1783204158592226300,2.378226318359375,0.041450639154762,0.0437253060884773,0.1270621993362903,0.0080594439059495,-0.0193173363804817,-0.0032396425958722
1783204158602164200,2.388164306640625,0.0528229509100317,0.0351454015307128,0.1248223114550113,-0.0004254365339875,-0.0197798479348421,-0.0042357970960438
1783204158612101400,2.398101318359375,0.0437983713246881,0.0183323600262403,0.1129015720367431,-0.0117044560611248,-0.0217098407447338,-0.0027273825835436
1783204158622038000,2.4080380859375,0.0188612062059342,-0.0030031273387372,0.0602893412679433,-0.0164063666015863,-0.0287448018789291,-0.0064591383561491
1783204158631975200,2.41797509765625,-0.0105935824677348,-0.0031783377751708,-0.0211135151773691,-0.0152889043092727,-0.0165419317781925,-0.0085198925808072
1783204158641913000,2.4279130859375,-0.025548575015366,-0.0063680737271904,-0.0343739787667989,-0.016124453395605,-0.01018494553864,-0.0121193770319223
1783204158651850200,2.437850341796875,-0.0304275792285799,0.006724193688482,-0.0573860210418701,-0.0183705650269985,-0.0074946195818483,-0.0118812900036573
1783204158661787400,2.447787353515625,-0.0141517133407294,-0.0109030868083238,-0.0956651905536651,-0.0162204429507255,-0.0050100143998861,-0.0088119963183999
1783204158671725300,2.457725341796875,-0.0027893384575843,-0.0128726333156228,-0.1218447569489479,-0.0085529359057545,-0.0053253322839736,-0.0057019568048417
1783204158681662200,2.467662109375,0.0074532386153936,-0.0046285365834832,-0.1421820270568132,-7.0547685027e-06,6.0701277107e-05,0.002465515397489
1783204158691599000,2.47759912109375,0.0231780464917421,0.0017363222733139,-0.1153279224008321,0.0063270078971982,-0.0030658496543765,0.0063025974668562
1783204158701536300,2.487536376953125,0.0364418710820376,0.0057004035986959,-0.1421668294876814,0.0128421429544687,-0.0063744313083589,0.0105021800845861
1783204158711474200,2.49747412109375,0.0493996984630823,0.0136987088762223,-0.1429898363083601,0.0232652220875024,0.0062209889292716,0.010954650118947
1783204158721411300,2.507411376953125,0.04616816919595,0.0277351252742111,-0.0917605843305587,0.0212665554136037,0.0092893671244382,0.0145687852054834
1783204158731348200,2.51734814453125,0.0447990727998316,0.0271589328214526,-0.0684200407534837,0.0270623937249183,0.009253148920834,0.0133916679769754
1783204158741286400,2.527286376953125,0.0358832142859697,0.0074678516626358,-0.0662362669736146,0.0276237875223159,0.0049670687876641,0.0138570079579949
1783204158751223000,2.53722314453125,0.0397454426720738,-0.0050140287697315,-0.0419914680331945,0.0249688830226659,-0.00265649612993,0.0149880526587367
1783204158761160200,2.54716015625,0.0311097162738442,0.0020925883650779,-0.0182785840123891,0.020592875778675,-0.0054302243515849,0.0138595392927527
1783204158771098000,2.55709814453125,0.0332674788296222,0.0157654321476817,0.0223678991526365,0.0114553039893507,-0.0125568434596061,0.0081441290676593
1783204158781035300,2.56703515625,0.0292731484964489,0.0130589496679604,0.0212263279020786,0.0077203093096613,-0.0073514655232429,0.0066053089685738
1783204158790972200,2.57697216796875,0.0105317692779004,-0.0028096505932509,0.0280225639134645,0.0013337824493646,-0.0005028801970183,0.005016999784857
1783204158800909300,2.586909423828125,0.0087460549049079,-7.67184980213e-05,0.054107437762618,-0.0080274920910596,-0.006658221129328,0.0060400087386369
1783204158810847200,2.59684716796875,0.0046567397646605,0.0193454825915396,0.0263765502721071,-0.0109543055295944,-0.0057639316655695,0.0021334178745746
1783204158820784000,2.6067841796875,-0.0007261223174631,0.0068888827309012,0.0261807354390621,-0.0182772800326347,-0.0019285539165139,-0.0014152438379824
1783204158830721000,2.616720947265625,-0.0038066988065838,-0.0019236615389585,0.0435036261618137,-0.0278036743402481,-0.0068234447389841,-0.0003238804638385
1783204158840659200,2.6266591796875,-0.0040345162130892,-0.0081505732297897,0.0247977566480636,-0.0294647216796875,-0.0214279703795909,-0.0020152544602751
1783204158850596000,2.63659619140625,0.0027830548472702,-0.0107549105092883,-0.0331698636740446,-0.0239264108240604,-0.0195331312716007,-0.0028363070450723
1783204158860533200,2.646533203125,-0.0061116147480905,-0.018021394380927,-0.046319268104434,-0.0201090052723884,-0.0088857961818575,-0.000482072122395
1783204158870470400,2.656470458984375,-0.0020456804834306,-0.012099164725095,-0.0452092610359191,-0.0198842324316501,-0.00951190572232,-0.0004064384847879
1783204158880408300,2.666408203125,0.0114925771340727,-0.0019289222359657,-0.0727998632729053,-0.0159036070108413,-0.0132901323959231,0.0011094328947365
1783204158890345200,2.67634521484375,0.0065481064692139,-0.0127741413772106,-0.0843581991195678,-0.0110928723588585,-0.0132403308525681,-0.0041143577545881
1783204158900282000,2.6862822265625,0.0037505847051739,-0.0140336399190127,-0.1108861405611038,-0.0091154687106609,-0.0082467589527368,-0.0031939251348376
1783204158910220000,2.696219970703125,0.002576426359266,-0.026130466556549,-0.1009960301876068,-0.0060062296688556,-0.0038999463431537,-0.0012711228337138
1783204158920156700,2.70615673828125,0.0067591188713908,-0.0230992821671068,-0.1004775592714548,-0.0008394373580813,-0.0132778342813253,-3.55490483343e-05
1783204158930093800,2.71609375,0.0111789811402559,-0.0346627325803041,-0.1188672024428844,0.0084179770201444,-0.0191793981939554,-0.003110434859991
1783204158940031700,2.72603173828125,-0.0339794264912605,0.0164501995414495,-0.1516588804543018,0.0140685262158513,-0.0016106902621686,-0.0072863604873418
1783204158949969000,2.735968994140625,-0.0352083837643265,0.0335664617761969,-0.0907861863404512,0.0137622626498341,0.0083351507782936,-0.0085870483890175
1783204158959905500,2.745905517578125,0.0110008480943739,0.0015428455278277,-0.0947714565843343,0.024499025195837,-0.0123770926147699,-0.0057948129251599
1783204158969842700,2.7558427734375,0.0524381893761456,-0.0058513563767075,-0.1402940213531255,0.0416758805513381,-0.0181835833936929,0.004414414986968
1783204158979780600,2.765780517578125,0.0522884056419134,0.034357027631998,-0.1399199273437261,0.0507767014205455,-0.0054233134724199,0.002632494084537
1783204158989717800,2.7757177734375,0.0125488081887364,0.0709383071847259,-0.0812555569291114,0.0456842072308063,0.0091606900095939,0.0059092473238706
1783204158999654700,2.785654541015625,0.0025944004073739,0.0730716659516096,-0.0261573545634746,0.0385307595133781,0.0104485545307397,0.0034135552123188
1783204159009592800,2.7955927734375,0.0220472888961434,0.0274503169834613,-0.0131833066999912,0.0312941521406173,0.0009394716471433,0.0102570801973342
1783204159019529700,2.80552978515625,0.0498635165825486,-0.0059996788062155,-0.0132803373336791,0.0230626985430717,-0.0062212562188506,0.0161157250404357
1783204159029466600,2.815466552734375,0.0682346011839807,-0.0020550328336656,-0.0067974050551652,0.0151312733069062,-0.0119169577956199,0.0207126066088676
1783204159039404500,2.825404541015625,0.0668441697388887,0.0249497323393821,0.0103974753737449,0.0091779371723532,-0.012094859033823,0.0256687030196189
1783204159049341700,2.835341796875,0.055141603115946,0.0316894158579409,0.007689385458827,-0.0024891048669815,-0.0040073720738291,0.0242116898298263
1783204159059278800,2.84527880859375,0.0382208634532988,0.0225863642089068,0.0224801273554563,-0.0157868452370166,0.0061975759454071,0.0163915827870368
1783204159069215700,2.8552158203125,0.0033303134664893,0.0141828391313552,0.0303021992832422,-0.0282855927944183,0.0096674086526036,0.0094915982335805
1783204159079153700,2.865153564453125,-0.0137934014223515,-0.0088929160296916,0.0244751005649566,-0.0331516042351722,0.0157324708998203,0.0045489938929677
1783204159089090600,2.875090576171875,-0.0074377487853169,-0.0220868902541697,0.0062269116908311,-0.0337236523628234,0.008963780477643,0.0030216707382351
1783204159099027700,2.88502783203125,-0.0121142161637544,-0.0165945764482021,-0.0480652349889278,-0.0225918255746364,0.0070757810026407,0.000372668961063
1783204159108965600,2.894965576171875,-0.0113432317912578,-0.0240352478429675,-0.0733452221959829,-0.0143831633031368,-0.0009150337427854,0.0017916008364409
1783204159118902800,2.90490283203125,-0.0199976628899574,-0.0221019416928291,-0.0993827497720718,-0.0028662933036684,-0.0013182344846427,0.0040516946464776
1783204159128839700,2.914839599609375,-0.0392649656787514,-0.0218131878793239,-0.0910129808336496,6.13201409578e-05,-0.0043683531694114,0.0029355639126151
1783204159138777900,2.92477783203125,-0.0443945836521685,-0.0230434603266417,-0.1022311249405145,0.0043980292975902,-0.0051336218602955,-0.0038137305527925
1783204159148714800,2.93471484375,-0.0483633411526679,-0.0223671685002744,-0.1053822824478149,0.0076486836187541,-0.0010760291479527,-0.0060774171724915
1783204159158651600,2.944651611328125,-0.0439741662830114,-0.0141799165219068,-0.0890764598131179,0.0082503855228424,0.0007762615568935,-0.0083929477259516
1783204159168588500,2.954588623046875,-0.0349028249464929,-0.0018377368211746,-0.0829115074425935,0.0099303070455789,0.0035137247759848,-0.0101900491863489
1783204159178526700,2.964526611328125,-0.0081096566975116,0.0014034370571374,-0.0759942754000425,0.0198462400585412,-0.0013443524949252,-0.0093230567872524
1783204159188463600,2.974463623046875,0.0194613640561699,0.0090510292008519,-0.1049357077240943,0.0260905548930168,-0.0034106988459825,-0.0071411291137337
1783204159198400800,2.98440087890625,0.0378141823485493,0.0095621935933828,-0.1026549033105373,0.0288806669414043,0.0019335867837071,-0.0033535347320139
1783204159208338700,2.994338623046875,0.0410277375675737,0.0167772395387291,-0.0716489396721124,0.0251559689640998,0.0075312848202884,-0.0063945986330509
1783204159218275800,3.00427587890625,0.0384362597696483,0.0176604521140456,-0.0511035797715187,0.0202971473336219,0.011390658095479,-0.0054400791414082
1783204159228212500,3.01421240234375,0.0311272519305348,0.0127466688483953,-0.0621750088840723,0.0212241951376199,0.0122388750314712,-0.0081692859530448
1783204159238150700,3.024150634765625,0.0296555719427764,0.0157899820670485,-0.0392892233371734,0.0172822996973991,0.0060078566893935,-0.0091831963509321
1783204159248087600,3.034087646484375,0.0518301404803991,0.0068032502740621,-0.0284141935795545,0.0164220985025167,-0.0082762744277715,-0.0074862297624349
1783204159258024700,3.044024658203125,0.0469293628267943,-0.0073160221017897,-0.0337923794865608,0.0192653350532054,-0.0036515309475362,-0.0036019657272845
1783204159267962600,3.053962646484375,0.0348369201034307,-0.0043294075064361,-0.0180640644788742,0.014806936495006,0.0051875011995434,-0.0031907735392451
1783204159277899800,3.063899658203125,0.021380349420011,0.017081483182311,0.0182376674801111,0.0061878892593085,0.0035771476104855,-0.0008957488462328
1783204159287836700,3.073836669921875,0.0220009655363857,0.0232730312988162,0.0356119961291551,-0.0023153172805905,-0.003606729209423,0.0023466497659683
1783204159297774800,3.08377490234375,0.0295918590568006,0.024188977099955,0.0443406615078449,-0.005474729463458,-0.0166528206318616,0.0048446077853441
1783204159307711500,3.09371142578125,0.0295054959475994,0.0277136440947651,0.0162993928939104,-0.0083000771701335,-0.0175343267619609,0.0055817700922489
1783204159317648600,3.103648681640625,0.0212717744790017,0.0373074018701911,8.9431849122e-05,-0.0108123207464814,-0.0085685532540082,0.0084089841693639
1783204159327585800,3.113585693359375,0.012023615270853,0.0437714833177626,0.01111526825428,-0.013402777723968,-0.0060766325332224,0.0140650058165192
1783204159337523700,3.123523681640625,0.011641337954998,0.0320934666141867,0.0025672201395034,-0.0155592011287808,-0.0127564277499914,0.0103448769077658
1783204159347460900,3.1334609375,-0.0032739071041345,0.0181279234953224,-0.0055570496052503,-0.0211236104369163,-0.012273596599698,0.0078433696180582
1783204159357397800,3.143397705078125,-0.0055973816156387,-0.0016606266885995,-0.0067956514894962,-0.0260363444685935,-0.0093822032213211,0.0044821938499808
1783204159367335700,3.153335693359375,-0.0100311262793838,-0.0141289169870316,0.0107043493658304,-0.0285040289163589,-0.0170835312455892,0.0083400486037135
1783204159377272600,3.1632724609375,0.0017528350166976,-0.015724661745876,-0.0061672904580831,-0.0306309107691049,-0.0216936692595481,0.0116848461329936
1783204159387209700,3.173209716796875,0.0060531625591218,-0.0176417474135756,-0.007094342175126,-0.0320570319890975,-0.0294067170470953,0.0080176731571555
1783204159397147600,3.183147705078125,0.0119119715899229,-0.0156241239808499,-0.0238595990151166,-0.0332894288003444,-0.0328467674553394,0.0084475111216306
1783204159407084800,3.193084716796875,0.0197165078610181,0.0191360776245594,-0.0498994646787643,-0.0314390659332275,-0.0291684083640575,0.0068086022511124
1783204159417021700,3.203021728515625,0.0154497903272509,0.0241302326500415,-0.047572483035922,-0.0316908583045005,-0.0228909682482481,0.0091590173542499
1783204159426960000,3.2129599609375,0.0157864749357104,0.0299167070969939,-0.0742576608657836,-0.0277616288512945,-0.0093754259869456,0.0136845279484987
1783204159436896800,3.222896728515625,0.0306963131673634,0.0275100843466818,-0.0825017575979232,-0.0260916221886873,0.0010382519103586,0.012799646705389
1783204159446833700,3.232833740234375,0.0396416900366544,0.0052853930570185,-0.0903173997849225,-0.0229240600019693,-0.0046316180378198,0.0196761954575777
1783204159456771600,3.242771484375,0.0490649135507643,0.0026003917567431,-0.0933539910018444,-0.022416602820158,-0.0127967940643429,0.0215821769088506
1783204159466708700,3.252708740234375,0.066517129741609,-0.0114652507357299,-0.0737397744715213,-0.0256976187229156,-0.0166828781366348,0.0239976644515991
1783204159476645600,3.262645751953125,0.08249854272753,-0.0255972364626824,-0.0787538032412528,-0.0195253267884254,-0.0148311629891395,0.0198242701590061
1783204159486582800,3.272582763671875,0.0392927304685115,-0.0556339166775345,-0.1205932955831289,-0.0166608318686485,0.0025803185999393,0.010345546528697
1783204159496520700,3.282520751953125,0.0065660805173218,-0.0466289185754954,-0.1232522856593131,-0.0174271408468484,0.0089584290981292,0.0053957058116793
1783204159506457900,3.292457763671875,0.0218519124545156,-0.0553222203798592,-0.1424146667689085,-0.0059228166937828,0.0081373760476708,0.0135194128379225
1783204159516394500,3.30239453125,0.0453610905967652,-0.0466524455815553,-0.1490185950785875,0.007667607627809,0.0040323631837964,0.0183084830641746
1783204159526332700,3.312332763671875,0.0230441909790039,-0.0151927468262612,-0.1167114857137203,0.0097818914800882,-0.008491950109601,0.0181699991226196
1783204159536269600,3.32226953125,-0.0067944824457168,0.0169930742464959,-0.0943166985541582,0.0120570613071322,-0.0136627033352851,0.0160174556076526
1783204159546206700,3.332206787109375,-0.0054926060669124,-0.0116797702692449,-0.0567290184378623,0.013034707866609,-0.0107683800160884,0.0131529597565531
1783204159556144600,3.34214453125,-0.005195815077424,-0.019410802912712,-0.0525982022434473,0.0147629287093877,-0.0018748990260064,0.0102535765618085
1783204159566081800,3.352081787109375,-0.0176155900590121,0.0116046592064201,-0.0445166025966405,0.0159930437803268,0.0145962201058864,0.0055600218474864
1783204159576018700,3.362018798828125,-0.0269468975059688,0.0195784145645797,-0.0174012166559696,0.0130497496575117,0.0189541727304458,0.0069629321806132
1783204159585956900,3.371956787109375,-0.0377656670317053,0.0269341841548681,-0.0113227735251188,0.0120854191482067,0.0106973070651292,0.0064545352943241
1783204159595893500,3.3818935546875,-0.0252322025425732,0.0229407306045293,-0.0097638536453247,0.0047984737902879,-0.0041323252953588,0.0020007991697639
1783204159605830700,3.39183056640625,-0.0134296826764941,0.0120250765755772,0.0225420866757631,-0.0032075205817818,-0.0145799051970243,0.001513174502179
1783204159615768600,3.4017685546875,-0.0115966220304369,-0.0047049628205597,0.0314724121063947,-0.0110571775585412,-0.0186072904616594,0.0011457414366304
1783204159625705700,3.411705810546875,-0.0068989657334983,-0.0130666945829987,0.035187048715353,-0.0136340521275997,-0.0217335745692253,-0.0012409833725541
1783204159635643000,3.421642822265625,-0.0098236210085451,0.0029034663565456,0.034963176831603,-0.022559504956007,-0.0200047548860311,-0.001764470944181
1783204159645580800,3.431580810546875,-0.0089025606408715,0.0082186700299382,0.025278233641386,-0.0306262224912643,-0.0132973175495862,-0.0011554060038179
1783204159655517700,3.441517578125,-0.0022463176220655,0.0100366792373359,0.0318827464729547,-0.0356964878737926,-0.0131545811891555,-0.0016426714137196
1783204159665454600,3.45145458984375,0.0009723521634936,0.0118358376137912,0.0157680624961853,-0.0386339537799358,-0.0220788344740867,-0.0051095746457576
1783204159675392500,3.461392578125,0.0124807113885879,-0.0010747896246612,-0.020662264278531,-0.0432991907000541,-0.0264550037682056,-0.0042774705216288
1783204159685329700,3.47132958984375,0.0174327808380126,-0.0176421858049929,-0.0068003276646137,-0.0525195822119712,-0.0199502296745777,-0.0006230808794498
1783204159695266800,3.481266845703125,0.034394437032938,-0.0034270518392324,0.0319762699753046,-0.0544366464018821,-0.0602256432175636,0.0029457313939929
1783204159705204700,3.491204833984375,0.0453229505434632,0.0155411218725144,-0.0742728584349155,-0.0388835147023201,-0.0446075350046157,0.0054672118276357
1783204159715142000,3.501141845703125,0.0273237679943442,0.0061442018434405,-0.1206710369944572,-0.0285648684948682,-0.0142461229115724,0.0079621039330959
1783204159725078500,3.51107861328125,0.0020732991427183,0.0390131828747689,-0.0727986942291259,-0.0301177594810724,0.0030348643194884,0.0081807496026158
1783204159735016700,3.5210166015625,-0.0100923549473285,0.0479164741680026,-0.0732978759229183,-0.0321613475680351,0.0054392418824136,0.0075649851933121
1783204159744953600,3.53095361328125,0.0288180982053279,0.0149453479364514,-0.0613210224032402,-0.0350064039230346,-0.0084464801475405,0.0052488334476947
1783204159754890800,3.540890869140625,0.0649726767785847,-0.0198528475917875,-0.0762660780787467,-0.0347131863236427,-0.0230757556855678,0.0045201927423477
1783204159764828700,3.55082861328125,0.0740929718233645,-0.0291559518575668,-0.0904267053782939,-0.0318558812141418,-0.0309240911155939,0.0093237366527318
1783204159774765800,3.560765869140625,0.0670313628740608,-0.0087250121168792,-0.1020949313402175,-0.0261821635067462,-0.0259823501110076,0.0179432798177003
1783204159784702700,3.57070263671875,0.0486900888890027,0.0299747208945453,-0.1051227547287941,-0.0153116742148995,-0.0136724207550287,0.0255908127874135
1783204159794641000,3.580640869140625,0.0312774740561842,0.0391030531153082,-0.1089127946615219,-0.008854110725224,0.0011819056235253,0.0259637478739023
1783204159804577500,3.59057763671875,0.018998714980483,0.0224468096077442,-0.0941442645967006,-0.0041666822507977,0.0091700572520494,0.0259352512657642
1783204159814514700,3.6005146484375,0.0246785141825675,0.021604221303761,-0.0635918899446725,-0.0063295727595686,0.0055146696977317,0.0290507022291421
1783204159824451600,3.61045166015625,0.0398284447804093,0.0175396022133529,-0.0374450567752122,-0.0100734448060393,-0.0015925085172057,0.0291942488402128
1783204159834389800,3.6203896484375,0.0533648027017712,0.0052177346482872,-0.0310059636384248,-0.0116892866790294,-0.0036828503943979,0.0274384282529354
1783204159844326700,3.63032666015625,0.0408374756924808,-0.0112196054115891,-0.0498258149206638,-0.007835691794753,0.0037393793463706,0.0234721824526786
1783204159854263800,3.640263916015625,0.0127194885805249,-0.0298845583930611,-0.0761328070878982,-0.0062974970787763,0.009145070798695,0.0209325440227985
1783204159864201700,3.65020166015625,-0.0148301971241831,-0.0239011000692844,-0.0888578486263751,0.0028190370649099,0.0124103724956512,0.0194510277360677
1783204159874138600,3.660138671875,-0.0168986739613115,-0.0386843893118202,-0.1026543187886476,0.0082768006250262,0.0017510903999209,0.0208327211439609
1783204159884075500,3.670075439453125,-0.0085043551035225,-0.0288512698225677,-0.0992360347777605,0.0132859405130147,-0.018554713577032,0.0230016000568866
1783204159894013700,3.680013671875,0.0117564887672662,-0.0245893745943903,-0.1016051019966602,0.0171579550951719,-0.0261431336402893,0.0263793338090181
1783204159903950600,3.68995068359375,0.0198123694509267,-0.0261934487901628,-0.0916921952694654,0.0195081941783428,-0.0262320823967456,0.0270536467432975
1783204159913889500,3.6998896484375,0.0299948868997395,-0.0126795949615538,-0.0488970096379518,0.0210219733417034,-0.0276466235518455,0.0290552321821451
1783204159923827500,3.709827392578125,0.0087407942079007,0.0107183778911829,-0.0510743536770343,0.0181715935468673,-0.0166120827198028,0.0274155233055353
1783204159933764400,3.719764404296875,-0.0203803785972297,0.0252829098165035,-0.0118114338248968,0.0124807376414537,-0.0085388980805873,0.0213769860565662
1783204159943701500,3.729701416015625,-0.0682752254553139,0.0195177704185247,0.0158861359179019,0.0053938003256917,0.007074948400259,0.0112705547362566
1783204159953639400,3.739639404296875,-0.0837897515818476,0.0050711657844483,0.0235796130299568,-0.0055697821080684,0.0114129520952701,0.0028477308806031
1783204159963576600,3.74957666015625,-0.0678299659058451,-0.0165766024000942,0.0238671977996826,-0.0084188301116228,-0.0003675413317978,0.0002191907260566
1783204159973513700,3.759513671875,-0.0390989614620804,-0.035671909622848,-0.0025257190853357,-0.0106800217181444,-0.0086022745817899,0.003899143775925
1783204159983451600,3.76945166015625,-0.0254307938545942,-0.0376681980066001,0.0018307225584983,-0.0127863157540559,-0.0196067225188016,0.001225862884894
1783204159993388300,3.77938818359375,-0.0171460728511214,-0.0222908883936703,-0.0057516953945159,-0.0139074055477976,-0.0271050464361906,0.0017701729666441
1783204160003326500,3.789326416015625,-0.010652911439538,-0.012936492332071,-0.0049070612639188,-0.0128139117732644,-0.0278539266437292,-0.0003206748515367
1783204160013263400,3.799263427734375,-0.0316439692810177,-0.0013055296406149,-0.0589309123963117,-0.0094073424115777,-0.003424237947911,-0.0013223343994468
1783204160023200500,3.809200439453125,-0.0526914334848523,0.0126421855606138,-0.0431347928494215,-0.0100723346695303,0.0125278308987617,-0.0084992870688438
1783204160033137700,3.8191376953125,-0.0493406617522239,0.0069308221764862,-0.038581367328763,-0.0123190702870488,0.0131798321381211,-0.0129953678697347
1783204160043075600,3.82907568359375,-0.0147815356768667,-0.0133450731329619,-0.0736690473228693,-0.0101829497143626,0.0041703581809997,-0.0123399645090103
1783204160053012700,3.8390126953125,0.0148980016633868,-0.0391762644819915,-0.094283380806446,-0.0043569942936301,-0.0043333414942026,-0.0077272802591323
1783204160062949400,3.848949462890625,0.0394791929513216,-0.0367334013745188,-0.1175479365378618,-0.0009907577186822,-0.013107924722135,-0.002232379745692
1783204160072887300,3.85888720703125,0.0424200687088072,-0.0178159349367022,-0.1019756888747215,0.0044439975172281,-0.018481258302927,-0.0040646810084581
1783204160082824400,3.868824462890625,0.0266791864804923,-0.0146612702980637,-0.093755557540059,0.0066805202513933,-0.0166519321501255,-0.0025789032224565
1783204160092762400,3.878762451171875,0.025808833386749,0.0066894146360456,-0.0767249277621507,0.0020854389294981,-0.0075169731862843,-0.0071945115923881
1783204160102699500,3.888699462890625,0.0148072546400129,0.0171695998571813,-0.0600607932090759,0.0049866866320371,-0.0072597120888531,-0.004992077127099
1783204160112636700,3.89863671875,0.0269198633685708,0.0381438526943326,-0.0638034868687391,0.0096789058297872,0.0074122240766882,-0.0028130384162068
1783204160122574600,3.90857470703125,0.0363495166234672,0.0419977516435086,-0.0419020361840724,0.0049677742645144,0.019472349435091,-0.0019706804305315
1783204160132511500,3.918511474609375,0.0439877564169466,0.0277415550149977,-0.0204413150042295,0.0008249161764979,0.0188056305050849,0.0014917424414306
1783204160142448400,3.928448486328125,0.0528312803469598,0.0254701029516756,-0.0076847092837095,-0.0071371356025338,0.0041108415462076,0.0012342145200818
1783204160152386300,3.93838623046875,0.0545714020125567,-0.0039519524961709,0.0034428339302539,-0.0147124025970697,-0.0092708524316549,0.005594699177891
1783204160162323500,3.948323486328125,0.0481250023521482,-0.0173598617322742,0.0090840546876192,-0.020509572699666,-0.0125007349997758,0.0044548665173351
1783204160172260600,3.958260498046875,0.019185177463293,-0.0147683839343488,0.0119493809908628,-0.0228823330253362,-0.0090730814263224,0.0019023949280381
1783204160182198500,3.968198486328125,-0.0016509820774197,-0.0156780461251735,0.0155173026055097,-0.0235193613916635,-0.0106914853677153,0.0028092013671994
1783204160192135700,3.9781357421875,-0.0202260648183524,-0.0021918109558522,-0.0126940618783235,-0.0234427228569984,0.0003934907726943,-0.0002867667935788
1783204160202072300,3.988072265625,-0.0304717106312513,-0.0054882221527397,-0.0220084181904792,-0.0252227783203125,0.0078301019966602,-0.0006750556640326
1783204160212010500,3.998010498046875,-0.044944764880836,-0.0123082774311304,-0.0205535432070493,-0.0238594263792037,0.001493761781603,-0.0059582330286502
1783204160221947400,4.007947509765625,-0.0526246518589556,-0.0272054023116827,-0.0197860659658908,-0.0270224623382091,-0.0078659169375896,-0.0097029041498899
1783204160231884500,4.017884521484375,-0.0437196070000529,-0.0353010304838418,-0.03187280960083,-0.027745321393013,-0.0188208818435668,-0.0159630943089723
1783204160241822500,4.027822509765625,-0.0457638261787593,-0.0269647254236042,-0.0579869095444679,-0.0225708000361919,-0.0131520759314298,-0.0189090836793184
1783204160251759600,4.037759521484375,-0.0581833088994026,-0.017202771474421,-0.0739262369543314,-0.0197069458663463,-0.0015233135782182,-0.0228060018271207
1783204160261696500,4.047696533203125,-0.0445509432576596,-0.0104201255969703,-0.0566284806728363,-0.0193833746016025,0.0049415100365877,-0.026441216468811
1783204160271634700,4.057634765625,-0.0247008721448481,0.0016191256344318,-0.0631067367762327,-0.0154356025159358,0.0016701421700417,-0.026205925270915
1783204160281571300,4.0675712890625,0.0067430445194244,-0.0133325059123337,-0.0858171657562255,-0.00708126462996,0.0003452193923294,-0.0261286944150924
1783204160291508500,4.077508544921875,0.0181220782764255,-0.0018143559455871,-0.1255769292145967,0.0003613559529185,0.0037437989376485,-0.0199915803968906
1783204160301446400,4.0874462890625,0.025418957286328,0.0213198514044284,-0.1125759933441877,0.0089521808549761,0.004695878829807,-0.0139808254316449
1783204160311383600,4.097383544921875,0.0414943321660161,0.0302773571029305,-0.1082277350068092,0.0108003430068492,-0.0011959997937083,-0.0085663953796029
1783204160321320400,4.107320556640625,0.0627617227308452,0.0154378076285123,-0.1095779805719852,0.0131082385778427,-0.0034192069433629,-0.0020672171376645
1783204160331258600,4.117258544921875,0.0697061350412666,0.0087063074164092,-0.0907762494683265,0.0133762238547205,-0.0031154882162809,-0.0005276415031403
1783204160341195500,4.127195556640625,0.0681144819356501,0.0325435484692454,-0.065150225302577,0.0097857499495148,0.0005114702507853,0.002065744716674
1783204160351132400,4.13713232421875,0.0644774406075477,0.0383212550878524,-0.0263397253930568,0.006667673587799,0.0019859839230775,0.0062126396223902
1783204160361070300,4.1470703125,0.0573345831155776,0.0479820867501199,-0.01311082598567,0.0018918272107839,-0.0065345331095159,0.005577209405601
1783204160371007500,4.157007568359375,0.0561952038221061,0.037482758437097,-0.0254074129790067,0.0049004238098859,-0.0037629418075084,0.007479328662157
1783204160380944400,4.1669443359375,0.0171731069885194,0.0341004225224256,-0.0676607468187809,0.0077774371020495,0.0175945442169904,0.0036473067011684
1783204160390882600,4.176882568359375,-0.0045056408561766,0.0273711142674088,-0.0372743763834238,0.0072883060202002,0.0287076383829116,0.0026922037359327
1783204160400819500,4.1868193359375,-0.0058038639731705,0.027920857104659,-0.0347182621598243,0.0030900985002517,0.0170701574534177,0.003511658636853
1783204160410756600,4.196756591796875,-0.0011892097845673,-0.0056286535367369,-0.0358762000232934,0.0012170290574431,0.0024297453928738,0.0075507913716137
1783204160420694500,4.206694580078125,0.0060566696904599,-0.040163814214617,-0.0248626385778188,0.0008820034563541,-0.0070833321660757,0.0036189001984894
1783204160430631400,4.21663134765625,-0.0081622636675834,-0.0382134107992053,-0.0239291571199893,-0.0025791125372052,-0.0093428753316402,-0.0002072653733193
1783204160440568300,4.226568359375,-0.0283024037681519,-0.0204521286591887,-0.0280535435736179,-0.0008030496537685,-0.0056741056032478,-0.0002386907581239
1783204160450506500,4.236506591796875,-0.0437505866602063,-0.0207674782186746,-0.0417675961494445,5.8957375586e-05,-0.0083331856876611,-0.0027543059550225
1783204160460443400,4.246443359375,-0.049737844376266,-0.0098182141810655,-0.060241410472989,0.0029727220535278,0.0057120602577924,-0.0046046702191233
1783204160470381600,4.256381591796875,-0.0416065603688359,-0.0045557636082172,-0.0380447762340307,0.0027439128607511,0.0150761883705854,-0.0045840768143534
1783204160480318500,4.266318359375,-0.0289998845130205,0.0019143091887235,0.0078203183621168,-0.0019704150035977,0.0058715054765343,-0.0041949888691306
1783204160490255600,4.276255615234375,-0.0023540157802402,-0.0157768303245306,0.014077040669322,-0.0132598401978611,-0.0098011866211891,-0.0083242692053318
1783204160500193500,4.286193603515625,0.0343022287048399,-0.0336738676734268,0.0078559741973876,-0.0165325999259948,-0.0176623053848743,-0.0094931302592158
1783204160510130400,4.29613037109375,0.0203172502331435,-0.0158443426027894,-0.0147398884922266,-0.019421599805355,-0.0108814146369695,-0.0071999230422079
1783204160520067300,4.3060673828125,0.0005783844098448,0.004111380841583,-0.021423311778903,-0.0217891484498977,-0.0051793209277093,-0.0080840922892093
1783204160530005500,4.316005615234375,0.001762333497405,0.0092599957764148,-0.0398205537348985,-0.0195761546492576,-0.0033703921362757,-0.0092514473944902
1783204160539942400,4.3259423828125,0.0137159522719681,0.000902501797676,-0.0369897142231464,-0.0192592404782772,-0.0035221921280026,-0.0066530015319585
1783204160549879600,4.335879638671875,0.0152671272367239,0.0097683836899697,-0.0381973364472389,-0.0172257479280233,-0.0065098847262561,-0.0067502981983125
1783204160559817500,4.3458173828125,0.019474223537743,0.0099140757709741,-0.0442629200965166,-0.017761044204235,-0.0007414775900542,-0.0071242060512304
1783204160569754600,4.355754638671875,0.0218722245901823,0.0241840086638927,-0.0298819280445575,-0.0181719437241554,0.0015326351858675,-0.0046684155240654
1783204160579691500,4.36569140625,0.0231099496915936,0.0269616566836833,-0.0342500601261854,-0.0099193407222628,-0.0016064327210187,0.0040041683241724
1783204160589629400,4.37562939453125,0.0374766209572553,0.0286100084125995,-0.0541331567257642,-0.0105854934081435,0.0022983532398939,0.0103146620094776
1783204160599566300,4.38556640625,0.0653578767038881,0.0204715640120208,-0.0243973591536283,-0.0217606499791145,-0.0274845771491527,0.0129381418228149
1783204160609503500,4.39550341796875,0.0731027917422354,0.0077381930366158,-0.0251589911758899,-0.0206015817821025,-0.032236386090517,0.0057196067646145
1783204160619441400,4.40544140625,0.0306872530780732,-0.0212733819141984,-0.1000719010800123,-0.0196622833609581,-0.0093113631010055,0.0012311146128922
1783204160629378600,4.415378662109375,-0.0076850015446543,-0.0082578329965472,-0.0302303030908107,-0.0234032701700925,-0.0020583230070769,-0.0004633674398064
1783204160639315700,4.425315673828125,-0.0255472598411142,0.0206895906768739,-0.0615139146268367,-0.019332094117999,-7.13383778929e-05,-0.0035832605790346
1783204160649253600,4.435253662109375,-0.0193932672560214,0.0007153086625039,-0.0857680659174919,-0.0088599259033799,-0.0121914949268102,-0.0030191112309694
1783204160659190500,4.4451904296875,0.0016872224345803,-0.0034209143593907,-0.1305213998794555,0.0011461023241281,-0.008856151252985,-0.0006584853399544
1783204160669127400,4.45512744140625,0.0007115092702209,0.0008405424773693,-0.116359603536129,0.0042960252612829,0.0066553130745887,0.0012408788315951
1783204160679065300,4.4650654296875,-0.01098009756729,-0.0071573244087398,-0.0859597890973091,0.0030142460018396,0.012997630983591,-0.0013112286105751
1783204160689002500,4.47500244140625,-0.0060233519427478,-0.0211548701010644,-0.0784720636904239,0.0045852661132812,0.0154038351029157,-0.001817938638851
1783204160698940400,4.4849404296875,0.0079722940534353,-0.0336947643309831,-0.0791758280456066,0.0012818807736039,0.0058143255300819,-0.0008722501806914
1783204160708877600,4.494877685546875,0.0164664200238883,-0.0315777721770107,-0.0700040950745344,0.0015785889700055,0.0025925235822796,-0.0010478890035301
1783204160718814700,4.504814697265625,0.0144845985569059,-0.0106108258634805,-0.0479161819070577,0.004460928030312,0.0007935585454106,0.00177639327012
1783204160728752400,4.51475244140625,0.0132021575309336,0.0063213119760155,-0.0292997442424297,-0.0001911576837301,-0.0066631943918764,-0.0014745697844773
1783204160738689500,4.524689453125,0.0131222241625189,0.0113338794410228,-0.0207259771645069,-0.000825522467494,-0.003776594530791,0.0022352137602865
1783204160748626400,4.53462646484375,0.0216074361741542,0.0186383572354912,-0.0094295071244239,-0.0041214283555746,0.0020320655312389,0.0014619207940995
1783204160758564400,4.544564453125,0.0242421685919165,0.0233113174825906,0.0182207163453102,-0.0070349257439374,-0.0043238345533609,-0.0008867208380252
1783204160768501500,4.55450146484375,0.0202199273385107,0.0326046310067176,-0.0086801500618457,-0.0036235563457012,-0.0043116169981658,0.0016805715858936
1783204160778438700,4.564438720703125,0.0026335633739829,0.0253337632209062,-0.070560559913516,0.002635670825839,0.0063948230817914,0.0003287510480731
1783204160788376600,4.57437646484375,-0.005355243422836,-0.0015390461355447,-0.0678314272105693,0.0061567816883325,0.0119987297803163,-0.0010235668160021
1783204160798313500,4.5843134765625,-0.0101386783070862,-0.0070446578145027,-0.1042699372917413,0.0054475818760693,0.017055008560419,-0.0020126649178564
1783204160808250400,4.59425048828125,-0.007800298487395,-0.0114325175099074,-0.1235585751295089,0.0166668184101581,0.014343611896038,0.0004411758854985
1783204160818188500,4.6041884765625,0.0024418401941657,-0.0359884282261133,-0.1128740995079278,0.0204418487846851,0.0079879779368639,0.0023131119087338
1783204160828125400,4.61412548828125,-0.0005427285745739,-0.0293166953772306,-0.1292062256276607,0.0234865173697471,0.0029255948029458,-0.0007960838265717
1783204160838063400,4.6240634765625,-0.0043983810894191,-0.0097663378633558,-0.0979623615801334,0.0254894830286502,0.0060801091603934,0.0011895692441612
1783204160848000500,4.63400048828125,-0.0129774088643491,0.0091517130963504,-0.0541179591566324,0.0255841892212629,0.0074743186123669,-0.0003961587790399
1783204160857937700,4.643937744140625,0.0015199030436575,0.0237397720277309,-0.0257189631462097,0.0198602564632892,0.0104330908507108,-0.0026318824384361
1783204160867875600,4.65387548828125,-0.0045835283979773,0.0243665256239473,-0.0080330843299627,0.0183552615344524,0.0111195892095565,-0.0014707073569297
1783204160877812500,4.6638125,0.002269698497653,0.0273886499240994,0.0023451018214225,0.0144587913528084,0.0179958716034889,-0.0038782048504799
1783204160887749400,4.673749267578125,0.0084954411447048,0.0202982532717287,0.0096633158802986,0.0119769247248768,0.0143940951675176,-0.0021628648974001
1783204160897687600,4.6836875,0.0034872575938701,0.0159543788485229,-0.0028875381350517,0.0088759399950504,0.0068392395041882,-0.0017551347846165
1783204160907624400,4.69362451171875,0.011858633967489,-0.0066920449845492,-0.0414805959016084,0.0082474211230874,0.0086426809430122,-0.0024246936663985
1783204160917561000,4.70356103515625,-0.0042117724761366,-0.024164719441533,-0.0474631774425506,0.0082804448902606,0.009390496648848,-0.0012172164861112
1783204160927499000,4.7134990234375,-0.0084780516184866,-0.0164906776823103,-0.057971711975336,0.0095469625666737,0.0016700900159776,-0.0035318119917064
1783204160937436000,4.723435791015625,-0.00639218525514,-0.0123337041333317,-0.0546627335578203,0.011212769895792,0.0025476014707237,0.0009774521458894
1783204160947372800,4.733372802734375,0.0089031451627612,-0.0094373981699347,-0.0587123012095689,0.0112824467942118,-0.0027703428640961,-0.0029631024226546
1783204160957311000,4.74331103515625,0.0224469557382166,-0.0052428690895438,-0.0568231264621019,0.016053233295679,-0.0057501541450619,4.09432686865e-05
1783204160967248000,4.753247802734375,-0.0035937867082655,0.0140212188288569,-0.080861004653573,0.0190356615930795,0.0133221987634897,-0.0004287417978048
1783204160977185000,4.76318505859375,-0.0181714703761041,0.0232898363031446,-0.0356330389171838,0.0159519873559474,0.0169651359319686,0.0015422636643052
1783204160987123000,4.773123046875,-0.0069419280923902,0.0256263164266943,-0.0156774616032838,0.0114461099728941,0.0086951674893498,-0.0012434136588126
1783204160997060000,4.78306005859375,0.0157652860172092,0.0191036366596817,0.0178752639085054,0.0015146499499678,-0.0056462208740413,-0.0004772222600877
1783204161006998000,4.792998046875,0.0368750018022954,0.0086288582660257,0.0459440050512552,-0.0045531429350376,-0.0168961361050605,-2.78910156339e-05
1783204161016935000,4.802934814453125,0.0333824835114181,-0.0014152736254036,0.018068156132102,-0.0054210685193538,-0.0207257643342018,-0.0020476323552429
1783204161026871800,4.812871826171875,0.0035325580403208,0.0035926176644861,-0.030483401069045,-0.002534489147365,-0.0051492396742105,-0.00082000461407
1783204161036810000,4.82281005859375,-0.0189791334971785,0.0323959566920995,-0.0358867214173078,-0.0017733573913574,0.0079894661903381,-0.0008090857882052
1783204161046747000,4.832746826171875,-0.0145225924797356,0.0385297832719981,-0.0224462250858545,-0.0031655374914407,0.0069990023039281,-0.0008189340587705
1783204161056684000,4.84268408203125,0.0093073420494794,0.0181770233340561,-0.0378945541083812,-0.0047104377299547,-0.0046872147358953,0.005553743802011
1783204161066622000,4.8526220703125,0.0459434205293655,-0.0215820094719529,-0.0308130714148282,-0.0092293182387948,-0.0166762452572584,0.0068294750526547
1783204161076559000,4.86255908203125,0.0465066073700785,-0.0231271930873394,-0.031255554485321,-0.0107976542785763,-0.0239373538643121,0.0084039364010095
1783204161086496000,4.87249609375,0.0150248429134488,-0.0156542268581688,-0.066285951334238,-0.0033246790990233,-0.0119757466018199,0.0057293679565191
1783204161096434000,4.882433837890625,-0.0134529174216091,0.0009698679454624,-0.0686304686337709,-0.0006910786032676,0.0001264559105038,0.0012302240356802
1783204161106370800,4.892370849609375,-0.0274256209336221,-0.0099269352525472,-0.0616413403987884,-0.0019074603915214,0.0064061824232339,0.003077537054196
1783204161116308000,4.902307861328125,-0.0181185711450874,-0.0118429980069398,-0.0595522591650485,-0.0031988285481929,-0.0012059309519827,0.0043028574436903
1783204161126246000,4.912245849609375,0.0031733693391084,-0.005434592269361,-0.0451607457190752,-0.003576255403459,-0.0169290825724601,0.0030988394282758
1783204161136183000,4.92218310546875,0.0099428634740412,-0.0008254910387098,-0.0804933403849601,0.0009929295629262,-0.016836404800415,0.0053926203399896
1783204161146121000,4.932120849609375,0.0136915484830737,0.0054506666213274,-0.0738461574554443,0.002133990637958,-0.0042931106872856,0.0062782056629657
1783204161156057900,4.942057861328125,0.0046732525080442,-0.0025216274321079,-0.0477402408182621,0.0019704727455973,-0.0032283789478242,0.0059746047481894
1783204161165995000,4.9519951171875,-0.0006625555619597,0.0030766309663653,-0.0500432570636272,-0.0001565115526318,-0.0025805430486798,0.0016822144389152
1783204161175933000,4.961932861328125,0.0083539868474006,0.008146189315617,-0.0358557417571544,0.0017993142828345,-0.0102275442332029,0.0042625511996448
1783204161185869800,4.971869873046875,0.0202060449436306,0.0047467561356723,-0.0635714316785335,0.0068976669572293,0.0008301809430122,0.0039415904320776
1783204161195807000,4.981806884765625,0.0053220718055963,-0.0078225103192031,-0.0542108981370925,0.0057394583709537,0.0059919198974967,0.0051314909942448
1783204161205745000,4.991744873046875,0.0064968146733939,-0.0030972353629767,-0.0508002129107713,0.006526384036988,-0.0009204060770571,0.0027302554808557
1783204161215682000,5.00168212890625,0.0039975452035665,-0.0101683427929878,-0.0478571451961994,0.0025971559807658,-0.0110598588362336,0.0020639323629438
1783204161225619000,5.011618896484375,0.0052706338793039,-0.0188622291192412,-0.0490747042924165,0.0029057106003165,-0.0136758107692003,0.0053769894875586
1783204161235556900,5.021556884765625,-0.0022194296151399,-0.0063172203227877,-0.0375467635840177,0.0040647182613611,-0.0069771618582308,0.0046291737817227
1783204161245494000,5.031493896484375,-0.0014646657250821,0.0099435941264033,-0.0228577284961938,0.0011279340833425,-0.005028722807765,0.0013730116188526
1783204161255432000,5.041431884765625,0.0013446926072239,0.0143967741429805,-0.0195446584254503,4.24301251769e-05,-0.0091771287843585,0.0006345170550048
1783204161265368800,5.051368896484375,0.0161110307149589,0.0101601594865322,-0.0534288078486919,0.0044372538104653,-0.0047620492987334,0.0011395544279366
1783204161275306000,5.061305908203125,-0.0071961951144039,0.0243248784393072,-0.0885550662875175,0.0087102958932518,0.0082360403612256,0.0022530222777277
1783204161285244000,5.071243896484375,-0.0101600133560597,0.0129397072024643,-0.0519178187638521,0.0076160933822393,0.0145250223577022,0.0059374207630753
1783204161295181000,5.08118115234375,-0.0047151919536292,0.003565875788033,-0.0394318466782569,0.0094360969960689,0.001227325759828,0.002497149631381
1783204161305118000,5.091117919921875,0.0272369664937257,-0.0350219212815165,-0.0500642998516559,0.0053628822788596,-0.013913907110691,0.0067209657281637
1783204161315055900,5.101055908203125,0.0302300108298659,-0.0486976876735687,-0.055338440862298,0.0063322726637125,-0.0180007927119731,0.0063052456825971
1783204161324992800,5.11099267578125,0.0101814945355057,-0.0224232826016843,-0.0367570745110511,0.0025110142305493,-0.0124004743993282,0.0039734635502099
1783204161334930000,5.120929931640625,-0.0091711484491825,0.0045819209627807,-0.0218535198897123,0.0036330036818981,-0.0066363289952278,0.0018056505359709
1783204161344867800,5.130867919921875,-0.0010021627798676,0.0356239788278937,-0.0181353761494159,0.0020612860098481,-0.0134693123400211,0.0032614264637231
1783204161354805000,5.140804931640625,0.0147476334072649,0.0364008084192872,-0.0484177016884088,0.0063420510850846,-0.0119555722922086,0.0048470725305378
1783204161364743000,5.150742919921875,0.018107319098711,0.0417842550233006,-0.0885386996746063,0.0082586063072085,0.0095532154664397,0.0075246100313961
1783204161374680000,5.16068017578125,0.0178809629969298,0.0345242008924484,-0.0500333201915025,0.0097140241414308,0.0220477022230625,0.008764311671257
1783204161384617000,5.170616943359375,0.0084967563189566,0.0285788826219737,-0.0390443086653947,0.0103196091949939,0.0127260759472846,0.0068448046222329
1783204161394555000,5.180554931640625,0.0141835697837173,-0.0091240944370627,-0.0448947882592678,0.005571992136538,0.0003133481368422,0.0095843989402055
1783204161404491800,5.19049169921875,0.0278282103851437,-0.0274459330692887,-0.0412590621054172,0.0032703811302781,-0.0103592351078987,0.0121926935389637
1783204161414429000,5.200428955078125,0.0198354580655694,-0.0344587344408035,-0.0256692787855863,0.0005832510069012,-0.012373648583889,0.006983283907175
1783204161424366800,5.210366943359375,-0.0017279928363859,-0.0209945649728178,-0.0275935248464345,0.000860447064042,-0.0109358876943588,0.0052688280120491
1783204161434304000,5.220303955078125,0.0038289106383919,-0.0071298518799245,-0.0379711264759302,0.0034277345985174,-0.0079499501734972,0.0067016081884503
1783204161444241200,5.2302412109375,-0.0129454062908887,0.0007061024427413,-0.0655249038338661,0.0068575898185372,0.0019779941067099,0.0045803608372807
1783204161454179000,5.240178955078125,-0.0135550626218318,0.0237612532071769,-0.0514724130839109,0.0108251674100756,0.0055375751107931,0.0061942366883158
1783204161464116000,5.250115966796875,-0.0076329790964722,0.0253784791454672,-0.0306716171175241,0.002089874818921,-0.0008183056488633,0.0061956136487424
1783204161474054000,5.260053955078125,0.0131384446449577,0.0113047994770109,-0.0385673388034105,0.0046028336510062,-0.0165740996599197,0.0050674979574978
1783204161483990800,5.26999072265625,0.0081967504590749,-0.0085479019843041,-0.0807552061915397,0.0110876997932791,-0.0088665131479501,0.00302853458561
1783204161493928000,5.279927978515625,-0.0033951953962445,-0.0143790923558175,-0.0829261204898357,0.015530651435256,0.0061593074351549,0.0084544587880373
1783204161503865900,5.289865966796875,-0.0129155956745147,-0.0053302551120519,-0.0620370617181062,0.0139573216438293,0.0115741770714521,0.0050588804297149
1783204161513803000,5.299802978515625,-0.0064645198389887,0.0078074588805437,-0.04904956985116,0.0110896294936537,0.0051279962062835,0.0040852292440831
1783204161523740200,5.309740234375,0.0112710433378815,-0.0106409287407994,-0.0380132120519876,0.0064226393587887,-0.0054203611798584,0.0080053238198161
1783204161533678000,5.319677978515625,0.0208881819888949,-0.0386563322611153,-0.0362473714232444,0.0107095297425985,-0.0095700975507497,0.0014760519843548
1783204161543615000,5.329614990234375,0.0061855567671358,-0.0226971311070024,-0.0573445199877023,0.0091390255838632,-0.0031178775243461,0.0003422407899051
1783204161553553000,5.339552978515625,-0.0279687878996133,-0.0093088033542037,-0.063702949103713,0.0149279395118355,0.01211460493505,-0.0013049242552369
1783204161563489800,5.34948974609375,-0.0371963427111506,0.0099096918568015,-0.0569376927524805,0.0220692455768585,0.0174740143120288,-0.0048477640375494
1783204161573427000,5.359427001953125,-0.0184483876213431,0.0106786304026842,-0.0587169773846864,0.0175112448632717,0.0179049130529165,-0.0048416387289762
1783204161583364900,5.36936474609375,0.0068777768149971,-0.0220861596018075,-0.0723877753406763,0.016281945630908,0.0039928862825036,-0.0044986600987613
1783204161593302000,5.379302001953125,0.0350708749897778,-0.0356248556107282,-0.1062187332719564,0.026648299768567,0.0009856452234089,-0.0060273143462836
1783204161603239200,5.3892392578125,0.0295636558756232,-0.0010179448708891,-0.1329962655603885,0.0352647192776203,0.0106316460296511,0.0012850924395024
1783204161613177000,5.399177001953125,0.0036973932132124,0.0123062316045165,-0.1281634385764598,0.0440872386097908,0.0232547633349895,0.0003961292095482
1783204161623114000,5.409114013671875,-0.0096975104108452,0.0255744401089847,-0.1233107378482818,0.0502626225352287,0.0250831246376037,-0.0032536801882088
1783204161633051000,5.41905078125,0.0008322130404412,0.0024954700775444,-0.1295984398156404,0.0551601760089397,0.036051619797945,-0.0033383688423782
1783204161642988800,5.42898876953125,0.0346466582283377,-0.0394392993323504,-0.1175409222751855,0.0661409571766853,0.0208404958248138,-0.0018120716558769
1783204161652926000,5.438926025390625,0.051999944089353,-0.0673915744885802,-0.2519686819434166,0.0772175788879394,0.0192561820149421,0.0072810258716344
1783204161662864000,5.44886376953125,0.0152627433225512,0.0210024560183286,-0.2094540668189525,0.0933697894215583,0.0282606370747089,0.0109262783080339
1783204161672801000,5.458801025390625,0.0150789111882448,0.0804733205102384,-0.1408399647980928,0.096089944243431,0.0306012891232967,0.0170757845044136
1783204161682738200,5.46873828125,0.0329885157577693,0.0316324249736964,-0.1376630883276462,0.0996841415762901,0.0287309288978576,0.0160348806530237
1783204161692676000,5.478676025390625,0.0532709869384765,0.0118579033151268,-0.075724810808897,0.0954108387231826,0.028897376731038,0.0190919246524572
1783204161702613000,5.488613037109375,0.038688480965048,0.0195427587293088,-0.0045621933490037,0.087690569460392,0.0305407587438821,0.021637599915266
1783204161712550000,5.4985498046875,0.0015308628290891,0.0470166027188301,0.0577408258289098,0.0744432061910629,0.032214555889368,0.0190199799835681
1783204161722487800,5.50848779296875,-0.0277511996261775,0.0638351971812546,0.1354997728139162,0.0587420761585235,0.0235112104564905,0.0171256251633167
1783204161732425000,5.518425048828125,-0.017446078711003,0.0563172227665782,0.1855541357934474,0.036152608692646,0.0072217197157442,0.0131817497313022
1783204161742362000,5.528362060546875,-0.0112535076811909,0.0384950042195618,0.1724567538112401,0.0187081582844257,0.0035477383062243,0.010844562202692
1783204161752300000,5.538300048828125,-0.01896232849285,0.0064671501874923,0.1971171478152275,0.0004742946475744,-0.0087773706763982,0.0061435494571924
1783204161762237000,5.54823681640625,-0.0284480958491563,0.0047401802644133,0.2089753433912992,-0.021124567836523,-0.0132010523229837,0.0050513455644249
1783204161772174800,5.5581748046875,-0.0538202913843095,-0.000551058011502,0.1812760200828313,-0.0350683443248271,-0.0142290331423282,0.0020419738721102
1783204161782112000,5.568112060546875,-0.0661193625956773,-0.0037099604338407,0.1614630661100149,-0.0537621714174747,-0.0205360073596239,-0.0043266229331493
1783204161792049000,5.578048828125,-0.0564493247136473,-0.015881313612312,0.1290519118487834,-0.0642193332314491,-0.0250037256628274,-0.0062393052503466
1783204161801986800,5.58798681640625,-0.0497210393719375,-0.0199262050889432,0.0793137752115726,-0.0675742775201797,-0.026578776538372,-0.0092299040406942
1783204161811924000,5.597924072265625,-0.0484482429571449,-0.0245062263555824,0.02292085686028,-0.0650807619094848,-0.0290134400129318,-0.0111673530191183
1783204161821861000,5.607861083984375,-0.051697015620023,-0.0361263753920793,-0.0401133992016315,-0.0601285845041275,-0.0288349371403455,-0.0117130456492304
1783204161831799000,5.617799072265625,-0.0435560870014131,-0.0366428004816174,-0.0826946498215198,-0.0495350658893585,-0.0280122887343168,-0.0134829822927713
1783204161841736000,5.62773583984375,-0.0466505458854138,-0.0317079744279384,-0.1375555362999439,-0.0387466847896575,-0.0237061195075511,-0.015020809136331
1783204161851673900,5.637673828125,-0.0346491424463689,-0.0119219084620475,-0.1372498313516378,-0.028962230309844,-0.0163720399141311,-0.013336625881493
1783204161861611000,5.647611083984375,-0.0096506025291979,0.0118093879982829,-0.1373684892952442,-0.0217738635838031,-0.0165870562195777,-0.0106498170644044
1783204161871548000,5.6575478515625,0.0301890942975878,0.0259536486849188,-0.1300707335025072,-0.0167285054922103,-0.016322337090969,-0.0086423261091113
1783204161881485800,5.66748583984375,0.0754125299893319,0.0178485220320522,-0.1047714570730924,-0.0160749144852161,-0.0211877971887588,0.0010091131553053
1783204161891423000,5.677423095703125,0.0950701472699642,-0.001338116735965,-0.0826964033871889,-0.0165952928364276,-0.0270797740668058,0.0065309111960232
1783204161901360000,5.687360107421875,0.0967968249320983,0.0158817520037293,-0.0555120438635349,-0.0184587761759758,-0.0346161425113678,0.0067438706755638
1783204161911298000,5.697298095703125,0.091709730926156,0.0100626904614269,-0.050017538100481,-0.0214750729501247,-0.0339897647500038,0.0081050125882029
1783204161921234400,5.707234375,0.0771913762301206,0.0217129423752427,-0.059859133157134,-0.0196604654192924,-0.022625409066677,0.0138549525290727
1783204161931172400,5.71717236328125,0.0544233718439936,0.0355548591144382,-0.0739934569716453,-0.0124544827267527,-0.0117751592770218,0.0137012880295515
1783204161941109500,5.727109619140625,0.0470794388219714,0.0193259011082351,-0.0722673638314008,-0.008915570564568,-0.0052533806301653,0.0161093231290578
1783204161951046400,5.73704638671875,0.0561710922941565,0.010913900463283,-0.0929541780292987,-0.0093326205387711,-0.0071894987486302,0.0162406172603368
1783204161960984600,5.746984619140625,0.0533994356237351,-0.0162223821349442,-0.1040308678388595,-0.0061659598723053,-0.0119930068030953,0.0211498830467462
1783204161970921500,5.75692138671875,0.0453426781572401,-0.0315058759845793,-0.1159311489909887,0.0034650946035981,-0.0186213478446006,0.0170004107058048
1783204161980858600,5.766858642578125,0.0252361480653285,-0.0407025972664356,-0.1402905142217874,0.0116920070722699,-0.0111231990158557,0.0162931196391582
1783204161990796500,5.776796630859375,-0.0061791270263493,-0.051259647116065,-0.1776929008990526,0.0223989803344011,0.0091130966320633,0.0109473569318652
1783204162000733400,5.7867333984375,-0.0404372243285179,-0.0540473781384527,-0.2020429137796163,0.0378108844161033,0.0305479262024164,0.0096654845401644
1783204162010671400,5.79667138671875,-0.0861452286668121,-0.0344340383909642,-0.2185667630791664,0.0569707304239273,0.041190717369318,0.0006176617462188
1783204162020608500,5.8066083984375,-0.0806203277654945,-0.0306144801028072,-0.2273205628991126,0.0703380033373832,0.046765424311161,-0.0093785468488931
1783204162030545400,5.81654541015625,-0.0693079295039176,-0.052171501263976,-0.2388613630890846,0.0888829305768013,0.0463129505515098,-0.0052338689565658
1783204162040483600,5.826483642578125,-0.0280152573898434,-0.0692316493973135,-0.2485942370742559,0.1016237810254097,0.0348792187869548,0.0007150489836931
1783204162050420500,5.83642041015625,-4.04781408607e-05,-0.0335053792387247,-0.2169651731014251,0.1144988313317298,0.0334477685391902,0.0073274113237857
1783204162060357600,5.846357666015625,0.0022306816615164,0.0101850016668438,-0.1547621071666479,0.1213549822568893,0.0302600264549255,0.0112867942079901
1783204162070295300,5.85629541015625,0.0233205237023532,0.0368590735808014,-0.0708984135657548,0.1170856729149818,0.0239001289010047,0.0130223771557211
1783204162080232400,5.866232421875,0.0325808117397129,0.0501275743462145,0.0069289224803447,0.1067724898457527,0.0267909709364175,0.0148895476013422
1783204162090170400,5.87617041015625,0.0287934021554887,0.0754153064683079,0.1136018292605876,0.0867836028337478,0.0216404162347316,0.0155177861452102
1783204162100107500,5.886107421875,0.0206618258871138,0.102814916177839,0.2030932996153831,0.0618414729833602,0.0159055478870868,0.0138847883790731
1783204162110044400,5.89604443359375,0.0189652511022985,0.1172299566298723,0.2581137605696916,0.0359108075499534,0.0129323955625295,0.0113012557849287
1783204162119982600,5.905982666015625,0.0081271923542022,0.1042084163628518,0.3108089934468269,0.0080011282116174,0.0075775394216179,0.007506959605962
1783204162129919500,5.91591943359375,0.0037206279583275,0.0731171125285327,0.3280319309264421,-0.0197817683219909,-0.0074421563185751,0.0066230571828782
1783204162139856400,5.9258564453125,-0.0006438508614897,0.0453486695066094,0.2956722145915031,-0.0444760844111442,-0.0221894886344671,0.0088111003860831
1783204162149794300,5.935794189453125,-0.0274791046865284,0.0089256492555141,0.2535398767828941,-0.0591948442161083,-0.0304127968847751,0.0023244398180395
1783204162159731500,5.9457314453125,-0.0624275223404169,-0.0116461602605879,0.2086526873081922,-0.073676474392414,-0.0355665832757949,-0.0028809693176299
1783204162169668400,5.95566845703125,-0.0836703629858791,-0.032452947576344,0.159157711777091,-0.0817501172423362,-0.0344629697501659,-0.0085236746817827
1783204162179606500,5.9656064453125,-0.0886458133108913,-0.0624754531353712,0.0898415989667177,-0.0836511477828025,-0.0413260906934738,-0.013639167882502
1783204162189543400,5.97554345703125,-0.0844755418889224,-0.0760820998139679,0.0119838677823543,-0.0777232125401496,-0.0382163152098655,-0.0178472287952899
1783204162199481600,5.985481689453125,-0.087908877338469,-0.0699076489627361,-0.0569803628504276,-0.0717408880591392,-0.02628093957901,-0.018817326053977
1783204162209418500,5.99541845703125,-0.0805291423507034,-0.0621282471328973,-0.0599099865615367,-0.0677466839551925,-0.0233591869473457,-0.0247710887342691
1783204162219355400,6.00535546875,-0.075421590078622,-0.0361741600565612,-0.1022457379877567,-0.0575650557875633,-0.0248280148953199,-0.0288965497165918
1783204162229293300,6.015293212890625,-0.0421850909091532,-0.0298839738711714,-0.1188297930419444,-0.0476570352911949,-0.0201554987579584,-0.0295559484511613
1783204162239230500,6.02523046875,-0.0263731892712414,-0.0299663914576172,-0.1282756667792797,-0.0377722308039665,-0.0089586190879344,-0.0268027745187282
1783204162249167400,6.03516748046875,0.0065961833946406,-0.0049605450168251,-0.1281885730177164,-0.0296272207051515,-0.0168378483504056,-0.0225073620676994
1783204162259105500,6.04510546875,0.0439960858538746,0.0206517428845167,-0.1268821665942668,-0.0137923490256071,-0.0134066715836524,-0.0215817354619503
1783204162269042400,6.05504248046875,0.0656824324831366,0.0446998502090573,-0.1317366208881139,-0.0090609770268201,-0.004539409186691,-0.0113762374967336
1783204162278980600,6.064980712890625,0.0935267172202467,0.0505187656208872,-0.0736152713090181,-0.0068272585049271,0.0013019633479416,-0.0084042446687817
1783204162288917500,6.07491748046875,0.0956463397227227,0.0410638317942619,-0.05085866509974,-0.0084967939183115,0.0020753452554345,-0.0065885013900697
1783204162298854400,6.0848544921875,0.1008797103315591,0.0072517246939241,-0.0615408026337623,-0.0048873228952288,-0.0030694371089339,-0.0026513182092458
1783204162308792300,6.094792236328125,0.0962143488690257,0.0017222937479615,-0.0761702164888381,0.0008371416479349,0.0023287902586162,0.0014552760403603
1783204162318729500,6.1047294921875,0.0669819707743823,0.0161209675870835,-0.0580845247000455,0.0053910366259515,0.0015578540042042,0.0024190188851207
1783204162328666400,6.114666259765625,0.0539516626790165,0.0053526130743324,-0.0670733023196458,0.0092092109844088,-0.005408443044871,0.0036917433608323
1783204162338604500,6.1246044921875,0.055391486223787,-0.0180430216908454,-0.0985235025942325,0.0192406624555587,-0.0033684805966913,0.0093903308734297
1783204162348541400,6.13454150390625,0.0353412163637578,-0.0263666133999824,-0.0895598594158887,0.0274977944791317,0.0062023871578276,0.0067130550742149
1783204162358478600,6.144478515625,0.0098690675854682,-0.0238296422682702,-0.0997849008321762,0.0326331779360771,0.0198074635118246,0.0074571827426552
1783204162368416500,6.15441650390625,0.0070275605492293,-0.0136152683764696,-0.109229605525732,0.0406482256948947,0.0240951534360647,0.0041743032634258
1783204162378353400,6.164353515625,0.0026025837138295,-0.0211081083498895,-0.1186070902019739,0.0533887408673763,0.0314301550388336,0.0063190436922013
1783204162388291300,6.174291259765625,-0.0125204588770866,-0.0177039989948272,-0.1052706387668847,0.0601097606122493,0.0313148386776447,0.0061472696252167
1783204162398228500,6.184228515625,-0.0245439280174672,-0.0080737086012959,-0.100143212750554,0.0640319362282753,0.0221472065895795,0.0065576578490436
1783204162408165400,6.194165283203125,-0.0237894563883543,-0.0151572371214628,-0.0747737936943769,0.0676913857460022,0.0160506982356309,0.0057033156044781
1783204162418103600,6.204103515625,-0.0116584352202713,-0.0079307929992675,-0.0205722479075193,0.0656757056713104,0.0080149937421083,0.0081142783164978
1783204162428040400,6.21404052734375,-0.0138899936646223,0.0152251877911388,0.0157440970987081,0.0584433563053607,0.0147024579346179,0.0117130074650049
1783204162437977600,6.2239775390625,-0.0005577800132334,0.0453456007666885,0.0871627351462841,0.048260360956192,0.0139874294400215,0.0106685115024447
1783204162447915500,6.23391552734375,0.0001468611247837,0.0695129505567252,0.1527823315262794,0.0341575965285301,0.009448604658246,0.0106290969997644
1783204162457852400,6.243852294921875,0.0049302960090339,0.0572654634021222,0.1738748039156198,0.0159647203981876,0.0080315470695495,0.0097161158919334
1783204162467789300,6.253789306640625,0.0004087269313633,0.0410841439299285,0.1868798314392566,-0.0016667377203702,0.0029321264009922,0.0104056084528565
1783204162477727500,6.2637275390625,-0.000370148486644,0.0282955356359481,0.2033312000244855,-0.0145010771229863,-0.0048324600793421,0.0086517464369535
1783204162487664400,6.273664306640625,-0.0141072896771132,0.0183574944674968,0.187009595298767,-0.0223592668771743,-0.0167602263391017,0.008222977630794
1783204162497601500,6.2836015625,-0.0230624572880566,0.0089199501670897,0.1490764627456665,-0.0317498594522476,-0.0262025035917758,0.0074790674261748
1783204162507539500,6.29353955078125,-0.0396747155234217,-0.0083195000559091,0.0947509983181953,-0.0384636893868446,-0.0199435390532016,0.0037088301032781
1783204162517476600,6.3034765625,-0.0594409077450633,-0.0220775379039347,0.0737204852491617,-0.0404433161020278,-0.0154630970209836,0.000231264391914
1783204162527413200,6.313413330078125,-0.0619854776613414,-0.0261231600329279,0.0462391886055469,-0.0432444289326667,-0.0151925198733806,-0.0030931595247238
1783204162537351400,6.323351318359375,-0.0468915150344371,-0.0285258372604846,0.0202718036562204,-0.0409232787787914,-0.0227526519447565,-0.0052765030413866
1783204162547288300,6.333288330078125,-0.0254177882425487,-0.0357975818291306,-0.0032552024036645,-0.0376087091863155,-0.0216338578611612,-0.005383828189224
1783204162557225500,6.3432255859375,-0.0168674020402133,-0.0322368206076323,-0.0414759197264909,-0.0336389541625976,-0.0160933379083871,-0.007077420130372
1783204162567163400,6.353163330078125,-0.0166699797719717,-0.0237383107230067,-0.0420990200608968,-0.0295038651674985,-0.0108498409390449,-0.0032491257879883
1783204162577100500,6.3631005859375,-0.0015527823999524,-0.0280000598207116,-0.0554500845432281,-0.0261660385876894,-0.0156796257942914,-0.007295187562704
1783204162587038500,6.37303857421875,0.0161139533244073,-0.0041898529052734,-0.0595043283700943,-0.0155405569821596,-0.0162165183573961,-0.0058930329978466
1783204162596975600,6.3829755859375,0.0131434130810201,0.0177358554378151,-0.0778437026590108,-0.0119060603901743,-0.0081432107836008,-0.0064301374368369
1783204162606912300,6.392912353515625,0.0118336456567049,0.0238427940107882,-0.0648053573876619,-0.0028047086670994,0.0017179413698613,-0.0007378971204161
1783204162616850400,6.402850341796875,0.0337219445988535,0.0279442379802465,-0.0400444256186485,-0.0026910714805126,-0.0038762288168072,-0.0009443471208214
1783204162626787300,6.412787353515625,0.0613330051019787,0.0239696352608501,-0.0494271709918975,0.0026256637647747,-0.0046988790854811,0.0009994942229241
1783204162636724500,6.422724365234375,0.0718907856039702,0.0011073767200112,-0.0911105959892272,0.0067877788096666,0.004505650140345,0.0036411327309906
1783204162646662400,6.432662353515625,0.0465282346799969,-0.0141533207759261,-0.0760264241039753,0.0150630194693803,0.010750763118267,0.0060776588506996
1783204162656599600,6.442599609375,0.0206543732330203,0.0150904554955661,-0.0657867696404457,0.020595047622919,0.0116709992289543,0.0070615578442811
1783204162666536400,6.452536376953125,0.0147352123171091,0.0032224691778421,-0.0535351908326149,0.0197926349937915,0.0053912652656435,0.0098192617297172
1783204162676473300,6.462473388671875,0.020543021813035,-0.0219523040890693,-0.0411076709359884,0.0210840031504631,0.0005986406467854,0.0056562079116702
1783204162686411300,6.472411376953125,0.0047317046970129,-0.0410585710972547,-0.0179039054811,0.0203210078179836,0.0083274003118276,0.0036686912644654
1783204162696348400,6.482348388671875,-0.001728723488748,-0.0269157717153429,0.0156190094143152,0.0179479792714118,0.0074308738112449,0.0029670388903468
1783204162706286300,6.492286376953125,-0.0099514851719141,-0.0079972823642194,0.0249707751274108,0.018634807318449,-0.0011884467676281,-3.35448421537e-05
1783204162716223500,6.502223388671875,-0.0187967626675963,-0.0026955226942896,0.0226741886228322,0.0179628394544124,0.0017761900089681,0.0022455416619777
1783204162726160600,6.51216064453125,-0.0172612236633896,0.0007099018350243,0.031716157734394,0.0150690479204058,0.0058188685216009,-0.0009124348871409
1783204162736097300,6.52209716796875,-0.0446361373230814,0.0098306352712213,0.0785398682296276,0.0051962034776806,0.0053401575423777,-0.0055453153327107
1783204162746035500,6.532035400390625,-0.048967444525659,0.006754004304856,0.0971212345808744,-0.0004204036667943,0.0004854812286794,-0.0091035645455122
1783204162755972400,6.541972412109375,-0.0322648776583373,0.006586246522516,0.0975520272135734,-0.0057593686506152,-0.0066394358873367,-0.0109894396737217
1783204162765909500,6.551909423828125,-0.0316214651882648,-0.0014380699791014,0.0651975715756416,-0.0093421200290322,-0.0084394663572311,-0.0134611185640096
1783204162775847400,6.561847412109375,-0.0392351550623774,-0.005469955843687,0.0665583385348319,-0.0119401728734374,-0.0059004174545407,-0.0118034742772579
1783204162785784600,6.57178466796875,-0.0332931977927684,0.0091522976182401,0.0270475814014673,-0.0089576998725533,0.0002163308672606,-0.0144080454483628
1783204162795721500,6.581721435546875,-0.0074957625828683,0.0030162790812551,0.0123830962330102,-0.007517697289586,-0.0030953646637499,-0.0160945393145084
1783204162805659600,6.59165966796875,0.0094077336840331,-0.0072742287866771,-0.0183861360400915,-0.0063333883881568,0.0012908615171909,-0.0099777914583683
1783204162815596300,6.60159619140625,0.0228483761459588,-0.0058427346788346,-0.040558220359683,0.0012678615748882,0.0046796323731541,-0.0097891967743635
1783204162825533400,6.611533447265625,0.0212103996805846,-0.0035787352696061,-0.0249596692115068,0.002668684348464,-0.0003140605986118,-0.0073494743555784
1783204162835471400,6.621471435546875,0.0277098447024822,-0.0025853403180837,-0.0544131427109241,0.0094068646430969,-0.0013401969335973,-0.0019867112860083
1783204162845408500,6.631408447265625,0.0402883173771202,0.0006133095927536,-0.0609644640505313,0.0120969237759709,0.0003232136368751,8.41626897454e-05
1783204162855345400,6.641345458984375,0.0538555088281631,-0.002510229255259,-0.0321796835929155,0.0122477123513817,-0.000499537680298,-0.0004580132663249
1783204162865283600,6.65128369140625,0.0549203615806996,0.0249298585951328,-0.0149409640222787,0.0111923012882471,-0.0016790516674518,0.0053085293620824
1783204162875220500,6.661220458984375,0.0539450868077576,0.0261795663952827,0.0036602760732173,0.008538844063878,-0.0043020197190344,0.0064171589910984
1783204162885157400,6.671157470703125,0.0324051629118621,0.0108873047173023,0.0067658408731222,0.0086733344942331,0.0004613101482391,0.0034171077422797
1783204162895095300,6.68109521484375,-0.0005170096114277,0.0310628083921968,0.0359621247410774,0.0048362016677856,0.0076271202415227,0.0061428966000676
1783204162905032400,6.691032470703125,-0.0059501405760645,0.0367978449128568,0.0651765287876129,-0.0010672276839613,0.001233669463545,0.0026331164408475
1783204162914969300,6.70096923828125,-0.0033729835644364,0.016268413233757,0.0741810884982347,-0.0046222824603319,-0.0065342392772436,0.0042187627404928
1783204162924907500,6.710907470703125,-0.0013886778794229,0.0058922729089856,0.0683323624700307,-0.0074814520776271,-0.006502547301352,0.0041204923763871
1783204162934844200,6.72084423828125,-0.0135251058749854,-0.0040659342646598,0.0658218409538269,-0.0095881288871169,-0.0083835180848836,0.0016712269280105
1783204162944781300,6.73078125,-0.0260245219640433,-0.010565233156085,0.0686579411625862,-0.0168281979858875,-0.0070396871306002,-0.0027283150702714
1783204162954718500,6.740718505859375,-0.0445540119975805,-0.0149034084908664,0.069122636064887,-0.0190966203808784,-0.0089590065181255,-0.0059757744893431
1783204162964656400,6.750656494140625,-0.0449510484911501,-0.0295332607373595,0.0352688817799091,-0.0189605355262756,-0.0143263414502143,-0.0078892558813095
1783204162974593300,6.76059326171875,-0.0357331382907927,-0.0242566355086863,0.0130459440559148,-0.0146777285262942,-0.0096072806045413,-0.0088624628260731
1783204162984530400,6.770530517578125,-0.0345681861646473,-0.0172720373183488,-0.0107967038244009,-0.0102504892274737,-0.0050436882302165,-0.0105714127421379
1783204162994468400,6.78046826171875,-0.0253076058663427,-0.0009732289463281,-0.020876783812046,-0.0082543352618813,-0.003896951675415,-0.0102108661085367
1783204163004405200,6.7904052734375,-0.0052115971684455,-0.0052235798671841,-0.0309077639609575,-0.0056721335276961,-0.0078799752518534,-0.012735541909933
1783204163014342400,6.80034228515625,0.0143419752158224,-0.0130780927598476,-0.0674935735583305,0.0021720733493566,-9.336508810520172e-07,-0.0080746561288833
1783204163024280300,6.8102802734375,0.0204075588651001,-0.0107850133866071,-0.0483884755939245,0.0084962816908955,0.007252718321979,-0.0058607701212167
1783204163034217500,6.820217529296875,0.0283843829631805,0.00722673638314,-0.0428682508677244,0.0146876750513911,0.0035841518547385,-0.0040941624902188
1783204163044154400,6.830154296875,0.042725335265696,0.0098484631888568,-0.0611076719135045,0.0195908211171627,0.0051125399768352,-0.0011247377842664
1783204163054091500,6.840091552734375,0.0574998566798865,0.0015580430969595,-0.0387906261652708,0.0219128672033548,0.0064067561179399,0.0026866449043154
1783204163064029400,6.850029541015625,0.0570619036540389,0.0045905426606535,-0.008481997141242,0.0144983604550361,0.0029675499536097,0.0048872153274714
1783204163073966300,6.85996630859375,0.0564306200131773,0.0182119485169649,0.0181751236379146,0.0138221094384789,-0.0030676671303808,0.005187664180994
1783204163083903200,6.8699033203125,0.0377880249939858,0.0306961670368909,0.0408200861662626,0.009598602540791,-0.0016047926619648,0.0068441508337855
1783204163093841400,6.87984130859375,0.032859482550621,0.0475124234117567,0.0612888736993074,0.003667164593935,-0.0056026512756943,0.0095133036375045
1783204163103778300,6.8897783203125,0.0325593305602669,0.0536997337445616,0.0737707541316747,-0.0028815483674407,-0.0034151310101151,0.0102592557668685
1783204163113715500,6.899715576171875,0.0147242525316774,0.0404354707628488,0.0831301186293363,-0.0068147098645567,-0.0018371511250734,0.0071026999503374
1783204163123653400,6.9096533203125,-0.000320610256493,0.0264284265898168,0.0685410367846488,-0.0093740066513419,0.0043126204982399,0.0081072449684143
1783204163133590500,6.919590576171875,-0.0151432085961103,0.0193302850224077,0.0247778829038143,-0.004250063560903,0.0148799493908882,0.0058338353410363
1783204163143527200,6.929527099609375,-0.0261963713996112,-0.0053372693747282,0.0357160410255193,-0.0036444598808884,0.0144975194707512,0.0063329115509986
1783204163153464300,6.93946435546875,-0.0322960034489631,-0.0134058634094893,0.0141921914815902,-0.0062503451481461,0.0042029400356113,0.002935741096735
1783204163163402200,6.94940234375,-0.0307299231760203,-0.0366226344764232,0.0040986674904823,-0.003623935393989,-0.0060576871037483,0.0008752532303333
1783204163173339400,6.95933935546875,-0.0314200973972678,-0.0559815610714256,-0.0133691846609115,-0.000757266767323,-0.0081125404685735,-0.001526829553768
1783204163183276300,6.9692763671875,-0.0365371481500566,-0.0517842555120587,-0.0045949265748262,0.0029724901542067,-0.0106707718223333,0.0005757361650466
1783204163193214500,6.97921435546875,-0.0290109904289245,-0.0347846053943037,-0.0197094935983419,0.0055961539037525,-0.008548317477107,-0.0036543395835906
1783204163203151400,6.9891513671875,-0.0230929985567927,-0.0150603526182472,-0.0130646487563848,0.0089330952614545,-0.0016438057646155,-0.0019501828355714
1783204163213088300,6.999088134765625,-0.0099678517848253,0.0079049279056489,0.000568739798665,0.003443312831223,0.0012023826129734,-0.0029223270248621
1783204163223025400,7.009025390625,0.0132540338486433,0.0035188217759132,0.027743746972084,-0.0020699631422758,-0.0058374172076582,-0.0002378607168793
1783204163232963300,7.01896337890625,0.0313484934657812,0.0005083879135549,0.0180301622092723,-0.0014019180089235,-0.0077672959305346,-0.0008651218377053
1783204163242900500,7.028900390625,0.0249653682999312,0.0241566822655498,0.0188069918006658,-0.0035132719203829,-0.0012055337429046,-0.0012691232841461
1783204163252837400,7.03883740234375,0.0176657128110527,0.033074002084136,0.0436789827287197,-0.0083355419337749,0.0007267841137945,-0.0030288486741483
1783204163262775300,7.048775390625,0.0099764734826982,0.0200409175097942,0.0222761292159557,-0.0063637383282184,0.0077247726731002,-0.001779293641448
1783204163272712400,7.05871240234375,0.0092673023000359,0.0025889935798943,0.0101379476547241,-0.0030633704736828,0.0124003877863287,-0.0035462139640003
1783204163282649300,7.0686494140625,0.0100397479772567,0.0033332360759377,0.018185645031929,-0.0044295722618699,0.0060133286751806,-0.0027920068241655
1783204163292586200,7.078586181640625,0.0200435478582978,-0.0114436234258115,0.0042798692762851,-0.0038519436493515,-0.0029040137305855,0.0013199124950915
1783204163302524400,7.0885244140625,0.0202896315738558,-0.0171148009300231,-0.0096165541291236,0.0017449567094445,-0.009831428527832,-0.0008116816170513
1783204163312461300,7.09846142578125,0.0094182550780475,-0.0154445296302437,-0.0326461320608854,0.0090405363589525,-0.0059725041501224,-0.0020900394301861
1783204163322398500,7.1083984375,-0.0151765263438224,-0.0113116676092147,-0.0412508787989616,0.0160403884947299,0.0066016102209687,0.0007409008685499
1783204163332335400,7.11833544921875,-0.0165361242592334,0.0066366615355014,-0.0242062204957008,0.0188852436840534,0.0085048843175172,0.0006952243857085
1783204163342273500,7.1282734375,-0.0108135088287293,0.009437836561352,-0.0359592021316289,0.0217465441673994,0.0066880756057798,0.0007293126545846
1783204163352210200,7.138210205078125,0.0123727209694683,0.0010313888743519,-0.0183002113223075,0.0186373945325613,0.0014925263822078,0.002480037510395
1783204163362147300,7.148147216796875,0.0215749952092766,0.0023103227689862,0.0155851071447134,0.0158551894128322,-0.0051493970677256,0.0067525464110076
1783204163372085200,7.158085205078125,0.0262371418014168,0.0178812552578747,0.0537912114202976,0.0099541759118437,-0.0092272385954856,0.0056800888851284
1783204163382022400,7.1680224609375,0.0106282153896987,0.0202159818157553,0.0657505292832851,0.0050124144181609,-0.0077265473082661,0.0067935567349195
1783204163391959600,7.17795947265625,0.0083085402704775,0.0209311443477869,0.0859510212689638,-0.0032590702176094,-0.0082092406228184,0.0034430744126439
1783204163401896400,7.187896484375,0.004986848501861,0.0271840672627091,0.098116090837121,-0.0060830861330032,-0.0144048184156417,0.0036231041885912
1783204163411834400,7.19783447265625,0.001767886455357,0.0328815482519567,0.0654191053718328,-0.0084883235394954,-0.0071685938164591,0.0041746478527784
1783204163421771300,7.207771240234375,-0.0086047467380762,0.0213286192327737,0.0811439132481813,-0.0143581982702016,-0.0050636315718293,0.0024292122106999
1783204163431708400,7.21770849609375,-0.0016745090834796,0.0083630469366908,0.0825894358813762,-0.0204341076314449,-0.0065999240614473,-0.0001243157312273
1783204163441645300,7.227645263671875,-6.48819297552e-05,-0.0095376436740159,0.0655173050493001,-0.027534894645214,-0.0134261380881071,0.0006828885525465
1783204163451583500,7.23758349609375,0.0057369362168014,-0.0190590668655931,0.0426496396809816,-0.0256304442882537,-0.0154529213905334,0.0021197067108005
1783204163461520400,7.247520263671875,-0.003863251299411,-0.0213552149787545,0.0146861124783754,-0.0246898159384727,-0.011193461716175,0.0009806726593524
1783204163471457500,7.25745751953125,-0.0028713176526129,-0.0199348267868161,0.009069441640377,-0.0206287130713462,-0.0110415481030941,0.0030091216322034
1783204163481394200,7.267394287109375,0.0018140636846423,-0.0017925825051963,-0.0018991116195917,-0.0203168578445911,-0.0122455637902021,0.001013348577544
1783204163491332400,7.277332275390625,0.0187641755722463,0.001738075838983,-0.0102671269923448,-0.0187266245484352,-0.0110869454219937,0.0053495462052524
1783204163501269200,7.287269287109375,0.0290516147002577,0.0064271104380488,0.0097200145035982,-0.0202089399099349,-0.0133399805054068,0.007214558776468
1783204163511206400,7.297206298828125,0.0272524563238024,0.0162654906243085,0.0061404024511575,-0.0236395746469497,-0.0066260481253266,0.0047260173596441
1783204163521143600,7.3071435546875,0.0265434312716126,0.019387568167597,0.0330202260702848,-0.0315443724393844,-0.0104785775765776,0.0067183286882936
1783204163531081500,7.31708154296875,0.0194759771034121,0.0246472422614693,0.0496218167811632,-0.0360944159328937,-0.0018948861397802,0.0050161639228463
1783204163541018400,7.327018310546875,0.0005821838021278,0.0434314377084374,0.0754541771739721,-0.0441182516515255,-0.0009358818642795,-0.00118687027134
1783204163550955300,7.336955322265625,0.0037748423635959,-0.01468216695562,0.0402782343745231,-0.0385229438543319,0.0020817364566028,-0.0041903858073055
1783204163560892400,7.346892333984375,0.0050106677688658,-0.0702592388793826,-0.055810150027275,-0.0258974265307188,0.0097228782251477,-0.0071193305775523
1783204163570830300,7.356830322265625,-0.0134486796379089,-0.0443276558957993,-0.0535556490987539,-0.0185716822743415,0.0051178727298974,-0.0016934424638748
1783204163580767500,7.366767578125,-0.0275504163570702,-0.0142358844928443,-0.0868237124502658,-0.0064756032079458,-0.0052125295624136,-0.0025871992111206
1783204163590704400,7.376704345703125,-0.023505524880439,-0.0325324425533413,-0.1153881281554699,0.0046268552541732,-0.0088390633463859,-0.008124397136271
1783204163600641300,7.386641357421875,-0.0243180103071033,-0.0618374474927783,-0.1218862580031156,0.012281578965485,-0.0008903271518647,-0.0107798352837562
1783204163610579200,7.3965791015625,-0.0319954130671918,-0.0610308072850108,-0.111156189674139,0.0196108650416135,0.0124521097168326,-0.0156012224033474
1783204163620516400,7.406516357421875,-0.0247710147716105,-0.0513698294922709,-0.1055628997117281,0.0311420857906341,0.0230791885405778,-0.0115731917321681
1783204163630453200,7.416453369140625,-0.0158849668741226,-0.0168847915664315,-0.1045662898898124,0.0448380894958972,0.0237058978527784,-0.0099344113841652
1783204163640390400,7.426390380859375,-0.0020958032354712,0.014036854789406,-0.0992646763503551,0.0490706525743007,0.0235865898430347,-0.0088041657581925
1783204163650328300,7.436328369140625,0.0100276191480457,0.0189152744807302,-0.0518640427500009,0.0494042932987213,0.018880097195506,-0.0098100835457444
1783204163660265500,7.446265380859375,0.0293985284417867,0.017198972082138,-0.0295423208266496,0.0497270673513412,0.0180534515529871,-0.0043407496996223
1783204163670202400,7.456202392578125,0.0381818466171622,0.0150172441288828,-0.0121668231338262,0.0497746132314205,0.016823373734951,-0.0028218696825206
1783204163680139300,7.46613916015625,0.0451280124932527,0.0218355458416044,0.0034819968968629,0.0494835302233696,0.0218980256468057,-0.0029363855719566
1783204163690077200,7.4760771484375,0.0410898430183529,0.0412580391921102,0.0271317525535821,0.04708207026124,0.0252894144505262,0.00060291797854
1783204163700014300,7.486014404296875,0.0454518376201391,0.042896892440319,0.0155208097368478,0.0457896403968334,0.0264271162450313,-0.0023707677610218
1783204163709951500,7.495951416015625,0.0340130364999175,0.0221805598869919,0.0043441666841506,0.0471401214599609,0.0313917323946952,-0.0008443368133157
1783204163719888400,7.505888427734375,0.0322045257732272,-0.0132163321867585,-0.0019067104041576,0.0489886216819286,0.0292833093553781,0.0030465417075902
1783204163729826600,7.51582666015625,0.0176535839818418,-0.0078923606850206,-0.046897360253334,0.0557941198348999,0.0285369176417589,0.0086409579962491
1783204163739763200,7.52576318359375,-3.65326181054e-05,0.0005772153660655,-0.0157066876977682,0.0588791258633136,0.0219221580773592,0.0113006569445133
1783204163749700400,7.535700439453125,-0.010404781897366,0.0287600844077765,0.0435591557413339,0.0497219488024711,0.0073528727516531,0.012540235184133
1783204163759637200,7.54563720703125,0.0066340311869978,0.0232524269022047,0.085066639649868,0.0392666421830654,0.0037906283978372,0.0089857140555977
1783204163769575400,7.555575439453125,-0.0004905599959194,0.0178670806020498,0.1326619190394878,0.02384639903903,-0.0024679107591509,0.0111421216279268
1783204163779512300,7.56551220703125,0.003474398112297,0.0575084783777594,0.1827174510627985,0.0104315225034952,-0.0073135327547788,0.0110172200947999
1783204163789449500,7.575449462890625,-0.0179565124511718,0.0718909317344427,0.2008066499829292,0.0005738986656069,-0.0010380605235695,0.0056136599741876
1783204163799386400,7.585386474609375,-0.042047436004132,0.0620686259001493,0.2031149269253015,-0.0168357193470001,0.0074654128402471,0.003394448198378
1783204163809324300,7.59532421875,-0.0565649139173328,0.0354820861391723,0.2157201414763927,-0.0357871949672699,-0.0003482140600681,-0.0046989885158836
1783204163819261400,7.605261474609375,-0.0710923287026584,0.0030645021371543,0.200870362868905,-0.0507253967225551,-0.0114416107535362,-0.0089230285957455
1783204163829198300,7.6151982421875,-0.0694267335779964,-0.0523320986531674,0.1689139666378498,-0.0596663430333137,-0.0271551460027694,-0.0155728459358215
1783204163839135500,7.625135498046875,-0.0590532236017286,-0.0485989034742116,0.1241799218982458,-0.0651513859629631,-0.0279674120247364,-0.0170879177749156
1783204163849072400,7.635072265625,-0.0627244594603776,-0.0474262064330279,0.0868038387060165,-0.065413124859333,-0.0262587964534759,-0.0151503328233957
1783204163859010600,7.645010498046875,-0.0542687658041715,-0.0463058241009712,0.0241483528286218,-0.0601858682930469,-0.0244467798620462,-0.0189163088798522
1783204163868947200,7.654947265625,-0.0369281932942569,-0.0477241664662957,-0.027920857104659,-0.0550233013927936,-0.0190263614058494,-0.0237156767398118
1783204163878884400,7.66488427734375,-0.0206496970579028,-0.0508458056181669,-0.0517132361024618,-0.0487363748252391,-0.0143442554399371,-0.0262233093380928
1783204163888821200,7.6748212890625,-0.0131999655738472,-0.0451350267559289,-0.0730155518501997,-0.0379068069159984,-0.0056632845662534,-0.02695700712502
1783204163898759400,7.684759521484375,0.005418664047867,-0.0321222543172538,-0.1441349146902561,-0.0271566919982433,0.0163280349224805,-0.0264805667102336
1783204163908696300,7.6946962890625,0.0099471012577414,-0.0021656536012887,-0.1108393788099288,-0.0238920878618955,-0.0013607242144644,-0.0208123959600925
1783204163918634200,7.70463427734375,0.0512092321030795,0.0122422264575958,-0.0811848297804594,-0.0036137141287326,-0.0193679556250572,-0.0193351414054632
1783204163928571000,7.71457080078125,0.0717985772758722,-0.0194113874346017,-0.2269131511420011,0.0118610514327883,-0.0066437921486794,-0.016730610281229
1783204163938509000,7.724509033203125,0.0845744722187519,0.0169170864008367,-0.1465641876637935,0.0217645484954118,0.0107775423675775,-0.0086889285594224
1783204163948446000,7.734446044921875,0.0636085488185286,0.0716577075004577,-0.1246346799284219,0.0284419972449541,0.0271583572030067,0.0002366120461374
1783204163958383000,7.744383056640625,0.0787184396669268,0.0812865365892648,-0.0789572168588638,0.0360261462628841,0.0185779184103012,0.0055919629521667
1783204163968320300,7.7543203125,0.1018764662839472,0.0593564443320035,-0.0533002130329608,0.0376782901585102,0.0127573125064373,0.0049421582370996
1783204163978257200,7.764257080078125,0.0870776872113347,0.036947628647089,-0.0116068511635065,0.033550389111042,0.0176399536430835,0.0105217462405562
1783204163988195000,7.774195068359375,0.053240299539268,0.0297219151772558,0.0423585477799177,0.0275034308433532,0.01697214320302,0.00634186854586
1783204163998132000,7.784132080078125,0.025259528940916,0.0349646381363272,0.0662070408791303,0.02187324129045,0.0172171536833047,0.0043927007354795
1783204164008069000,7.794069091796875,-0.0107495036818087,0.0130260703116655,0.0661094257235527,0.0177585911005735,0.0188231244683265,-0.0007504734676331
1783204164018006000,7.804006103515625,-0.0162632986672222,0.0179272863566875,0.0892547389894723,0.0136357517912983,0.0101273693144321,0.002318819751963
1783204164027944200,7.813944091796875,-0.0133382050007581,0.0183661161653697,0.0587339285194873,0.0136408479884266,0.0080503290519118,0.0049533899873495
1783204164037881000,7.823881103515625,-0.0071127546146512,0.0062160980358719,0.0660351914435625,0.0099555663764476,0.0035762186162173,0.0072354525327682
1783204164047818200,7.833818359375,-0.0069992112375795,-0.0043880058258771,0.0865115777611732,0.0010560741648077,-0.0015781195834279,0.0036134815309196
1783204164057755000,7.8437548828125,-0.0133607090935111,-0.007917787387222,0.0857587135672569,-0.0074239633977413,-0.0086296368390321,-0.0008323995862156
1783204164067692000,7.853692138671875,-0.0283728386558592,-0.0188385559827089,0.0810281779140233,-0.012370160780847,-0.0077261058613657,-0.001557768904604
