time,seconds_elapsed,ax,ay,az,gx,gy,gz
1783204579662494000,0.092493896484375,-0.2623831084519624,0.4669058563485741,-1.015939376285672,0.4500511586666107,0.0410758256912231,-0.0690054222941398
1783204579672431000,0.10243115234375,-0.144797177991271,0.5120926132917404,-0.98086280220747,0.6343961954116821,0.0782855153083801,-0.1032432839274406
1783204579682369000,0.112369140625,-0.0304945069849491,0.3998933443054556,-0.8007569949477911,0.774135172367096,0.0730350911617279,-0.0974311977624893
1783204579692306000,0.122305908203125,-0.1097194348692894,0.1854009910583496,-0.9055226068019866,0.8567643165588379,0.0195711888372898,-0.0798576772212982
1783204579702243000,0.1322431640625,-0.1506155088812112,0.1558306131809949,-0.8846201040267944,0.8817210793495178,-0.0257547497749328,-0.0752610638737678
1783204579712181000,0.142180908203125,-0.0834393307089805,0.2452057636797428,-0.6949380746483802,0.8698885440826416,-0.0722793415188789,-0.112660601735115
1783204579722118000,0.152117919921875,-0.0756271956533193,0.3450742511421442,-0.5210112482845783,0.83713299036026,-0.1437708288431167,-0.1640146076679229
1783204579732055800,0.162055908203125,-0.0079144263863563,0.4412985368832945,-0.4061655564427375,0.8112120628356934,-0.1836311370134353,-0.2013997733592987
1783204579741993000,0.171992919921875,0.041283612024784,0.4838081835716962,-0.3464414478421211,0.7967095375061035,-0.2048879563808441,-0.2385410219430923
1783204579751930000,0.18193017578125,-0.0437292516112327,0.4621268053784966,-0.3007370967656373,0.7637059092521667,-0.188298612833023,-0.2727037966251373
1783204579761868000,0.191867919921875,-0.0623240619659423,0.4189043342456221,-0.1563683733195066,0.7142467498779297,-0.1435085088014602,-0.2806759774684906
1783204579771805000,0.201804931640625,-0.0586029956161975,0.3013070056080818,-0.0219359374761581,0.646126925945282,-0.1623788326978683,-0.2676416039466858
1783204579781742000,0.2117421875,-0.0961976899951696,0.0679322572365403,0.1691571277439594,0.5358246564865112,-0.2573713660240173,-0.2097210586071014
1783204579791680000,0.221679931640625,-0.0418465066045522,-0.169316409958899,0.4521510625481605,0.3719378709793091,-0.3669370710849762,-0.1089625433087349
1783204579801617000,0.231616943359375,0.0687801062375307,-0.3481675409823656,0.8173276059985161,0.1688966006040573,-0.4841196238994598,-0.0059498725458979
1783204579811554800,0.241554931640625,0.168784787300229,-0.37406419878304,1.1380746406137945,-0.0352220498025417,-0.5185803174972534,0.0650005564093589
1783204579821492000,0.251491943359375,0.1706377216905355,-0.2167851403594017,1.3398188637077808,-0.1738723367452621,-0.4375344514846802,0.1090753450989723
1783204579831429000,0.26142919921875,-0.0505512065857648,-0.0995180665895342,1.3515420347273348,-0.239976704120636,-0.2963141500949859,0.1409036368131637
1783204579841367000,0.271366943359375,-0.0950695627480745,-0.009675590839982,1.255807286068797,-0.2354964613914489,-0.1054496690630912,0.1752213984727859
1783204579851304000,0.281303955078125,0.0130506202310323,0.0530345478340983,0.993559202173352,-0.1879437863826751,0.032539390027523,0.1820889115333557
1783204579861242000,0.2912421875,0.1013344683617353,0.1296069153830409,0.6158598617583513,-0.1064492017030716,0.104394145309925,0.1857718080282211
1783204579871179000,0.301178955078125,0.0957125368267297,0.1270426178529858,0.3759913674533366,-0.0072270510718226,0.1436952054500579,0.185576856136322
1783204579881116000,0.311115966796875,0.0307505275726318,0.0831333334997296,0.2550684015244245,0.0954071804881095,0.1777128279209137,0.1990420669317245
1783204579891053800,0.3210537109375,-0.1130424418121576,0.0962023661702871,0.2371604043900966,0.1819267123937606,0.194486603140831,0.1905563026666641
1783204579900991000,0.330990966796875,-0.2819154919177293,0.1998848589628934,0.2746148135155439,0.2181318551301956,0.1603547185659408,0.1654735803604126
1783204579910929000,0.340928955078125,-0.3368552888512611,0.2903773230537772,0.2814455363184213,0.2276923358440399,0.0696613118052482,0.1033630669116973
1783204579920866000,0.350865966796875,-0.3354834159761667,0.3920972836017608,0.2675502819567918,0.1934627294540405,-0.0516315586864948,0.048651348799467
1783204579930803000,0.360802978515625,-0.3494605034023523,0.3576031855866313,0.3210913180083036,0.1146662980318069,-0.2192127406597137,-1.96958426386e-05
1783204579940741000,0.3707412109375,-0.243627554577589,0.2416992168635129,0.390957465916872,0.0603692345321178,-0.3474269211292267,-0.0357981994748115
1783204579950678000,0.380677978515625,-0.1129658694446086,0.1303212011322379,0.4537976607114076,0.050583891570568,-0.402546226978302,-0.0556790828704834
1783204579960616200,0.3906162109375,-0.0868096839249134,0.0261880419626832,0.4350912066757679,0.0064470567740499,-0.4949107468128204,-0.0730010792613029
1783204579970552800,0.400552734375,-0.1046247420787811,-0.1200049743011593,0.7947714907974004,-0.1156383603811264,-0.5905937552452087,-0.0676309317350387
1783204579980490000,0.410489990234375,0.0530056140005588,-0.09532032263875,1.0210948593527078,-0.2155958414077758,-0.6371188759803772,-0.0608899407088756
1783204579990428000,0.420427978515625,0.1357932028025388,-0.0357189636349678,0.9007540772259236,-0.2741507291793823,-0.6516042947769165,-0.0577068477869033
1783204580000365000,0.430364990234375,0.1807628098636865,-0.1502460910469293,0.9572913724839688,-0.3289748132228851,-0.6151634454727173,-0.025137186050415
1783204580010303000,0.440302978515625,0.3222702986598014,-0.2957534631341695,1.086119996970892,-0.3285779058933258,-0.4600204825401306,0.0358456894755363
1783204580020240100,0.450240234375,0.4724678743898868,-0.4872285134091973,1.0478595321595667,-0.2744406461715698,-0.3051022887229919,0.0954818502068519
1783204580030176800,0.4601767578125,0.5765712229430675,-0.6082268826618791,0.9346621920466422,-0.2468011528253555,-0.1624020040035247,0.1560707688331604
1783204580040115000,0.470114990234375,0.6857862154215574,-0.5259937128722667,0.9770938050627708,-0.2241222262382507,-0.0232315920293331,0.2383350133895874
1783204580050051800,0.4800517578125,0.7632733597278595,-0.3858499136447906,0.9818290168911218,-0.1879862546920776,0.1151592805981636,0.3149895668029785
1783204580059990000,0.489989990234375,0.6426414857000112,-0.3152782478153705,1.0859230130940676,-0.1458342671394348,0.3265309035778045,0.3705865144729614
1783204580069927000,0.499927001953125,0.3726724521636962,-0.3313865020513534,1.6822516604304312,-0.1290161907672882,0.651975154876709,0.4169050753116607
1783204580079864000,0.509864013671875,0.203949624183774,-0.4593678620591759,2.4111422735631463,-0.1624258160591125,1.0453075170516968,0.4820859432220459
1783204580089802000,0.519802001953125,0.1631926663815975,-0.5857379874780774,2.8879519765496253,-0.2565118372440338,1.370869278907776,0.5582154989242554
1783204580099739100,0.5297392578125,0.407119496166706,-0.552575138066709,3.046775926327705,-0.3973086178302765,1.649016499519348,0.6658149361610413
1783204580109677000,0.539677001953125,0.8599000887900591,-0.3471361521080136,2.9892139641970394,-0.5231560468673706,1.8915205001831052,0.804578959941864
1783204580119614000,0.549614013671875,1.0052356114417311,-0.1739081216633319,2.7879402812242504,-0.6143253445625305,2.1551826000213623,0.884973406791687
1783204580129550800,0.55955078125,0.7217951019138097,0.0841667682006955,2.7171862445652484,-0.674892783164978,2.46215558052063,0.8850691914558411
1783204580139489000,0.569489013671875,0.345969738677144,0.3406491281762719,2.835488798862696,-0.7751302123069763,2.7980637550354004,0.8196744918823242
1783204580149426000,0.579426025390625,0.0814040254890918,0.4330737293735146,2.9853537816375493,-0.901894211769104,3.139110326766968,0.7225483655929565
1783204580159364000,0.589364013671875,0.1288724636286497,0.4511310718506574,2.8299147981226445,-1.0077834129333496,3.4128334522247314,0.6469771862030029
1783204580169301000,0.599301025390625,0.4299339700430631,0.4453285230517387,2.300284190052748,-1.036841630935669,3.647538900375366,0.6104066967964172
1783204580179238100,0.609238037109375,0.6768962220013142,0.2906184383332729,1.598792455977201,-1.0034855604171753,3.702523946762085,0.6182464957237244
1783204580189176000,0.619176025390625,1.0385574508070945,0.0190504451677203,1.0289134241491555,-1.011910080909729,3.6273930072784415,0.6820439100265503
1783204580199113000,0.629113037109375,1.5433569844812154,-0.2184980817571282,0.8106208018362522,-1.1569570302963257,3.5528013706207275,0.7841897010803223
1783204580209051000,0.63905078125,2.416260931751132,-0.44095732223019,0.4566209014385938,-1.1661592721939087,3.8219592571258554,0.9171990752220154
1783204580218988000,0.648988037109375,2.7951024279385805,-0.5380312105379998,-0.4883481650888919,-1.150383710861206,3.4922876358032227,0.9251230359077454
1783204580228926000,0.658926025390625,0.6081444650754332,0.203284584403783,-0.6631546968966722,-1.3109732866287231,3.075680732727051,0.7475638389587402
1783204580238863000,0.668863037109375,0.1396510472744703,0.720231798119843,-0.9760288061797618,-1.398456335067749,2.733163833618164,0.5957090258598328
1783204580248800000,0.678800048828125,0.8402236206784844,0.3785242469318211,-2.025759392908216,-1.3742034435272217,2.3799142837524414,0.512170135974884
1783204580258738000,0.688738037109375,1.0152800355941056,-0.1619331678397953,-2.6411405312389133,-1.3762661218643188,1.953403115272522,0.4843151271343231
1783204580268675000,0.698675048828125,1.023265481390059,-0.3783754861108958,-2.7310610406607387,-1.4861202239990234,1.4482229948043823,0.5041183233261108
1783204580278613000,0.708613037109375,1.2231672914877534,-0.3863951264373957,-2.3415964436501264,-1.65423321723938,1.057167649269104,0.5454348921775818
1783204580288550000,0.7185498046875,1.1685618410751224,-0.3825644622333347,-1.768058889314532,-1.7685761451721191,0.8697299361228943,0.5608938336372375
1783204580298487000,0.728487060546875,0.8411708384007215,-0.3216271784506738,-1.3512240548193457,-1.785771727561951,0.881626307964325,0.572298526763916
1783204580308425000,0.738425048828125,0.5620350403293967,-0.1316442664295435,-1.2481208232194183,-1.6935237646102903,1.0005676746368408,0.5560938119888306
1783204580318362000,0.748362060546875,0.4908525491252541,0.0775967421606183,-1.4499837042570114,-1.522289156913757,1.1707298755645752,0.5543060302734375
1783204580328300000,0.758300048828125,0.671967241166532,0.0937262583803385,-1.465396377444267,-1.3495229482650757,1.3224480152130127,0.5970184803009033
1783204580338237000,0.76823681640625,0.9100848001509904,0.1827699119023978,-1.2878747414588927,-1.1817634105682373,1.4529701471328735,0.6455205082893372
1783204580348175000,0.778175048828125,0.7458581145465374,0.2796962449656799,-1.209189327278733,-1.0340168476104736,1.5009437799453735,0.6460191011428833
1783204580358112000,0.788112060546875,0.3426572531282901,0.3475978513356298,-1.2430670469611882,-0.9195110201835632,1.4617700576782229,0.6412349939346313
1783204580368048400,0.79804833984375,0.2600084882751107,0.347759106311947,-1.0670663369327782,-0.8786885738372803,1.4312365055084229,0.6481579542160034
1783204580377986300,0.807986328125,0.3187421245336532,0.2522512252118438,-0.4615525126218796,-0.885502278804779,1.4538671970367432,0.6790538430213928
1783204580387923200,0.817923095703125,0.4049968049243092,0.125409975149855,-0.2037754366606473,-0.923074185848236,1.4345513582229614,0.7285295724868774
1783204580397861000,0.827861083984375,0.3703793727904558,0.0837537852193228,-0.0553431170374155,-0.997352421283722,1.4052613973617554,0.787747323513031
1783204580407798300,0.83779833984375,0.1360822488769889,0.0752977262369357,-0.1090647703528404,-0.99221009016037,1.410365104675293,0.8335262537002563
1783204580417736200,0.847736083984375,-0.2310147412419319,0.1769342645514756,-0.7843985653430223,-0.8966431021690369,1.3914817571640017,0.792971134185791
1783204580427673300,0.85767333984375,-0.5607739343523979,0.386828074494563,-1.201891571485996,-0.7953586578369141,1.2893046140670776,0.7419584393501282
1783204580437610500,0.867610595703125,-0.631554566757381,0.4226654768774285,-1.021700424030423,-0.6982802748680115,1.2478916645050049,0.7181375622749329
1783204580447548400,0.87754833984375,-0.5433566433444619,0.4540324923805892,-0.5945300734817981,-0.6278637051582336,1.3611905574798584,0.7098127603530884
1783204580457485300,0.8874853515625,-0.4622545234113931,0.5802512266300618,-0.1035977371186017,-0.5998504161834717,1.5015028715133667,0.6784948110580444
1783204580467423500,0.897423583984375,-0.5022900350712239,0.7002285092066973,0.110335520941019,-0.6081970930099487,1.5381464958190918,0.6294185519218445
1783204580477360000,0.907360107421875,-0.6781169959679245,0.7188303338240831,-0.0377273808479309,-0.6623974442481995,1.3987252712249756,0.5779510736465454
1783204580487298300,0.91729833984375,-0.6895546280443668,0.6828530115138739,-0.3885433905124664,-0.7854341268539429,1.065709352493286,0.5435319542884827
1783204580497235200,0.927235107421875,-0.47984264094159,0.6839269243557006,-0.784671537065506,-0.970378875732422,0.5214301347732544,0.5049846172332764
1783204580507173400,0.93717333984375,-0.5791529099993408,0.5531177935760468,-1.052592405900359,-1.1648595333099363,0.0052608717232942,0.4435860812664032
1783204580517110300,0.9471103515625,-0.7031281031057238,0.402683705676347,-1.034352984854579,-1.3324432373046875,-0.3356647491455078,0.3393800556659698
1783204580527047400,0.95704736328125,-0.5199705070599914,0.3172702984154224,-0.8843786964863538,-1.464469313621521,-0.6013578772544861,0.2413132339715957
1783204580536985300,0.9669853515625,-0.4488558203950524,0.431178124885261,-0.7319611066192389,-1.5209829807281494,-0.7772756218910217,0.1181140765547752
1783204580546922500,0.976922607421875,-0.5900054356642067,0.5027092833966017,-0.4992348852843046,-1.5152127742767334,-0.8140784502029419,0.0025599517393857
1783204580556860400,0.9868603515625,-0.3996094127975404,0.5467980159699917,-0.3597925123244523,-1.4563499689102173,-0.7046587467193604,-0.056099098175764
1783204580566797300,0.99679736328125,-0.2262052951335907,0.5530506466239691,-0.3411760746598243,-1.344948649406433,-0.4566885828971863,-0.0794512704014778
1783204580576735200,1.0067353515625,-0.044168812072277,0.5631538152262568,-0.3040899143248796,-1.1811013221740725,-0.1494652777910232,-0.0572538264095783
1783204580586672400,1.01667236328125,0.0986678795009851,0.4656016418822109,-0.334789003971219,-0.9950624108314514,0.1461846083402633,-0.0016223979182541
1783204580596610300,1.0266103515625,0.1794616641372442,0.3608621873825788,-0.3154185330688953,-0.8253082036972046,0.4134131073951721,0.0522360391914844
1783204580606547500,1.03654736328125,0.3122041010670364,0.3561259526409208,-0.2055406927675008,-0.6941204071044922,0.64792799949646,0.1002279967069625
1783204580616484400,1.046484375,0.3257050954140723,0.3444067271441221,-0.032322306933999,-0.6085756421089172,0.7980413436889648,0.1361316591501236
1783204580626422500,1.056422607421875,0.2250444346606731,0.3349862801089883,-0.0963859060436487,-0.561215341091156,0.8780231475830078,0.1753532439470291
1783204580636359200,1.066359130859375,0.1923753601156175,0.3415685811087489,-0.3440384783536195,-0.5367560386657715,0.8646407723426819,0.2091380953788757
1783204580646297300,1.07629736328125,0.2580988552615046,0.3609115794822573,-0.6037526598572731,-0.5127586126327515,0.8101184368133545,0.2360946387052536
1783204580656234200,1.086234130859375,0.1983862179029732,0.4099164334088563,-0.443645684531331,-0.4692140519618988,0.8547506332397461,0.24428091943264
1783204580666172200,1.096172119140625,0.0935121772382408,0.4114505111083388,-0.2373193943440914,-0.4074485898017883,0.959588587284088,0.2278385311365127
1783204580676109300,1.106109375,0.0933786139864474,0.0799801301658153,-0.3202460993558168,-0.3312800526618957,1.079700946807861,0.2562043964862823
1783204580686047200,1.116047119140625,0.2839513816595077,-0.4152285683423281,-0.5716495486319064,-0.2966022193431854,1.0496809482574463,0.3413113951683044
1783204580695984400,1.125984375,0.2524679367024451,-0.4398609052956104,-0.6182412039369344,-0.3538018465042114,0.9163447618484496,0.4094291925430298
1783204580705922300,1.13592236328125,-0.0345372065044939,-0.4992790166869759,-0.456958170568943,-0.4440100789070129,0.7603857517242432,0.4262355268001556
1783204580715859500,1.145859375,-0.3976962361199781,-0.4930453829944133,-0.3730412854760885,-0.5220388174057007,0.5875527262687683,0.4014111161231994
1783204580725796000,1.155796142578125,-0.7455769595175981,-0.156546652495861,-0.2647498375833034,-0.5136928558349609,0.5887820720672607,0.3436972796916961
1783204580735734300,1.165734375,-0.7984042943418026,0.2947150599971413,-0.0952531026214361,-0.3626106679439544,0.7482854723930359,0.2796908617019653
1783204580745671200,1.175671142578125,-0.5066445404862985,0.3620490590795874,-0.3755973996996879,-0.13137848675251,0.9063544869422911,0.2429496943950653
1783204580755609300,1.185609375,-0.0422716366814449,0.1486877556890249,-0.8523696932852268,0.1127758622169494,0.9957874417304992,0.2405509650707245
1783204580765546200,1.195546142578125,0.2280493886303156,0.0087923782646656,-1.1385352438628673,0.3135061860084533,1.0093404054641724,0.2508082389831543
1783204580775484400,1.205484375,0.1669944332847371,0.0708162882402539,-1.2612731502592562,0.4284751117229461,0.9352104067802428,0.2490886151790619
1783204580785421300,1.21542138671875,-0.0027005641955882,0.1921282534867525,-1.11092827501297,0.4902086555957794,0.8267983198165894,0.2129304707050323
1783204580795359500,1.225359375,-0.0716279060172382,0.1659302746519446,-0.9146943397730588,0.5326743125915527,0.7325615882873535,0.1970681548118591
1783204580805296400,1.23529638671875,-0.1134758647933602,0.0344765623584389,-0.7958394122898578,0.5603071451187134,0.6372361779212952,0.1891077160835266
1783204580815234300,1.245234375,-0.1578811159700155,-0.0849272311791777,-0.648337651515007,0.5692812204360962,0.5607140064239502,0.1968247592449188
1783204580825171200,1.255171142578125,-0.1169975726461037,-0.1479381063655018,-0.4260948302716016,0.6088077425956726,0.5257871747016907,0.191044420003891
1783204580835108400,1.2651083984375,-0.1015573173321783,-0.1873959642678499,-0.2029898392409086,0.6755414605140686,0.6054854393005371,0.1807952225208282
1783204580845046300,1.27504638671875,-0.0659321329278871,-0.2359904838278889,0.0265086522191762,0.7449228167533875,0.8008540868759155,0.198237344622612
1783204580854983400,1.2849833984375,-0.06383432039842,-0.2199286990821361,0.0525491024047136,0.834158182144165,1.0312966108322144,0.2344020009040832
1783204580864921300,1.29492138671875,-0.1905825584147125,-0.1976383952103555,-0.3355746013909578,0.9814140796661376,1.214629292488098,0.2664195001125335
1783204580874858500,1.3048583984375,-0.1722392386030405,-0.1668000432237982,-0.7520750893652439,1.1289310455322266,1.2973185777664185,0.3089677691459656
1783204580884796400,1.31479638671875,-0.0820578132227063,-0.1061040208511054,-0.7715951978713274,1.205313205718994,1.2525938749313354,0.3421934247016907
1783204580894733300,1.3247333984375,-0.2412569529887288,0.0183802908211946,-0.6421972490638495,1.1595628261566162,0.979913592338562,0.3439068794250488
1783204580904671500,1.33467138671875,-0.7690923482049256,0.3380770857311785,-0.4001747915953397,0.9850072264671326,0.5965186953544617,0.2881945371627807
1783204580914608000,1.344608154296875,-0.953596682684496,0.6719784932129085,-0.2216208899527788,0.7851628065109253,0.2864793241024017,0.1965655535459518
1783204580924546300,1.35454638671875,-0.6679599052213132,0.7951926388189197,-0.2216881099700927,0.6872891187667847,0.0995079725980758,0.1149962544441223
1783204580934483200,1.364483154296875,-0.3986784155577421,0.6831741332270205,0.0193318924576044,0.6752859354019165,0.1198678389191627,0.0762446001172065
1783204580944421400,1.37442138671875,-0.4898801238965243,0.5409240093700587,0.3877151229947805,0.6969051361083984,0.2732635736465454,0.029590293765068
1783204580954358300,1.384358154296875,-0.6863963101439178,0.5055288708619773,0.2989344312578439,0.7313134670257568,0.3852785229682922,-0.0061176354065537
1783204580964296400,1.39429638671875,-0.4916653998780995,0.3977789824999869,0.0093961893767118,0.7340090274810791,0.2995308041572571,-0.042020846158266
1783204580974233300,1.4042333984375,-0.3946191302295774,0.316472718296945,-0.3529273027300834,0.6993192434310913,0.05720204859972,-0.0680319368839263
1783204580984171300,1.414171142578125,-0.3324931481190025,0.2786903923913836,-0.6580179185301065,0.6291971802711487,-0.2509712874889374,-0.0659025013446807
1783204580994108400,1.4241083984375,-0.1650903897617012,0.397821652597934,-0.6597136165320873,0.5512280464172363,-0.51217120885849,-0.0728155374526977
1783204581004046300,1.43404638671875,-0.207068779117614,0.4777199496991932,-0.472208346670866,0.532454252243042,-0.6193395256996155,-0.0858576521277427
1783204581013983200,1.443983154296875,-0.3136958009295165,0.4122973371960222,-0.4964823717057705,0.6284161806106567,-0.5873919725418091,-0.119057685136795
1783204581023920400,1.45392041015625,-0.4342353204987943,0.3531744824241846,-0.7158119358509779,0.7936402559280396,-0.4501829445362091,-0.145880177617073
1783204581033858300,1.4638583984375,-0.4236091509357094,0.4107944583524018,-0.5900292549312114,0.9513569474220276,-0.1609348952770233,-0.1799979358911514
1783204581043795500,1.47379541015625,-0.3218523655086756,0.4336404233455658,-0.3163771489679813,1.1178629398345947,0.229658618569374,-0.179638996720314
1783204581053733400,1.4837333984375,-0.0676770403664559,0.5322725008808076,-0.1716015982866287,1.2499587535858154,0.5856398940086365,-0.1533887386322021
1783204581063670300,1.493670166015625,-0.097199779709801,0.7088724189113825,-0.0039116204857826,1.3014034032821655,0.7181363701820374,-0.1445172280073166
1783204581073608400,1.5036083984375,-0.2304715012107044,0.8048444834571331,0.022881693893671,1.267536759376526,0.6943264007568359,-0.1590447723865509
1783204581083545300,1.51354541015625,-0.3188579329330473,0.8480473000414669,-0.0464057773441076,1.1569344997406006,0.452843427658081,-0.2086938917636871
1783204581093483300,1.523483154296875,-0.521502246671915,0.7383518305696547,-0.205585116431117,0.9735287427902222,0.0066371751017868,-0.2962663471698761
1783204581103420200,1.533420166015625,-0.9394604591738432,0.4474465746516362,-0.0981219360560178,0.7454833388328552,-0.332627534866333,-0.4412068724632263
1783204581113358300,1.5433583984375,-1.4151897465124723,0.322724837494269,0.2119938144296407,0.6242746114730835,-0.3078382909297943,-0.5371118783950806
1783204581123295200,1.553295166015625,-1.1036559459224342,0.4372209121808409,-0.1577910995990037,0.6662558913230896,-0.253026396036148,-0.6037954688072205
1783204581133233400,1.5632333984375,-0.6423146648984402,0.55235645381473,-0.5418021073788404,0.699710488319397,-0.3780215978622436,-0.6655504703521729
1783204581143170300,1.57317041015625,0.0142288702301681,0.8051138749830424,-0.1986018334150314,0.6185001134872437,-0.6606722474098206,-0.6831238269805908
1783204581153108500,1.5831083984375,0.5097122940264642,0.6519168251760303,0.3190864079266786,0.4352597594261169,-0.8606628179550171,-0.633134663105011
1783204581163045400,1.59304541015625,0.8641599381916224,0.1730682185067795,0.8110054172396659,0.2000676393508911,-0.9655357003211976,-0.5335844159126282
1783204581172983300,1.6029833984375,0.945160789707303,-0.1638082044640555,1.235911329987645,-0.0194479413330554,-0.984243869781494,-0.4099650084972381
1783204581182920200,1.612920166015625,0.9221298966012894,-0.223785301445052,1.4514952778637409,-0.1423503160476684,-0.9403709173202516,-0.2935338914394378
1783204581192858000,1.622858154296875,0.7728243012748658,-0.2703788016472943,0.9631108724176884,-0.115452654659748,-0.9176453351974488,-0.2485789507627487
1783204581202795300,1.632795166015625,0.4421516831139102,-0.4035690006108954,0.1633183385878801,0.0047291312366724,-0.8892646431922913,-0.1941099017858505
1783204581212733200,1.642733154296875,0.2455372241238132,-0.4138937030093744,-0.2891045266389846,0.139430746436119,-0.8702160716056824,-0.1521991938352584
1783204581222670300,1.65267041015625,0.116791455614753,-0.2580611718659289,-0.675053809005022,0.253566563129425,-0.9615718722343444,-0.1201710551977157
1783204581232608300,1.662608154296875,0.270353393211402,-0.1416201097245793,-0.9921733007729052,0.2687162160873413,-1.1585901975631714,-0.0848966911435127
1783204581242545400,1.67254541015625,0.4426082677749917,-0.1116733362828847,-0.8761877912461757,0.1973397582769394,-1.3949459791183472,-0.049040637910366
1783204581252483300,1.6824833984375,0.3832148159008472,-0.1875481956874951,-0.5761363386571406,0.0920410305261612,-1.5476857423782349,-0.0203437432646751
1783204581262420500,1.69242041015625,0.3430771955734119,-0.3157711458988487,-0.0613432342350482,-0.0120451906695961,-1.529401183128357,-0.0088888816535472
1783204581272358400,1.7023583984375,0.3624975334994494,-0.2851231653852388,0.5715525179982185,-0.1007521525025367,-1.3981560468673706,-0.0180315151810646
1783204581282295300,1.71229541015625,0.3987632808296009,-0.1152644195774104,1.110036294609308,-0.1811139434576034,-1.1942644119262695,-0.0373415984213352
1783204581292233200,1.722233154296875,0.3924373657437041,-0.0426070335151161,1.324361182335019,-0.2183902114629745,-0.9859246015548706,-0.0867357775568962
1783204581302170400,1.73217041015625,0.2365653611063957,-0.1403496970631182,0.9312883316993712,-0.178503543138504,-0.7624639272689819,-0.139052614569664
1783204581312108300,1.7421083984375,-0.0211348502263426,-0.2933455434759147,0.4451180951714515,-0.0672787353396415,-0.493626594543457,-0.2036028504371643
1783204581322045400,1.75204541015625,-0.203223574931547,-0.3155515848640352,-0.0342570743888616,0.0929260998964309,-0.2617032825946808,-0.232201412320137
1783204581331983400,1.7619833984375,-0.1161490295253694,-0.270568278071098,-0.4121791176438331,0.2271347790956497,-0.163166344165802,-0.2247948944568634
1783204581341920300,1.771920166015625,0.1060790325403213,-0.2445784620942547,-0.6555956598192453,0.3013617992401123,-0.1983611732721328,-0.137933537364006
1783204581351858400,1.7818583984375,0.5497741822365672,-0.1157439010568894,-0.8102133900791406,0.2920079827308655,-0.3903526961803436,-0.0622022934257984
1783204581361795600,1.791795654296875,0.4622653370663523,-0.2940742961418814,-0.531617982494831,0.1772685945034027,-0.5827091336250305,-0.0215190965682268
1783204581371733800,1.801733642578125,0.5414645459875465,-0.3599612930200994,-0.1708446424394845,0.0503165125846862,-0.7320523262023926,0.0075277360156178
1783204581381670700,1.811670654296875,0.6021000703446566,-0.3778812728531658,-0.0212941324412822,-0.0269001740962266,-0.8100646138191223,0.0459773242473602
1783204581391608800,1.82160888671875,0.6211475929029285,-0.2561499679497443,0.1781909135490655,-0.0493077412247657,-0.8058773279190063,0.0929016843438148
1783204581401545700,1.831545654296875,0.6182061326235533,-0.0806747978990897,0.3506511744916439,-0.0458137020468711,-0.7484012842178345,0.1317955106496811
1783204581411483600,1.841483642578125,0.5028853706158697,-0.0427893952115438,0.3760293613761663,-0.0714897662401199,-0.7709353566169739,0.1750910431146621
1783204581421420800,1.8514208984375,0.3520781385548412,-0.1301535712140612,0.2804021647453308,-0.1686224639415741,-0.8983362317085266,0.2098883986473083
1783204581431358700,1.861358642578125,0.1936671534918248,-0.2149987318666651,0.2786304788976907,-0.379359483718872,-1.1895403861999512,0.2204097509384155
1783204581441295600,1.871295654296875,0.108295247285068,-0.2413528876438736,0.229052501258254,-0.6424489617347717,-1.4908366203308103,0.2018749266862869
1783204581451233500,1.881233642578125,0.1844654637739062,-0.2708755904546007,0.0093383217096328,-0.8311038613319397,-1.7714736461639404,0.1803736239671707
1783204581461170700,1.891170654296875,0.2996278203494846,-0.1253662456059828,-0.4915741413980722,-0.9076753854751588,-2.043071746826172,0.1639482676982879
1783204581471108600,1.901108642578125,0.4192062398016452,0.1241792095121927,-0.761235716420412,-0.9104415774345398,-2.242177248001098,0.1552690267562866
1783204581481045800,1.911045654296875,0.3017845599919557,0.2635448822403326,-0.8070832753598689,-0.8779742121696472,-2.3981525897979736,0.1288049817085266
1783204581490983700,1.920983642578125,0.1133507771089673,0.3763569858953356,-1.097056401526928,-0.8323146104812622,-2.465786933898926,0.0393669717013835
1783204581500920800,1.9309208984375,-0.2197100878953933,0.4801953999020159,-1.3795716129034756,-0.743401288986206,-2.433851718902588,-0.0976096242666244
1783204581510858800,1.940858642578125,-0.5807993620321155,0.390677772192657,-1.3186276071190832,-0.6474393010139465,-2.33041787147522,-0.232744812965393
1783204581520796000,1.9507958984375,-0.8970636982753872,0.2157086702343076,-0.939205680695176,-0.5666447877883911,-2.0405306816101074,-0.4030228555202484
1783204581530733600,1.960733642578125,-0.9510252978265284,0.1874471829984337,-0.0334223771303892,-0.5314356684684753,-1.4884010553359983,-0.6795763969421387
1783204581540670700,1.970670654296875,-1.1546677557572722,0.5493957773782313,0.737035341143608,-0.5314739346504211,-0.9349679946899414,-1.0371469259262085
1783204581550608600,1.980608642578125,-1.2847452112615108,1.0224893093857914,0.9527361933976412,-0.5238091349601746,-0.5572734475135803,-1.2927980422973633
1783204581560545800,1.9905458984375,-0.8060235371738672,1.0504428266510366,0.5103174203127623,-0.4449262320995331,-0.5435562133789062,-1.3259714841842651
1783204581570483700,2.000483642578125,-0.3061512307688593,0.5199153428066522,-0.7044575981438159,-0.2684553265571594,-0.682769238948822,-1.1185836791992188
1783204581580420600,2.010420654296875,0.1285565295472741,-0.1369207455277442,-1.5392039564549922,-0.050775371491909,-0.8704372048377991,-0.8587509989738464
1783204581590358800,2.02035888671875,0.4345902714163064,-0.4027379200816154,-1.9449118322581047,0.1547380983829498,-1.1058937311172483,-0.6231818795204163
1783204581600295700,2.030295654296875,0.6291527663126587,-0.3207262110229581,-1.861512833559513,0.2829397022724151,-1.3091826438903809,-0.4140419661998749
1783204581610233900,2.04023388671875,0.8348626781672239,-0.1011876803021877,-1.245865153247118,0.334285169839859,-1.3869242668151855,-0.2777954339981079
1783204581620170500,2.05017041015625,0.8021966723620891,0.025915581696853,-0.5875467904657126,0.3853103816509247,-1.2916250228881836,-0.1968226283788681
1783204581630108700,2.060108642578125,0.6505182104244828,0.1413188343562185,0.3324088308364152,0.5549534559249878,-0.7410596013069153,-0.1576509922742843
1783204581640045600,2.070045654296875,0.4954156192570924,0.3867319571763277,1.7639982157468794,0.7559383511543274,0.2201305478811264,-0.1444955766201019
1783204581649983700,2.079983642578125,0.2807037780404091,0.5518000620409846,2.8138229104995727,0.8555363416671753,1.137791872024536,-0.1384957432746887
1783204581659920600,2.089920654296875,0.0051470074996352,0.3555756252817809,2.901535680744052,0.7881481647491455,1.6691477298736572,-0.1342897862195968
1783204581669858800,2.09985888671875,0.1718412522614002,0.2048641817454248,2.224554703068733,0.5687804222106934,1.6381043195724487,-0.0946273431181907
1783204581679795700,2.109795654296875,0.6942848714366555,0.077370157729974,1.1129127268284558,0.3016003370285034,1.310505747795105,0.0012809245381504
1783204581689733600,2.119733642578125,0.7360144736632704,-0.2299197125468403,0.0431336238056421,0.0119378948584198,1.0168765783309937,-0.0714832916855812
1783204581699670800,2.1296708984375,0.4341524645209312,-0.0718771224047988,-0.5170663100510835,-0.1783514022827148,0.3700684607028961,-0.0353663526475429
1783204581709608700,2.139608642578125,0.0986167338356375,-0.0711635673079639,-1.095454227027297,-0.1901675760746002,-0.1474447250366211,0.0072447569109499
1783204581719545600,2.149545654296875,-0.0653527621373534,-0.0959016296580433,-1.164500875246525,-0.1229939311742782,-0.4498797655105591,-0.0088458796963095
1783204581729483500,2.1594833984375,-0.5705342808663845,-0.1208977584224194,-0.8202624904066323,-0.0493215769529342,-0.560918927192688,-0.0936678275465965
1783204581739420700,2.169420654296875,-0.9502122278779744,-0.2179443933971226,-0.2524848147720098,0.0200550071895122,-0.5440561175346375,-0.1437936276197433
1783204581749358600,2.179358642578125,-0.5081310161843896,-0.3050058601260185,0.3078980744361877,0.1227108165621757,-0.2823691368103027,-0.1174496337771415
1783204581759296800,2.189296875,0.3138037913486361,-0.3486575895216315,0.9610334816217422,0.2020508348941803,0.109364278614521,-0.0045630619861185
1783204581769233700,2.199233642578125,0.8786369379639625,-0.5455971888128668,1.145596852812171,0.2015062123537063,0.2811147272586822,0.1058145761489868
1783204581779171600,2.209171630859375,1.0415054869577287,-0.5468297262825071,0.4277840985327958,0.1180854439735412,0.0964657440781593,0.1988619416952133
1783204581789108700,2.219108642578125,1.143987079527974,-0.5645299258850515,-0.4548217430621385,0.0626922249794006,-0.2304572463035583,0.2991510033607483
1783204581799046700,2.229046630859375,1.2216633166655897,-0.618489187348634,-1.0024579634219408,0.0509983226656913,-0.5787078142166138,0.4110832214355469
1783204581808983800,2.23898388671875,1.3212003802165388,-0.6526262886196375,-1.0353051710128784,0.1272472888231277,-0.6951776742935181,0.5464115142822266
1783204581818921700,2.248921630859375,1.2082248661607504,-0.8845514957699924,-0.7366448805212974,0.2611242532730102,-0.6794002652168274,0.6954441666603088
1783204581828858600,2.258858642578125,1.1463067546471952,-0.8259297954533249,-0.345382294178009,0.3961774110794067,-0.5045861005783081,0.8006922602653503
1783204581838796500,2.268796630859375,0.6514426317930221,-0.5754130658838897,0.098869539552927,0.5344180464744568,-0.1890970021486282,0.8210964798927307
1783204581848733700,2.278733642578125,-0.0792751967668533,-0.3342756476216018,0.5091957228064536,0.621977686882019,0.1233346685767173,0.774744987487793
1783204581858671600,2.288671630859375,-0.3543547051846981,-0.0772961517788469,0.8268588199317455,0.6464900970458984,0.426335871219635,0.7175536751747131
1783204581868608800,2.29860888671875,-0.3503574522420764,-0.0920072525680065,0.8738327525526285,0.6340336799621582,0.6036690473556519,0.6908514499664307
1783204581878546700,2.308546630859375,-0.0842453863948583,-0.1129800441004335,0.6735054105192423,0.5860641002655029,0.6451542377471924,0.6709587574005127
1783204581888483800,2.31848388671875,-0.167322605793178,0.1118788779255002,0.3851391350269317,0.5724114179611206,0.6418356895446777,0.5585746765136719
1783204581898421800,2.328421875,-0.9214821002170444,0.2476471654824912,-0.0722848994880914,0.5620144605636597,0.4942390918731689,0.4213716089725494
1783204581908359000,2.33835888671875,-1.0343342801541089,0.2271698293168097,-0.4026227692693471,0.4391966462135315,0.1466720998287201,0.3188401758670807
1783204581918296800,2.348296875,-0.8501584469765424,0.3176945151768625,-0.5960305411726236,0.3043018281459808,-0.270477831363678,0.2031044661998748
1783204581928233700,2.358233642578125,-0.8895368099018931,0.3731898271013051,-0.7504267376363277,0.1860867887735366,-0.6308304667472839,0.0942016839981079
1783204581938171600,2.368171630859375,-0.8867690987542272,0.3896704217810183,-0.4512146584808826,0.0797489508986473,-0.8124542832374573,-0.0265968814492225
1783204581948108800,2.37810888671875,-1.0787287176758051,0.4911608844220638,0.1476741947323084,0.0249986182898283,-0.791713297367096,-0.1751016676425933
1783204581958046700,2.388046630859375,-1.2422896328479052,0.6538026389226317,0.6606576193839311,0.0063252304680645,-0.6390256285667419,-0.338378369808197
1783204581967983600,2.397983642578125,-1.359994221252203,0.697631916842237,0.8113456089794635,0.0052367965690791,-0.4727524518966675,-0.4968947768211365
1783204581977921800,2.407921875,-1.360629888807237,0.659754752260074,0.6048042147368192,0.0128070870414376,-0.415810078382492,-0.6429451107978821
1783204581987859700,2.417859619140625,-1.232420273001492,0.7517574747834355,0.102950086864829,0.0154209798201918,-0.4846362769603729,-0.7713920474052429
1783204581997796900,2.427796875,-1.0613684175521134,0.7543752560663968,-0.4394721982389688,0.0489830374717712,-0.6125762462615967,-0.8715723752975464
1783204582007734800,2.43773486328125,-0.9903346871688962,0.6316856457911432,-0.8391255963087081,0.0909296870231628,-0.7506824731826782,-0.9536869525909424
1783204582017671700,2.447671630859375,-0.9325801250755786,0.6073229195594787,-0.8614192611813545,0.1269606649875641,-0.8427757024765015,-1.0021668672561646
1783204582027609600,2.457609619140625,-0.6776701289832592,0.4943868972638621,-0.6601572686463594,0.1341338902711868,-0.8960540890693665,-0.9859068989753724
1783204582037546800,2.467546630859375,0.0040521980002522,0.2970608194056898,-0.2950111203342676,0.0905682891607284,-0.9761314988136292,-0.8959900140762329
1783204582047484700,2.477484619140625,0.4027519486069679,0.2076130420621484,-0.1717471442371606,-0.0037579499185085,-1.1314760446548462,-0.7833638787269592
1783204582057421600,2.487421630859375,0.5564531485438347,0.1394802207522094,-0.2265244440853595,-0.1170288324356079,-1.290534257888794,-0.6771219372749329
1783204582067359700,2.49735986328125,0.7025184467747807,0.0915484028846025,-0.2147591874897479,-0.1913587152957916,-1.3999379873275757,-0.5679736137390137
1783204582077296600,2.507296630859375,0.7871525402262807,-0.0096184538252651,-0.2853191628813743,-0.2074917405843734,-1.453992247581482,-0.4734002351760864
1783204582087234800,2.51723486328125,0.7166554009377956,-0.1021437389180064,-0.4846855509281158,-0.1818950325250625,-1.5082091093063354,-0.4028706848621368
1783204582097171700,2.527171630859375,0.4192109159767627,-0.1037196099326014,-0.7825520606935024,-0.1138147860765457,-1.5674093961715698,-0.3907389044761657
1783204582107110000,2.53710986328125,0.1940712042480707,0.0674859747737646,-1.1177443847686053,0.0123093286529183,-1.6204179525375366,-0.4321483969688415
1783204582117046500,2.547046630859375,-0.0480576362043619,0.2372172491438686,-1.49405607021749,0.1614750176668167,-1.6895484924316406,-0.4926651418209076
1783204582126984700,2.556984619140625,-0.2127782428056001,0.3124668436564505,-1.7164175494045018,0.256995141506195,-1.7708861827850342,-0.5576955676078796
1783204582136922600,2.566922607421875,-0.2135731925755739,0.3063935150921344,-1.3676362604379653,0.3222247958183288,-1.737841010093689,-0.6372283697128296
1783204582146859500,2.576859619140625,-0.0554115060985088,0.4046433883767574,-0.8516244278758763,0.3608313202857971,-1.6110458374023438,-0.7073387503623962
1783204582156797700,2.586797607421875,0.0665635992318391,0.3842045575905591,-0.3339227425307035,0.3603900372982025,-1.4108458757400513,-0.7602682709693909
1783204582166734600,2.596734619140625,0.2522597738444805,0.2848717844400554,0.1761141072750091,0.3201363384723663,-1.172205090522766,-0.7625612616539001
1783204582176672800,2.6066728515625,0.6181646315693855,0.0977800638157874,0.5922744035094976,0.2492943257093429,-0.9323643445968628,-0.7057437896728516
1783204582186609700,2.616609619140625,1.0637503442525864,-0.1451079975061118,0.7807505642294883,0.1634521186351776,-0.7427025437355042,-0.5956932306289673
1783204582196547800,2.6265478515625,1.4331342762649055,-0.2574310390025377,0.7885521778911352,0.055651918053627,-0.60467928647995,-0.47060626745224
1783204582206484700,2.636484619140625,1.6206103200316428,-0.3521706391438841,0.7202420272529125,-0.0345493480563163,-0.5266768932342529,-0.3382783234119415
1783204582216423000,2.6464228515625,1.527571970850229,-0.4293205873850733,0.4270896865278482,-0.0936903208494186,-0.529223620891571,-0.2346953749656677
1783204582226359600,2.656359619140625,1.2551233954578638,-0.3588132189635187,0.0357920288711786,-0.1011575609445571,-0.5364644527435303,-0.1581100523471832
1783204582236297700,2.666297607421875,0.9015484424740076,-0.2471458648968487,-0.1776326951444149,-0.0588110238313674,-0.4910412430763244,-0.1164024621248245
1783204582246235600,2.676235595703125,0.6016103871315718,-0.2353899606514722,-0.1254407356142997,0.0015894724056124,-0.392743170261383,-0.0990868583321571
1783204582256172500,2.686172607421875,0.396690456610918,-0.2563353527203202,0.1117372044324874,0.0409221462905406,-0.2722218036651611,-0.0818376094102859
1783204582266110700,2.69611083984375,0.2718856808125973,-0.3068128364827484,0.3892991773158311,0.0572350732982158,-0.1359768807888031,-0.0538624301552772
1783204582276047600,2.706047607421875,0.3095756522595882,-0.3900520415097475,0.6360492478281259,0.0419084541499614,-0.0211392641067504,-0.0084734056144952
1783204582285985800,2.71598583984375,0.442345707848668,-0.4497049115050583,0.7480050634473562,-0.000202246941626,0.0513391979038715,0.0460942313075065
1783204582295922700,2.725922607421875,0.4944815532773733,-0.4802736527699976,0.7575976521790028,-0.0613700300455093,0.0619394704699516,0.0934464037418365
1783204582305860900,2.73586083984375,0.448625226509571,-0.4736198209039867,0.7502075419276952,-0.1333145350217819,0.0536469183862209,0.1165280193090438
1783204582315797800,2.7457978515625,0.3276940772742033,-0.4083323790878057,0.8320563885748385,-0.2166488766670227,0.0563822574913501,0.1131628230214119
1783204582325735700,2.755735595703125,0.1597007326126098,-0.2832180989488959,1.0378986946374178,-0.3250832259654999,0.0732746869325637,0.0746367424726486
1783204582335672600,2.765672607421875,0.0120949269413948,-0.2314443648308515,1.291257369634509,-0.4562185108661651,0.1298262774944305,0.0448167137801647
1783204582345610500,2.775610595703125,0.1019955626189708,-0.2785429467447102,1.7133745284467934,-0.6245082020759583,0.2167081832885742,0.0340697914361953
1783204582355547600,2.785547607421875,0.3142939129531383,-0.3040165568277239,2.1556360651433466,-0.8305831551551819,0.3270370960235595,0.0414161495864391
1783204582365486300,2.795486328125,0.49236149238348,-0.3599725450664758,2.455722589045763,-1.0580310821533203,0.4491869807243347,0.0634282454848289
1783204582375424500,2.805424560546875,0.6563064384371042,-0.3955814724557101,2.7083511962026354,-1.2858095169067385,0.6406299471855164,0.1053886264562606
1783204582385361400,2.815361328125,0.9175111507594584,-0.4206393413446843,2.8885657245337963,-1.4741673469543457,0.8415223360061646,0.1742419898509979
1783204582395299300,2.82529931640625,1.1281143876135349,-0.5382793400801718,2.518039636749029,-1.626009821891785,0.9098567366600036,0.2652329206466675
1783204582405236200,2.835236328125,1.0886544838845729,-0.6099238958381116,1.568671458479762,-1.7355676889419556,0.7927604913711548,0.3587924540042877
1783204582415174100,2.845174072265625,0.8215338255167007,-0.6583183627814054,0.2635948223292827,-1.7398213148117063,0.5289812088012695,0.4287187159061432
1783204582425111300,2.855111328125,0.4028852195978164,-0.554077505453676,-0.994796050491929,-1.64930260181427,0.2073528468608856,0.4509776830673218
1783204582435049200,2.86504931640625,0.0764186382919549,-0.3726546242460608,-1.7740099066734314,-1.4363876581192017,-0.0337266251444816,0.4481046199798584
1783204582444986400,2.874986328125,-0.1486374868065118,-0.3068773530863225,-2.0085230114251376,-1.196600079536438,-0.1270634979009628,0.4367483556270599
1783204582454924300,2.88492431640625,-0.2551934892088174,-0.347066630535759,-1.682735060033202,-0.9965248703956604,-0.1607550978660583,0.4361582696437835
1783204582464861400,2.894861328125,-0.2196352690935134,-0.3993436014682054,-1.2734955029726027,-0.7646257877349854,-0.1030028536915779,0.4484128057956695
1783204582474799400,2.90479931640625,-0.1011713867545127,-0.3526758121870458,-0.9146253661900758,-0.5531153082847595,0.086628533899784,0.4713217914104461
1783204582484737300,2.9147373046875,-0.0446270772337913,-0.3360235142022371,-0.513557425147295,-0.3750222623348236,0.2998811602592468,0.498780608177185
1783204582494674400,2.92467431640625,0.066384735533595,-0.2677421512670815,-0.3114893769264221,-0.266956627368927,0.4508246779441833,0.532925009727478
1783204582504612400,2.9346123046875,0.2186585330158472,-0.1465027398001402,-0.2779197002798318,-0.210811048746109,0.4916623830795288,0.5674739480018616
1783204582514549200,2.94454931640625,0.3178238406449556,0.0263008546873927,-0.3461737368166446,-0.2155742347240448,0.4341888725757599,0.5873021483421326
1783204582524487200,2.954487060546875,0.2807645683169364,0.212734184468165,-0.3600286591678857,-0.275898277759552,0.2978600561618805,0.5864819288253784
1783204582534424300,2.96442431640625,0.109015085992217,0.3110710784491151,-0.3984691567212343,-0.323904812335968,0.1536190658807754,0.5636626482009888
1783204582544362200,2.9743623046875,-0.1296142219066619,0.3782061208933591,-0.5547574505418539,-0.3594050109386444,0.0367888584733009,0.512079119682312
1783204582554299400,2.98429931640625,-0.4893050274223089,0.5810961530216038,-0.6708791536688804,-0.3578044474124908,-0.035981185734272,0.4272103905677795
1783204582564237300,2.9942373046875,-0.7634580686450004,0.6776774355068802,-0.8096393895834684,-0.3093988299369812,-0.0709538161754608,0.3389436304569244
1783204582574175200,3.00417529296875,-0.9106851041316986,0.7545278893448412,-0.9299988764107228,-0.2357145696878433,-0.0771829858422279,0.2400873601436615
1783204582584112400,3.0141123046875,-1.036568322816491,0.7934655958306044,-0.9985872594684362,-0.144489049911499,-0.0688883066177368,0.1500914245843887
1783204582594050300,3.02405029296875,-1.0629390278697013,0.8304775949507951,-1.1048568461447954,-0.0556908324360847,-0.0726855546236038,0.0656725540757179
1783204582603987200,3.0339873046875,-1.0290268213957547,0.8690912571139633,-1.0768652618914842,0.0126469498500227,-0.0788808614015579,-0.0091966241598129
1783204582613925000,3.043925048828125,-0.9308440950632096,0.8644451118085533,-0.9549486087501048,0.0577985048294067,-0.0804832428693771,-0.0702461451292038
1783204582623862300,3.0538623046875,-0.8185387353539466,0.8935425384119152,-0.8188988008379936,0.0837555304169654,-0.088603489100933,-0.1207727044820785
1783204582633800200,3.06380029296875,-0.6775614079117774,0.9044339347824454,-0.6711088707715273,0.081841342151165,-0.1033285185694694,-0.1631618440151214
1783204582643737300,3.0737373046875,-0.5360509965062141,0.905704685370624,-0.4809107085645198,0.0537878721952438,-0.1185143962502479,-0.1947916746139526
1783204582653675300,3.08367529296875,-0.411668245512247,0.9127084266528488,-0.3459142090976238,0.0079568931832909,-0.1407486647367477,-0.2219820916652679
1783204582663613400,3.093613525390625,-0.3140811469852924,0.8876638556368649,-0.2693956175625324,-0.0310789234936237,-0.1441178321838379,-0.238937646150589
1783204582673550300,3.10355029296875,-0.2257370930999517,0.7923658909603953,-0.2246335157722234,-0.0686250627040863,-0.1419770270586013,-0.2582520842552185
1783204582683488300,3.11348828125,-0.1706745465695857,0.7592766913071274,-0.1876011314511299,-0.1111600026488304,-0.1389692574739456,-0.2755325436592102
1783204582693425400,3.12342529296875,-0.1397217744231224,0.6946081120416522,-0.2237748531162738,-0.1369885057210922,-0.1460513919591903,-0.2830553650856018
1783204582703363300,3.13336328125,-0.1080500403523445,0.5992755144432187,-0.3152542824178934,-0.1503258794546127,-0.1599445641040802,-0.2928656637668609
1783204582713300200,3.14330029296875,-0.1018511857122182,0.4862397946327924,-0.3978396266460418,-0.1571388691663742,-0.1931595504283905,-0.2930137515068054
1783204582723238100,3.153238037109375,-0.0959405003637075,0.4091555320389569,-0.5542763890266418,-0.1358008235692978,-0.2351653277873993,-0.2938297390937805
1783204582733175300,3.16317529296875,-0.1085462994366884,0.3455152729079127,-0.6098153208971023,-0.0932930782437324,-0.2488671690225601,-0.2970394790172577
1783204582743113200,3.17311328125,-0.1229904198527336,0.2186975498519837,-0.6146762049317359,-0.0376061201095581,-0.2483473271131515,-0.2967308163642883
1783204582753051400,3.183051513671875,-0.1247498307406902,0.1518052301224321,-0.5284598107248545,0.0187555700540542,-0.2231312990188598,-0.2993893921375274
1783204582762988300,3.19298828125,-0.0818459240376949,0.106733258665353,-0.3532411909848451,0.0766902416944503,-0.169412687420845,-0.2927157878875732
1783204582772926200,3.20292626953125,-0.0159656308948993,0.0609917904488742,-0.2670347336500883,0.1320267915725708,-0.12331073731184,-0.2909146547317505
1783204582782863400,3.21286328125,0.0214659818768501,0.0287494168832898,-0.2378390343040227,0.1846415251493454,-0.0919152572751045,-0.2894962728023529
1783204582792801300,3.22280126953125,0.0283335295587778,-0.0421695280138403,-0.1769733544528484,0.2242492288351059,-0.0649725571274757,-0.2858850061893463
1783204582802738400,3.232738525390625,0.0665495707064867,-0.1275233140420168,-0.0937485432773828,0.252765029668808,-0.0481669418513774,-0.2759849727153778
1783204582812676400,3.24267626953125,0.1140589253783226,-0.1605038656890392,0.0466617979317903,0.2646840810775757,-0.026189075782895,-0.2626794576644897
1783204582822614500,3.252614501953125,0.1707686545938253,-0.2110856135435402,0.1571510481297969,0.2652241587638855,-0.0176677610725164,-0.2426868081092834
1783204582832551200,3.26255126953125,0.2227221291929483,-0.2745407253660261,0.1958522424459457,0.2532146871089935,-0.037381038069725,-0.2239125519990921
1783204582842489300,3.2724892578125,0.2724287016481161,-0.2790179438453167,0.23735914183259,0.220716118812561,-0.0696537643671035,-0.2055111825466156
1783204582852426200,3.28242626953125,0.3136164520829916,-0.2492714422160759,0.2858352957099676,0.1743377447128296,-0.1177321672439575,-0.1923531293869018
1783204582862364400,3.292364501953125,0.3191109578460455,-0.2836399776227772,0.2497743867695331,0.1403661966323852,-0.1720915287733078,-0.1787883192300796
1783204582872301300,3.30230126953125,0.275097628596425,-0.3365736954309046,0.1776987461179494,0.1226957142353057,-0.2111936509609222,-0.16877481341362
1783204582882239200,3.3122392578125,0.2374883211702108,-0.3640091071061789,0.1769979043722152,0.115522488951683,-0.2200286835432052,-0.1587613224983215
1783204582892176400,3.32217626953125,0.1804915917068719,-0.3817416015431285,0.2530705057054758,0.1115441173315048,-0.2085656076669693,-0.1506831347942352
1783204582902114300,3.3321142578125,0.1414642341762781,-0.3835729451561346,0.2879547720819712,0.1111632883548736,-0.2006464302539825,-0.1399268954992294
1783204582912052500,3.342052490234375,0.1340577573120594,-0.35658451006338,0.2546586516797542,0.105004996061325,-0.2019119709730148,-0.1374882459640503
1783204582921989400,3.3519892578125,0.1346890409529209,-0.321917685829848,0.2165992623984813,0.1003924012184143,-0.2164749354124069,-0.1272233575582504
1783204582931927600,3.361927490234375,0.144672090306878,-0.3223359112419188,0.2232750869005918,0.0970145016908645,-0.2319080978631973,-0.119379699230194
1783204582941864200,3.3718642578125,0.1650105294585228,-0.3338732408331707,0.2622650350302458,0.1011173650622367,-0.2252368777990341,-0.1039890274405479
1783204582951802400,3.38180224609375,0.1777683042228221,-0.3208937496095895,0.3417050669699907,0.098698191344738,-0.1996405273675918,-0.089757464826107
1783204582961739300,3.3917392578125,0.1851286038577556,-0.2863669183686375,0.4913718968242406,0.0832862183451652,-0.1633704155683517,-0.0689885318279266
1783204582971677200,3.40167724609375,0.2002460934907197,-0.3116564040564,0.5660165111809968,0.0633446723222732,-0.1262292861938476,-0.0466476492583751
1783204582981615400,3.411615478515625,0.2359387536406517,-0.3141611168863251,0.5777542952477932,0.0314874053001403,-0.1057812720537185,-0.0165771003812551
1783204582991552300,3.42155224609375,0.2619189980715513,-0.2695582607783377,0.6012386312097311,-0.0069935526698827,-0.0787970349192619,0.0110763916745781
1783204583001490400,3.431490478515625,0.2976180879622697,-0.2467008245430886,0.6471504875570535,-0.0365320071578025,-0.0458340272307395,0.046953696757555
1783204583011427300,3.44142724609375,0.2926999207824468,-0.269981893017888,0.6339794558167458,-0.0625755041837692,-0.0091006681323051,0.0801559910178184
1783204583021365500,3.451365478515625,0.2400315759122371,-0.225797152724117,0.5959621521115303,-0.0856869518756866,0.0203629489988088,0.1061692088842392
1783204583031302100,3.46130224609375,0.1784860971033573,-0.1820658552862703,0.4884276600658893,-0.1046553403139114,0.0294819250702857,0.1275195628404617
1783204583041240300,3.471240234375,0.111342652156949,-0.1537185894630849,0.3411696449190378,-0.1143921166658401,0.0146044418215751,0.139491006731987
1783204583051177200,3.48117724609375,0.0352694663017988,-0.0862413825176656,0.2040063228070736,-0.1202015727758407,0.0003659119829535,0.1396588087081909
1783204583061115400,3.491115478515625,-0.0562543866634368,-0.0513254058286547,0.1387836167901754,-0.1252930164337158,-0.0043020765297114,0.1367969810962677
1783204583071053300,3.50105322265625,-0.1212730945408344,-0.0408950510986149,0.1485895560115575,-0.1229914352297782,0.0041441423818469,0.1273333728313446
1783204583080990200,3.510990234375,-0.1214724165052175,-0.0023239129029214,0.1067956563770771,-0.1204904541373252,0.0149829424917697,0.1207479014992713
1783204583090928400,3.520928466796875,-0.1317044721841812,0.0328651451064273,0.1299520755589008,-0.1329091042280197,0.0247929412871599,0.1091949343681335
1783204583100865300,3.530865234375,-0.1427338157206773,0.0343657954603433,0.1340413906991481,-0.1528961211442947,0.0220525488257408,0.098286360502243
1783204583110803500,3.540803466796875,-0.1226794542074203,0.0862066034652292,0.0932990459442138,-0.1795370578765869,0.0043646031990647,0.0807573646306991
1783204583120740400,3.550740234375,-0.1357441029638051,0.14076134660393,0.0065723641276359,-0.201811209321022,-0.0266114212572574,0.0612379871308803
1783204583130678500,3.560678466796875,-0.1638935081273317,0.1564044675461947,-0.0904699599981307,-0.2121663093566894,-0.059139646589756,0.0343282632529735
1783204583140616400,3.570616455078125,-0.1756599337667226,0.1698850036270916,-0.1856464902520179,-0.2227931171655655,-0.0903015583753585,0.0102721955627202
1783204583150553300,3.58055322265625,-0.1814928777039051,0.1923673960048705,-0.2018862619131803,-0.2349295765161514,-0.1033954843878746,-0.013396643102169
1783204583160491300,3.5904912109375,-0.1862532239735126,0.1848980099722743,-0.1886667148560285,-0.2408644258975982,-0.116088643670082,-0.0328158810734748
1783204583170428200,3.60042822265625,-0.1586035850256681,0.1732346063159406,-0.2225152084439992,-0.2436191886663437,-0.1260858625173568,-0.0475231185555458
1783204583180366300,3.610366455078125,-0.1243225452393293,0.1839564913384616,-0.2655178993463516,-0.243182435631752,-0.1375635415315628,-0.0611443854868412
1783204583190303200,3.62030322265625,-0.0865489871621131,0.1822742373399436,-0.3036702276080846,-0.2381217926740646,-0.1504596024751663,-0.0685333013534545
1783204583200241400,3.630241455078125,-0.0623655630201101,0.1605259313903748,-0.3245926041275263,-0.2294412106275558,-0.1599769443273544,-0.0711706280708313
1783204583210179300,3.640179443359375,-0.0302542684882879,0.1464072435364127,-0.3392752094745636,-0.2129082679748535,-0.1625970602035522,-0.0705890953540802
1783204583220116500,3.650116455078125,-0.0037245734810829,0.1085152467112988,-0.3262234201997518,-0.1972707062959671,-0.1608920991420745,-0.0636811256408691
1783204583230054400,3.660054443359375,0.0310381123423576,0.0913482041373848,-0.2854015804678201,-0.178760826587677,-0.1501076072454452,-0.0482221618294715
1783204583239991600,3.669991455078125,0.0613093319654464,0.0846675573296844,-0.2530442022204399,-0.1552429795265197,-0.1404017210006714,-0.0401059091091156
1783204583249929500,3.679929443359375,0.076457801258564,0.0795721338868141,-0.2434638884484767,-0.1199657395482063,-0.1182608678936958,-0.0289064515382051
1783204583259866000,3.6898662109375,0.0615852262973785,0.0694646544355899,-0.2337245847225189,-0.0805144757032394,-0.0863213092088699,-0.0214386824518442
1783204583269804300,3.69980419921875,0.0516869326174259,0.0752943104371428,-0.2179635364890098,-0.0440444834530353,-0.0533822625875473,-0.0137801840901374
1783204583279742200,3.7097421875,0.0241430921316146,0.0588540477678179,-0.2065969238221645,-0.0143100246787071,-0.0298993065953254,-0.0041472646407783
1783204583289679400,3.719679443359375,0.017657821765542,0.0140660808838903,-0.1920814917355775,0.0110436808317899,-0.0153486160561442,0.0052265040576457
1783204583299617300,3.7296171875,0.0262122996211051,-0.0022188450932502,-0.2015279499948024,0.029406975954771,-0.0162698030471801,0.0146189397200942
1783204583309554400,3.739554443359375,0.0248439338773488,0.0380969448126852,-0.1816027678191661,0.0374745391309261,-0.0282837059348821,0.0093275979161262
1783204583319492400,3.749492431640625,-0.0031827216893434,0.0656134589001536,-0.1656377214461565,0.0400189235806465,-0.0449588224291801,0.0023839380592107
1783204583329429500,3.759429443359375,-0.0565676903963088,0.0343444604113698,-0.1386871706783771,0.0435324050486087,-0.0493234060704708,-0.0035923398099839
1783204583339367400,3.769367431640625,-0.0712117172986269,0.0169223470978438,-0.07497311565876,0.0402591116726398,-0.0502001196146011,-0.0122340312227606
1783204583349305300,3.779305419921875,-0.0616337416142225,0.034633579551056,0.0262748434633016,0.0251508224755525,-0.0431424155831337,-0.0226041264832019
1783204583359242500,3.789242431640625,-0.0248036018669605,0.0283181858591735,0.0702034170389175,0.0114935990422964,-0.0339009799063205,-0.0282652080059051
1783204583369179600,3.7991796875,0.0008989946663379,-0.0147020406998693,0.0745557670295238,-0.0037687690928578,-0.03053779900074,-0.0294466093182563
1783204583379116800,3.80911669921875,0.0589233136117458,-0.0507338696762919,0.0451058006614446,-0.0078391442075371,-0.0257808603346347,-0.0226792506873607
1783204583389054700,3.8190546875,0.1182937864691019,-0.0864255069129169,0.0349409649997949,-0.0125555023550987,-0.0232579857110977,-0.0095994099974632
1783204583398992000,3.828991943359375,0.149179923120141,-0.0927783100057393,0.0258832137972116,-0.019623264670372,-0.0216134842485189,0.0034601993393152
1783204583408929800,3.8389296875,0.170810155647993,-0.1365532273896038,0.0362158072412014,-0.0213963203132152,-0.0076301777735352,0.0240604113787412
1783204583418867700,3.84886767578125,0.2204471699982881,-0.1589431191783398,0.0673491966515779,-0.0317397713661193,0.0096750427037477,0.0459044575691223
1783204583428804600,3.8588046875,0.2366629762619733,-0.1083254962928593,0.1318862584918737,-0.0312661603093147,0.025125116109848,0.0617467425763607
1783204583438742500,3.868742431640625,0.2068050136148929,-0.1351153035409748,0.0611783990621566,-0.0332382284104824,0.0506083704531192,0.074802353978157
1783204583448679700,3.8786796875,0.1541302390038967,-0.1254348173301667,0.0514011014133691,-0.0131814749911427,0.0655563101172447,0.0918316543102264
1783204583458617600,3.88861767578125,0.1288373923152685,-0.2260095533657818,-0.0878431186258792,0.0083935912698507,0.0564669370651245,0.1076479032635688
1783204583468554800,3.8985546875,0.1016460185289382,-0.1640272175095975,-0.1648293276727199,0.0145881101489067,0.0294784381985664,0.1134697645902633
1783204583478492700,3.90849267578125,0.0460053798496723,-0.10598360934183,-0.1312672498106956,0.0130946096032857,0.0025320425629615,0.1060661748051643
1783204583488430800,3.918430908203125,0.0020732991427183,-0.059988750886172,-0.0798503663063049,0.0073551060631871,-0.0186848808079957,0.0959426090121269
1783204583498367700,3.92836767578125,-0.029534137520194,-0.0473332674525678,-0.0665454790532588,0.0006021289154887,-0.0399201288819313,0.0820627436041832
1783204583508305700,3.9383056640625,-0.0732949533134698,-0.0426622069016098,-0.045215106254816,0.0001036040484905,-0.0467146411538124,0.063520573079586
1783204583518242800,3.948242919921875,-0.1004980175375938,0.0099390640817582,-0.0178664960801601,-0.0091567393392324,-0.0495381243526935,0.0439988039433956
1783204583528180700,3.9581806640625,-0.130035662189126,0.0137159522719681,0.0049976621568202,-0.0087656453251838,-0.0371366031467914,0.0255763605237007
1783204583538117600,3.96811767578125,-0.1049497362494468,0.005259601028636,0.001135726031661,-0.0015064002946019,-0.0222095865756273,0.020111821591854
1783204583548055600,3.9780556640625,-0.035862171497941,0.0208176740359514,-0.0082166242033243,-0.0018617091700434,-0.0159510672092437,0.0155882788822054
1783204583557993700,3.98799365234375,0.0143780694425106,0.0109823625896126,-0.0308867211729288,-0.0017565144225955,-0.0287416987121105,0.0235119834542274
1783204583567930600,3.9979306640625,0.0359182855993509,-0.006452829401195,-0.0712011959046125,0.0004174895584583,-0.0407521575689315,0.0271824616938829
1783204583577868800,4.007868896484375,0.0205202254593372,0.004635404715687,-0.094831662338972,0.0102741159498691,-0.0456124246120452,0.0327074564993381
1783204583587805700,4.0178056640625,-0.0136374802082777,0.0264385095924139,-0.0726969874203205,0.0192946642637252,-0.0401947982609272,0.0371594540774822
1783204583597743900,4.027743896484375,-0.0390928239822387,0.0478586065009236,-0.0138017308592796,0.0245397593826055,-0.0307488329708576,0.0371887497603893
1783204583607681800,4.037681884765625,-0.0605097060203552,0.085698800073564,0.0653729281425476,0.0185049846768379,-0.0212042462080717,0.0304629504680633
1783204583617618700,4.04761865234375,-0.075245502859354,0.1027678621657192,0.1156155071705579,0.005993721075356,-0.0176167022436857,0.0267276018857955
1783204583627556900,4.057556884765625,-0.081271339020133,0.0850515882112085,0.1012444519907236,-0.0037490855902433,-0.0239253975450992,0.0245183203369379
1783204583637493800,4.06749365234375,-0.1052910970330238,0.1059677541855722,0.0649117403715848,-0.0171224139630794,-0.0360715426504612,0.0167863648384809
1783204583647432000,4.077431884765625,-0.1155745906382799,0.1251327656436711,0.0528004468172788,-0.0211767442524433,-0.0425727143883705,0.0032206883188337
1783204583657368600,4.08736865234375,-0.1497217749118805,0.1107347493916749,0.0502221207618713,-0.0253818742930889,-0.0382546633481979,0.0043522650375962
1783204583667306800,4.097306640625,-0.1344663381129503,0.0909516060352325,0.0946598129034042,-0.0250435601919889,-0.0178057607263326,-0.0019066361710429
1783204583677244700,4.10724462890625,-0.0898790083676576,0.0948360462531447,0.1330804367125034,-0.0317075923085212,0.0043370923958718,-0.0024493883829563
1783204583687181800,4.117181884765625,-0.03425999699831,0.0755650902025401,0.1300397538423538,-0.0399325340986251,0.0140502378344535,0.0043797884136438
1783204583697119700,4.12711962890625,0.016906126615405,0.039075580586493,0.1047661963760852,-0.0421099327504634,0.0177786629647016,0.016879603266716
1783204583707056600,4.137056640625,0.0302723886668682,0.0097812431715428,0.0356909065842628,-0.0452445372939109,0.005680323112756,0.0235935859382152
1783204583716994800,4.146994873046875,0.0103624040603637,0.017572919961065,-0.02472995210886,-0.0475734695792198,-0.0086003458127379,0.0223714616149663
1783204583726931700,4.156931640625,-0.0225514390259981,0.0495043278813362,-0.0567658433169126,-0.0405075289309024,-0.0119552183896303,0.0155568616464734
1783204583736870000,4.166869873046875,-0.058714054775238,0.0242838157765567,-0.1035983216404914,-0.0263930410146713,-0.0169001761823892,0.0073878811672329
1783204583746807800,4.176807861328125,-0.0768628749281167,0.0084524787858128,-0.0846551362395286,-0.0173399709165096,-0.009220260195434,0.002253265120089
1783204583756745000,4.186744873046875,-0.0825818370968103,0.0233101484388113,-0.0432481900960207,-0.0099680768325924,0.0084436880424618,-0.0090878065675497
1783204583766683000,4.196682861328125,-0.0675298139154911,0.0467686193071305,-0.0395060809582471,-0.0053432062268257,0.0135576892644166,-0.0123848356306552
1783204583776619800,4.206619873046875,-0.0470224479377269,0.0133476304162293,-0.0922837314218282,0.0015562456101179,0.0059628863818943,-0.0191300902515649
1783204583786557700,4.2165576171875,-0.0077665423482656,-0.0045551790863275,-0.1213584347367286,0.0071010440587997,0.0054742856882512,-0.016319328919053
1783204583796495600,4.22649560546875,0.0366758259683847,-0.0105710783749818,-0.1195551847070455,0.010420674458146,0.0015128338709473,-0.0127205997705459
1783204583806432800,4.236432861328125,0.0630517917186021,-0.0544279749538749,-0.0662456193238496,0.014356579631567,0.0093680433928966,-0.003470248542726
1783204583816370700,4.24637060546875,0.1026221700847148,-0.0809222333215177,-0.0341775794118642,0.014095589518547,0.012671161442995,0.0114178862422704
1783204583826307800,4.256307861328125,0.1141857666283845,-0.0593041296228766,-0.0377460855484008,0.0141558311879634,0.0074539240449666,0.0194851364940404
1783204583836245800,4.266245849609375,0.0517488919377326,-0.0457163337752223,-0.05645370862782,0.0147883323952555,-0.0003478061407804,0.0140442978590726
1783204583846183000,4.276182861328125,-0.0565314500391483,-0.0032560791864991,-0.0626718524903059,0.0244893487542867,-2.24579125642e-05,-0.0057588471099734
1783204583856120800,4.286120849609375,-0.1342594173640012,0.0303532718833535,-0.0674883128613233,0.0372325740754604,0.0094104586169123,-0.0262681152671575
1783204583866058800,4.296058837890625,-0.1708347055673599,0.0483178945757448,-0.072986910277605,0.0434333570301532,0.0133585724979639,-0.0504584349691867
1783204583875995600,4.30599560546875,-0.2157984674096107,0.0884630771551281,0.0177133513450622,0.0402687229216098,0.0234855078160762,-0.0739126279950141
1783204583885933600,4.31593359375,-0.1921317606180906,0.0926025881126522,0.0731821405887603,0.0368283055722713,0.0448198467493057,-0.0919137075543403
1783204583895870700,4.32587060546875,-0.1385761115193367,0.0699294224031269,0.0658417146980762,0.0534235276281833,0.0584861263632774,-0.0979481637477874
1783204583905808600,4.33580859375,-0.0601087240040302,0.0348817821584641,-0.0091430913984775,0.0573339015245437,0.0505857467651367,-0.096494160592556
1783204583915746800,4.345746826171875,-0.0297100786089897,0.0457164799056947,0.0438017323255538,0.050782524049282,0.0455374605953693,-0.0880354270339012
1783204583925683700,4.35568359375,0.0378349328756332,-0.0106869598396122,0.0557996286332607,0.0422895103693008,0.0331943482160568,-0.070624440908432
1783204583935621600,4.36562158203125,0.110089437225461,-0.0087768884345889,0.0789180538922548,0.0255467519164085,0.0274222120642662,-0.053918432444334
1783204583945558800,4.375558837890625,0.1457043559640645,-0.0125078916564583,0.1222621055781841,0.0122899180278182,0.023962814360857,-0.0310761369764804
1783204583955496700,4.38549658203125,0.1465951673239469,-0.0340389015935361,0.1612532227516174,-0.0093000624328851,0.0263929478824138,-0.004054638557136
1783204583965433900,4.395433837890625,0.1138853223770856,-0.0604186667360365,0.1723901183158159,-0.0305142719298601,0.0207145567983388,0.0007675469387322
1783204583975371800,4.405371826171875,0.1092956564992666,0.0729541770517826,0.1307289051502942,-0.0425080806016922,0.0149908903986215,0.0052925245836377
1783204583985310000,4.41531005859375,0.0527519315004348,-0.0084527710467576,0.090299864128232,-0.0515654385089874,0.0251536481082439,0.0114515470340847
1783204583995246600,4.42524658203125,0.0213140061855316,-0.0301448898296803,0.0560854598373174,-0.0542581602931022,0.0253555160015821,0.0045435735955834
1783204584005184800,4.435184814453125,-0.0014519523739814,0.0183256380245089,-0.0360416197180748,-0.0400246791541576,0.0203693658113479,-0.0032311563845723
1783204584015121700,4.44512158203125,-0.0352069224596023,0.0024639058955013,-0.1307739133358001,-0.0207529813051223,0.0201467256993055,-0.0053334557451307
1783204584025059600,4.4550595703125,-0.0712315910428762,-0.0242233177609741,-0.1800865180373191,0.003010744228959,0.0306602213531732,-0.0174161046743392
1783204584034996700,4.464996826171875,-0.1202811608940362,0.0267844004206359,-0.2244762793838977,0.0254143215715885,0.0359348803758621,-0.0390223339200019
1783204584044934700,4.4749345703125,-0.1537970615267753,0.0782945151664316,-0.2981096708714962,0.0527280308306217,0.036205805838108,-0.0579189099371433
1783204584054872800,4.484872802734375,-0.1252367374747991,0.0395300463557243,-0.3272159383684396,0.0797034576535224,0.0369522906839847,-0.0660748407244682
1783204584064809700,4.494809814453125,-0.0630529607623815,-0.0093574648015201,-0.304708338484168,0.0982087403535842,0.0367871560156345,-0.0648898854851722
1783204584074748000,4.504747802734375,0.0062485390007495,-0.0064326633960008,-0.2443032618820667,0.1069889143109321,0.0309937130659818,-0.0675149634480476
1783204584084684800,4.514684814453125,0.0602916793555021,0.0227086023490875,-0.1737567304939031,0.1009773910045623,0.0271451342850923,-0.0617711097002029
1783204584094623000,4.524623046875,0.1294669223904609,0.0063671969443559,-0.1235012919843196,0.0964641273021698,0.0148927299305796,-0.0490965954959392
1783204584104561000,4.534560791015625,0.1508884806036949,-0.0216768481485545,-0.0579109216988086,0.0879392102360725,0.0073719657957553,-0.0299034174531698
1783204584114497500,4.54449755859375,0.1640332088589668,-0.0299186067931354,-0.0011164368093013,0.0701735317707061,-0.0019586849957704,-0.0170339569449424
1783204584124435700,4.554435791015625,0.1603057127684354,-0.0018936317268759,0.0974310311824083,0.047066181898117,-0.0028339996933937,-0.0024434858933091
1783204584134372600,4.56437255859375,0.1609551165878772,-0.0378545874241739,0.1243541094213724,0.0265992563217878,-0.0084173176437616,0.0093596437945961
1783204584144310800,4.574310791015625,0.1186450841248035,-0.0268210791692137,0.1344014561831951,0.0097397742792963,-0.0113293277099728,0.0143175218254327
1783204584154247700,4.58424755859375,0.049305005916953,-0.0398218689091503,0.1527893457889556,-0.0003599980846047,-0.0109221311286091,0.0172999948263168
1783204584164185900,4.594185791015625,-0.0022971710264682,-0.0477649368681013,0.1694540648639202,-0.0193588398396968,-0.0031369565986096,0.0163183473050594
1783204584174123800,4.604123779296875,-0.0112450321137905,-0.0014915537320077,0.1891162121891975,-0.0411104746162891,-0.0005933712236583,0.0067349607124924
1783204584184061000,4.61406103515625,-0.0420376452624797,-0.0110714291125535,0.1597942561149597,-0.0441659428179264,0.0008405186235904,0.0008440997917205
1783204584193998800,4.623998779296875,-0.0682154580920934,-0.0407165527265518,0.0378489614009857,-0.0413946583867073,-0.0132340220734477,-0.0079499240964651
1783204584203935700,4.633935791015625,-0.0877647926926612,-0.0178190036766231,-0.0714671533644199,-0.0265222713351249,-0.0241220016032457,-0.014167589135468
1783204584213874000,4.6438740234375,-0.1120832413911819,-0.0388381185688078,-0.1090145014703273,-0.0101302489638328,-0.0272805131971836,-0.0253078583627939
1783204584223810600,4.653810546875,-0.1227718086659908,0.0059913493692874,-0.0989063644319772,0.0016753561794757,-0.0317182913422584,-0.0390064977109432
1783204584233748700,4.663748779296875,-0.0971060370117425,0.0011573533415794,-0.0993809962064027,0.0122358556836843,-0.0219657961279153,-0.045706208795309
1783204584243686700,4.673686767578125,-0.0475011713653802,-0.0121525754127651,-0.0730155518501997,0.0253928005695343,-0.0164290852844715,-0.0443784035742282
1783204584253623800,4.683623779296875,0.0283750306129455,-0.0258813871663063,-0.0831412245452404,0.0299912802875041,-0.0111333904787898,-0.0331020466983318
1783204584263561700,4.693561767578125,0.0835433756053447,-0.0266425077319145,-0.0110889647692441,0.0264497585594654,0.0051231700927019,-0.0188456885516643
1783204584273499000,4.703498779296875,0.1156324583053588,-0.0312847805798053,0.0544312628895044,0.0243360064923763,0.0227666124701499,-0.0032267824281007
1783204584283436800,4.713436767578125,0.1367296068698167,-0.0263721663579344,0.073895257294178,0.018375651910901,0.0353810973465442,0.0099527640268206
1783204584293374700,4.723374755859375,0.1461485926002264,-0.005617255359888,0.0687771836280822,-0.002162380144,0.029561024159193,0.023008644580841
1783204584303312000,4.733311767578125,0.1209048457503318,-0.0003499824814498,0.0451034625738859,-0.0181567184627056,0.0112130204215645,0.0286280419677495
1783204584313249800,4.743249755859375,0.0595621960371732,0.0080089728020131,0.0017266776621341,-0.0307385548949241,0.0014781015925109,0.027318300679326
1783204584323186700,4.753186767578125,0.0239238964229822,0.0287369957931339,0.0014531214177608,-0.0472486019134521,-0.0038281576707959,0.0219643861055374
1783204584333124600,4.76312451171875,-0.017070377266407,0.0573407205954194,0.007113046875596,-0.0540812090039253,-0.003758649341762,0.008783602155745
1783204584343062500,4.7730625,-0.0798316616058349,0.0205595345564186,-0.0478641594588756,-0.0459148176014423,0.0002686940133571,0.0025263673160225
1783204584352999700,4.782999755859375,-0.0862280846446752,0.0257054460775107,-0.1216518647253513,-0.0347039736807346,0.0018756450153887,-0.0108823822811245
1783204584362937600,4.7929375,-0.0665823039323091,0.0498407202288508,-0.1529506738305091,-0.0212559066712856,0.0034766716416925,-0.0186002999544143
1783204584372875000,4.802875,-0.0212602301716804,0.0254151578940451,-0.2238701301842927,-0.0061453972011804,-0.001810235902667,-0.0154082356020808
1783204584382813000,4.81281298828125,0.0076794485867023,-0.0168372991628944,-0.2388859130084514,0.0096710436046123,-0.0067667788825929,-0.0113142700865864
1783204584392750000,4.82275,0.0259241303294897,-0.0222309748999774,-0.1948363434016704,0.0247639752924442,-0.0012641553767025,-0.0048976493999361
1783204584402688000,4.83268798828125,0.0530962148934602,-0.0113731885381042,-0.1301379535198211,0.0294200479984283,0.0074256276711821,0.003192329313606
1783204584412626000,4.8426259765625,0.0703548082083463,-0.0071149465717375,-0.089559274893999,0.0236092954874038,0.0025280744303017,0.0095591489225626
1783204584422563000,4.85256298828125,0.0641834260970354,-0.0072342621024698,-0.054997080078721,0.018884751945734,-0.0084397587925195,0.0153722688555717
1783204584432501000,4.8625009765625,0.0507955367356538,0.0021956834133714,-0.0370382295399904,0.0133363213390111,-0.0153301544487476,0.0134369488805532
1783204584442438100,4.872438232421875,0.016102409017086,0.0296368672423064,-0.0073439330220222,0.0054826880805194,-0.0193917378783226,0.0093755461275577
1783204584452376000,4.8823759765625,-0.0327934315770864,0.0253567787703126,0.0314361717492341,-0.0022245002910494,-0.0188782811164855,0.0050172824412584
1783204584462313200,4.892313232421875,-0.0674503189384937,0.0260389888808131,0.0746463679224252,-0.0050637945532798,-0.0123184481635689,0.0040696524083614
1783204584472251100,4.902251220703125,-0.0562426962256431,0.0165944303177297,0.0734346540451049,-0.0084286984056234,-0.0038852831348776,0.0012714692857116
1783204584482189000,4.91218896484375,-0.0442488915711641,0.0118297001339495,0.0915390505343675,-0.0088694244623184,0.0089652016758918,-0.003317192196846
1783204584492126000,4.9221259765625,-0.0296259074568748,0.0377709277287125,0.08256371691823,-0.0109605379402637,0.0135644804686307,-0.0057838121429085
1783204584502063900,4.93206396484375,-0.0086626144051551,0.0082084408968687,0.0209013337314128,-0.006080949679017,0.0063134464435279,-0.0029510171152651
1783204584512001000,4.9420009765625,0.0031458968102931,-0.0254965525671839,-0.0468073438823223,-0.0045219343155622,-0.0023631318472325,0.0049748169258236
1783204584521939000,4.95193896484375,0.0137532155424356,-0.0361805167321115,-0.0229091664224863,-0.0073344828560948,-0.0066971606574952,0.0068069859407842
1783204584531877000,4.961877197265625,0.0041325697600841,-0.0077929919637739,0.0174795425891876,-0.0111910058185458,-0.0056127212010324,0.0051302597858011
1783204584541814000,4.97181396484375,-0.0159399119317531,0.0412855117209255,0.0138952543616294,-0.0170608963817358,-0.0095834694802761,0.0004122729878872
1783204584551752200,4.981752197265625,-0.0516828409641981,0.022386457722634,-0.0104968440949916,-0.0170241445302963,-0.0115840379148721,-0.0073742773383855
1783204584561689000,4.991689208984375,-0.0593161123216152,0.0037855098880827,-0.0585679243028163,-0.0098133701831102,-0.0141923371702432,-0.0091455457732081
1783204584571627300,5.001627197265625,-0.036744215029478,0.0047673605322837,-0.0548024342894554,-0.0071214456111192,-0.0144277606159448,-0.0109746046364307
1783204584581565200,5.011565185546875,-0.0155243168681859,0.0297683116022497,-0.0250099380940198,-0.0089066112414002,-0.0053782509639859,-0.0149029307067394
1783204584591502000,5.021502197265625,0.0073053545773029,0.0264143980644643,9.58615899085e-05,-0.0095255291089415,-0.0042983395978808,-0.0123028866946697
1783204584601440300,5.031440185546875,0.0286859962582588,-0.0084625617884099,-0.0291688113391399,-0.0082523450255393,-0.0052611827850341,-0.0087964311242103
1783204584611377000,5.041376953125,0.0260281752258539,-0.0171832630563527,-0.0506780478358268,-0.008996432647109,-0.0141132641583681,-0.0072552599012851
1783204584621315000,5.051315185546875,0.0213408941924572,0.0087011197846382,-0.0832592979669571,-0.0050356881693005,-0.0209050364792346,-0.0082839783281087
1783204584631252000,5.061251953125,0.0081914897620677,-0.0092879797618836,-0.1011439142256975,0.0008682748302817,-0.0254422649741172,-0.0048769968561828
1783204584641190100,5.071190185546875,-0.0097866499990224,-0.0235559398934245,-0.0790156690478324,0.0040143653750419,-0.0166143495589494,-0.0084823062643408
1783204584651128000,5.081128173828125,-0.0050888475716114,0.0137285194925963,-0.0392015450537204,0.0035312678664922,-0.0112515427172183,-0.0144922621548175
1783204584661065200,5.091065185546875,-0.004149520894885,0.0363533890809863,0.0129512515097856,-0.0077151926234364,-0.005376546178013,-0.0143008874729275
1783204584671003100,5.101003173828125,0.00934358240664,0.0106128716900944,-0.0381108272075653,-0.0093698156997561,-0.0214987900108099,-0.0108049558475613
1783204584680940000,5.11093994140625,0.0295773921400308,-0.0371104179933667,-0.0961363151967525,-0.0102413157001137,-0.0336294621229171,-0.0068435603752732
1783204584690878200,5.120878173828125,0.0265355402261018,-0.008882979157567,-0.0513736288845539,-0.0135937025770545,-0.0394029282033443,-0.0086880661547183
1783204584700816100,5.130816162109375,0.0226753576666116,0.0254971370890736,-0.0363292044878005,-0.0111416336148977,-0.0317358896136283,-0.0118014905601739
1783204584710753000,5.1407529296875,0.0115624274998903,0.0177172968678176,-0.0151414550304412,-0.0041146166622638,-0.0187274124473333,-0.0067574633285403
1783204584720691000,5.15069091796875,0.0059708911031484,-0.0140818629749119,-0.0007540332376956,0.0020782006904482,-0.0050209881737828,-0.0045766779221594
1783204584730628000,5.160628173828125,0.0231985047578811,-0.0023385259501636,-0.0087801033049821,0.0049176625907421,-0.0045107258483767,0.0002955752424895
1783204584740566000,5.17056591796875,0.0245849906802177,-0.0084371350862085,-0.0049041386544704,0.0031405854970216,-0.0028836457058787,0.0043504172936081
1783204584750503200,5.180503173828125,0.0142015438318252,-0.0222385736845433,-0.0141290631175041,0.0019741207361221,-0.0092408778145909,0.0080069378018379
1783204584760441000,5.190441162109375,-0.0119587333410978,-0.0021093933694064,-0.0054290393114089,0.0011840034276247,-0.0143827106803655,0.0046246033161878
1783204584770379000,5.20037890625,-0.0320253698140382,0.0215752144049853,-0.0009843348622322,-0.0055908113718032,-0.0151318572461605,-0.0051270937547087
1783204584780316200,5.210316162109375,-0.035315643531084,0.0365350292582064,0.0269359377205371,-0.0114263538271188,-0.0126782422885298,-0.0065014990977942
1783204584790254000,5.220254150390625,-0.0365063146203756,0.0163770612400025,0.0190606743007898,-0.014143843203783,-0.0109226861968636,-0.0116453943774104
1783204584800191200,5.230191162109375,-0.0212689980000257,-0.0147877462219446,0.0148135382503271,-0.0213597975671291,-0.0151555361226201,-0.0096738822758197
1783204584810129200,5.240129150390625,-0.0134650462508201,0.0165014913372695,0.0176677586376667,-0.0260637402534484,-0.0193627998232841,-0.0132244089618325
1783204584820067000,5.250067138671875,-0.0123790045797824,0.0217415839478373,0.0067751932233572,-0.0304753370583057,-0.0257010105997324,-0.0134000061079859
1783204584830004000,5.26000390625,-0.003024900779128,-0.0039141047038137,-0.0219330148667097,-0.0260054841637611,-0.0264293868094682,-0.01405780762434
1783204584839942000,5.26994189453125,0.0132815063774585,-0.0158560330405831,-0.038260464811325,-0.0219431743025779,-0.0237894840538501,-0.0128619261085987
1783204584849879000,5.279879150390625,0.0192664260059595,-0.0068296998895704,-0.0046615620702505,-0.0155151039361953,-0.0076200999319553,-0.006600568536669
1783204584859817000,5.28981689453125,0.0257353297591209,-0.0171003340132534,0.0058937342137098,-0.0037350421771407,0.0056443507783114,-0.001552186673507
1783204584869755100,5.299755126953125,0.0354430693030357,-0.0311682415280491,-0.0350204599767923,0.0008637038990855,0.0069775292649865,0.0044154245406389
1783204584879692000,5.309692138671875,0.0285556478768587,-0.0290174201697111,-0.0666501084715127,0.00731329806149,0.0032558727543801,0.01120151206851
1783204584889630000,5.3196298828125,0.0327151056438684,-0.0240235574051737,-0.0696235713243484,0.0008700462058186,-0.0072489660233259,0.0078581795096397
1783204584899567000,5.329567138671875,0.0109510176032781,0.0088867785498499,-0.0406780473470687,-0.0037117274478077,-0.0118590304628014,0.006654318422079
1783204584909505000,5.339505126953125,-0.0098678985416889,-0.001651785795018,-0.0279103357106447,-0.0029071876779198,-0.0111216017976403,0.004322987049818
1783204584919442200,5.349442138671875,-0.0167407069206237,-0.0183211079798638,-0.044002807855606,-0.0006182976067066,-0.0172077901661396,0.0019785296171903
1783204584929380000,5.359380126953125,-0.0206727856725454,-0.0050010231576859,-0.0100794954657554,-0.0059438217431306,-0.008210833184421,0.000874116551131
1783204584939318300,5.369318359375,-0.0140279408305883,0.013392565536499,-0.0016027590215206,-0.0053992317989468,-0.0048000561073422,-0.0018164402572438
1783204584949255000,5.3792548828125,-0.0036766426861286,0.0089476418916136,-0.0394464597254991,-0.0015408433973789,-0.0079630929976701,-0.005501190200448
1783204584959193000,5.389193115234375,-0.0072960022270679,-0.0156714702539145,-0.0482955366134643,-0.0019261520355939,-0.0170475114136934,-0.0024450323544442
1783204584969130000,5.3991298828125,0.0016647183418273,-0.0066771396763622,-0.036490532529354,-0.0070316977798938,-0.020996181294322,-0.0041475910693407
1783204584979068200,5.409068115234375,0.0149807115107774,0.0039029987879097,-0.004354688078165,-0.0063296891748905,-0.0165540277957916,-0.0051851589232683
1783204584989006000,5.419006103515625,-0.0025894319713115,0.0059612464919686,0.0008861351847648,-0.009380605071783,-0.0145577229559421,-0.0019680601544678
1783204584998943000,5.42894287109375,-0.0093926822453737,-0.001065729535371,-0.020231471645832,-0.0111867384985089,-0.0164454169571399,-0.0024514752440154
1783204585008881200,5.438881103515625,-0.0064513680964708,-0.0061133683137595,-0.0219090494692325,-0.0084002735093235,-0.0138427093625068,-0.0030200602486729
1783204585018818000,5.448818115234375,0.0090823011219501,-0.0038863399140536,-0.0239268190324306,-0.0131655381992459,-0.0146833350881934,-0.0032278993166983
1783204585028756200,5.458756103515625,0.0168242935508489,0.0153611621957272,0.0371516267865896,-0.0311642475426197,-0.0302796065807342,-0.0028217672370374
1783204585038694100,5.468694091796875,0.0298825125664472,-0.0582147269509732,-0.0444365230977535,-0.0248945616185665,-0.0313767194747924,0.0076981140300631
1783204585048631300,5.47863134765625,0.0233849672406911,-0.004561243500933,-0.0585299303799867,-0.0219573602080345,-0.0351054109632968,0.0064264545217156
1783204585058569200,5.4885693359375,-0.0218190330982208,0.0129858844317495,0.0067523968696594,-0.0181177593767642,-0.0274229682981967,0.006711171939969
1783204585068506000,5.498506103515625,-0.00837386059165,-0.0163704123035073,0.0156026428014039,-0.0104087069630622,-0.0173937678337097,0.0069926679134368
1783204585078444000,5.508444091796875,-0.0268482594370841,0.0114817634791135,-0.0115337859272956,-0.0024389317259192,-0.0143188824877142,0.0089524881914258
1783204585088381000,5.518380859375,-0.0531599277794361,-0.0076524144493043,-0.0016296470284461,0.0116795506328344,-0.0089486185461282,0.0117631880566477
1783204585098319000,5.528319091796875,-0.0793786571413278,-0.0028381460353732,0.0411111780673265,0.0151368901133537,0.0036893682554364,0.0022748266346752
1783204585108257000,5.538257080078125,-0.0893663826704025,0.0391428006038069,0.0886672944903373,0.0179060455411672,0.0247903931885957,-0.0061918948777019
1783204585118194200,5.548194091796875,-0.0819061297923326,0.0440222432084381,0.1021253264784812,0.0158126913011074,0.0303923282772302,-0.0085249356925487
1783204585128132000,5.558132080078125,-0.0540694438397884,0.0239011000692844,0.1005155531942844,0.004435135051608,0.031423769891262,-0.0099976630881428
1783204585138069200,5.5680693359375,-0.0127057523161172,0.0115195382062345,0.0730506231635809,-0.0053784688934683,0.0274210162460804,-0.0099875694140791
1783204585148007200,5.578007080078125,0.0060609074741601,0.0208504803270101,0.0340665202528238,-0.0130845932289958,0.0222422331571578,-0.0093702487647533
1783204585157945000,5.587945068359375,0.0205792621701955,0.0057063949480652,-0.01132043543756,-0.018904723227024,0.0166797786951065,-0.0082374177873134
1783204585167882000,5.597882080078125,0.0206587571471929,0.0038981764823198,-0.0326969854652881,-0.0233697779476642,0.0137534979730844,-0.0082874856889247
1783204585177820000,5.60781982421875,0.03168634711802,-0.0037676819704473,-0.0636415743052959,-0.019378088414669,0.0107923075556755,-0.0052363267168402
1783204585187757000,5.617757080078125,0.0305938757061958,-0.0108345516167581,-0.1068552776098251,-0.0179849881678819,0.0106391757726669,0.0007989287842065
1783204585197695000,5.627695068359375,0.0259387433767318,-0.0100971772529184,-0.1262508829534053,-0.0096588088199496,0.001302532851696,-0.0024119322188198
1783204585207633000,5.6376328125,0.0324321970492601,0.0166585815951228,-0.1535866336464881,-0.0070300018414855,0.0032224056776612,-0.0016800954472273
1783204585217570000,5.647570068359375,0.0462105470329523,0.0060028936766088,-0.1755962208807468,-0.0002157250419259,-0.0011649979278445,-9.53353010118e-05
1783204585227508000,5.657508056640625,0.02808686132133,-0.0172599084891378,-0.1840542526245117,0.0106377219781279,-0.0049695894122123,0.0008471575565636
1783204585237445000,5.667445068359375,0.0148813427895307,-0.0063338061314076,-0.1891004300981759,0.0208163578063249,-0.0090749925002455,0.0007152580656111
1783204585247383000,5.677383056640625,0.0127238724946975,-0.0102241646334528,-0.163491941589117,0.0304711163043975,-0.0105900643393397,-0.0010304441675543
1783204585257320200,5.6873203125,0.0037508769661188,-0.0045083442699164,-0.1118733980327844,0.0345592498779296,-0.0080851335078477,0.0026654000394046
1783204585267258000,5.697258056640625,0.0134691379040479,-0.0058184770204126,-0.0545733017086982,0.03457922488451,-0.0085807479918003,0.0004762816242873
1783204585277196300,5.7071962890625,0.0216471836626529,-0.0058674307286739,-0.0014648118555545,0.0282393712550401,-0.0045954850502312,0.0007358014117926
1783204585287133000,5.7171328125,0.0142681793272495,0.014856500609219,0.0273170459926128,0.0204554833471775,-0.0053773890249431,-9.93660651147e-05
1783204585297071000,5.727071044921875,-0.0007096095740795,0.0114325175099074,0.0334533567905426,0.0164187606424093,-0.0076065845787525,0.000839693006128
1783204585307008000,5.737008056640625,-0.0097013098031282,-0.0157495039261877,0.037633857345581,0.0090673714876174,-0.0119174430146813,0.0001190414186567
1783204585316946000,5.74694580078125,-0.0156476509869098,-0.0143937054030597,0.0587760140955448,0.0023078117519617,-0.0104137118905782,0.0008534046355634
1783204585326884000,5.756884033203125,-0.0025625439643859,0.0004705401211977,0.0859574510097503,-0.0039652651175856,-0.0127604901790618,0.0032366674859076
1783204585336821000,5.766821044921875,-0.0125561147123575,-0.0011249123767018,0.0983271032392978,-0.0086417514830827,-0.0086635267361998,0.001126060495153
1783204585346759200,5.77675927734375,-0.0285655847489833,-0.0163946699619293,0.0624000498116016,-0.0033122338354587,-0.0052283154800534,0.000504478579387
1783204585356696000,5.786696044921875,-0.0516764112234115,-0.0212435712978243,0.0385585709750652,0.00315847620368,-0.005894171539694,0.0001068341080099
1783204585366633700,5.7966337890625,-0.0641232203423976,-0.0220921509511768,0.0676484718590974,0.0062107252888381,0.0077870190143585,-7.93209765106e-05
1783204585376571600,5.806571533203125,-0.0582101969063282,-4.26700979471e-05,0.1010679263800382,0.0046019339933991,0.0128163546323776,-0.0041907601989805
1783204585386508800,5.8165087890625,-0.0392968221217393,0.0110018710076808,0.104388010713458,-0.005517279729247,0.0146526042371988,-0.0005598065908998
1783204585396446700,5.82644677734375,-0.0207540342152118,-0.0056204702302813,0.0984516064018011,-0.0149375153705477,0.0100401611998677,-0.0021822496782988
1783204585406383900,5.8363837890625,-0.011807342171669,-0.0006419511653482,0.0809726483345031,-0.0202896669507026,0.007389516569674,-0.0014493477065116
1783204585416321800,5.84632177734375,-0.0096405195266008,0.0017041735693812,0.0486959341078996,-0.0215419791638851,0.0109919337555766,-0.0034287015441805
1783204585426259700,5.856259765625,-0.0184334823131561,0.0043644788198173,0.0245183551847934,-0.0288733951747417,0.0075476677156984,-0.0081896353513002
1783204585436196900,5.86619677734375,-0.0004196867167949,0.0046786593355238,0.012415244936943,-0.0306898392736911,0.0102900136262178,-0.0050220098346471
1783204585446134800,5.876134765625,0.0233270995736122,-0.0051359015837311,-0.034905309164524,-0.0309590846300125,0.0086883883923292,-0.0027138483710587
1783204585456071700,5.88607177734375,0.0279781402498483,-0.0100555300682783,-0.1129243683904409,-0.0275389123708009,0.0024286063853651,-0.0031245336867868
1783204585466009600,5.896009521484375,0.0246697463542222,-0.0249488555565476,-0.1604424908906221,-0.0168244820088148,-0.0080208387225866,-0.0022363695316016
1783204585475946800,5.90594677734375,0.0231499894410371,-0.02231711881347,-0.18015958327353,-0.0080356625840067,-0.0111289909109473,0.0002726204693317
1783204585485884700,5.915884765625,0.0130640642344951,-0.0094669165253639,-0.1716471909940242,0.0005554296076297,-0.0050197001546621,0.0001322717871516
1783204585495822600,5.925822509765625,0.0201788646757602,-0.0034196722503751,-0.1379816527575254,0.0054303221404552,-0.0007706056348979,0.0010663100983947
1783204585505759700,5.935759765625,0.025688568007946,0.0035332886926829,-0.1144108075559139,0.0072548538446426,-0.0009069596417248,0.0035475774202495
1783204585515697700,5.94569775390625,0.0295808992713689,0.0011927169159054,-0.1248030222326517,0.0114979473873972,-0.0065105389803647,0.004100423771888
1783204585525634800,5.955634765625,0.0169499657571315,0.0090863927751779,-0.1220668752670288,0.0154705848544836,-0.0114285983145236,0.0019539161585271
1783204585535572700,5.96557275390625,0.0143856682270765,-0.0018530074555426,-0.103173958748579,0.0176089257001876,-0.0133598828688263,0.0029737323056906
1783204585545510700,5.9755107421875,0.0113479079663753,-0.0006502806022763,-0.070941083663702,0.0180025398731231,-0.0135265970602631,0.002550023375079
1783204585555447800,5.98544775390625,0.0107417587667703,-0.0012855828311294,-0.0408551574796438,0.0155583173036575,-0.0091518657281994,0.008599342778325
1783204585565385700,5.9953857421875,0.0097901571303606,0.0108183311343193,-0.027950667721033,0.0135287214070558,-0.014567669481039,0.0031569069251418
1783204585575322600,6.005322509765625,-0.0033253450304269,0.0256690595898777,-0.0176613288968801,0.0150902848690748,-0.0172713063657283,0.0038420972414314
1783204585585260500,6.015260498046875,-0.014724106401205,0.017581249397993,-0.0068424132406711,0.0146215688437223,-0.0153900496661663,0.0048762029036879
1783204585595198700,6.02519873046875,-0.0315068988978862,0.0294578574135899,0.0370341378867626,0.0119358208030462,-0.016776580363512,0.0029700752347707
1783204585605135600,6.035135498046875,-0.0328214886277914,0.0178001528456807,0.0395259547024965,0.0087370974943041,-0.0144766746088862,0.0013801683671772
1783204585615073800,6.04507373046875,-0.0376297656923532,-0.0021519173368811,0.044901802521944,0.0047464929521083,-0.0122481863945722,-0.0016092397272586
1783204585625010700,6.0550107421875,-0.0317734408795833,0.0138512690894305,0.054088733062148,0.0015584230422973,-0.008265696465969,-0.0004987015854567
1783204585634948600,6.064948486328125,-0.0330079511106014,0.0146721570182591,0.0529816486030817,-0.0029269438236951,-0.0084474328905344,0.0010418088641017
1783204585644885800,6.0748857421875,-0.0350491015493869,0.0119609252981841,0.0526484711259603,-0.0005018692463636,-0.0027466709725558,-0.00039097154513
1783204585654823700,6.08482373046875,-0.0253226573050022,-0.0007037643551826,0.0406669414311647,0.0026787677779793,0.0016344739124178,-0.0013553698081523
1783204585664761900,6.094761962890625,-0.0160112236022949,0.0116316202785819,0.021473580661416,0.0006635533645749,0.0048217452131211,-0.001839798875153
1783204585674698500,6.104698486328125,-0.017696984732151,0.0050602059990167,0.0005605564922094,0.0047843102365732,0.0023091835901141,-0.0038974275812506
1783204585684636700,6.11463671875,-0.016473580417037,-0.0012333411872386,-0.0314256503552198,0.0029057161882519,-0.0012671751901507,-0.0044476366601884
1783204585694573600,6.124573486328125,-0.0051192427098751,0.0009654840312898,-0.0375906027257442,0.0031591299921274,-0.0014304248616099,-0.0031477892771363
1783204585704511700,6.13451171875,0.0030073651224374,0.0186287856895476,-0.0112321726322174,-0.0025389697402715,-0.0042089009657502,-0.0043715117499232
1783204585714449700,6.14444970703125,0.0035088849037885,0.0138662474628537,-0.0214209736913442,-0.0038505513221025,0.0014646290801465,-0.007192900404334
1783204585724386800,6.15438671875,0.0027852468043565,-0.0239753343492746,-0.0606003069132566,0.0041924603283405,-0.0004547107964754,0.0001648813486099
1783204585734324700,6.16432470703125,0.0079442370027303,-0.0324490020535886,-0.0559586185872554,0.0090529611334204,-0.001228607725352,0.0031740528065711
1783204585744261600,6.17426171875,0.0163251118570566,-0.023294804739207,-0.0515559997141361,0.0073812948539853,0.0002007107250392,0.0007753435056656
1783204585754199800,6.18419970703125,0.0124994160890579,0.019659955368191,-0.0180488669097423,0.0061641437932848,-0.0017775250598788,-0.0009712490718811
1783204585764137700,6.1941376953125,-0.0008329436928033,0.0190821554802358,-0.0306610957235097,0.008998280391097,-0.0058281933888792,-0.004024563357234
1783204585774075000,6.204074951171875,0.0008627543091773,-0.0072678721111267,-0.0609136106461286,0.012015520595014,-0.0098570436239242,-0.0028240354731678
1783204585784012800,6.2140126953125,-0.0004500818550586,-0.0171494338519871,-0.0358019657433033,0.0080817658454179,-0.0102567840367555,-0.0048309937119483
1783204585793949700,6.22394970703125,0.0096522099643945,-0.0136566963654011,0.0089846859663724,0.00274074729532,-0.0048134382814168,-0.0068668937310576
1783204585803887600,6.2338876953125,0.0235971486866474,-0.0066786009810864,0.0160626615285873,0.0017447248101234,-0.0084169618785381,-0.0003344258293509
1783204585813825500,6.243825439453125,0.0319523045778274,-0.0312306392397731,0.003845569512248,-0.0056305844336748,-0.0083068180829286,0.0051550613716244
1783204585823762700,6.2537626953125,0.0321428587138652,-0.0364461819309741,0.0055932899624109,-0.0070492513477802,-0.0116626676172018,0.0028868468943983
1783204585833700600,6.26370068359375,0.0150151983022689,0.0009733750768005,-0.0209597859203815,-0.0074977772310376,-0.0179308615624904,0.0004933006130158
1783204585843637800,6.2736376953125,-0.0056610945016145,0.0009716945763677,-0.0481073205649852,0.0045719360932707,-0.009291835129261,0.0060883350670337
1783204585853575700,6.28357568359375,0.006408113476634,-0.0077327862091362,-0.0581792172461748,0.0213833842426538,0.0070619070902466,0.0082154367119073
1783204585863512800,6.293512939453125,0.0352396556854248,-0.0277696120657026,-0.0693307258576154,0.0323225855827331,0.0161555372178554,0.0133095309138298
1783204585873450800,6.30345068359375,0.0242103121489286,-0.0125670744977891,-0.0520072506129741,0.0267742276191711,0.0104426341131329,0.0138010131195187
1783204585883388700,6.313388671875,0.01829553514719,-0.0175236739918589,-0.047122985702753,0.0246154684573411,0.0009362143464386,0.0181427653878927
1783204585893325800,6.323325927734375,0.0176899704694747,-0.0120620475850999,-0.0469148959100246,0.0149030406028032,-0.0086934650316834,0.0139490943402051
1783204585903263700,6.333263671875,0.0089998835355043,0.0155717362064868,-0.022275544694066,0.0065756025724112,-0.0167697668075561,0.0119868777692317
1783204585913200600,6.34320068359375,-0.0216606276661157,0.0187513160906732,-0.0169686704576015,0.0008221585303544,-0.0155773144215345,0.0062748435884714
1783204585923138600,6.353138671875,-0.0256529121726751,0.0124925479568541,-0.0395253701806068,0.0067535508424043,-0.0155418943613767,0.0053616454824805
1783204585933076700,6.36307666015625,-0.0158171623349189,0.0199216019790619,-0.0559802458971738,0.0053789308294653,-0.0101181305944919,0.0025693762581795
1783204585943013600,6.373013671875,-0.0074012161672115,0.0138055302515625,-0.0512649078130722,0.0108136441558599,-0.0139703936874866,0.0050106961280107
1783204585952951600,6.38295166015625,-0.0158534026920795,0.0094388594746589,-0.0514975475251674,0.014539785683155,-0.0119798285886645,0.0053244633600115
1783204585962888700,6.392888671875,-0.0170358904749155,0.0123345809161663,-0.0543003299862146,0.0132588054984807,-0.0180033668875694,-0.0002545923925936
1783204585972826600,6.40282666015625,-0.0230956289052963,0.0228273333579301,-0.0373778367578983,0.0044165775179862,-0.0226710885763168,-0.0109812729060649
1783204585982764800,6.412764892578125,-0.016874562433362,0.042278614411503,-0.0318389073312282,-0.0021691536530852,-0.0267566442489624,-0.0054922313429415
1783204585992701700,6.42270166015625,0.0021720833420753,-0.0374211644429713,-0.0485346060663461,0.0023024389520287,-0.0308422204107046,-0.0004871117416769
1783204586002640000,6.432639892578125,0.0109556937783956,-0.0462128120552748,-0.0409451738506555,0.0061706807464361,-0.0284152831882238,0.0020956217776983
1783204586012576800,6.44257666015625,0.0221481189221143,-0.0016724632568657,-0.0184445882290601,0.011185192503035,-0.0179592929780483,0.0022484003566205
1783204586022515000,6.452514892578125,0.0101180739104747,0.0198972712554037,0.0179588505387306,0.0122917359694838,-0.0120899528264999,0.0062777628190815
1783204586032452900,6.462452880859375,0.0007820902884006,-0.0135404495745897,-0.0310901347905397,0.0217015258967876,-0.0146413743495941,0.0140991136431694
1783204586042389500,6.472389404296875,-0.0088081603556871,-0.0354563671760261,-0.0427262120485305,0.0224432162940502,-0.0199245531111955,0.013053024187684
1783204586052327700,6.48232763671875,-0.0291156198471784,0.0106461894378066,0.0211480019688606,0.0214883610606193,-0.0150301679968833,0.0117195220664143
1783204586062264600,6.4922646484375,-0.0472679471313953,0.028701339957863,0.078913962239027,0.0132738398388028,-0.0087520312517881,0.0060419291257858
1783204586072202800,6.50220263671875,-0.0432803387999534,0.0219021813370287,0.0800023419976234,0.0091436821967363,-0.0100607797503471,0.0011819319333881
1783204586082140700,6.512140625,-0.0486655389696359,0.0084692107249051,0.0798100342959165,-0.0029175085946917,-0.0143407452851533,-0.0001163592096418
1783204586092077800,6.522077880859375,-0.0470773929953575,0.0287571617983281,0.0904050780683755,-0.0112965982407331,-0.0130217541009187,-0.0084883095696568
1783204586102015700,6.532015625,-0.0380085358768701,0.0230035667076706,0.077927289289236,-0.0139307305216789,-0.0094579122960567,-0.0065415389835834
1783204586111953000,6.541952880859375,-0.0245680395454168,-0.016181100276485,0.0393622885733842,-0.0147022549062967,-0.011380617506802,-0.0049564032815396
1783204586121890800,6.551890869140625,0.0041249709755182,-0.0245534264981746,0.0251800339639186,-0.0156239755451679,-0.0102967107668519,-0.0022964379750192
1783204586131827700,6.56182763671875,0.0106119949072599,-0.0053616731636226,0.0079132573425769,-0.0097788767889142,-0.0089739449322223,-0.0016961463261395
1783204586141765600,6.571765625,-0.0025397476106882,-0.0036235973246395,-0.052501756131649,0.0045121787115931,-0.0093643646687269,0.0005952373612672
1783204586151703600,6.58170361328125,-0.0366331558704376,-0.0049756695207208,-0.0667553224116563,0.0126107446849346,-0.0025073494762182,-0.0018061975715681
1783204586161640700,6.591640625,-0.0425666375726461,-0.0077022449404001,-0.0144482120692729,0.0132416477426886,0.0045918393880128,-0.0054613864049315
1783204586171578600,6.60157861328125,-0.0246247381687164,0.0164040223121643,0.0220329681098461,0.0095822643488645,0.0066730636171996,-0.0053994660265743
1783204586181516500,6.6115166015625,-0.0065454761207103,-0.0060311699230223,0.0143669635266065,0.0079036727547645,-0.000349692068994,-0.0013083182275295
1783204586191453700,6.62145361328125,0.0053472062468528,-0.011743921546638,-0.0052291328251361,0.0018720543012022,-0.0065164291299879,0.0002383620012551
1783204586201391600,6.6313916015625,-0.0020469956576824,-0.0081816990204155,-0.0030067806005477,0.0001063784584403,-0.0075374846346676,0.0025316099636256
1783204586211328800,6.641328857421875,-0.0163566760390996,-0.011930384029448,0.0188180977165699,0.0001864060759544,-0.0052902600727975,0.0022842141333967
1783204586221266700,6.6512666015625,-0.0150128602147102,-0.0073170450150966,0.0442272642612457,-0.001255695708096,0.0051487986929714,0.0037324412260204
1783204586231203800,6.661203857421875,-0.0162251586139202,0.0074823185794055,0.0452285502582788,0.0012366101145744,0.0081163812428712,-0.0026447386480867
1783204586241141800,6.671141845703125,-0.024759762725234,0.0224032627269625,0.0211222830057144,0.0025860341265797,0.0051624029874801,-0.0011405854020267
1783204586251079700,6.68107958984375,-0.0320715470433235,0.0027669804953038,-0.0083627546757459,0.0004181005060672,0.0035074925981462,-0.0062733213417232
1783204586261016600,6.6910166015625,-0.0286181917190551,0.0107036187134683,-0.0041232174098491,-0.0013907179236412,0.0020611297804862,-0.0112840589135885
1783204586270954500,6.70095458984375,-0.027958266505599,0.019637451275438,0.009313771790266,-0.0077904677018523,0.0032870480790734,-0.0127607053145766
1783204586280891600,6.7108916015625,-0.008785948523879,-0.0097385730735957,-0.0195721309542655,-0.0091689201071858,0.0006550457328557,-0.0101670529693365
1783204586290829600,6.72082958984375,0.0205231480687856,-0.0376997621886432,-0.0346522111862897,-0.0109822545200586,-0.0055250348523259,-0.0052229245193302
1783204586300767700,6.730767822265625,0.0431003060579299,-0.0287825885005295,-0.0211596924066543,-0.0074367895722389,-0.0032637445256114,-0.000516319880262
1783204586310704600,6.74070458984375,0.0334206235647201,-0.0221874280191957,-0.0305377616047859,-0.0025989133864641,0.0041215107776224,0.0031623556278645
1783204586320642800,6.750642822265625,0.0306909063398838,-0.0220426127210259,-0.0754267046451568,0.0061655491590499,0.0028634334448724,0.0035674222745001
1783204586330579700,6.760579833984375,0.0147965871155261,-0.0035865532498806,-0.0771867000550031,0.0133898509666323,0.0055407723411917,0.0025478161405771
1783204586340517600,6.770517578125,0.0059931029349565,0.020821327297762,-0.0841962865561246,0.0135333957150578,0.0038078534416854,0.0003387241158634
1783204586350455800,6.780455810546875,-0.0118359837442636,0.0061857028976082,-0.106215810662508,0.0179365258663892,-0.0001857755705714,0.0008181033190339
1783204586360392700,6.790392822265625,-0.021268413478136,-0.0054309390075504,-0.1048304937839508,0.0220729485154151,-0.0072154556401073,-0.0031998076010495
1783204586370331100,6.8003310546875,-0.0399210914999246,0.0172547939226031,-0.0691676442503929,0.0223412737250328,-0.0020814351737499,-0.0100404284894466
1783204586380268000,6.81026806640625,-0.0521913750082254,0.0261278362080454,-0.0661900897443294,0.0285080894827842,-0.0012366808950901,-0.0150983044877648
1783204586390206200,6.820206298828125,-0.0606026450008153,0.0168748546943068,-0.0815191763013601,0.0374381951987743,0.0029058407526463,-0.0167875327169895
1783204586400144100,6.83014404296875,-0.0547650248885154,0.0118412444412708,-0.0790267749637365,0.047207735478878,-0.0022596265189349,-0.0183896906673908
1783204586410081000,6.8400810546875,-0.0589180529147386,0.0163959851361811,-0.0658709407925605,0.0572914630174636,0.0022378109861165,-0.0213874727487564
1783204586420019200,6.850019287109375,-0.0660562342315912,0.030411651007086,-0.0529646974682807,0.0673952251672744,0.0051686195656657,-0.0255116429179906
1783204586429956000,6.8599560546875,-0.0640086540520191,0.0224995627082884,-0.0515612604111433,0.0763697624206543,0.0027862428687512,-0.0244665164500474
1783204586439894300,6.869894287109375,-0.060700260156393,-0.0657236412763595,-0.1205956336706876,0.0862519517540931,-0.0527936629951,-0.0155968591570854
1783204586449832200,6.879832275390625,-0.0581757101148366,0.056486661049351,-0.0782411775439977,0.0598696693778038,-0.057613268494606,-0.0322361253201961
1783204586459769000,6.88976904296875,-0.0883855549395084,0.0958585211686789,0.1738876633971929,0.058341808617115,-0.0242625046521425,-0.0369190238416194
1783204586469707000,6.89970703125,-0.0659527738571166,0.0124359954640269,0.2360416294932365,0.0558476820588111,0.0106474049389362,-0.0365606769919395
1783204586479644200,6.90964404296875,-0.0478016156166791,0.0514502012521028,0.2175806746512651,0.0585657022893428,0.0317622795701026,-0.035063449293375
1783204586489582000,6.91958203125,-0.0091331545263528,-0.0051283027991652,0.1666658954501152,0.0582614764571189,0.0304996073246002,-0.0258372724056243
1783204586499520000,6.92952001953125,0.0074035542547702,-0.0107645551204681,0.1147907467842102,0.051250971853733,0.0236142724752426,-0.0177985187619924
1783204586509457200,6.93945703125,0.0049549920588731,-0.0086044544771313,0.1321452016890049,0.0379286296665668,0.0100798420608043,-0.0145915150642395
1783204586519395000,6.94939501953125,-0.006458382359147,0.0118164022609591,0.1200432604849338,0.0252674296498298,-0.0042543560266494,-0.0107198115438222
1783204586529332200,6.959332275390625,-0.0271726690858602,0.0082628744978457,0.1163157643944025,0.0027630683034658,-0.0279703140258789,-0.0111299958080053
1783204586539270100,6.969270263671875,-0.0329734643191099,-0.0119289227247238,0.1511328107535839,-0.0180263668298721,-0.0379102937877178,-0.0139550771564245
1783204586549207300,6.979207275390625,-0.0401256741613149,-0.005596797093749,0.1697422341555357,-0.0293397866189479,-0.0289026200771331,-0.0225524418056011
1783204586559145200,6.989145263671875,-0.0467331096023321,0.0296622939445078,0.1650818411290645,-0.04378317669034,-0.0133180664852261,-0.035066369920969
1783204586569083100,6.999083251953125,-0.013452186769247,0.0198649764209985,0.1480500423073768,-0.0524679347872734,0.0098427794873714,-0.0377107746899127
1783204586579020000,7.00902001953125,0.0224585000455379,-0.0350435485914349,0.0750023417532444,-0.0436499454081058,0.0194061920046806,-0.0313873663544654
1783204586588958000,7.0189580078125,0.055047348961234,-0.0481293862663209,-0.0575567014336586,-0.0334433317184448,0.0188279058784246,-0.0271034911274909
1783204586598895000,7.02889501953125,0.0334989494979381,-0.0655000616535544,-0.1178951425403356,-0.0262772962450981,0.0264296326786279,-0.0217516031116247
1783204586608833000,7.0388330078125,0.0598544569820165,-0.0344264396063983,-0.1636567767620086,-0.0200194530189037,0.0115250740200281,-0.0230431333184242
1783204586618771200,7.048771240234375,0.0740963328242301,-0.0133040104702115,-0.1511246274471283,-0.0158910192549228,0.0110901799052953,-0.0172571502625942
1783204586628708000,7.0587080078125,0.0774772074341774,-0.0513191222183406,-0.1361363171517849,-0.0148665718734264,0.0110658351331949,-0.0098267924040555
1783204586638646000,7.06864599609375,0.1109106904804706,-0.0332901290528476,-0.1546773514926433,-0.0079641919583082,0.0173471681773662,-0.006469877436757
1783204586648583200,7.078583251953125,0.1042243445843458,-0.0464219247613102,-0.1515519129484892,-0.0050048679113388,0.0170493572950363,0.0001003709621727
1783204586658521000,7.08852099609375,0.1128869589895009,-0.0596541851695626,-0.1594382822841406,-0.002233050763607,0.0078135142102837,0.008534868247807
1783204586668459300,7.098459228515625,0.1197089139640331,-0.0553260197721421,-0.1663794797241687,0.0008226661011576,0.0003095506690442,0.0166537649929523
1783204586678396200,7.108396240234375,0.0904325505971908,-0.0594395925708115,-0.1455827754110097,0.0055260746739804,0.0043943068012595,0.015852153301239
1783204586688334300,7.118334228515625,0.0535562336206436,-0.0301699512057006,-0.0913379750043153,0.0071494118310511,0.0054081249982118,0.0162702593952417
1783204586698271000,7.12827099609375,0.050780339166522,-0.0277351252742111,-0.0927197847515344,0.0065941428765654,-0.0020330129191279,0.0191605892032384
1783204586708209200,7.138209228515625,0.0357213017225265,-0.027085940650478,-0.0654623599916696,0.0055993320420384,-0.0086714960634708,0.0177219249308109
1783204586718147000,7.14814697265625,0.0118190326094627,-0.0224917447280138,-0.0203781866401433,0.0038190092891454,-0.0120126977562904,0.0195182263851165
1783204586728084000,7.158083984375,-0.0090875618189573,-0.0144241005413234,0.0275368262231349,-0.0007799351587891,-0.0099150827154517,0.0207585878670215
1783204586738022100,7.168022216796875,-0.0090104049295187,-0.0121118780761957,0.0817781194984912,-0.0085923187434673,-0.0041386876255273,0.0208211727440357
1783204586747959000,7.177958984375,-0.0091255557417869,-0.01156301202178,0.097071550220251,-0.0161634609103202,-0.0011744759976863,0.0246072094887495
1783204586757897200,7.187897216796875,-0.0063654433786869,-0.0239213391397148,0.1236094285339117,-0.0290438421070575,0.0021627312526106,0.0281404256820678
1783204586767834000,7.197834228515625,0.0004372223734855,-0.0045339901678264,0.1408943253338337,-0.0376205965876579,0.0051887505687773,0.0306995287537574
1783204586777772300,7.207772216796875,-0.0040127427726984,-0.012348024919629,0.1392979960530996,-0.0412598066031932,0.0071307276375591,0.0289860516786575
1783204586787710200,7.217710205078125,-0.0262543851971626,-0.0114048988506197,0.1108650977730751,-0.0505425035953521,0.003725251648575,0.0293346382677555
1783204586797647400,7.2276474609375,-0.044139001455903,-0.0044222003564238,0.106482352644205,-0.0520525127649307,0.0114782461896538,0.0248275026679039
1783204586807585000,7.2375849609375,-0.0588069937556982,0.0053897302143275,0.1178723461866378,-0.0495633259415626,0.0197794772684574,0.0208174549043178
1783204586817522200,7.247522216796875,-0.0747311235964298,-0.0009983633875846,0.0878553935855627,-0.0462716557085514,0.0267143473029136,0.0146783357486128
1783204586827460000,7.257460205078125,-0.1078758528292179,0.023748832117021,0.0174099844843149,-0.0363981612026691,0.0212618578225374,0.0042065968737006
1783204586837398000,7.26739794921875,-0.1432505330711603,0.0460034801535308,-0.050017538100481,-0.0223806127905845,0.0216312371194362,-0.008431433700025
1783204586847335200,7.277335205078125,-0.1568523574441671,0.064507689615339,-0.1138888295084238,-0.0047548497095704,0.023161131888628,-0.0207177232950925
1783204586857273000,7.287273193359375,-0.1310217506170272,0.060511021194607,-0.1300964524656534,0.0118611454963684,0.0288517735898494,-0.0265692211687564
1783204586867210200,7.297210205078125,-0.0769248342484235,0.0363369494028389,-0.1197358019709587,0.0221814587712287,0.034270491451025,-0.0263216122984886
1783204586877148200,7.307148193359375,-0.0078922145545482,0.0292614580586552,-0.0915583397567272,0.0263801999390125,0.0365562811493873,-0.0214887745678424
1783204586887086000,7.317086181640625,0.0174865568518638,0.01635609151721,-0.0598579641133546,0.024931751191616,0.0423109903931617,-0.0222731605172157
1783204586897023200,7.327023193359375,-0.0107201314568519,0.0490450398065149,-0.034631168398261,0.0157001689076423,0.0480993725359439,-0.0288029685616493
1783204586906961200,7.336961181640625,-0.0418950219213962,0.0976820833340287,-0.0337245749473571,0.0095460917800664,0.0580069795250892,-0.0425911284983158
1783204586916898000,7.34689794921875,-0.0295364756077528,0.0948335620351135,-0.0319441212713718,0.0030447831377387,0.0414141528308391,-0.0400382243096828
1783204586926836000,7.3568359375,0.0028285014241933,0.0491175935860723,-0.1408639301955699,-0.0031825182959437,0.0124629475176334,-0.037190705537796
1783204586936774000,7.36677392578125,0.0201098910927772,0.0433709396928548,-0.1255202305912971,-0.007303494028747,-0.008402120321989,-0.0254919715225696
1783204586946711000,7.3767109375,0.0200216282874345,0.0145879858661442,-0.0966430956751108,-0.0075092548504471,-0.0158064160495996,-0.0263158921152353
1783204586956649000,7.38664892578125,0.0161199446737766,0.0185065475493669,-0.0536754760861396,0.0003987364470958,-0.0007321247830986,-0.0228836107999086
1783204586966586000,7.396586181640625,0.011359598404169,0.0145023534093052,-0.0306879837304353,0.0115856267511844,0.01325792260468,-0.0199411213397979
1783204586976524000,7.40652392578125,0.0083949033796787,0.0057167702116072,-0.0291658887296915,0.0240060780197381,0.023745983839035,-0.0146542126312851
1783204586986461200,7.416461181640625,-0.0021989713490009,0.0018454817362129,-0.0432341615706682,0.0327256172895431,0.0289078839123249,-0.0124855022877454
1783204586996399000,7.426399169921875,-0.0206330381840467,0.0045251492742449,-0.0538771361380815,0.0365738868713378,0.0205325074493885,-0.0148048494011163
1783204587006337300,7.436337158203125,-0.0238882405877113,0.0015201953046023,-0.0408931514024734,0.0305901244282722,0.0102897901087999,-0.0199771635234355
1783204587016274200,7.446274169921875,-0.0260696762800216,-0.0016370996825397,-0.000814823514223,0.0241756346076726,0.0111561166122555,-0.0200701095163822
1783204587026212000,7.456212158203125,-0.0046411038041114,-0.0047381344377994,0.0216015909552574,0.0133603410795331,0.0062602707184851,-0.0203088652342557
1783204587036149000,7.46614892578125,0.0100894323378801,-0.012651610976085,0.0479746340960264,0.0067237438634037,0.0112387835979461,-0.0195440053939819
1783204587046087000,7.4760869140625,0.0169277539253234,-0.0206632141266018,0.0456803856790065,0.0035328650847077,0.006240852177143,-0.0173990707844495
1783204587056025000,7.486025146484375,0.0352039998501539,-0.0274770588599145,0.0218920983344316,0.0003152340650558,0.0050802463665604,-0.0112562235444784
1783204587065962000,7.4959619140625,0.0482622188657522,-0.0302179550658911,0.0134936878234148,-0.0030770748853683,0.0037832432426512,-0.0097808837890625
1783204587075900200,7.505900146484375,0.0374766209572553,-0.0348607393704354,0.0046878655552864,-0.00545634329319,-0.0006415988318622,-0.0076170647516846
1783204587085837000,7.515837158203125,0.0276782805204391,-0.0600224339600652,0.0155833535790443,-0.0087022986263036,0.0191134214401245,-0.0007190378382802
1783204587095775200,7.525775146484375,0.0045142625540494,-0.0590463554695248,0.0740355425477027,-0.0076037440448999,0.0195744149386882,-0.0038514477200806
1783204587105713200,7.535713134765625,0.0430786787480115,-0.0088328564055263,0.0121568862617015,-0.0073132179677486,0.0118827167898416,-0.0030362028628587
1783204587115650300,7.545650390625,0.0280184722602367,-0.0665758741915226,-0.0261316356003284,-0.0096376258879899,-0.0036048954352736,0.0035625775344669
1783204587125588200,7.555588134765625,0.0346241541355848,-0.0723538730710744,-0.0339572146594524,-0.0079286070540547,-0.0075489524751901,0.0076842294074594
1783204587135525000,7.565525146484375,0.0433095648944377,-0.0333693317689001,0.0014320786297321,-0.0089251613244414,0.0013875504955649,0.0076520056463778
1783204587145463300,7.57546337890625,0.0215811326891183,-0.0343572468277066,0.0213753809839487,-0.0082118660211563,0.0063976040109992,0.0069441827945411
1783204587155401200,7.585401123046875,-0.0020224457383155,-0.0341235111370682,0.0020370587855577,-0.007494943216443,0.0072833709418773,0.0065894494764506
1783204587165338000,7.595338134765625,0.0129547586411237,-0.0301167597137391,-0.0120253688365221,-0.0074518229812383,0.0062005743384361,0.0084851393476128
1783204587175276000,7.605276123046875,0.0074351184368133,-0.0217985748320817,0.0050642976522445,-0.0066070687025785,0.0064714173786342,0.0066757872700691
1783204587185213200,7.615213134765625,0.0023830957442522,-0.0141726099982857,0.0033738603472709,-0.007601348683238,0.007704415358603,0.008564225398004
1783204587195151000,7.625151123046875,0.0086725512772798,-0.0112722123816609,-0.0117500590264797,-0.0083118788897991,0.0056159645318984,0.0114652067422866
1783204587205088300,7.635088134765625,0.0134942723453044,-0.0281429754227399,-0.0115150812268257,-0.0110530219972133,0.007484083995223,0.0136398412287235
1783204587215026200,7.645026123046875,0.0189081140875816,-0.0197302441254258,-0.0090711952060461,-0.0112903099507093,0.0068798130378127,0.0180588252842426
1783204587224964000,7.654964111328125,0.0045201077729463,-0.0160477562204003,-0.0115127431392669,-0.0093891052529215,0.0091515565291047,0.0169312767684459
1783204587234901200,7.6649013671875,-0.0146019413262605,0.0157486271433532,-0.0270259540915489,-0.0116450684145092,0.0062875929288566,0.0116891106590628
1783204587244839200,7.674839111328125,-0.024828736308217,0.0163910167001187,-0.0266951147019863,-0.0087563870474696,0.0014457646757364,0.0137148303911089
1783204587254776000,7.684776123046875,-0.0367465531170368,0.007724383706972,-0.0400321506589651,-0.0084871416911482,-0.0020230025984346,0.0084417713806033
1783204587264714000,7.6947138671875,-0.0451753587663173,0.0233398129247128,-0.0515571687579154,-0.0041867410764098,-0.0028646481223404,0.0034553899895399
1783204587274652000,7.70465185546875,-0.0501952327549457,0.0139079677127301,-0.0298106163740158,-0.0027398457750678,-0.0004981635138392,0.0058831274509429
1783204587284589000,7.714589111328125,-0.044705987688899,0.0204771169699728,0.0104547585189342,-0.0003458578139543,0.0003482759930193,0.0041676638647913
1783204587294527000,7.72452685546875,-0.0274947406470775,0.0186672910690307,0.0308481427282094,-0.0085832802578806,0.0050831097178161,0.0053506400436162
1783204587304464100,7.734464111328125,-0.0136538468211889,0.0248386731803417,0.0458744469463825,-0.0178619511425495,0.0053416155278682,0.0062924977391958
1783204587314402000,7.744402099609375,-0.0060316813796758,0.0110042090952396,0.0567114827811717,-0.02769460901618,0.00438660569489,0.0105663388967514
1783204587324340200,7.75434033203125,-0.0005740004956722,0.0023177754230797,0.0576876343369483,-0.0291442200541496,0.0031859199516475,0.0099472235888242
1783204587334277000,7.764277099609375,0.0046223991036415,0.0066246788367629,0.0165969145357608,-0.035108633339405,-0.0003731283359229,0.0130167817696928
1783204587344215000,7.774215087890625,0.0028624036937952,-0.0051131052300333,0.0156429748117923,-0.0322353988885879,5.12022525072e-05,0.0164997670799493
1783204587354152200,7.784152099609375,-0.0079611881375312,-0.0226589179884642,0.0119236620277166,-0.03145083039999,0.0046318396925926,0.0166366547346115
1783204587364090000,7.794090087890625,-0.0110626612842082,-0.0059874038465321,0.0076455463171005,-0.0297038666903972,0.0093409502878785,0.0122263627126812
1783204587374027800,7.80402783203125,-0.0156254391551017,0.0024931319899857,-0.0237345113307237,-0.022674985229969,0.010654954239726,0.0106657510623335
1783204587383964700,7.813964599609375,-0.0148556238263845,-0.0026068214975297,-0.0361643693149089,-0.024424597620964,0.0085529601201415,0.0104035213589668
1783204587393902800,7.82390283203125,-0.0041080198407173,-0.0077548519104719,-0.0426771122097969,-0.0219617038965225,0.0073311021551489,0.0088138803839683
1783204587403839700,7.83383984375,0.0170078334242105,-0.0143294079951941,-0.0359025035083293,-0.0243781991302967,0.0048705702647566,0.0128044933080673
1783204587413778000,7.84377783203125,0.0189431854009628,-0.0329253143284469,-0.032907997867465,-0.0256557166576385,0.0060351705178618,0.0167664792388677
1783204587423714600,7.853714599609375,0.0314104527860879,-0.0221411046594381,-0.0120469961464405,-0.0313512273132801,0.0029380212072283,0.0179056823253631
