time,seconds_elapsed,ax,ay,az,gx,gy,gz
1783204228907517700,0.093517578125,-0.030556174044311,-0.0452418481312692,-0.0872176802039146,-0.0221657380461692,-0.039892129600048,0.0059230891056358
1783204228917454600,0.10345458984375,-0.0465869791299104,-0.0482584194734692,-0.0630646512001752,-0.0266739390790462,-0.0362939350306987,0.0037427591159939
1783204228927391500,0.1133916015625,-0.0658636342689394,0.0369173796392977,0.0191787477225065,-0.0456171482801437,-0.0264751408249139,0.008348012343049
1783204228937328600,0.12332861328125,-0.0213604756757616,0.1074719482034444,0.1206827274322509,-0.0539653599262237,-0.0579004436731338,0.0011324435472488
1783204228947265500,0.133265625,0.0808370392560958,-0.0105273853637278,0.0555126283854246,-0.0627385601401329,-0.0754603371024131,0.0133330514654517
1783204228957202700,0.14320263671875,0.0950534883961081,-0.0472936660945415,0.1240332069039344,-0.0631383061408996,-0.0648574978113174,0.0251042228192091
1783204228967139600,0.1531396484375,-0.010824468614161,0.0832367938742041,0.1815092443168163,-0.0630406886339187,-0.0506161339581012,0.0252010710537433
1783204228977076500,0.163076416015625,-0.0412193146169185,0.1681026502549648,0.2234486899018287,-0.0675446242094039,-0.0569648444652557,0.0303031541407108
1783204228987013600,0.173013671875,0.0196560098454356,0.1309682668641209,0.2683516614675522,-0.0790273770689964,-0.0847208425402641,0.0400655046105384
1783204228996950500,0.182950439453125,0.0812029499590396,0.1093790969990193,0.3309837664693594,-0.0933357402682304,-0.1232738196849823,0.0520606487989425
1783204229006888700,0.192888671875,0.1021411085695028,0.1341325761139392,0.3813818283200264,-0.1082138791680336,-0.1701912581920623,0.0687247291207313
1783204229016826000,0.202826171875,0.1119672137960791,0.138321844497323,0.3781991066306829,-0.1292430013418197,-0.1977328658103943,0.0790508687496185
1783204229026763300,0.21276318359375,0.0779632373854517,0.085870357248187,0.3884884454548358,-0.1531966179609298,-0.2045091986656189,0.0824430733919143
1783204229036700200,0.2227001953125,0.0607259791195392,0.0647460284158587,0.371227514052391,-0.1838045865297317,-0.2122350335121154,0.0777753517031669
1783204229046637000,0.232636962890625,0.030841420726478,-0.0102937227383255,0.2394254267126321,-0.2179354727268219,-0.1927808821201324,0.070105493068695
1783204229056574200,0.24257421875,-0.0235471720650792,-0.0883107361376285,0.1094803654164075,-0.2472709864377975,-0.1601579487323761,0.0557478554546833
1783204229066511000,0.252510986328125,-0.0727411188229918,-0.116342652401328,-0.0981967548578977,-0.2640548646450043,-0.1349837630987167,0.0344888530671596
1783204229076448300,0.2624482421875,-0.1268242989271879,-0.1840669659756124,-0.3512555701255798,-0.2599400281906128,-0.0992119088768959,0.0197650324553251
1783204229086385200,0.27238525390625,-0.1436383633449673,-0.2685029065065086,-0.5642383955925703,-0.226168155670166,-0.0646774694323539,0.0045378655195236
1783204229096322000,0.282322021484375,-0.171856449830532,-0.3167510968469083,-0.7728262009710073,-0.1706636101007461,-0.0329512357711792,-0.0180651806294918
1783204229106259200,0.29225927734375,-0.1777998684048652,-0.3249558844819665,-0.9035720572561023,-0.0936431288719177,-0.0022212108597159,-0.0333938337862491
1783204229116196000,0.302196044921875,-0.1485790346175432,-0.2724760479211807,-0.9745090492665768,-0.0200653076171875,0.0225320719182491,-0.0388218909502029
1783204229126133200,0.31213330078125,-0.0945139746919274,-0.2021430131532251,-0.955356605029106,0.0551332347095012,0.0401242151856422,-0.0414940938353538
1783204229136070100,0.322070068359375,-0.0287587692335247,-0.1300632808484137,-0.8703390652179718,0.1125930696725845,0.0613402873277664,-0.0390173532068729
1783204229146007000,0.332007080078125,0.0560220392122864,-0.0570557661741971,-0.7115034250020981,0.1501053273677826,0.0740046948194503,-0.0317665785551071
1783204229155944200,0.341944091796875,0.1211523907706141,0.0079227558232843,-0.5388701455801725,0.1683754175901413,0.087311178445816,-0.0256538279354572
1783204229165881000,0.351881103515625,0.1724897792980075,0.0663693918339908,-0.3662947338253259,0.1763523668050766,0.0927841737866401,-0.0167066399008035
1783204229175818200,0.361818359375,0.207722420720756,0.1151125260844826,-0.2156084977954626,0.1740106493234634,0.0943327993154525,-0.0108745843172073
1783204229185755100,0.371755126953125,0.2203080537885427,0.1580894980236888,-0.0765454795420169,0.1706506907939911,0.0987293645739555,-0.0025167108979076
1783204229195692000,0.381692138671875,0.2194572821781039,0.2044800777986645,0.0477595300406217,0.1649155765771865,0.0985903441905975,0.0109530249610543
1783204229205629200,0.391629150390625,0.2278331885963678,0.2257715798914432,0.1279828213125467,0.1551025360822677,0.0726844668388366,0.0249009486287832
1783204229215566000,0.401566162109375,0.2160249696418643,0.2103293883487582,0.2086433349579572,0.1406982988119125,0.057851456105709,0.0429712980985641
1783204229225503200,0.411503173828125,0.2016167973220348,0.1928162357509136,0.2777969506829977,0.1195708960294723,0.0364851057529449,0.0576112568378448
1783204229235440000,0.421440185546875,0.1699474013388156,0.1364700791507959,0.2951139961868524,0.097320981323719,0.0076995296403765,0.0682207569479942
1783204229245377000,0.431376953125,0.1003922190755605,0.0856239812716841,0.2926777089506387,0.0743000283837318,-0.0023085214197635,0.0737894922494888
1783204229255315000,0.44131494140625,0.0182251002594828,0.0588078705385327,0.3180576494008302,0.0564246252179145,-0.0072082057595252,0.0666985586285591
1783204229265252000,0.451252197265625,-0.0538926259681582,0.0100423783257603,0.2697743877470493,0.0315339230000972,-0.0149244489148259,0.0648255571722984
1783204229275189200,0.461189208984375,-0.1068383264750242,-0.0307771233186125,0.2404202829688787,0.0052152331918478,-0.0157087482511997,0.0541947484016418
1783204229285126100,0.471126220703125,-0.1634437185332179,-0.0715372959911823,0.1814309183835983,-0.0101962881162762,-0.0206954926252365,0.038968276232481
1783204229295063300,0.481063232421875,-0.2050321587234735,-0.1105225679457187,0.1144961477518081,-0.0192997716367244,-0.0300122946500778,0.0247278213500976
1783204229305000200,0.491000244140625,-0.2306517531484365,-0.1519338980033993,0.0532709869384765,-0.0216465555131435,-0.0336373895406723,0.0124042034149169
1783204229314937000,0.50093701171875,-0.2298617718145251,-0.1508786898620426,-0.0028261633366346,-0.0212891586124897,-0.0380134955048561,0.0005294342990964
1783204229324874200,0.510874267578125,-0.2177510627821087,-0.1510813728272914,-0.0565121608167886,-0.009377340786159,-0.0445216484367847,-0.0103171207010746
1783204229334811100,0.52081103515625,-0.1944669255673885,-0.1324962070837617,-0.1028442884027957,-0.0046148104593157,-0.0420949794352054,-0.0207583084702491
1783204229344748300,0.530748291015625,-0.1683960802435875,-0.1027104328900575,-0.1106231057107448,0.0048506464809179,-0.0410969294607639,-0.0242910031229257
1783204229354685200,0.540685302734375,-0.1675795031636953,-0.0705770726568996,-0.1526046368718147,0.0294545274227857,-0.0835791379213333,-0.0253442842513322
1783204229364622000,0.5506220703125,-0.1775917786121368,-0.0438689523428678,-0.232191383805871,0.0595839172601699,-0.0770496055483818,-0.0477751307189464
1783204229374559200,0.560559326171875,-0.0364276964262127,-0.0193361302413046,-0.1995803230583667,0.0802740156650543,-0.0773193836212158,-0.0445130243897438
1783204229384496000,0.57049609375,0.0371174322560429,-0.0082803370893001,-0.2083387990534305,0.0902522280812263,-0.0592571608722209,-0.0361509136855602
1783204229394433300,0.580433349609375,0.1103945576518774,0.0545011132553219,-0.1637970620155334,0.0959798842668533,-0.0638734847307205,-0.0201783366501331
1783204229404370200,0.5903701171875,0.1242562020048499,0.0830979699254036,-0.1225648879170417,0.0985909104347229,-0.0432148352265358,-0.0250219758599996
1783204229414308000,0.60030810546875,0.1799459405228495,0.0507557892471551,-0.0786585261732339,0.077811062335968,0.00171854859218,-0.0291405543684959
1783204229424245000,0.610244873046875,0.1701116519898176,0.088608257779479,0.0100344872802495,0.0343528613448143,0.048617735505104,-0.0248717702925205
1783204229434182100,0.62018212890625,0.1551522755280137,0.1617201096110045,0.07400339384377,-0.0074867326766252,0.065250776708126,-0.0152439102530479
1783204229444119300,0.630119384765625,0.1523527079373598,0.1248056525811553,0.0606207651793956,-0.0218423139303922,0.0582460016012191,-0.0037892307154834
1783204229454056200,0.64005615234375,0.1573562153130769,0.0381508669570088,-0.0197650231778621,-0.0108429286628961,0.0281157977879047,-7.14580528438e-05
1783204229463993000,0.6499931640625,0.1254231999576091,0.0502392180271446,-0.0398433500885963,0.0113073159009218,0.0015569957904517,0.0063115106895565
1783204229473930200,0.65993017578125,0.1042003791868686,0.0829546159319579,-0.0386468337804079,0.0319976806640625,-0.0173410605639219,0.0211626291275024
1783204229483867100,0.6698671875,0.0848395528957247,0.0661952043108642,-0.0380406845808029,0.0493670329451561,-0.0333190448582172,0.0306632202118635
1783204229493804300,0.67980419921875,0.0697539197057485,0.0399574779875576,-0.041339726126194,0.0566217452287673,-0.041297074407339,0.0345264039933681
1783204229503741200,0.6897412109375,0.0435305141687393,0.0219392984770238,-0.0212362647742033,0.0480868518352508,-0.0361824743449687,0.034643318504095
1783204229513678000,0.699677978515625,0.013426175545156,-0.002615589325875,0.0024006314009428,0.037982553243637,-0.0278925877064466,0.0333133339881897
1783204229523615200,0.709615234375,-0.032971418492496,-0.0288397255152463,-0.0087520462542772,0.0353713892400264,-0.0530057661235332,0.035202145576477
1783204229533553200,0.71955322265625,-0.105756960979104,-0.0500961562946438,-0.0599029722988605,0.0344467386603355,-0.0439411662518978,0.0135186864063143
1783204229543490000,0.729489990234375,-0.0833577899053692,-0.0583892067350447,-0.0342389542102813,0.027145741507411,-0.0165257435292005,0.0067047029733657
1783204229553427200,0.73942724609375,-0.0598731616824865,-0.0450856346562504,-0.0141004215449094,0.0074087884277105,0.0068743876181542,0.0053081410005688
1783204229563364400,0.7493642578125,-0.0326706819802522,-0.027583295713365,-0.0240635971546173,-0.0048735411837697,0.0209906864911317,0.0097475452348589
1783204229573301000,0.759301025390625,-0.044262043313682,-0.015897241833806,0.0019651625931262,-0.0084498999640345,0.0227550324052572,0.0012691053561866
1783204229583238100,0.769238037109375,-0.0648708238393068,-0.0148296126022934,0.0032949498921632,-0.0025012446567416,0.0115550998598337,-0.0038471973966807
1783204229593175300,0.77917529296875,-0.0533762008786201,-0.0376367799550294,-0.0137619833707809,0.00360485073179,-0.0065895495936274,-0.004991025198251
1783204229603112200,0.7891123046875,-0.0397775913760066,-0.0354825245305895,-0.0198766668587923,0.0112181743606925,-0.0103928297758102,-0.006017081439495
1783204229613049300,0.79904931640625,-0.0283031344205141,-0.007817980274558,0.0031973347365856,0.0089140078052878,-0.0077696158550679,-0.0117399487644433
1783204229622986000,0.808986083984375,-0.0317632117465138,0.0480748796001076,0.0297884045422077,-0.0042037833482027,0.0035979952663183,-0.0155970733612775
1783204229632923100,0.818923095703125,-0.007446808874607,0.0610858984731137,0.045949850270152,-0.02266694791615,0.0152176329866051,-0.0098499711602926
1783204229642861000,0.828861083984375,0.027318507297337,0.0259172621972858,0.0401467169493436,-0.0302927382290363,0.0125285889953374,-0.0053056394681334
1783204229652798200,0.838798095703125,0.0488765513718128,0.0050938160076737,-0.0151122289359569,-0.0280982926487922,0.0043702609837055,-0.005402045790106
1783204229662735000,0.848735107421875,0.0611342676594853,-0.0103384386628866,-0.0602636223047971,-0.0180748142302036,-0.0055060940794646,0.0022125244140625
1783204229672672300,0.85867236328125,0.0669949763864278,0.0027938685022294,-0.0668470923483371,-0.0107772191986441,-0.0156183838844299,0.003377391025424
1783204229682609200,0.868609130859375,0.050161038224399,0.0075946929126977,-0.0812760151952505,-0.0013978518545627,-0.0189861804246902,0.008986153639853
1783204229692546000,0.878546142578125,0.043894671306014,-0.0134103934541344,-0.0891758285343646,0.0018038004636764,-0.0178468786180019,0.0124876787886023
1783204229702483200,0.888483154296875,0.0308700622990727,-0.022363222977519,-0.0976736077666282,0.0033283093944191,-0.0064652375876903,0.0115846693515777
1783204229712420400,0.89842041015625,0.0257180863633751,-0.0211031399138271,-0.0691033468425273,-0.0025988211855292,0.0042747585102915,0.0080525185912847
1783204229722357200,0.908357177734375,0.0116302320390939,0.0074621525742113,-0.0477916787445545,-0.010891661979258,0.0139004494994878,0.0044554038904607
1783204229732294100,0.918294189453125,0.0006841828718781,0.0062856561407446,-0.0353302565783262,-0.0195016637444496,0.0137132294476032,0.0021882550790905
1783204229742232000,0.928232177734375,0.0018213702082633,0.0007515490196645,-0.0257826760321855,-0.0223015137016773,0.0062177502550184,0.0050310767255723
1783204229752169200,0.938169189453125,0.0126250882953405,-0.0059491176627576,-0.0181049810111522,-0.0204508826136589,-0.00066226022318,0.0025207810103893
1783204229762106000,0.948106201171875,0.0185863347873091,0.008325345274806,-0.030766894185543,-0.0219664815813303,-0.0017831088043749,0.0032157287932932
1783204229772043300,0.958043212890625,0.0188557993784546,0.0136935943096876,-0.0423164622038602,-0.0183680187910795,0.0032321561593562,0.0063494704663753
1783204229781980200,0.967980224609375,0.0126274263828992,0.0068446051977574,-0.0352314723789691,-0.0143925473093986,0.0195297766476869,0.0090603530406951
1783204229791917000,0.9779169921875,-0.0015969138026237,0.0273392578244209,-0.0334352366119623,-0.0172626357525587,0.0208256691694259,0.0091631514951586
1783204229801854200,0.987854248046875,-0.0061868719413876,0.0164019764855504,-0.04884440266788,-0.0169176533818244,0.0175718665122985,0.0100235436111688
1783204229811791000,0.997791015625,-0.0159077632278203,-0.0015475217029452,-0.0677665452808141,-0.0138741945847868,0.0093935662880539,0.0070663690567016
1783204229821729300,1.007729248046875,-0.0145306296557188,-0.0090498601570725,-0.0708183340668678,-0.0095857940614223,0.0010306574404239,0.0039466563612222
1783204229831666200,1.017666259765625,-0.0146530869916081,-0.0162841953247785,-0.0705441933006048,0.0016431584954261,-0.0071167512796819,0.0026188038755208
1783204229841603000,1.02760302734375,-0.0221332136139273,-0.0130871528491377,-0.0866810891091823,0.006464100908488,-0.0035366886295378,0.0042600673623383
1783204229851540000,1.0375400390625,-0.0159235453188419,-0.0244108031570911,-0.0867553233891725,0.0112133165821433,-0.0085921678692102,0.0045175952836871
1783204229861477000,1.04747705078125,-0.0095446579366922,-0.0086040160857141,-0.0794178201079368,0.0152481710538268,-0.007863393984735,0.0025960146449506
1783204229871414300,1.057414306640625,0.0015226795226335,-0.0035858956627547,-0.083393738001585,0.0128779578953981,0.0005681738257408,-0.0008386641275137
1783204229881351200,1.06735107421875,0.0028311317726969,-0.0108379126176238,-0.0561497572451829,0.0049498984590172,0.0131849981844425,-8.58823768794e-05
1783204229891288000,1.0772880859375,0.0115431382775306,-0.0139309101969003,-0.0390863942414522,0.0008334498852491,0.0255061127245426,0.000114653725177
1783204229901226000,1.08722607421875,0.0147527479737997,-0.0054290393114089,-0.0179436529695987,-0.0040971376001834,0.0273244027048349,-0.0007367660291492
1783204229911163100,1.0971630859375,0.0228460380584001,0.0122096393622457,-0.0227507609903812,3.3157877624e-05,0.0115323886275291,0.001226782798767
1783204229921100000,1.10710009765625,0.0184980719819664,0.0015635960549116,-0.0288975931823253,0.006201063748449,0.0027734127361327,0.0026290884707123
1783204229931037200,1.117037109375,0.0164823482453823,-0.0088935005515813,-0.0134779057323932,0.008814956061542,-0.0077045280486345,0.0046765264123678
1783204229940974300,1.126974365234375,0.0218602418914437,0.0118574649237096,0.0061146834880113,0.0110778957605361,-0.0187423024326562,0.0018001107964664
1783204229950911000,1.136910888671875,0.0290574599191546,0.0258349907413125,0.0140256027430295,0.0063587743788957,-0.0176480095833539,0.0059884637594223
1783204229960848100,1.14684814453125,0.0432628031432628,0.0372587404228746,0.0317903920143842,-0.005269918590784,-0.0117629561573266,0.0102396681904792
1783204229970785000,1.156784912109375,0.0358572030618786,0.028760230538249,0.0351075537383556,-0.0181582868099212,-0.006793231703341,0.0091704092919826
1783204229980723200,1.16672314453125,0.0102399467244744,0.0216454300969839,0.0310293445140123,-0.0266980994492769,-0.0040675080381333,0.0056077986955642
1783204229990660000,1.17666015625,-0.0052563130930066,0.0037071839548647,0.0110702600687742,-0.0314180180430412,-0.0066960477270185,0.0044085765257477
1783204230000597200,1.18659716796875,-0.0138616443529725,-0.0153182729020714,-0.0345154330641031,-0.02535330504179,-0.0153464302420616,0.004600497893989
1783204230010533000,1.196533203125,-0.0257309458449482,-0.0363251128345727,-0.0794055451482534,-0.015496945939958,-0.0198253337293863,0.0064466008916497
1783204230020470000,1.206469970703125,-0.0317424612194299,-0.0435837056607007,-0.0972597662687301,-0.0046353247016668,-0.0268510673195123,0.0034720292314887
1783204230030407200,1.2164072265625,-0.0309153627455234,-0.0314263810075819,-0.135535428649187,0.0100179202854633,-0.0222579129040241,0.0008658599108457
1783204230040344300,1.22634423828125,-0.0210071321934461,-0.0274038474932312,-0.1173076980412006,0.0195836462080478,-0.0112079754471778,0.0016303670126944
1783204230050281000,1.236281005859375,-0.0254115046322345,-0.0064709495797753,-0.1121715041965246,0.0128538385033607,-0.0022962396033108,-0.001406701747328
1783204230060219100,1.24621923828125,-0.032018355551362,0.0037903321936726,-0.0972790554910898,0.0112291015684604,0.0007705860771238,-0.0047675310634076
1783204230070156000,1.256156005859375,-0.0371329220861196,-0.0138600369177758,-0.0822591810137033,0.004598363302648,0.0007364973425865,-0.0088453637436032
1783204230080093200,1.26609326171875,-0.0364101607695221,-0.013635872773081,-0.073486676493287,0.010531828738749,0.0060112252831459,-0.0076371673494577
1783204230090030000,1.276030029296875,-0.0180085348993539,0.0041007133170962,-0.0638134237408638,0.0116500901058316,0.0073265600949525,-0.0103802233934402
1783204230099967200,1.28596728515625,-0.0002928454667329,0.0173398418575525,-0.0596907908529043,0.0160397682338953,0.0094603579491376,-0.0093651628121733
1783204230109904100,1.295904052734375,0.0058814592540264,0.0339129371263086,-0.049224926418066,0.0175005123019218,0.0226089172065258,-0.0090490449219942
1783204230119841000,1.305841064453125,0.021579963645339,0.0371231313444674,-0.0015653496205806,0.0150114279240369,0.0283802784979343,-0.0068300561979413
1783204230129779200,1.315779296875,0.0328945538640022,0.0484663631357252,0.0120487497121095,0.0125567931681871,0.0273632165044546,-0.007264950312674
1783204230139716000,1.325716064453125,0.038059097020328,0.0206399063162505,0.0333767844229936,0.0065171415917575,0.0154046779498457,-0.0047771874815225
1783204230149653200,1.3356533203125,0.054708034004271,0.0044499651461839,0.0307411752223968,0.0002717627212405,0.0005855183117091,0.0008756380993872
1783204230159590100,1.345590087890625,0.0489855647042393,-0.0070516720771789,0.0298784209132194,-0.0015077078714966,-0.0114532019942998,0.0039484687149524
1783204230169527000,1.355527099609375,0.0334390360042452,0.0068374448046088,0.037124738779664,-0.0050941873341798,-0.020620334893465,0.0014829142019152
1783204230179464200,1.365464111328125,0.0403097985565662,0.0028572891272604,0.0224579155236482,-0.011033778078854,-0.021242257207632,0.0037054023705422
1783204230189402000,1.375402099609375,0.0328019071444869,-0.0012353870138525,0.0115413847118616,-0.0164927244186401,-0.0133257433772087,0.0066902730613946
1783204230199339300,1.38533935546875,0.0276101837202906,0.0013245266020298,0.0002583586752414,-0.0211727321147918,-0.00872085057199,0.0054936464875936
1783204230209276200,1.395276123046875,0.0130672791048884,0.0074226973466575,-0.0331534970611333,-0.0199354290962219,-0.0087759774178266,0.003794017015025
1783204230219213300,1.40521337890625,0.0027384850531816,-0.0057144321240484,-0.0532744940698146,-0.0221974626183509,-0.0139589700847864,0.0042013572528958
1783204230229150000,1.41514990234375,-0.0099061847254633,-0.0171877200357615,-0.0952776525408029,-0.0114137912169098,-0.0127624124288558,0.0071643898263573
1783204230239087000,1.425087158203125,-0.0273059400767087,-0.0400347810074687,-0.1319090548455715,-0.0035425489768385,-0.0083662644028663,0.0013430605176836
1783204230249024300,1.435024169921875,-0.0339209743022918,-0.0298784209132194,-0.1399339558690786,0.0101785892620682,-0.0030473987571895,0.0007523715030401
1783204230258962200,1.444962158203125,-0.0411024102389812,-0.014814561163634,-0.1200409223973751,0.0150950895622372,0.0037754762452095,-0.0027664573863148
1783204230268899300,1.4548994140625,-0.0319312617897987,-0.0017389526218175,-0.0922808088123798,0.0119416406378149,0.0080983191728591,-0.0033310474827885
1783204230278836200,1.464836181640625,-0.0150175363898277,-0.012517828528583,-0.0734609575301408,0.0156360454857349,0.0158676728606224,-0.0009585418738424
1783204230288773000,1.474773193359375,-0.019056582647562,0.0025450083076953,-0.0635720162004232,0.0105491420254111,0.0148524772375822,-0.0050150686874985
1783204230298710000,1.4847099609375,-0.0027279636591672,0.0160194069087505,-0.0372848977774381,0.0094606969505548,0.0150958951562643,-0.0068105165846645
1783204230308647200,1.494647216796875,0.0105459439337253,0.0233671393230557,-0.0063350482404232,0.0103589817881584,0.0107405614107847,-0.0067380787804722
1783204230318585000,1.504585205078125,0.0251166133388876,0.0227072141095995,-0.0045756373524665,0.0050138253718614,0.0063352081924676,-0.0046229092404246
1783204230328522200,1.514522216796875,0.0335641236886382,0.0229462835624814,0.0088964231610298,-0.0018994743004441,0.0043343752622604,0.0018379194661974
1783204230338459100,1.524459228515625,0.0264367560267448,0.0244391524687409,0.0148947867929935,-0.0003519486635923,0.006184609606862,0.0007470280397683
1783204230348396000,1.53439599609375,0.0291153275862336,0.0227219732873141,0.0064297407865524,-0.0053775999695062,0.010011838749051,-0.0007755011320114
1783204230358333200,1.544333251953125,0.02293956156075,0.0227142283722758,0.0009463409394025,-0.0038828812539577,0.0078650983050465,0.000464886194095
1783204230368270000,1.55427001953125,0.011387655454874,0.0091162033915519,-0.0189957923710346,-0.0007472755387425,-0.0004969607107341,0.0030580058228224
1783204230378208300,1.564208251953125,0.0099599607393145,-0.0135218910045921,-0.0301163213223218,-0.0014017093926668,-0.0090779084712266,0.0016473734285682
1783204230388145200,1.574145263671875,0.0063695350319147,-0.0209913501024246,-0.0414519543290138,-0.0017034448683261,-0.0158002600073814,0.0029294190462678
1783204230398082300,1.584082275390625,0.0064779638424515,-0.0155352766536176,-0.0368371540099382,-0.000929782167077,-0.0116627840325236,0.0028544743545353
1783204230408019000,1.59401904296875,0.0033878888726234,-0.0259584709905087,-0.0370516735434532,-0.0034970697015523,-0.0055990312248468,0.0004509715363383
1783204230417956000,1.6039560546875,-0.0009746902510523,-0.0263180980831384,-0.0611041647821664,-0.0094804298132658,0.0036424654535949,0.0013227008748799
1783204230427893200,1.613893310546875,-0.0041448447197675,-0.026401830843836,-0.0756803871452808,-0.0046039149165153,0.0070166904479265,-0.0026472732424736
1783204230437831200,1.6238310546875,-0.0198480252861976,-0.008499678928405,-0.0822884071081876,5.3970143198e-06,0.0073863696306943,-0.0022130808793008
1783204230447768300,1.633768310546875,-0.0271849440455436,-0.0025970307558774,-0.0782744952917098,0.0016131466254591,0.0107065327465534,-0.0009374264627695
1783204230457705200,1.643705322265625,-0.0125946931570768,-0.0086753277562558,-0.0714046095222234,0.0089620687067508,-0.0002945004962384,-0.0024107741191983
1783204230467642000,1.65364208984375,-0.0047334582626819,-0.0073906947731971,-0.0855652368217706,0.0089181261137127,-0.0017895991913974,-0.0042323763482272
1783204230477579000,1.6635791015625,0.0081976272419095,0.0073063774906098,-0.0435807830512523,0.0118801668286323,0.0127081703394651,-0.0013533581513911
1783204230487516200,1.67351611328125,0.0260419114902615,0.0261450796037912,-0.0290600902676582,0.011691614985466,0.0054467958398163,0.0020416397601366
1783204230497454000,1.6834541015625,0.0155494513094425,0.0496741314902901,-0.0562146391749382,0.009858283214271,0.0067480006255209,0.0039832424372434
1783204230507391200,1.69339111328125,0.0070718380823731,0.0389522464677691,-0.0121136316418647,0.0070688882842659,0.0093283373862504,0.0036908271722495
1783204230517328400,1.703328369140625,-0.0067445058241486,0.0308113178491592,-0.0009767360776662,0.0032889060676097,0.0078856889158487,0.0020143776200711
1783204230527265000,1.71326513671875,-0.0110641225889325,-0.0040146424688398,-0.0076046297848224,0.0017663761973381,0.0012794509530067,0.0026937499642372
1783204230537202200,1.7232021484375,-0.0034507249757647,-0.0162350954860448,-0.0044634091496467,-0.0009857034310698,-0.001796924509108,0.000429960899055
1783204230547140000,1.73314013671875,-0.0019397358909249,-0.010651888526231,-0.0035106384694576,0.0007922230288386,-1.04759819805e-05,-0.0018656839383766
1783204230557077200,1.7430771484375,-0.0188683665990829,-0.0049913785465061,0.0030839374899864,-0.0013322802260518,-0.0073410696350038,0.0004558376967906
1783204230567014100,1.75301416015625,-0.0216626734927296,-0.0087511694714426,-0.0009983633875846,-0.0084993792697787,-0.0081884879618883,-0.0032941596582531
1783204230576951300,1.762951416015625,-0.0016536124259233,-0.0216148888282477,-0.0268704712688922,-0.0103332996368408,-0.0082311443984508,-0.0058112004771828
1783204230586888200,1.77288818359375,0.004028232602775,-0.0139237498037517,-0.0471750081509351,-0.0138486735522747,-0.0082516521215438,0.0008339188061654
1783204230596825000,1.7828251953125,-0.0005772153660655,0.0037390403978526,-0.0616781652778387,-0.0072897970676422,0.0001207473687827,-0.0018219345947727
1783204230606763000,1.792762939453125,-0.0041007133170962,0.0099681440457701,-0.0621872838437557,-0.0006963433697819,0.0080766752362251,-0.0019649462774395
1783204230616700200,1.8027001953125,-0.0039677345871925,0.0025542145274579,-0.0534206245422363,-0.0031540198251605,0.0148544199764728,-0.0021390551701188
1783204230626637300,1.81263720703125,0.0036634909436106,-0.0089021222494542,-0.0498632243216037,-0.0033239303156733,0.0156262051314115,-0.0035001966170966
1783204230636574200,1.82257421875,0.0076604516252875,-0.033267040438205,-0.0498679004967212,-0.0036889053881168,0.0153788095340132,-0.0019244137220084
1783204230646511000,1.832510986328125,0.0138312492147088,-0.0094993574902415,-0.0494587351739406,0.000181732699275,0.0094221169129014,-0.0014042984694242
1783204230656449000,1.842448974609375,0.0070747606918215,0.0069774377971887,-0.0395534272313118,0.0048867082223296,0.0017695105634629,-0.002794787287712
1783204230666386200,1.85238623046875,0.0124658060804009,0.0010328501790761,-0.0491612135320901,0.0013199364766478,-0.0037408359348773,-0.0014773216098546
1783204230676323000,1.862322998046875,0.0154164725795388,0.0065156655043363,-0.0500619617640972,-0.0006452454254031,-0.0013887658715248,-0.0011876043863594
1783204230686260200,1.87226025390625,0.0303220730274915,0.0132668933302164,-0.0336941798090934,-0.0004132846370339,0.0011063497513532,-0.0006198184564709
1783204230696197400,1.882197265625,0.0355497445479035,0.0140485452271997,-0.0213899940311908,-0.0020593916997313,0.0051760068163275,0.0021135676652193
1783204230706135300,1.89213525390625,0.030179449686408,0.0318278014153242,-0.0096656539678573,-0.0100832302123308,0.0034731817431747,0.0044611445628106
1783204230716072200,1.902072265625,0.0242781166881322,0.0280659646637737,-0.0071358432292938,-0.0119913220405578,-0.0033253515139222,0.0074879797175526
1783204230726009000,1.912009033203125,0.0213335876688361,0.002826309467107,-0.0269973125189542,-0.0107617396861314,-0.0054167313501238,0.0094656432047486
1783204230735946200,1.9219462890625,0.0029752164185047,-0.0213014389649033,-0.0381505746960639,-0.007659314200282,-0.0044078663922846,0.0059213815256953
1783204230745883100,1.931883056640625,-0.0156543729886412,0.0032787294097244,-0.0230073660999536,-0.0065895225852727,-0.003019027877599,0.0028246575966477
1783204230755821300,1.9418212890625,-0.021678747844696,0.0123193833470344,-0.0270113410443067,-0.0081696715205907,-0.002494279295206,0.0042731114663183
1783204230765758200,1.95175830078125,-0.0281280701145529,-0.0062546764805912,-0.0337649069577455,-0.006721444427967,-0.0050463862717151,0.0006437553092837
1783204230775695000,1.961695068359375,-0.0119274614199995,-0.0215250185877084,-0.0343728097230196,-0.004754539579153,-0.0071799047291278,-0.0017937094671651
1783204230785632300,1.97163232421875,-0.0112090840175747,-0.0124123223274946,-0.0411088399797677,-0.0056461654603481,-0.0037494869902729,0.0003930120728909
1783204230795569200,1.981569091796875,-0.0170028649881482,0.0001367781221866,-0.0366226344764232,-0.0060096327215433,-0.0018890402279794,-0.0008196206763386
1783204230805507000,1.991507080078125,-0.0110591541528701,-0.0045768063962459,-0.0340992534786462,-0.0070362817496061,0.000182366464287,-0.001288070809096
1783204230815444200,2.0014443359375,-0.0204725869253277,-0.0105494510650634,-0.0545171876072883,-0.0038581145927309,-0.0020468453876674,-0.0034335006494075
1783204230825381000,2.011381103515625,-0.0126201198592782,-0.0232817991271615,-0.0518324785679578,-0.0033545093610882,-0.0078101926483213,-0.0051248744130134
1783204230835318000,2.021318115234375,-0.0052203649967908,-0.0149617145493626,-0.0585270077705383,-0.0042204838246107,-0.0088351648300886,-0.0046238107606768
1783204230845255200,2.031255126953125,-0.0133744453579187,-0.0022936638951301,-0.0539689060747623,-0.002315791323781,-0.0012859022244811,-0.0009547737427055
1783204230855192000,2.041192138671875,-0.0053255789369344,0.0130818921521306,-0.044362873339653,-0.003177280537784,0.0080820210278034,-0.0054933917708694
1783204230865130200,2.051130126953125,0.0047945408001542,0.0155246091291308,-0.034200375765562,-0.0039655761793255,0.0071927914395928,-0.0041202660650014
1783204230875067100,2.061067138671875,0.0209901810586452,0.0255899299390614,-0.0330301629424095,-0.0056311348453164,0.0094403587281703,-0.0037775062955915
1783204230885004000,2.071004150390625,0.0319523045778274,0.0319588804490864,-0.0403700043112039,-0.001075797714293,0.0078475223854184,-0.0010208683088421
1783204230894941200,2.080941162109375,0.0312026552543044,0.0203678113766014,-0.0158814597427844,0.0006373506039381,0.0039866920560598,0.0038190733175724
1783204230904879000,2.090879150390625,0.0364005161583423,0.0090593586377799,-0.0187222361266613,0.0011635916307568,-0.0098692029714584,0.0015971979591995
1783204230914816300,2.100816162109375,0.0345633638590574,-0.0059536477074027,-0.0366676426619291,-0.0021224999800324,-0.0160456895828247,0.0024593467824161
1783204230924753200,2.110753173828125,0.0110915951177477,0.0006178396373987,-0.0232400058120489,-0.0039094816893339,-0.0125170024111866,0.0028995675966143
1783204230934690300,2.120690185546875,-0.0003436988711357,0.0137556997604668,-0.0120212771832942,-0.0069241393357515,-0.0089215096086263,0.000225658994168
1783204230944627000,2.130626953125,-0.0025388708278536,0.0064396776586771,-0.0144154788434505,-0.0137974917888641,-0.0039379349909722,0.0007122182287275
1783204230954565000,2.140565185546875,0.0005965045884251,0.0032297757014632,-0.0376624989181757,-0.016972828656435,-0.0021544052287936,-0.0018962885951623
1783204230964502000,2.150501953125,0.0025613749206066,-0.0134980717375874,-0.0583949058234691,-0.0130550516769289,0.0019407379440963,0.000221989583224
1783204230974439200,2.160439208984375,-0.0049842181533575,-0.0145205466531217,-0.0622656097769737,-0.007942572236061,0.0004419395700097,-7.59824179112e-05
1783204230984376300,2.170376220703125,-0.0141097738951444,-0.0166809395574033,-0.0735340227663517,-0.0012921262532472,-0.0011969697661697,0.0008574556559324
1783204230994313200,2.180313232421875,-0.0197553785666823,0.0007649930231273,-0.0761585260510444,0.0004661316052079,0.0003489549271762,-0.0006127043161541
1783204231004251100,2.190251220703125,-0.0169023272231221,-0.0135598849274218,-0.0543505988687276,0.00173672568053,0.0043154670856893,-0.0035397845786064
1783204231014189000,2.20018896484375,-0.0240147895768284,-0.0031216391518712,-0.0553325956434011,-1.83414667844e-05,-0.0013024033978581,-0.0040089022368192
1783204231024126000,2.2101259765625,-0.0126131055966019,-0.0023185060754418,-0.0645592736721038,-0.001005308702588,-0.0014976128004491,-0.0047455322928726
1783204231034063000,2.22006298828125,-0.0207473122134804,-0.0063116673648357,-0.0664040247559547,-0.0002973740920424,0.0087220193818211,-0.0046346937306225
1783204231044001000,2.2300009765625,-0.0113201431766152,0.0032587095350027,-0.0334510187029838,0.0049154972657561,0.0124666895717382,-0.0021009622141718
1783204231053938200,2.239938232421875,-0.0057820905327796,0.0191004217892885,-0.0517383705437183,0.0076045570895075,0.0032163832802325,-0.0042790845036506
1783204231063875000,2.249875,0.0130348381400108,0.0172946875415742,-0.0533662640064954,0.0091462610289454,-0.0014524045400321,-0.0008065889123827
1783204231073812000,2.25981201171875,0.019752163696289,-0.0079322543039917,-0.0320224472045898,0.0092822825536131,-0.002017443999648,0.0023814041633158
1783204231083749000,2.2697490234375,0.0159571553274989,0.0104192488141357,-0.0063256958901882,0.0050880704075098,0.0004161526449024,0.0005680576432496
1783204231093687000,2.27968701171875,0.0279962604284286,0.026788930465281,0.0085597385525703,-0.0010813223198056,0.0004956545308232,-0.0008085470180958
1783204231103624200,2.289624267578125,0.0264127906292676,0.0180390761680901,0.021533201894164,-0.0107520585879683,0.0009723603725433,0.0012383586727082
1783204231113560800,2.299560791015625,0.0171726685971021,0.0176386786736547,0.018666706547141,-0.0211756154894828,0.0022012062836438,0.0037663751281797
1783204231123498000,2.309498046875,0.0211135151773691,0.0090085052333772,0.0094511344343423,-0.0224560648202896,-0.0024297647178173,0.0040739704854786
1783204231133435100,2.31943505859375,0.0234682616099715,-0.0014444997198879,-0.0226589910537004,-0.0205441061407327,-0.0080275712534785,0.0012936706189066
1783204231143373000,2.329373046875,0.0115463531479239,0.001589753409475,-0.0440764576137065,-0.0198631379753351,-0.0038679800927639,0.0048308810219168
1783204231153310000,2.33931005859375,0.0027066286101937,-0.0010648527525365,-0.0492857166945934,-0.0146360918879508,-0.0028886920772492,0.0037920700851827
1783204231163247000,2.3492470703125,-0.0035690906584262,0.0058988487802445,-0.0586871667683124,-0.0123947765678167,-0.0007866588421165,0.0045633213594555
1783204231173184000,2.35918408203125,-0.0049412557944655,0.0054208560049533,-0.0818044229835271,-0.0064855460077524,-0.0028820782899856,0.0044593708589673
1783204231183122000,2.369121826171875,-0.0115209264457225,-0.002005640733987,-0.081994977119565,-0.0014005061239004,0.0019803214818239,0.0057414164766669
1783204231193059000,2.37905908203125,-0.0176145671457052,-0.0075213354155421,-0.0718570294648408,0.0002076271921396,0.00121661555022,0.0034528709948062
1783204231202996000,2.388995849609375,-0.0108437578365206,-0.0157161861784756,-0.0689934567272663,0.0060255685821175,0.0015902570448815,0.0049881837330758
1783204231212933000,2.39893310546875,0.0103948450252413,-0.0124193365901708,-0.071666475328803,0.0050122132524847,0.0038615351077169,0.0039567318744957
1783204231222871000,2.40887109375,0.0072869421377778,-0.0119851829566061,-0.0583113191932439,0.0043480210006237,0.0087676104158163,0.002418490126729
1783204231232808200,2.41880810546875,-0.0101288875654339,0.0104695176966488,-0.035668110230565,-0.0021455092355608,0.019575560465455,1.93365849554e-05
1783204231242744800,2.428744873046875,-0.0163014387205243,0.0158262224242091,-0.0159200381875038,-0.0046661915257573,0.0180991049855947,0.0011919264215976
1783204231252682000,2.438681884765625,-0.0079153031691908,0.0070467036411166,-0.0153384389072656,-0.0043142857030034,0.0115428026765584,0.0010105676483362
1783204231262619100,2.448619140625,0.0167535664021968,0.0073415949344635,-0.0080482818990945,-0.0059611843898892,-0.0019913823343813,0.0007365283090621
1783204231272557000,2.45855712890625,0.0245168938800692,0.0012093757897615,-0.0139554601162672,-0.0091454172506928,-0.0056645921431481,0.0019657528027892
1783204231282494000,2.468493896484375,0.0223366272315382,0.0107107791066169,-0.016298223850131,-0.006862555630505,-0.0031151478178799,0.0099432524293661
1783204231292431000,2.47843115234375,0.0082642627373337,0.0158776603505015,-0.0116395843893289,-0.0023511173203587,0.0047798817977309,0.0105021642521023
1783204231302368000,2.488367919921875,-0.002359130346775,0.0028717560440301,-0.0089262337774038,0.0013610627502202,0.0072118807584047,0.0082975998520851
1783204231312306000,2.498305908203125,-0.0184755678892135,0.0036693361625075,-0.0227916775226593,-0.0078024556860327,0.0032458121422678,0.0040824394673109
1783204231322243000,2.5082431640625,-0.0157484810128808,-0.0233149707444012,-0.0156610949903726,-0.0103417793288826,-0.0044485931284725,0.0068875472061336
1783204231332180000,2.518179931640625,-0.0144289228469133,-0.0293763166099786,-0.0354161812961101,-0.0121641093865036,0.0011427137069404,0.0011399067007005
1783204231342117000,2.5281171875,-0.0267173265337944,-0.0240422621056437,-0.0395960973292589,-0.0148179503157734,0.0009997021406888,-0.0045944117009639
1783204231352054000,2.538053955078125,-0.0237546773359179,-0.011163783571124,-0.0404565135508775,-0.0158372968435287,0.0054395459592342,-0.0055340654216706
1783204231361992200,2.5479921875,-0.0142032973974943,0.0064678808398544,-0.0635778614193201,-0.017866626381874,0.0042621623724699,-0.0010951086878776
1783204231371928800,2.5579287109375,-0.0134288058936595,-0.0090652038566768,-0.0772626879006624,-0.0100448140874505,0.0066295345313847,0.0001724655739963
1783204231381866000,2.567865966796875,-0.0038616438642144,0.0063078679725527,-0.0859621271848678,0.0032787155359983,0.0101765990257263,-0.0012664403766393
1783204231391803100,2.57780322265625,0.0094473350420594,0.0066550739750266,-0.0814396813243627,0.0108964210376143,0.005459607578814,-0.0003005119506269
1783204231401741000,2.587740966796875,0.0222796363472938,0.0018029577687382,-0.0781634361326694,0.0129252169281244,0.0178305227309465,0.0027679824270308
1783204231411678000,2.597677978515625,0.0212929633975028,0.0038987610042095,-0.0396954660505056,0.0132084134966135,0.0272124409675598,0.0043991710990667
1783204231421615000,2.607614990234375,0.0076379475325345,0.0213517078474164,-0.0197328744739294,0.0084448177367448,0.0244842991232872,0.0060529941692948
1783204231431552000,2.617552001953125,0.0007899813339114,0.008821312098205,-0.0269330151110887,0.0041749197989702,0.0161316283047199,-0.0016183758853003
1783204231441490000,2.627489990234375,0.0070779755622148,-0.0013422083891928,-0.0101478845268487,-0.0005316846072673,0.0071863355115056,-8.41286964714e-05
1783204231451427000,2.637427001953125,0.0071378890559077,-0.0033431729480624,0.0140355396151542,-0.0047385720536112,-0.0014607510529458,0.0002196009736508
1783204231461364000,2.647364013671875,0.0131809686124324,0.0040513212174177,-0.0028758476972579,-0.001837589778006,-0.0089354449883103,0.0016686269082129
1783204231471301000,2.657301025390625,0.0175897249653935,0.0058368894599378,-0.0015583353579044,-0.0036674486473202,-0.0089242598041892,0.001223612576723
1783204231481239000,2.667239013671875,0.015970014809072,0.0217360309898853,-0.0077478376477956,-0.004372919909656,-0.003761189058423,0.0042015593498945
1783204231491176200,2.67717626953125,0.0218012051805853,0.0191531748898327,-0.0108013799995183,-0.0071215275675058,0.007356280926615,0.0068939644843339
1783204231501112800,2.68711279296875,0.022031214544177,0.0055500353425741,-0.027872341787815,-0.0112640745937824,0.0139947421848773,0.0081216813996434
1783204231511050000,2.697050048828125,0.0063739189460873,0.0007223229251801,-0.0439110379189252,-0.0119177624583244,0.0154594453051686,0.0087695503607392
1783204231520988000,2.70698779296875,-0.0093663787603378,-0.0098103231355547,-0.040677462825179,-0.0142038203775882,0.0166741125285625,0.0057567162439227
1783204231530925000,2.716925048828125,-0.0265545371875166,-0.0143663790047168,-0.0442775331437587,-0.0127055821940302,0.013392960652709,0.0025691711343824
1783204231540862200,2.7268623046875,-0.034905309164524,-0.0130136492215096,-0.0495733014643192,-0.011919948272407,0.014872346073389,0.0015481151640415
1783204231550799000,2.736799072265625,-0.0355634808123111,-0.016032412520796,-0.0623597178012132,-0.0112313069403171,0.0131548307836055,-0.0031529846601188
1783204231560736000,2.746736083984375,-0.024065935242176,-0.0077016604185104,-0.0456388846248388,-0.0059883408248424,0.0131793320178985,0.0009908941574394
1783204231570674000,2.756673828125,-0.0010468787044286,-0.0031830139502882,-0.0471761771947145,-0.0033975113183259,0.0105855949223041,-0.0002649573143571
1783204231580611000,2.766611083984375,0.0179819391533732,-0.0008931494474411,-0.05164192443192,-0.0030142832547426,0.0128359654918313,-0.0002654900308698
1783204231590548000,2.7765478515625,0.0120911275491118,-0.0027551439270377,-0.0444154803097248,-0.0062689306214451,0.0186959374696016,-0.0004757062997668
1783204231600485000,2.786485107421875,0.005615501794219,0.0150566993564367,-0.0317991598427295,-0.0102652693167328,0.026920311152935,0.0015424373559653
1783204231610423000,2.796423095703125,0.0056824295505881,0.0047539165288209,-0.0263619372248649,-0.0128056602552533,0.0267294738441705,0.0028880860190838
1783204231620360200,2.806360107421875,-0.0049389177069067,0.0050467619955539,-0.038700609794259,-0.0113800698891282,0.0150456530973315,0.0022292200010269
1783204231630296800,2.816296875,-0.0063280339777469,-0.0070497723810374,-0.0313882409542798,-0.0079135596752166,0.0057640853337943,0.0030602980405092
1783204231640234000,2.82623388671875,0.0051692193314433,0.0063631052911281,-0.0367851315617561,-0.0029486287385225,-0.0068901912309229,0.000955868512392
1783204231650172000,2.836171875,0.0126069681167602,0.0079953826680779,-0.0466466003626585,0.004831469617784,-0.0124156521633267,0.0051070693880319
1783204231660109000,2.846109130859375,0.0122469026327133,0.0098871877640485,-0.03966857804358,0.0096605792641639,-0.0063873212784528,0.0064809946343302
1783204231670046200,2.856046142578125,0.0117719785973429,0.0161607150755822,-0.0294207402735948,0.0065741827711462,0.0013449653051793,0.0066033657640218
1783204231679983000,2.865983154296875,0.0080450670287013,0.0105349841482937,-0.0164946232050657,0.0069366390816867,0.0028666956350207,0.007679016329348
1783204231689921000,2.875921142578125,-0.0031564182043075,-0.0090963296473026,-0.0175941088795661,-0.0001903735101222,0.0009937714785337,0.0066945860162377
1783204231699858000,2.88585791015625,-0.0016682254731655,-0.006057400342822,-0.0134732295572757,-0.004188310354948,-0.0061075477860867,0.0038537923246622
1783204231709795000,2.895795166015625,-0.0097439799010753,-0.0177560214430093,-0.0348287367969751,-0.0085818348452448,-0.0053802160546183,0.0027174653951078
1783204231719732000,2.90573193359375,-0.0038593057766556,-0.0245024269632995,-0.0415256040871143,-0.0108322063460946,0.0033003573771566,0.0035254682879894
1783204231729670100,2.915670166015625,0.0063040685802698,-0.0086398180514574,-0.0476215828746557,-0.0067828698083758,0.0030124695040285,0.00415157712996
1783204231739607000,2.92560693359375,0.0042585342273116,-0.000535129790008,-0.0529588522493839,-0.0042137177661061,0.0050149005837738,0.0064501520246267
1783204231749544200,2.935544189453125,0.0096282445669174,0.0089694883972406,-0.0642886400371789,-0.0022519268095493,0.0067376773804426,0.0066120279952883
1783204231759480800,2.945480712890625,0.0153109663784503,0.0127156891882419,-0.0507569582909345,0.0018485421314835,0.0046889074146747,0.0091912997886538
1783204231769419000,2.9554189453125,0.0336015330895781,0.0143140642955899,-0.0532031823992729,0.0045314570888876,0.0004090941511094,0.0112259965389966
1783204231779356000,2.96535595703125,0.0177270876094698,0.0040834699213504,-0.0562251605689525,0.0023021250963211,3.19904647767e-05,0.0124204233288764
1783204231789293000,2.97529296875,-0.0036360184147953,0.0087558456465601,-0.0400590386658906,0.0038049798458814,0.003046948229894,0.0101854959502816
1783204231799231000,2.98523095703125,-0.0089423081293702,0.0183662622958421,-0.0318698869913816,0.0037895329296588,0.0098973978310823,0.0094968024641275
1783204231809168100,2.995168212890625,0.0029459903240203,0.0061202364459633,-0.0380038597017526,0.0024445764720439,0.0088857281953096,0.0070593426935374
1783204231819105000,3.00510498046875,0.0050976153999567,0.0200862179562449,-0.0411585243403911,-0.000565861351788,0.0170528441667556,0.0066521461121737
1783204231829042000,3.0150419921875,0.005656418326497,0.0081222239181399,-0.0146276602894067,0.004688398912549,0.0114493630826473,0.012578384950757
1783204231838979800,3.024979736328125,-0.003817512461543,0.0036576457247138,-0.0389957933485507,0.0081350617110729,0.0004883240908384,0.0113807618618011
1783204231848917000,3.0349169921875,-0.0015177110865712,-0.0083566171959042,-0.0322387203037738,0.008314449340105,-0.0030596144497394,0.0125736836344003
1783204231858854100,3.044854248046875,-0.0125344874024391,-0.0279310862377285,-0.0065980830907821,0.0076563823968172,-0.0045565776526927,0.0093893427401781
1783204231868791000,3.054791015625,-0.0326610373690724,-0.0179195414416491,-0.0029985972940921,0.0033268211409449,0.001490460243076,0.0063516069203615
1783204231878729200,3.064729248046875,-0.0383297306552529,-0.0138975924491882,0.0064560442715883,-0.0013158675283193,0.0062340823933482,0.0014162370935082
1783204231888666000,3.074666015625,-0.0395823610648512,-0.0154386844113469,-0.0004436521142721,-0.0087764160707592,0.0065037445165216,0.0001856333110481
1783204231898603000,3.08460302734375,-0.0361830740153789,-0.0101589904427528,-0.0133428811758756,-0.0093631101772189,-0.0031174579635262,-0.0009973428677767
1783204231908540000,3.094539794921875,-0.026046587665379,-0.0241496680028736,-0.032303602233529,-0.0029990719631314,-0.0051220967434346,-0.0014766186941415
1783204231918478000,3.10447802734375,-0.0193412448078393,-0.02358765020594,-0.0182224699109792,0.000822564586997,-0.0100825019180774,-0.0035759885795414
1783204231928415000,3.1144150390625,-0.0271647780403494,-0.0180254860341548,-0.0330593890368938,-0.0021999273449182,-0.0110783502459526,-0.003921846859157
1783204231938352000,3.12435205078125,-0.0384516034692525,-0.0139531220287084,-0.0220733001202344,-0.0030827661976218,-0.0053099431097507,-0.0097850617021322
1783204231948289000,3.1342890625,-0.0235369429320096,-0.007183043371886,-0.0041752398580312,-0.0071501163765788,0.0007994342595338,-0.0101745063439011
1783204231958227000,3.14422705078125,-0.0076449617952108,0.00662993953377,-0.0107978728681802,-0.0096415029838681,0.0024029233027249,-0.0094780893996357
1783204231968163800,3.154163818359375,0.0081882748916745,0.0089482994787395,-0.0139379244595766,-0.0172498412430286,0.0051348367705941,-0.0109073193743824
1783204231978101000,3.16410107421875,0.0259033798024058,0.0079480363950133,-0.0073743281602859,-0.0166623480618,0.001790705602616,-0.0058177527971565
1783204231988038100,3.1740380859375,0.0376060925558209,0.0174888949394226,-0.0345288770675659,-0.0158016271889209,-0.002681640908122,-0.0036142040044069
1783204231997976000,3.18397607421875,0.0398585476577281,0.0155471132218837,-0.0263987621039152,-0.0134750884026288,-0.0070747910067439,-0.0031295088119804
1783204232007913200,3.193913330078125,0.0401473014712333,0.0229971369668841,-0.0420773927509784,-0.0122596267610788,-0.0076607456430792,-0.0032859311904758
1783204232017849000,3.20384912109375,0.0345545960307121,0.0187204825609922,-0.0747077427208423,-0.0097655765712261,-0.0072247870266437,0.0038129908498376
1783204232027786000,3.213785888671875,0.0265735341489315,0.0211718212358653,-0.0686865827351808,-0.0079650534316897,-0.0046637170016765,0.0042945435270667
1783204232037724000,3.223723876953125,0.0092310619428753,0.012428396679461,-0.073102645611763,-0.0046347687020897,-0.0064312573522329,0.0012273807078599
1783204232047661000,3.2336611328125,0.0079272858679294,0.0167091427385807,-0.1083019692867994,0.0018437467515468,-0.0101151904091238,0.0031939374748617
1783204232057598200,3.24359814453125,0.0177425774395465,0.0208139477089047,-0.0994154829978942,0.0086276177316904,0.0005225408822298,0.0050978315994143
1783204232067536100,3.2535361328125,0.0132756611585617,0.0034969022050499,-0.0850350754678249,0.0122918160632252,0.0040541160851716,0.0100016882643103
1783204232077473300,3.263473388671875,0.0148711136564612,-0.0004430675923824,-0.0940787981450557,0.017989382147789,0.0030628878157585,0.0118776187300682
1783204232087410000,3.273409912109375,0.0147027713522315,0.0023522622145712,-0.0848953747361898,0.022047571837902,0.0047141523100435,0.0107315760105848
1783204232097347000,3.28334716796875,-0.0023079846814274,-0.007887976770848,-0.0534907671689987,0.0194467287510633,0.0053948564454913,0.0121124256402254
1783204232107285000,3.293284912109375,-0.0267237562745809,-0.0166267251521348,-0.020867431461811,0.0165805872529745,0.0090582575649023,0.0087788579985499
1783204232117222100,3.30322216796875,-0.0305421455189585,-0.0225872409917414,0.0098813425451517,0.0072946767322719,0.0085477288812398,0.0050333887338638
1783204232127159000,3.313158935546875,-0.042191959041357,-0.0266964298762381,0.0355687415093183,-0.0007445411756634,0.0030134483240544,-0.0016987312119454
1783204232137096200,3.32309619140625,-0.040278526635468,-0.0180991357922554,0.0315443082988262,-0.0055592693388462,-0.005591757595539,-0.0036476324312388
1783204232147034000,3.3330341796875,-0.0321139248803257,-0.0030139409936964,0.0235813665956258,-0.0068708769977092,-0.0191935859620571,-0.0017032586038112
1783204232156971000,3.342970947265625,-0.0143459207385778,-0.0014203881919384,-0.001665302863717,-0.0022521559149026,-0.017337629571557,-0.0032300488092005
1783204232166908000,3.352907958984375,0.0060658759102225,0.0181293848000466,0.0003688333123922,-0.0010283617302775,-0.0064871865324676,-0.000586463836953
1783204232176845000,3.362844970703125,0.0036173137143254,0.0301557765498757,0.0007879355072975,-0.003924548625946,0.004637636244297,-0.0008261483162641
1783204232186783000,3.372782958984375,-0.0048670215144753,0.0284957343831658,-0.0176151516675949,-0.006363870576024,0.0112240277230739,0.0056589138694107
1783204232196720000,3.38272021484375,0.0019365210205316,0.0177558753125369,-0.0142827923744916,-0.0109604857861995,0.0055094161070883,0.0018396750092506
1783204232206657300,3.3926572265625,-0.0110603231966495,-0.0019559563733637,-0.0373439344882965,-0.0098647102713584,0.0033304498065263,-0.0030857953242957
1783204232216595200,3.40259521484375,-0.0248354583099484,-0.0209347976095974,-0.0557043515652418,-0.0064824968576431,0.0008848691359162,-0.0052560050971806
1783204232226532000,3.412531982421875,-0.0278951381415128,-0.0198243521496653,-0.082142276635766,-0.0010231239721179,-0.0056635676883161,-0.0053670173510909
1783204232236469000,3.422468994140625,-0.0134264678061008,-0.0228038063518702,-0.0876776989310979,0.0073866066522896,-0.0024640462361276,-0.0068333535455167
1783204232246406100,3.43240625,0.0105482820212841,-0.0112098146699368,-0.0928244141697883,0.0083530694246292,0.0007635727524757,-0.0079989768564701
1783204232256344000,3.442343994140625,0.0250938169851899,0.0095668697685003,-0.0838823983013629,0.0087972842156887,0.0051649790257215,-0.0002694181166589
1783204232266281200,3.45228125,0.0410223307400941,0.013549217402935,-0.0566331568479537,0.0079608280211687,0.008299428038299,0.0044287103228271
1783204232276218000,3.462218017578125,0.0414852720767259,0.0116251174725592,-0.0591974543780088,0.007411683909595,0.0048125516623258,0.0043986164964735
1783204232286155000,3.472155029296875,0.0288046542018651,0.0112149292364716,-0.0615852262973785,0.0149839846417307,0.0036651345435529,0.0095797972753643
1783204232296093000,3.482093017578125,0.0173614691674709,0.0169052498325705,-0.0299579158902168,0.0178575366735458,0.0053517143242061,0.0091811222955584
1783204232306030000,3.492030029296875,0.0023912790507078,0.0045697921335697,-0.0103811087608337,0.0191873293370008,0.0003964421339333,0.0095333671197295
1783204232315967000,3.501967041015625,0.0015817162334918,0.0016457213804125,-0.0006692775636911,0.0128474086523056,-0.0033543538302183,0.0103773232549428
1783204232325905200,3.5119052734375,0.0145128017380833,-0.0014630582898855,0.0245908358991146,0.0044938968494534,-0.0073742112144827,0.006985037587583
1783204232335842000,3.521842041015625,0.0045846974417567,0.003489303420484,0.0478612368494272,-0.0032575000077486,-0.0056114653125405,0.0065791718661785
1783204232345779200,3.531779296875,0.0041018823608756,0.0117237555414438,0.0542909776359796,-0.0128657734021544,-0.0035681584849953,0.0075875269249081
1783204232355716000,3.541716064453125,0.0145247844368219,0.0168380298152565,0.0434720619797706,-0.024277951568365,-0.0054459534585475,0.0101020839065313
1783204232365654000,3.551654052734375,0.0163455701231956,0.0036083997555077,0.0225420866757631,-0.0222253501415252,-0.0109432842582464,0.0086175072938203
1783204232375591000,3.5615908203125,0.0100137367531657,-0.0083113167494535,-0.0024555764585733,-0.0190039873123168,-0.0203370526432991,0.0088057927787303
1783204232385528000,3.571528076171875,-0.0157537417098879,-0.014652356339246,-0.0523299066960811,-0.0124684609472751,-0.0221931487321853,0.0102561507374048
1783204232395466000,3.581466064453125,-0.0295411517828702,-0.010272387689352,-0.0616641367524862,-0.0073679760098457,-0.024647518992424,0.0084848823025822
1783204232405403100,3.591403076171875,-0.0429687886327505,-0.0085151687584817,-0.0812935508519411,-0.0002078562974929,-0.0258507914841175,0.0088320672512054
1783204232415340300,3.60134033203125,-0.0477834954380989,-0.0167526896193623,-0.1177238776266574,0.0088322442024946,-0.0125048924237489,0.0057577150873839
1783204232425277000,3.61127685546875,-0.0322635624840855,-0.0201987384200096,-0.1117220068633556,0.0105318594723939,0.0022755055688321,-0.0003233905881643
1783204232435215000,3.621215087890625,-0.0188791802540421,-0.0034971944659948,-0.0847059896439313,0.0116450600326061,0.013577695004642,-0.0006669382564723
1783204232445152000,3.631152099609375,-0.0100032153591513,0.0017149872243404,-0.0749602561771869,0.0097042750567197,0.0221630539745092,-0.0013566978741437
1783204232455089200,3.641089111328125,-0.0006225158125162,0.0045329672545194,-0.0406225177675485,0.0093561997637152,0.0192586109042167,-0.0029519312083721
1783204232465026000,3.651026123046875,0.0019826982498168,0.0081812606289982,-0.0212695825219154,0.0088827386498451,0.0097925923764705,-0.001527007902041
1783204232474964200,3.660964111328125,0.0172243987843394,0.0066891223751008,-0.0108522334039211,0.007631585933268,-0.0004643066786229,-0.000725929159671
1783204232484901000,3.670901123046875,0.0159483874991536,0.008837240319699,-0.0021463643789291,0.0100360745564103,-0.0038431426510214,0.0020387875847518
1783204232494838000,3.680838134765625,0.0309846285894513,0.013515607394278,0.0055102878540754,0.0097966557368636,-0.0069792810827493,0.0008749864064157
1783204232504776000,3.69077587890625,0.031466274626553,0.0214532685257494,0.0120522568434476,0.0067274346947669,-0.0076653747819364,0.0028503865469247
1783204232514713000,3.700713134765625,0.0239177589431405,0.0262491245001554,0.0144680858135223,4.10359352827e-05,-0.0102891214191913,0.0046770479530096
1783204232524650000,3.71064990234375,0.018148235630989,0.0248554781846702,0.0069961424976587,-0.0065956329926848,-0.0095871817320585,0.0078303217887878
1783204232534588200,3.720588134765625,0.0111661216586828,0.0174231362268328,-0.0119207394182682,-0.0092761060222983,-0.0082529382780194,0.007802358828485
1783204232544525000,3.730525146484375,0.0024792495951056,-0.0041064124055206,-0.0309504340589046,-0.0075411079451441,-0.0047759707085788,0.0073916092514991
1783204232554462200,3.740462158203125,-0.0110243751004338,-0.0056681087642908,-0.0406973365694284,-0.0061868904158473,-0.0023335856385529,0.0025995171163231
1783204232564399000,3.750399169921875,-0.0169032040059566,-0.0055783846542239,-0.0497965888261795,-0.0058808224275708,-0.0017006155103445,0.0100543713197112
1783204232574337000,3.7603369140625,-0.0250613760203123,-5.552957952e-06,-0.0443821625620126,-0.0052382024005055,-0.0018577417358756,0.0058529684320092
1783204232584274200,3.770274169921875,-0.0249511936441063,-0.0043415363356471,-0.038933834028244,-0.0023047477006912,-0.0023296680301427,0.0026550432667136
1783204232594211000,3.780211181640625,-0.0256727859169244,-0.0075682432971894,-0.0588075782775878,-0.0020371004939079,-0.0055960351601243,0.0018507684580981
1783204232604148200,3.790148193359375,-0.0348527021944522,-0.0138765496611595,-0.0637947190403938,0.0055920672602951,-0.0024678613990545,0.0016513857990503
1783204232614086100,3.800086181640625,-0.0356339157000184,-0.005925006134808,-0.055524903345108,0.0095793521031737,-0.0044596390798687,0.0010242112912237
1783204232624023000,3.81002294921875,-0.0214227272570133,0.0098971246361732,-0.0562479569226503,0.0101510901004076,-0.001699193380773,-0.0014135129749774
1783204232633960000,3.8199599609375,-0.0057420507833361,-0.0020224457383155,-0.0512555554628372,0.0099401678889989,0.003298228373751,-0.0027624042704701
1783204232643898000,3.829898193359375,0.0133177467346191,0.0061076692253351,-0.0327770649641752,0.0055904183536767,0.0073625985532999,0.0005728953983634
1783204232653835000,3.8398349609375,0.0101256726950407,0.0153597739562392,-0.0204547590076923,0.0038865283131599,0.0063556572422385,0.0012605234514921
1783204232663772200,3.849772216796875,0.0080637717291712,0.0128594815731048,-0.0154909991204738,0.0041319476440548,0.0050031780265271,0.0005214971024543
1783204232673709000,3.859708984375,0.0103553897976875,0.0113061146512627,-0.0112929629087448,0.0028152810409665,0.0053659006953239,0.0001177617814391
1783204232683647200,3.869647216796875,0.011296177779138,0.0173242058970034,-0.0055979661375284,-0.0012304196134209,0.0075617488473653,0.002863434376195
1783204232693584000,3.879583984375,0.0061129299223423,0.0132405898451805,7.71568894386e-05,0.0029044039547443,0.0051324130035936,0.0034983323421329
1783204232703521000,3.88952099609375,0.0083487261503934,0.0073167527541518,-0.006408113476634,0.0010917363688349,-0.0008906936272978,0.0016429969109594
1783204232713459000,3.899458984375,0.0153214877724647,0.0028923604406416,-0.0035252515166997,-0.0006640860810875,-0.0112376064062118,0.000258153071627
1783204232723396000,3.90939599609375,0.0088689506322145,-0.0001806172639131,-0.009244798207283,-0.0032240645959973,-0.0108923846855759,0.0031275318469852
1783204232733333000,3.9193330078125,0.0001934767454862,-0.0063484922438859,-0.003327098596096,-0.0025865035131573,-0.0100236600264906,0.0054644551128149
1783204232743271200,3.929271240234375,0.0019680852025747,-0.0078153499260544,-0.0325742358684539,-0.0032597118988633,-0.0084222368896007,0.0042699389159679
1783204232753208000,3.9392080078125,0.0087976389616727,-0.0071628773666918,-0.04923603233397,-0.0011952295899391,-0.0040844795294106,0.0043349200859665
1783204232763145000,3.94914501953125,0.0014478607207536,0.000613455723226,-0.0458785385996103,-0.0021070213988423,-0.0011183368042111,0.0024867309257388
1783204232773082000,3.95908203125,0.0023375030368566,-0.007528934200108,-0.0415104065179824,-0.0039347494021058,-0.0009007565677165,0.0071142395026981
1783204232783020000,3.96902001953125,-0.0082891049176454,-0.0149169986248016,-0.0645773938506841,-0.0019444162026047,-0.005611602216959,0.0051408810541033
1783204232792957200,3.978957275390625,-0.0184852125003933,0.0003945522755384,-0.0693003307193517,0.0051422556862235,-0.0104660121724009,0.0023775857407599
1783204232802894000,3.98889404296875,-0.022161855186522,0.0025258652158081,-0.0572013121247291,0.0101890582591295,-0.0101774428039789,0.0042951498180627
1783204232812832000,3.99883203125,-0.0195616095602512,0.0039916999846696,-0.0405348394840955,0.0170387085527181,-0.0115806628018617,0.0020772696007043
1783204232822769200,4.00876904296875,-0.0089256492555141,0.0028600656062364,-0.0403261651694774,0.0135553888976573,-0.0122096519917249,0.0026810101699084
1783204232832706000,4.0187060546875,-0.0001145662903785,0.0046168461456894,-0.022765958559513,0.0107023436576128,-0.0060937027446925,-0.0006932150572538
1783204232842643000,4.028642822265625,0.0058387891560792,0.0184377200968563,-0.0209814132302999,0.0033253747969865,0.0020137685351073,0.0030246446840465
1783204232852581000,4.0385810546875,0.0151408705085515,0.0164800101578235,-0.0155699095755815,-0.0059125991538167,0.0037205885164439,0.003167656250298
1783204232862518000,4.04851806640625,0.0024348259314894,0.0075808105178177,-0.0115150812268257,-0.0092403721064329,0.0084786918014287,0.0025686230510473
1783204232872455200,4.058455078125,-0.0107224695444107,0.0049336570098996,-0.0174491474509239,-0.0069034472107887,0.0038178940303623,0.0025832704268395
1783204232882393000,4.06839306640625,-0.0113999304145574,0.0073724284641444,-0.0408680169612169,0.0006600487977266,-0.0030978606082499,0.002506838645786
1783204232892330200,4.078330322265625,0.0014256488889455,-0.0046416883260011,-0.0457411759555339,0.007021008990705,-0.0131361130625009,0.0079146530479192
1783204232902267000,4.088266845703125,0.0079629417032003,-0.0088408935815095,-0.0483224246203899,0.0106785111129283,-0.0142675675451755,0.0079920617863535
1783204232912205000,4.098205078125,0.0009925181686878,-0.0088346099711954,-0.0330319165080785,0.0137163791805505,-0.0077931568957865,0.0101036820560693
1783204232922142000,4.108141845703125,-0.0094292148634791,-0.0042173254340887,-0.0273462720870971,0.0071678208187222,-0.0033432836644351,0.0073326188139617
1783204232932079000,4.1180791015625,-0.0138283266052603,-0.0007502338454127,-0.0272311212748289,0.006353692151606,0.0023470926098525,0.0042404220439493
1783204232942016000,4.12801611328125,-0.0277189047917723,-0.0098489015802741,-0.0144493811130523,-0.001198124140501,0.0070295622572302,0.0012165803927928
1783204232951954200,4.1379541015625,-0.0391150358140468,-0.0055380526438355,-0.0094248309493064,-0.0032314471900463,0.0095585007220506,-0.0025296881794929
1783204232961891000,4.14789111328125,-0.0382721552491188,-0.0176676125071942,-0.0070826517373323,-0.0033340994268655,0.0063507901504635,-0.0047553358599543
1783204232971828000,4.157827880859375,-0.0175964469671249,-0.0117675946831703,-0.0112169750630855,-0.0026464704424142,-0.0021241870708763,-0.0058163395151495
1783204232981766000,4.167765869140625,-0.0008744447469711,0.005013882639259,-0.0234042564630508,-0.0031660534441471,-0.0124513935297727,-0.002607230329886
1783204232991703000,4.177703125,0.0104115038990974,0.005714285993576,-0.0246241536468267,0.0025573456659913,-0.0146580897271633,-0.0029182876460254
1783204233001640200,4.18764013671875,0.00537117164433,0.0030782384015619,-0.006818447843194,0.0012166388332843,-0.0063845282420516,0.0014211554080247
1783204233011576600,4.19757666015625,0.0124561614692211,0.0189417240962386,-0.0226946468889713,0.0030978955328464,-0.0008209184743463,-0.0009570473339408
1783204233021514800,4.2075146484375,0.0069052493438124,0.0270139713928103,-0.0331260245323181,-0.0081022949889302,0.0111438650637865,-0.0028769201599061
1783204233031451600,4.21745166015625,0.0036626141607761,0.0025616671815514,-0.0085527242898941,-0.0140520622953772,0.0168273169547319,0.000690383836627
1783204233041388800,4.227388916015625,0.0084530633077025,-0.0087548227332532,-0.0406786318689584,-0.0125039629638195,0.0098022865131497,0.0010397462174296
1783204233051326700,4.23732666015625,0.0059065936952829,-0.0086835110627114,-0.071480012845993,-0.0079321134835481,0.0050565334968268,-0.0035115960054099
1783204233061264000,4.247263916015625,-0.0020502105280756,-0.0194987734571099,-0.0702747287094593,0.0005706772208213,-0.0033179419115185,-0.0018408173928037
1783204233071200500,4.257200439453125,-0.0116816699653863,-0.0037441549643874,-0.068270403149724,0.0050599677488207,-0.0094141839072108,-0.0008328109979629
1783204233081138700,4.267138671875,-0.0221437350079417,-0.0065431380331516,-0.092090254676342,0.0116283120587468,-0.0089637814089655,0.00061901146546
1783204233091075600,4.27707568359375,-0.0049573301464319,-0.0070500646419823,-0.080038582354784,0.0188484080135822,0.0011527687311172,-0.0006190922576934
1783204233101012700,4.2870126953125,0.0006090718090534,0.0089618896126747,-0.0681201810240745,0.0124650225043296,0.0097383921965956,-0.0010605994611978
1783204233110950700,4.29695068359375,0.0112891635164618,0.0323234759777784,-0.0462573087841272,0.002150067128241,0.0169126819819211,0.003049190621823
1783204233120887800,4.3068876953125,0.0145472885295748,0.0277758956760168,-0.0301233355849981,-0.000682633370161,0.0153404735028743,0.0034438716247677
1783204233130824700,4.31682470703125,0.0086447864875197,0.0064392392672598,-0.0334703079253435,0.0028891982510685,0.0080162482336163,0.004046278540045
1783204233140761600,4.32676171875,0.0018625790014863,0.0005833528459072,-0.0198801739901304,0.0101303104311227,-0.0018107332289218,0.0037481372710317
1783204233150699500,4.336699462890625,-0.0011769348248839,0.0074549921810626,-0.0213870714217424,0.0146025568246841,-0.0095035396516323,0.0020655521657317
1783204233160636700,4.34663671875,-0.0089005148142576,0.0054461365766823,-0.0166144501924514,0.0137691870331764,-0.0123331090435385,0.0051061273552477
1783204233170573800,4.35657373046875,-0.0112444475919008,0.0275474937476217,0.0005395137041807,0.0056303003802895,-0.0013558254577219,0.0027739969082176
1783204233180511700,4.36651171875,-0.0099196287289261,0.0163556531257927,0.0181768772035837,-0.0007984805852174,0.0075187697075307,3.95525712519e-05
1783204233190448600,4.37644873046875,-0.0047615153133869,0.0189215580910444,0.0153045366376638,-0.0123083954676985,0.0114964675158262,0.0008962913416326
1783204233200385800,4.3863857421875,0.0046601007655262,0.0156849142573773,0.0165337861716747,-0.0188571456819772,0.0112056098878383,0.0027239301707595
1783204233210323700,4.39632373046875,0.0027647885382175,-0.0045689153507351,0.0098211367905139,-0.0175279602408409,0.0015298128128051,0.0013028674293309
1783204233220260600,4.406260498046875,0.00393500136137,-0.0131419517762959,-0.0300683905273675,-0.0126212257891893,-0.006876619067043,0.001136862905696
1783204233230197800,4.41619775390625,-0.0202431620836257,-0.0115600894123315,-0.0403203199505805,-0.0043750125914812,-0.0091155376285314,0.0029914884362369
1783204233240134700,4.426134765625,-0.0307388371348381,-0.0334961730189621,-0.0570388150393962,0.0016457103192806,-0.0132708884775638,0.0043951962143182
1783204233250072800,4.43607275390625,-0.0207268539473414,-0.026027882964909,-0.0637362668514251,0.0049078166484832,-0.0144437458366155,0.0009389459155499
1783204233260009700,4.446009765625,-0.0145408587887883,-0.0196983876824378,-0.0535959811091423,0.0011208923533558,-0.0110924243927001,-0.0003758114762604
1783204233269947000,4.45594677734375,-0.0071978025496006,-0.0125970312446355,-0.0473521182835102,-0.0044408533722162,-0.0049849967472255,-0.001723104622215
1783204233279884800,4.465884765625,-0.0052878772750496,0.003064063745737,-0.0463666143774986,-0.0089058792218565,0.0071601853705942,-0.0002936539240181
1783204233289821700,4.47582177734375,0.0012324644044041,0.0077852470487356,-0.0530465305328369,-0.009288310073316,0.0079601984471082,-0.0017197767738252
1783204233299758600,4.485758544921875,0.0063388476327061,0.0045958033576607,-0.062912090986967,-0.0087381862103939,0.0111314300447702,-0.0013028141111135
1783204233309696800,4.49569677734375,-0.0020107553005218,0.0051256724506616,-0.0676595777750015,0.0019501447677612,0.0084546878933906,-0.0025544997770339
1783204233319633700,4.505633544921875,-0.0056572951093316,0.0290524914830923,-0.065942836984992,0.0130002880468964,0.0036155376583337,0.0031779112759977
1783204233329570800,4.51557080078125,0.001068506014347,0.0187419637404382,-0.0548790066570043,0.0161902215331792,0.0014921994879841,0.0031171913724392
1783204233339508700,4.5255087890625,0.0107692312955856,0.0117414373286068,-0.0429933385521173,0.0130561301484704,-0.0043741511180996,0.0013979880604892
1783204233349445600,4.535445556640625,0.0124278121575713,0.0115694417625665,-0.0044984804630279,0.0103293200954794,-0.0052207699045538,0.0027785708662122
1783204233359382500,4.545382568359375,0.0121229839920997,0.0107836982123553,0.0036743045985698,0.0038539934903383,-0.0040697902441024,0.0045342580415308
1783204233369319700,4.555319580078125,0.0107508188560605,0.0086987086318433,0.008200257590413,-0.0030587734654545,-0.0034620575606822,0.0027597937732934
1783204233379257600,4.565257568359375,0.0046948798179626,0.0036415713727474,-0.0204921684086322,-0.0041221287101507,-0.0049809603951871,0.0042352294549345
1783204233389194800,4.57519482421875,0.0036909634724259,-0.0055086804188787,-0.0241366623908281,-0.0034480821341276,-0.007477140519768,0.0027129666414111
1783204233399131600,4.585131591796875,0.0125309802711009,-0.0137254507526755,-0.0545914218872785,-0.0002048462629318,-0.0069310921244323,0.004652015864849
1783204233409069800,4.59506982421875,0.0071837740242481,-0.0039639351949095,-0.0430412693470716,0.0004976959899067,-0.0009440397843718,0.0061172870919108
1783204233419006500,4.60500634765625,-0.0042816228419542,0.0017730010218918,-0.0317512290477752,0.0014961650595068,0.0043081445619463,0.0031692115589976
1783204233428943600,4.614943603515625,-0.0014560440272092,0.0008574936121702,-0.0161421565055847,-0.0010088039562106,0.0033403520938009,0.0046573858708143
1783204233438881500,4.624881591796875,-0.0084299746930599,-0.0084404960870742,-0.0133820441424846,-0.0055136764422059,0.0026765288785099,0.0028980118222534
1783204233448818700,4.634818603515625,-0.015076573100686,-0.019002514372766,-0.0224479786515235,-0.0051877042278647,-0.0049670096486806,0.002970450092107
1783204233458755800,4.644755859375,-0.0147977561593055,-0.0176923085570335,-0.0239963771373033,-0.0053424276411533,-0.0102214496582746,0.0009523541666567
1783204233468693800,4.65469384765625,-0.0188809338197112,-0.003470598720014,-0.0411415732055902,0.0009202631190419,-0.0191757977008819,0.0025750179775059
1783204233478630700,4.664630615234375,-0.0293003287643194,0.0020639467924833,-0.0798100342959165,0.0148158995434641,-0.0100825931876897,0.0027722222730517
1783204233488567600,4.674567626953125,-0.017486264590919,0.0010531623147428,-0.0734112731695175,0.0270917396992445,0.0023623574525117,0.0054604173637926
1783204233498505500,4.68450537109375,0.0183510647267103,0.0245895207248628,-0.0440437243878841,0.027403712272644,0.004216163419187,0.0018951988313347
1783204233508442600,4.694442626953125,0.0195393977284431,0.0313492241181433,-0.0289116217076778,0.0162940695881843,0.0025934993755072,0.0045884540304541
1783204233518379800,4.7043798828125,0.0201040458738803,0.004264233315736,0.033193244549632,-0.0026785917580127,0.0065139573998749,0.0094171222299337
1783204233528316700,4.714316650390625,0.0129746323853731,-0.0035635377004742,0.0675736530572175,-0.024642214179039,0.0145188868045806,0.0031315288506448
1783204233538254800,4.7242548828125,-0.0142687638491392,-0.0048133916310966,0.0551999091744422,-0.0389603972434997,0.0144474701955914,-0.002960761077702
1783204233548191700,4.734191650390625,-0.0158601246938109,-0.0077662500873208,0.0333919819921255,-0.0396477580070495,0.015515930019319,-0.0090777752920985
1783204233558128600,4.744128662109375,-0.014162673126161,0.0052077977761626,0.0113116676092147,-0.036995530128479,0.0042852824553847,-0.0045493394136428
1783204233568066600,4.754066650390625,-0.001978606596589,0.0108225689180195,-0.0156949972599744,-0.0225164610892534,-0.0115759717300534,0.0007439595647156
1783204233578003700,4.764003662109375,0.0113999304145574,0.0160530169174075,-0.0464987163245677,-0.0096505973488092,-0.0221040844917297,0.0057880762033164
1783204233587940600,4.773940673828125,0.0082651395201683,0.001210252572596,-0.0560632480055093,0.001154645346105,-0.0279894024133682,0.006833900231868
1783204233597878800,4.783878662109375,-0.0120446580588817,0.0037558454021811,-0.051074938198924,0.0014118207618594,-0.022425202652812,0.0048885941505432
1783204233607815700,4.793815673828125,-0.0355456528946757,1.53436996042e-05,-0.0519318472892045,-0.0043821521103382,-0.0105989016592502,0.0013018487952649
1783204233617752800,4.8037529296875,-0.0310442498221993,-0.0026091595850884,-0.0528565609186887,-0.0100709097459912,0.0044129290618002,-0.0030045278836041
1783204233627690800,4.813690673828125,-0.0332967049241065,-0.0179559279292821,-0.0738081635326147,-0.0117734679952263,0.0082228472456336,-0.0060714241117239
1783204233637627600,4.823627685546875,-0.0446086647942662,-0.0379142817221581,-0.1058686046600341,-0.007383014075458,0.0084276031702756,-0.0039867907762527
1783204233647564500,4.833564453125,-0.0235302209302783,-0.0221130476087331,-0.1062093809217214,0.0009971549734473,0.0093157673254609,-0.0021193823777139
1783204233657502700,4.843502685546875,-0.0192439219132065,-0.0264992998689413,-0.0924970819115638,0.0119768856093287,0.0047640576958656,-0.0068744122982025
1783204233667439600,4.853439697265625,-0.0180620186522603,-0.0186681678518652,-0.0844827022820711,0.0181522238999605,0.0006742412224411,-0.0079234316945075
1783204233677376800,4.863376708984375,-0.0018085107266902,-0.0072378422990441,-0.0616933628469705,0.0185028612613677,0.007082276046276,-0.0070430780760943
1783204233687314700,4.873314697265625,0.0127238724946975,0.0101410163946449,-0.0236725520104169,0.0150290327146649,0.0044223107397556,-0.0072135203517973
1783204233697251800,4.883251953125,0.0232595872953534,0.0208794141605496,-0.010486907222867,0.0112118069082498,0.0059813451953232,-0.0044624302536249
1783204233707188500,4.8931884765625,0.033491642974317,0.0235989022523164,0.0066249710977077,0.0049605686217546,0.0085925748571753,0.0008215475827455
1783204233717126700,4.903126708984375,0.0343780704200267,0.0302431625723838,0.0058837973415851,-0.0002508219331502,0.0107883717864751,0.0012828514445573
1783204233727063600,4.9130634765625,0.0332554961308836,0.0301687821619212,0.0031365444600582,-0.0036109331995248,0.0122022442519664,0.0001376920845359
1783204233737000700,4.923000732421875,0.030087972010672,0.0224444715201854,-0.0017278467059135,-0.0019626095890998,0.0108079342171549,0.0040565347298979
1783204233746938600,4.932938720703125,0.0249465174689888,0.0163097681574523,0.0033089784175157,-0.0011751120910048,0.0138122458010911,0.0090182702988386
1783204233756875800,4.942875732421875,0.0266869313955307,0.0071672612808644,-0.0041173721909523,0.0016708178445696,0.0050025326199829,0.0106278825551271
1783204233766813000,4.95281298828125,0.0007224690556526,-0.0100301033660769,-0.0094119714677333,0.0047190720215439,-0.0076781087554991,0.0114625170826911
1783204233776749600,4.96274951171875,-0.0121805593982338,-0.0187872641868889,-0.0012853636354207,0.0013044672086834,-0.0185695756226778,0.0041447710245847
1783204233786687500,4.9726875,-0.0405576358377933,-0.0119170861564576,0.0107709848612546,-0.0026252930983901,-0.0203861184418201,0.00170797877945
1783204233796624600,4.982624755859375,-0.0557902762830257,-0.0174869952432811,0.0019102175354957,-0.0139897987246513,-0.0170209743082523,-6.24428503215e-05
1783204233806561800,4.992561767578125,-0.0480725415125489,-0.0005970891103148,0.0022036475241184,-0.0199819114059209,-2.84081324934e-05,-0.0036246872041374
1783204233816499700,5.002499755859375,-0.0355278249770402,0.0041297932811081,-0.0040700259178876,-0.0237621702253818,0.0076166098006069,-0.0028177965432405
1783204233826436900,5.012436767578125,-0.0319777312800288,-0.0002680032864212,-0.0294125569671392,-0.0218106061220169,0.0064317695796489,-0.002757609123364
1783204233836373800,5.022373779296875,-0.0274070623636245,-0.0102889004327356,-0.0302291340470314,-0.0122138559818267,0.0012682192027568,-0.0049936389550566
1783204233846311700,5.032311767578125,-0.0248936182379722,-0.0098205522686243,-0.0397831443339586,-0.0031937286257743,-0.0056594614870846,-0.0028580501675605
1783204233856248600,5.04224853515625,-0.0284083483606576,-0.008433481824398,-0.0429085828781127,0.0005202563479542,-0.0146926324814558,-0.002926540095359
1783204233866185700,5.052185791015625,-0.0204731714472174,-0.0115460608869791,-0.0261561855196952,0.0009615421295166,-0.0101412888616323,-0.0046581272035837
1783204233876123600,5.06212353515625,-0.0156166713267564,-0.0056017655298113,-0.0196375974059104,-0.0074886679649353,-0.0048064454458653,-0.0081015946343541
1783204233886060800,5.072060791015625,-0.0158759067848324,0.0107760994277894,-0.0008189151674509,-0.0175365079194307,0.0041391123086214,-0.0059289876371622
1783204233895997700,5.081997802734375,-0.0012988076388835,0.0248150000438094,0.0104530049532651,-0.025189047679305,0.0045864218845963,-0.0059294770471751
1783204233905936000,5.091935791015625,0.0156570033371448,0.023663199660182,0.0055254854232072,-0.0256335269659757,0.0023810581769794,-0.0026806867681443
1783204233915872800,5.101872802734375,0.0351879254981875,0.0317278481721878,0.0149064772307872,-0.0251885950565338,-0.0039002974517643,0.0021239242050796
1783204233925809700,5.1118095703125,0.0410097635194659,0.0373993179373443,0.0046031098812818,-0.0241118781268596,-0.0111470259726047,0.009099275805056
1783204233935747600,5.12174755859375,0.0579962618947029,0.0240555599786341,0.03629296413064,-0.0221725106239318,-0.0157352201640605,0.0112681975588202
1783204233945684700,5.131684814453125,0.0392886388152837,0.0212206288136541,0.0531172576814889,-0.0252271555364131,-0.0230413358658552,0.0137904779985547
1783204233955621600,5.14162158203125,0.0170177702963352,0.02433832244277,0.0734995359748601,-0.0289179496467113,-0.0279804114252328,0.0132977915927767
1783204233965559800,5.151559814453125,0.0138254039958119,0.0086355802677571,0.0938993499249219,-0.0383263640105724,-0.0342289879918098,0.0126498444005846
1783204233975496700,5.16149658203125,0.0115539519324898,0.0133285603895783,0.0780500388860702,-0.0446703881025314,-0.0438868217170238,0.0157218463718891
1783204233985433900,5.171433837890625,0.0352127676784992,0.0005915361523628,0.0757902772605419,-0.0533517636358737,-0.054008699953556,0.0164211932569742
1783204233995371800,5.181371826171875,0.0149459324583411,0.0120383744485676,0.0380167191833257,-0.0593115277588367,-0.0618589185178279,0.0190161317586898
1783204234005308700,5.19130859375,-0.0049964931130409,0.022779110302031,-0.0052729719668626,-0.0515960864722728,-0.0473058074712753,0.0238335244357585
1783204234015246600,5.20124658203125,-0.0274193373233079,0.0054021513044834,0.0471194785714149,-0.0379617437720298,-0.0390306822955608,0.0265581123530864
1783204234025184500,5.2111845703125,-0.0037315877437591,0.0364803033962845,0.023849662142992,-0.0292659923434257,-0.0833270400762558,0.0251991022378206
1783204234035121700,5.22112158203125,0.0297743760168552,0.0286181917190551,-0.0370382295399904,-0.0278290919959545,-0.1039086133241653,0.0327413119375705
1783204234045058800,5.231058837890625,0.0551180761098861,-0.0172074476495385,0.0126741881340742,-0.0344012416899204,-0.108136385679245,0.0478246584534645
1783204234054996700,5.240996826171875,0.0565802576169371,0.0283189165115356,0.0256225170344114,-0.0366830080747604,-0.109769307076931,0.0552697442471981
1783204234064934000,5.250933837890625,0.005656418326497,0.0181552498936653,-0.0375298124492168,-0.0418135896325111,-0.0912129357457161,0.0488003902137279
1783204234074870500,5.26087060546875,-0.0041930677756667,-0.0397746687665581,-0.0487736755192279,-0.0503721088171005,-0.0748381987214088,0.0398606918752193
1783204234084808700,5.27080859375,-0.0198413032844662,-0.035740883205831,-0.1041711530923843,-0.0596004948019981,-0.0643687769770622,0.0410583168268203
1783204234094745600,5.28074560546875,-0.0076256725728511,0.0175882636606693,-0.1139805994451046,-0.0573447905480861,-0.0499005243182182,0.0490105152130126
1783204234104682800,5.290682861328125,0.0087727967813611,-0.0447343370005488,-0.1688479156643152,-0.0476908273994922,-0.0375141650438308,0.0389770567417144
1783204234114620700,5.30062060546875,-0.020524317112565,-0.0330447759896516,-0.1748170532017946,-0.0406020581722259,-0.0345848128199577,0.0245188027620315
1783204234124557800,5.310557861328125,-0.0267395383656024,-0.0181347916275262,-0.1755868685305118,-0.0363138355314731,-0.0274504702538251,0.0192084591835737
1783204234134494500,5.320494384765625,-0.044001054289937,-0.1036971058398485,-0.2010731919646263,-0.0324661284685134,-0.0036913002841174,0.0165139138698577
1783204234144431600,5.330431640625,-0.0428200278118252,-0.0933824864439666,-0.1860731912314891,-0.0229344069957733,-0.0012928573414683,0.0093912910670042
1783204234154369500,5.34036962890625,-0.0333133637979626,-0.0772356537632644,-0.2608048993498086,-0.0113153336569666,-0.0019261976704001,0.0021689750719815
1783204234164306700,5.350306640625,-0.0195218620717525,-0.0870581057280302,-0.2834299881339073,0.0021160524338483,0.0118585908785462,0.0010190221946686
1783204234174243600,5.36024365234375,-0.033564415949583,-0.0714338356167078,-0.2711760712385177,0.0217773281037807,0.027187181636691,-0.0021269200369715
1783204234184181800,5.370181640625,-0.0442570748776197,-0.0334065950393676,-0.2573684951603412,0.0404111966490745,0.0379460863769054,-0.0034763438161462
1783204234194118700,5.38011865234375,-0.0281640182107686,-0.0180018128976225,-0.2179044997781515,0.0551899187266826,0.0424373671412467,-0.0047392612323164
1783204234204055600,5.3900556640625,-0.0033095629394054,-0.02099047331959,-0.1623743357360363,0.0645264238119125,0.0376758985221385,0.0004062324296683
1783204234213993500,5.399993408203125,0.0177893391907215,-0.0067719783529639,-0.1021796870142221,0.0714973807334899,0.0277927108108997,0.0020691964309662
1783204234223930600,5.4099306640625,0.0265551217094063,0.0271412510342895,-0.02471124740839,0.068265900015831,0.0246672257781028,0.0018825090955942
1783204234233867500,5.419867431640625,0.0367220031976699,0.0582516979604959,0.0723527040272951,0.0591457821428775,0.0228216741234064,0.0040407795459032
1783204234243805700,5.4298056640625,0.0397597634583711,0.0744793407924473,0.1142214224636554,0.0469975061714649,0.0160772185772657,0.0080280639231204
1783204234253742600,5.43974267578125,0.0327899244457483,0.0739291595637798,0.1672720446497201,0.0282163061201572,0.0125596355646848,0.0111653562635183
1783204234263679700,5.4496796875,0.0369116805508732,0.0717059305563569,0.2053857944667339,0.0082894684746861,0.0079579595476388,0.013727051205933
1783204234273617700,5.45961767578125,0.017683832989633,0.0654907093033194,0.2083680251479149,-0.006347800604999,-0.0012444132007658,0.0128161180764436
1783204234283554600,5.469554443359375,0.0102796942129731,0.0425223600395023,0.1960164930969476,-0.0232373028993606,-0.0145415756851434,0.0112573700025677
1783204234293491700,5.47949169921875,-0.0048933249995112,0.0206928055472672,0.162102533057332,-0.0360250808298587,-0.0204692296683788,0.0142127722501754
1783204234303429600,5.4894296875,-0.0315042685493826,-0.0055459436893463,0.132128250554204,-0.0449570566415786,-0.025925513356924,0.0146921407431364
1783204234313366500,5.499366455078125,-0.045116322055459,-0.0267632115021347,0.0679050769686698,-0.0448823496699333,-0.029184803366661,0.0115756606683135
1783204234323303700,5.5093037109375,-0.065420566676557,-0.0486830746263265,-0.0011684592574834,-0.0447577126324176,-0.0274050123989582,0.0055553186684846
1783204234333241600,5.51924169921875,-0.0785173641368746,-0.0594189881742,-0.054165305429697,-0.0435396172106266,-0.0259646326303482,0.0004149314481765
1783204234343178800,5.5291787109375,-0.0934393311977386,-0.0619854776613414,-0.1205307517409324,-0.0378202125430107,-0.0181605070829391,-0.0013653917703777
1783204234353115600,5.53911572265625,-0.0860413299009203,-0.072344374590367,-0.1640337933808565,-0.0275599509477615,-0.0088216755539178,-0.0038560174871236
1783204234363053600,5.549053466796875,-0.0757388393342494,-0.0552402411848306,-0.1756026506215333,-0.0144585287198424,0.0057423533871769,-0.0106326974928379
1783204234372990700,5.55899072265625,-0.0630433161512017,-0.0328004458397626,-0.2005769328802824,-0.0055799568071961,0.0108738485723733,-0.0163080338388681
1783204234382927600,5.568927734375,-0.0376125222966074,-0.0244043734163045,-0.1815712036371231,0.0026785060763359,0.020266018807888,-0.0143623268231749
1783204234392865500,5.578865478515625,-0.0145560563579201,-0.0197581550456583,-0.1681827297538518,0.0144088473170995,0.0251072607934474,-0.0149498218670487
1783204234402802700,5.588802734375,0.0120709615439176,0.0110255441442131,-0.1425140354901552,0.0228036642074584,0.0286535248160362,-0.0127588398754596
1783204234412739800,5.59873974609375,0.0337254517301917,0.0457537431761622,-0.100426705867052,0.025961872190237,0.029203075915575,-0.0101094804704189
1783204234422677800,5.608677734375,0.0436748910754919,0.0738046564012765,-0.0335953956097364,0.0231716781854629,0.0275838710367679,-0.0062183360569179
1783204234432614700,5.61861474609375,0.0684112729251384,0.0707249566949903,0.0155114573866128,0.0176116116344928,0.019020065665245,-0.0010792324319481
1783204234442551600,5.628551513671875,0.0845338479474186,0.0622422289013862,0.0566729043364524,0.0159937404096126,0.0066693890839815,0.0034164495300501
1783204234452489700,5.63848974609375,0.0749032652929425,0.0468348164111375,0.0809229639738798,0.0119606768712401,-0.0063635483384132,0.0088009182363748
1783204234462426600,5.648426513671875,0.064486208435893,0.0531233951613306,0.0845545984745025,0.0051839966326951,-0.0112027786672115,0.0108374375849962
1783204234472363800,5.65836376953125,0.0509691397368907,0.045360652205348,0.0867249282509088,-0.002675631083548,-0.0128229381516575,0.0113755716010928
1783204234482301700,5.6683017578125,0.0234276373386383,0.0367542980320751,0.0955015244245529,-0.0131802046671509,-0.0094369957223534,0.0131420455873012
1783204234492238800,5.67823876953125,-0.0039019758746027,0.0137694360248744,0.0729202747821807,-0.0226427633315324,-0.0089845629408955,0.014098173007369
1783204234502176800,5.6881767578125,-0.0169467508867383,-0.0109524789080023,0.0498737457156181,-0.0235482398420572,-0.0138245914131402,0.0130084063857793
1783204234512113700,5.69811376953125,-0.0325344883799552,-0.0324352657891809,0.0126835404843091,-0.0244664698839187,-0.0198493711650371,0.0100811906158924
1783204234522050600,5.708050537109375,-0.0562263296127319,-0.0477902174398303,-0.0125584527999162,-0.0240494199097156,-0.0175420083105564,0.0079195033758878
1783204234531988700,5.71798876953125,-0.0786576493903994,-0.0504784336104989,-0.0269260008484125,-0.0199905317276716,-0.0141217028722167,0.0051654800772666
1783204234541925600,5.727925537109375,-0.0888137172237038,-0.0511195079930126,-0.0282739083260297,-0.0169041939079761,-0.0119094150140881,-0.0001768211368471
1783204234551862800,5.73786279296875,-0.0807835555031895,-0.0630246114507317,-0.0300315656483173,-0.0164542570710182,-0.0128045715391635,-0.0041042710654437
1783204234561800700,5.74780078125,-0.0789388044193387,-0.0580754646107554,-0.0248971253693103,-0.0243009962141513,-0.0119923073798418,-0.0104154301807284
1783204234571737900,5.75773779296875,-0.0820049139916896,-0.0374155384197831,-0.0171346746742725,-0.0275281183421611,-0.01907211355865,-0.0129724647849798
1783204234581674500,5.767674560546875,-0.0763932115897536,-0.0114314945966005,-0.0170791450947523,-0.0278168059885501,-0.0222721677273511,-0.0178479142487049
1783204234591612700,5.77761279296875,-0.0472267383381724,0.0061988546401262,-0.0284615398526191,-0.0279233381152153,-0.0192501451820135,-0.0203788094222545
1783204234601549600,5.787549560546875,-0.0032224691778421,0.0386509254336357,-0.0190782099574804,-0.0276098847389221,-0.0153073351830244,-0.0189332459121942
1783204234611486700,5.79748681640625,0.0323562092036008,0.0535948120653629,-0.0340963308691978,-0.0271908938884735,-0.0101061481982469,-0.0131945293396711
1783204234621424600,5.807424560546875,0.041248248450458,0.0405048827372491,0.0017395371437072,-0.0318407751619815,-0.0035467827692627,-0.0080559598281979
1783204234631361800,5.81736181640625,0.0465282346799969,0.0267342776685953,0.0002899228572845,-0.0317719094455242,-0.0138644305989146,-0.0081875165924429
1783204234641298700,5.827298583984375,0.0312236980423331,0.0098772508919239,-0.0116693950057029,-0.0310549847781658,-0.0122223244979977,-0.0090770125389099
1783204234651236900,5.83723681640625,0.01271919631958,-0.0103372696191072,0.0363122533529996,-0.0368199571967124,-0.003603842575103,-0.0106691401451826
1783204234661173500,5.847173583984375,0.0293146495506167,0.0017331074029207,0.0401946477442979,-0.0420490726828575,-0.0146200098097324,-0.0034943174105137
1783204234671110700,5.857110595703125,0.0484796610087156,0.0032855975419282,-0.0010807809740304,-0.0493512228131294,-0.0192793793976306,-0.0027669253759086
1783204234681048600,5.867048583984375,0.041259354366362,-0.0009102467127144,0.0004535889863967,-0.0536000281572341,-0.0247260779142379,0.0092069134116172
1783204234690985700,5.87698583984375,-0.0058928574308753,0.1469292215839028,0.0956166752368211,-0.0581757724285125,-0.0322773978114128,0.0179854519665241
1783204234700922600,5.886922607421875,0.0530520834907889,0.0999881683193147,0.0877957723528146,-0.0580279678106308,-0.0496742315590381,0.0153071098029613
1783204234710860800,5.89686083984375,0.0728024936214089,-0.0580897853970527,0.0300046776413917,-0.0666064769029617,-0.0393157005310058,0.0115235997363924
1783204234720797700,5.906797607421875,0.0665852265417575,-0.0284426890216767,0.0882528684705495,-0.0905706658959388,-0.0069905165582895,0.0089062452316284
1783204234730734600,5.916734619140625,0.0330783859983086,0.0761820530571043,0.1208627601742744,-0.113170325756073,0.0208170264959335,0.0197221394628286
1783204234740672500,5.926672607421875,0.0057879357516765,0.0984708956241607,0.0963525882959365,-0.1343778818845749,0.0466760508716106,0.0268535520881414
1783204234750609700,5.936609619140625,0.018814006063342,0.0892541544675827,0.129086398640275,-0.155272364616394,0.0673889443278312,0.029993025586009
1783204234760546600,5.946546630859375,0.0406292397692799,0.0718530839420855,0.1279717153966426,-0.1741190254688263,0.0647468194365501,0.0397399291396141
1783204234770484700,5.956484619140625,0.0488622305855155,0.0236813198387622,0.0916267288178205,-0.1927558183670044,0.0693009570240974,0.0451734811067581
1783204234780421600,5.966421630859375,0.0297851896718144,0.0003304009981453,0.0969014543503522,-0.2116972953081131,0.0775530263781547,0.0537259541451931
1783204234790358500,5.976358642578125,-0.0291848856911063,-0.0034093700520694,0.0909866773486137,-0.218688428401947,0.0591628029942512,0.0588059872388839
1783204234800296400,5.98629638671875,-0.0715051472872495,-0.0163240889437496,0.0198415955454111,-0.2094200998544693,0.0351296365261077,0.0538559705018997
1783204234810233600,5.996233642578125,-0.0721919605076313,-0.039385084927082,-0.0669961454302072,-0.1770529299974441,0.0011238399893045,0.0506262630224227
1783204234820170800,6.006170654296875,-0.0350488092884421,-0.009724106156826,-0.1353629946917295,-0.1273104101419448,-0.0632687285542488,0.0634419322013855
1783204234830108700,6.016108642578125,-0.0150268887400627,-0.0285045022115111,-0.2667868963688611,-0.0732061266899108,-0.1164126172661781,0.0664359927177429
1783204234840045600,6.026045654296875,-0.0368330623567104,-0.1240931203976273,-0.3268623026251793,-0.0283023007214069,-0.1297912746667862,0.0598244331777095
1783204234849982700,6.035982666015625,-0.0515454783201217,-0.1163905831962823,-0.2905038720428943,0.0057872799225151,-0.13238425552845,0.044958084821701
1783204234859920600,6.045920654296875,-0.0629936317905783,-0.0989335446998476,-0.3205973970115184,0.0183787047863006,-0.1124054938554763,0.0301359929144382
1783204234869857500,6.055857421875,-0.0537652001962065,-0.1161893615357577,-0.292293093547225,0.0181218311190605,-0.0817083194851875,0.0255313441157341
1783204234879794700,6.065794677734375,-0.0186105924457311,-0.0878657688491046,-0.2694260127007961,0.0095160929486155,-0.043071448802948,0.0143186375498771
1783204234889732600,6.075732666015625,0.0011079612419009,-0.0809913530349731,-0.2627747381180524,-0.0065559390932321,-0.0050289197824895,0.0083854664117097
1783204234899669800,6.085669677734375,0.0015513210952281,-0.0646551352620124,-0.2446948915481567,-0.0129877384752035,0.0243667867034673,0.0011874749325215
1783204234909606700,6.095606689453125,-0.0022588848426938,-0.0310458572573959,-0.2220335624068975,-0.006342870183289,0.046866588294506,0.0007532441522926
1783204234919544600,6.105544677734375,0.0004342997640371,-0.0070619012102484,-0.1987491329312324,0.0130755687132477,0.0511321723461151,0.0039996374398469
1783204234929481700,6.115481689453125,0.010111936430633,0.0191704182855784,-0.1644815371483564,0.0318625718355178,0.0318008214235305,0.0030792488250881
1783204234939418600,6.125418701171875,0.0282353298813104,0.0253635738372802,-0.1204734685957431,0.0542877204716205,0.0048451041802763,0.0075797252357006
1783204234949356500,6.1353564453125,0.0338984702095389,0.0347116862885653,-0.0613116700530052,0.0684340074658393,-0.015088764950633,0.011367630213499
1783204234959293700,6.145293701171875,0.0467839630067348,0.0434597870200872,-0.0035837037056684,0.0722724199295044,-0.0238130148500204,0.0145120248198509
1783204234969231600,6.155231689453125,0.0432628031432628,0.0652874418161809,0.0717757809221744,0.0606550052762031,-0.0222079865634441,0.0174956955015659
1783204234979168800,6.165168701171875,0.0385655852377414,0.0844309720948338,0.1206517477720975,0.0408024713397026,-0.0187083259224891,0.0196587145328521
1783204234989105700,6.175105712890625,0.0366170815184712,0.0725182698525488,0.139810037228465,0.0186326503753662,-0.0125022642314434,0.0203742645680904
1783204234999043600,6.185043701171875,0.0214022689908742,0.0515371488831937,0.1555897901624441,-0.0014947224408388,-0.0119991917163133,0.023232102394104
1783204235008980700,6.194980712890625,-0.0030257775619626,0.0201190973125398,0.1195885024547576,-0.0128770973533391,-0.0190816931426525,0.0206114202737808
1783204235018918000,6.20491796875,-0.0282259775310754,0.0021840660408139,0.0749789608776569,-0.019533134996891,-0.0188052542507648,0.0179692991077899
1783204235028855800,6.214855712890625,-0.0483981202051043,-0.0168793847389519,0.0360427887618541,-0.0129929454997181,-0.0242236740887165,0.0126198474317789
1783204235038793000,6.22479296875,-0.0630661125048995,-0.0313597455121576,-0.0075087681949138,-0.0117905279621481,-0.0229429583996534,0.0110483169555664
1783204235048729900,6.234729736328125,-0.0674210928440093,-0.0251290344290435,-0.0399000487118959,-0.0079503692686557,-0.0285664703696966,0.0116454418748617
1783204235058667800,6.244667724609375,-0.0775526107579469,-0.0378824252791702,-0.0593657966822385,-0.0045404583215713,-0.0296857971698045,0.006170249544084
1783204235068605000,6.25460498046875,-0.0744990684062242,-0.0449628850594162,-0.0843459241598844,0.001520019955933,-0.0296853836625814,0.0032173346262425
1783204235078542000,6.2645419921875,-0.069260583230853,-0.043762277098,-0.0908650967955589,-0.000233138911426,-0.0256277900189161,-0.0004556972999125
1783204235088480000,6.27447998046875,-0.0625797902926802,-0.0266537597782909,-0.0990349592477083,0.0058249039575457,-0.0139043182134628,-0.002427764236927
1783204235098417000,6.2844169921875,-0.0432023051276803,-0.0223772515028715,-0.0903308437883853,0.0063442206010222,-0.002402392681688,-0.0072169266641139
1783204235108353800,6.294353759765625,-0.0325119842872023,-0.0090612583339214,-0.0740939947366714,0.0055621918290853,0.0062753204256296,-0.0082022110000252
1783204235118292000,6.3042919921875,-0.0051452539339661,0.0065235565498471,-0.069454644498229,0.0044572465121746,0.0057685212232172,-0.0047992239706218
1783204235128228900,6.314228759765625,0.0095671620294451,0.003790478324145,-0.0565881486624479,0.0108095845207571,0.002568159950897,-0.0023509268648922
1783204235138166000,6.324166015625,0.021272212870419,0.0198018480569124,-0.0601356120109558,0.0182374063879251,-0.0046316962689161,-0.0049371225759387
1783204235148104000,6.33410400390625,0.0249094003289937,0.0213777190715074,-0.0511579403072595,0.0251517333090305,-0.0132628260180354,0.0012000030837953
1783204235158041000,6.344041015625,0.0298030175894498,0.0270043267816305,-0.0401186598986387,0.0301630049943923,-0.0204320549964904,0.0020056092180311
1783204235167977700,6.353977783203125,0.03341156347543,0.0287736745417118,-0.0226496387034654,0.0325839109718799,-0.0260526537895202,0.0036654144059866
1783204235177916000,6.363916015625,0.0385325597509741,0.0426028779298067,-0.0034521862804889,0.028950560837984,-0.0350189842283725,0.0048984577879309
1783204235187852800,6.373852783203125,0.0334121479973196,0.0290722190968692,0.00438274512887,0.0217361766844987,-0.0321071520447731,0.004997975192964
1783204235197790000,6.3837900390625,0.0418859618321061,0.0239703659132122,0.013491349735856,0.0129786375910043,-0.0202251933515071,0.0067511340603232
1783204235207727900,6.393727783203125,0.0378068758249282,0.0303895853057503,0.0337853652238845,-0.0004868134856224,-0.0130884163081645,0.0081720193848013
1783204235217665000,6.4036650390625,0.0271025264590978,0.0325756971731781,0.0163029000252485,-0.0082089165225625,0.0016042441129684,0.0123920636251568
1783204235227602000,6.413601806640625,0.018694763597846,0.0265182968303561,-0.008120178091526,-0.0122364610433578,0.0008907048031687,0.0089223198592662
1783204235237540000,6.4235400390625,-0.0127124743178486,0.0152646430186927,-0.0284533565461635,-0.0074571520090103,-0.0011993441730737,0.0079417433589696
1783204235247476700,6.433476806640625,-0.0335264220267534,-0.0130664023220539,-0.0369143108993768,-0.0013131247833371,-0.0104110212996602,0.0115542355924844
1783204235257415000,6.443414794921875,-0.0536944730475544,-0.0239084065929055,-0.0639461102098226,0.0069064553827047,-0.0145016377791762,0.0064052804373204
1783204235267351800,6.453351806640625,-0.0548342907324433,-0.0205140879794955,-0.0619353549093008,0.0106027331203222,-0.0093258824199438,0.0034982168581336
1783204235277289000,6.4632890625,-0.0500713141143321,-0.0275403333544731,-0.0368815776735544,0.0091611640527844,-0.0093210879713296,-0.0003298111259937
1783204235287227000,6.473226806640625,-0.0562193153500556,-0.0170396898671984,-0.0531342088162899,0.0040037613362073,-0.0048084105364978,0.0029100077226758
1783204235297164000,6.4831640625,-0.0469087584301829,-0.0183006497137248,-0.0427390715301036,0.0046146903187036,0.0044729723595082,-0.0024858228862285
1783204235307101000,6.493100830078125,-0.037941608120501,-0.0171538177661597,-0.0299058934420347,0.0045976415276527,0.0077421548776328,-0.002753768581897
1783204235317039000,6.5030390625,-0.0281169641986489,-0.0148217215567827,-0.0262251591026782,0.0091753490269184,0.0053080255165696,-0.0052076051943004
1783204235326975700,6.512975830078125,-0.0176209968864917,-0.013299334295094,-0.0290220963448286,0.0116958394646644,-0.0038360222242772,-0.0040531316772103
1783204235336913000,6.522912841796875,-0.0063981766045093,-0.0132224696666002,-0.0260965642869472,0.0118891857564449,-0.0061348625458776,-0.0060126855969429
1783204235346850800,6.532850830078125,-0.00775835904181,-0.0030004969902336,-0.0022094927430152,0.0087326858192682,-0.002176487352699,-0.006601651199162
1783204235356788000,6.5427880859375,-0.0078071666195988,0.0171323365867137,0.029200375521183,-0.0012357933446764,-0.0022039175964891,-0.0056421142071485
1783204235366724900,6.552724853515625,0.0055719549134373,0.0290597980067133,0.0286123465001583,-0.0092272097244858,-0.0047948583960533,-0.0058589791879057
1783204235376663000,6.5626630859375,0.0183157011523842,0.0304468684509396,0.0193681328147649,-0.0164915136992931,-0.0012422017753124,-0.0055644335225224
1783204235386600000,6.572599853515625,0.0258455121353268,0.0384752766057848,0.0017255086183547,-0.0170824583619833,-0.0060244514606893,-0.0001973155885934
1783204235396536800,6.582536865234375,0.0245823603317141,0.0455232954211533,-0.0140711954504251,-0.0131172779947519,-0.0009926748462021,-0.0003392619546502
1783204235406474800,6.592474853515625,0.0267602888926863,0.038088907636702,-0.028077508971095,-0.0074375728145241,-0.0043965140357613,0.005441621877253
1783204235416412000,6.602411865234375,0.0299710676327347,0.0211824887603521,-0.0778016170829534,-0.003035101108253,-0.0104317702353,0.0050706434994935
1783204235426348800,6.612348876953125,0.003338204512,0.0145322370909154,-0.0842500625699758,0.0039730630815029,-0.0029275869019329,0.0066575650125741
1783204235436287000,6.622286865234375,-0.0083595398053526,0.0079522741787135,-0.0657084437072277,0.0135926669463515,0.0034410960506647,0.0059707360342144
1783204235446224000,6.632223876953125,-0.0114320791184902,-0.017267945665121,-0.0809106890141963,0.0155781600624322,-0.0003042281605303,0.0062952497974038
1783204235456161000,6.6421611328125,-0.0170066643804311,-0.0232334299407899,-0.0886561885744333,0.0117304250597953,-0.0019876123405992,0.0028363361489027
1783204235466099000,6.652098876953125,-0.0288122529864311,-0.0298221606813371,-0.0789654001653194,0.009798944927752,6.06668181717e-05,0.001323074568063
1783204235476035800,6.662035888671875,-0.0339107451692223,-0.0217266786396503,-0.0727618693500757,0.0091366171836853,0.0049355830997228,0.0012152167037129
1783204235485973800,6.671973876953125,-0.0210877962142229,-0.0071308747932314,-0.0684036741405725,0.010223139077425,0.0095661589875817,0.0005225751083344
1783204235495911000,6.681910888671875,-0.0173661453425884,-0.0118804074078798,-0.0777425803720951,0.0173193980008363,0.0073677194304764,5.41249755769e-05
1783204235505847800,6.691847900390625,0.0019514263287186,3.66787485778e-05,-0.0785831228494644,0.0223726257681846,0.0050553167238831,0.0035927116405218
1783204235515786000,6.701785888671875,-0.0023836802661418,0.0098836806327104,-0.0482207178115844,0.0300217568874359,0.0083190202713012,0.0049706306308507
1783204235525723000,6.711722900390625,-0.0178714645162224,0.0098814886756241,-0.0255365923166275,0.0340939462184906,0.0025065427180379,0.0022539880592375
1783204235535659800,6.72165966796875,-0.0101712654024362,0.00886807384938,0.0046598085045814,0.0314946994185447,-0.0061809546314179,0.0002156044356524
1783204235545597700,6.73159765625,-0.014783727633953,0.012042319971323,0.0223702372401952,0.0213809013366699,-0.0038278955034911,-0.0009528989903628
1783204235555534800,6.741534912109375,-0.0080202248483896,0.0176556298084557,0.053421209064126,0.0097868293523788,0.0004621902480721,0.000533677637577
1783204235565472000,6.751471923828125,-0.0064671501874923,0.0217288705967366,0.071498717546463,0.0020026331767439,-0.0015997071750462,-0.0015805189032107
1783204235575410000,6.761409912109375,-0.0007961188137531,0.0223779821552336,0.0543038371175527,-0.0038994653150439,-0.0061864699237048,-0.001302218530327
1783204235585346800,6.771346923828125,0.0170177702963352,0.011700959187746,0.0466378325343132,-0.0128808012232184,-0.0042169522494077,0.0037907189689576
1783204235595284000,6.781283935546875,0.0137011930942535,0.0071139236584305,0.0217354464679956,-0.0152677921578288,-0.0024976152926683,0.0026482227258384
1783204235605222000,6.791221923828125,0.0021682839497923,0.0043380292043089,0.0069178165644407,-0.0136426854878664,-0.0058989259414374,0.0044566877186298
1783204235615158800,6.80115869140625,-0.0027001988694071,0.0027606968849897,-0.0207674782186746,-0.0120996497571468,-0.0085210744291543,0.0010347927454859
1783204235625096000,6.811095947265625,-0.0161278357192873,-0.0077139353781938,-0.0351443786174058,-0.0161189679056406,-0.0116326129063963,-0.000301890540868
1783204235635033900,6.821033935546875,-0.0193824536010622,-0.0059799511924386,-0.0529635284245014,-0.0105172749608755,-0.0147527726367115,0.0041128313168883
1783204235644971000,6.830970947265625,-0.0178153504148125,-0.0063192661494016,-0.0796253253787755,-0.005827491171658,-0.0095873344689607,0.0020159862469881
1783204235654909000,6.840908935546875,-0.0102197807192802,-0.0119251233324408,-0.0895955152511596,0.0001068310812115,-0.0039273179136216,0.0038873895537108
1783204235664845800,6.850845703125,-0.0135042092174291,0.0031336218506097,-0.094184596607089,0.0048800120130181,0.0022580893710255,0.0023198125418275
1783204235674783000,6.860782958984375,-0.009847148014605,0.0123413029178977,-0.0773363376587629,0.0046238154172897,0.0059233978390693,0.0015972971450537
1783204235684721000,6.870720947265625,-0.017590601748228,0.0039706571966409,-0.0658043052971363,0.0085638687014579,0.010867666453123,0.0014344861265271
1783204235694657800,6.88065771484375,-0.0136073773309588,0.0107724461659789,-0.0600917728692293,0.0106834787875413,0.0066542788408696,0.0042510451748967
1783204235704595000,6.890594970703125,-0.007182020458579,-0.0015811317116022,-0.0517588288098573,0.0113548766821622,0.0001830519177019,0.0009655524045228
1783204235714532900,6.900532958984375,-0.011091010595858,0.0044651627153158,-0.0172445647895336,0.0069473451003432,-0.0041685528121888,-0.0003367334138602
1783204235724470000,6.910469970703125,-0.0096229838699102,0.0128584586597979,-0.0110106388360261,0.0099013876169919,-0.0044925422407686,-0.0001050357241183
1783204235734407000,6.920406982421875,-0.0116425069987773,0.0191337395370006,0.0072340429067611,0.0088917836546897,0.0024724225513637,-0.001184414839372
1783204235744344800,6.9303447265625,0.0066071431800723,0.0313439634211361,0.0111328039109706,0.0053784847259521,0.0039983470924198,-0.0003308339510113
1783204235754282000,6.940281982421875,0.0130576344937086,0.0317092896021902,0.0240501531511545,-0.0011289492249488,0.0035131194163113,0.001352549996227
1783204235764219000,6.950218994140625,0.0052548517882823,0.0138356331288814,0.028047698354721,-0.00722052808851,0.0017929524183273,0.0012276524212211
1783204235774156800,6.96015673828125,0.0092936057850718,0.0027780864112079,-0.0019774375528097,-0.0067392932251095,-0.0096298772841691,0.0015253939200192
1783204235784094000,6.970093994140625,0.006409867042303,0.0048030163675546,-0.0381394687801599,-0.0046142786741256,-0.0093439798802137,0.0030051884241402
1783204235794030800,6.98003076171875,-0.0136865800470113,-0.0053998132169246,-0.0252162743210792,-0.000406751409173,-0.0026730266399681,0.0051426417194306
1783204235803969000,6.989968994140625,-0.0326157369226217,-0.0128531979627907,-0.0297135857403278,-0.0018063206225633,-0.0052479128353297,0.0028540447819978
1783204235813906000,6.999906005859375,-0.0247805132523179,-0.0034111236177384,-0.0500140309691429,0.0021141190081834,-0.003544554580003,0.0014715979341417
1783204235823843800,7.00984375,-0.0208291452780365,-0.022046119852364,-0.0426326885461807,0.0033319629728794,-0.0013147429563105,0.002888093702495
1783204235833781000,7.019781005859375,-0.0163873634383082,-0.0104302085995674,-0.0430026909023523,0.0036246450617909,-0.0039328960701823,-0.0012794872745871
1783204235843718000,7.0297177734375,-0.0212985163554549,-0.0104810620039701,-0.0399152462810277,0.0001948187127709,0.0019445503130555,-0.0032504899427294
1783204235853655800,7.03965576171875,-0.0240551215872168,-0.0020643851839005,-0.0205026898026466,-0.0013993494212627,5.39720058441e-05,-0.0044555701315402
1783204235863593000,7.049593017578125,-0.0337198987722396,-0.0141395845115184,-0.0288631063908338,-0.0051257656887173,0.0032101182732731,-0.0024217194877564
1783204235873529900,7.05952978515625,-0.0260009949579834,-0.0052750177934765,-0.0320914207875728,-0.002883649431169,0.0057979119010269,-0.006883047055453
1783204235883468000,7.069468017578125,-0.0110731826782226,0.0095696462474763,-0.0270581027954816,-0.0050175990909338,-0.0013571251183748,-0.0082916794344782
1783204235893405000,7.079405029296875,0.0026017069309949,0.0129570967286825,-0.0268862533599138,4.77330759167e-05,-0.0031177410855889,-0.0035379373002797
1783204235903342000,7.089342041015625,0.0078206106230616,0.0072612231746315,-0.0300894333153963,0.0081767030060291,-0.0063623874448239,0.0007577387150377
1783204235913280000,7.099280029296875,0.0242573661610484,0.0069686699688434,-0.0253045371264219,0.0056927730329334,-0.0028984132222831,0.0028152971062809
1783204235923217000,7.109216796875,0.0122509942859411,0.0290682735741138,-0.0211485864907503,0.0034434469416737,-0.0021487870253622,0.0022000670433044
1783204235933153800,7.11915380859375,0.0086351418763399,0.0297201616115868,-0.0338391412377357,-0.003105797804892,0.0028435750864446,0.0025747739709913
1783204235943092000,7.129092041015625,0.0038438159465789,0.0091319854825735,-0.0138613520920276,-0.0057305479422211,0.0051603894680738,0.0038668923079967
1783204235953028900,7.13902880859375,-0.0083244684919714,0.0076636664956808,-0.0132581255018711,-0.0073183244094252,0.0046575851738452,0.0019097356125712
1783204235962967000,7.148967041015625,-0.0088242347076535,0.0007911503776907,-0.014401450318098,-0.0027685118839144,-0.0002049412578344,0.0017058795783668
1783204235972904000,7.158904052734375,-0.0051598669812083,-0.0044315527066588,-0.0334551103562116,-0.0027259020134806,-0.0044678626582026,0.0010550029110163
1783204235982841000,7.168841064453125,-0.0048845571711659,-0.011667349179089,-0.0376671750932931,-0.0009683361276984,-0.0013495068997144,0.0049899853765964
1783204235992779000,7.178779052734375,-0.0026174890220165,-0.0068722238570451,-0.032499417066574,0.0024836529046297,-0.0010989033617079,0.004104483872652
1783204236002716000,7.1887158203125,0.0024921090766787,0.0001151508122682,-0.0318809929072856,0.0003349017351865,0.0020225807093083,0.0029075376223772
1783204236012652800,7.19865283203125,-0.0054708326265215,-0.0021370120286941,-0.0148690678298473,-0.0031122947111725,0.0045214248821139,0.006132093258202
1783204236022591000,7.208591064453125,-0.0156777538642287,0.0051247956678271,-0.0099883100509643,-0.006959905847907,0.007052487693727,0.0052355779334902
1783204236032528000,7.21852783203125,-0.0175987850546836,-0.0026880700401961,-0.0154693718105554,-0.0107426587492227,0.0041504413820803,0.00072657992132
1783204236042465000,7.228465087890625,-0.0199900641053915,-0.0158443426027894,-0.008569675424695,-0.0108663104474544,-0.0076262261718511,-0.0008692285045981
1783204236052403000,7.23840283203125,-0.0286763516470789,-0.0123044780388474,-0.0288426481246948,-0.0135670211166143,-0.0086888270452618,-0.0003778752870857
1783204236062340000,7.248340087890625,-0.0260620774954557,0.0021073475427925,-0.0320142638981342,-0.0034921839833259,-0.0118961222469806,0.0001391002442687
1783204236072278000,7.258278076171875,-0.0234761526554822,0.0037878479756414,-0.0463829809904098,-0.0048328191041946,-0.0058084027841687,-0.0031525669619441
1783204236082215000,7.26821484375,-0.0184977797210216,0.0201643977589905,-0.0546890370428562,-0.0028667515143752,-0.0064081884920597,-0.0003604274243116
1783204236092151800,7.27815185546875,-0.0172936646282672,0.0240153740987181,-0.0609714783132076,-0.0014973534271121,-0.0084257991984486,-0.0017687070649117
1783204236102090000,7.288090087890625,-0.0185825353950262,0.0107131171941757,-0.0683493136048317,0.0008124206215143,-0.000983796082437,-0.0008973306976258
1783204236112027000,7.29802685546875,-0.0329302096992731,0.0206675249755382,-0.0587614010483026,0.0039016874507069,0.0042881974950432,-0.005960532464087
1783204236121964000,7.307964111328125,-0.0379074135899543,0.0198624922029674,-0.0643207887411117,0.0067899078130722,0.0083831129595637,-0.0050179501995444
1783204236131902000,7.31790185546875,-0.0158186236396431,-0.0031949966490268,-0.0718342331111431,0.0119977192953228,0.0104451980441808,-0.003209397662431
1783204236141839000,7.327839111328125,0.0012155132696032,-0.000787789376825,-0.0578583147287368,0.0149678671732544,0.0138085894286632,-0.0035305675119161
1783204236151775700,7.337775634765625,0.0017073884397745,-0.0004490589417517,-0.0507832617759704,0.0164342038333416,0.012822420336306,-0.0004229247570037
1783204236161714000,7.3477138671875,-0.001014437739551,-0.0031276305012404,-0.0343196182310581,0.0142521942034363,0.0108621791005134,0.0015218891203403
1783204236171650800,7.35765087890625,-0.006574117693305,-0.0170449505642056,-0.0110538934558629,0.0145613867789506,0.0067779552191495,0.000181520357728
1783204236181588000,7.367587890625,-0.022299802352488,-0.0178179807633161,0.0089309099525213,0.0124587602913379,0.0059370645321905,-0.0028400549199432
1783204236191526000,7.37752587890625,-0.0274263515859842,-0.0262348037138581,0.0249848036527633,0.0092861372977495,0.0031838885042816,-0.0070177558809518
1783204236201463000,7.387463134765625,-0.0365542454153299,-0.0227297182023525,0.020250176346302,0.0021481057628989,0.0004449188709259,-0.0086448173969984
1783204236211401000,7.39740087890625,-0.0362348042026162,-0.0033344051197171,0.026540800923109,-0.0029374677687883,-0.0022536623291671,-0.0142883220687508
1783204236221338000,7.407338134765625,-0.0237663677737116,0.0233761994123458,0.0177998605847358,-0.0054169092327356,-0.0013243104331195,-0.0136066824197769
1783204236231274800,7.417274658203125,0.0004433598533272,0.0309825827628374,0.0184878428488969,-0.0078483745455741,-0.0050945477560162,-0.0104990396648645
1783204236241213000,7.427212890625,0.010753449204564,0.0230607037223875,-0.0043178631991147,-0.0044906828552484,-0.0089982487261295,-0.0092264041304588
1783204236251149800,7.43714990234375,0.0262277894511818,0.0292597044929862,-0.0123731593608856,-0.0012919595465064,-0.001864971127361,-0.0052724094130098
1783204236261087000,7.4470869140625,0.0212120071157813,0.0211446409679949,-0.0206850606322288,0.0013909488916397,-0.0009101503528654,-0.0026809745468199
1783204236271025000,7.45702490234375,0.0144955583423376,0.0226082837797701,-0.0346539647519588,0.0009539239108562,0.0002959952689707,-0.0019728399347513
1783204236280962000,7.466962158203125,0.0052086745589971,0.0118704705357551,-0.0356330389171838,-0.0014072339981794,-0.0019525117240846,-0.0009541807230561
1783204236290899000,7.47689892578125,0.003815758895874,0.0082690850429236,-0.0457692330062389,-0.0030999397858977,0.0006352821364998,0.0019145761616528
1783204236300837000,7.486837158203125,-0.0039382162317633,0.0016495207726955,-0.0497697008192539,-0.0044023292139172,0.0005365367978811,-0.0009628345724195
1783204236310773800,7.496773681640625,-0.0053302551120519,-0.0056703007213771,-0.0570867458343505,-0.0034371996298432,-0.0040068160742521,-0.0006981163751333
1783204236320712000,7.5067119140625,-0.0022127076134085,-0.0108382048785686,-0.0771796857923269,0.000991266220808,-0.0060808272100985,0.0029582718852907
1783204236330648800,7.51664892578125,0.0063227732807397,-0.0017747545875608,-0.0885363615870475,0.0097828935831785,-0.0049417936243116,0.0045843981206417
1783204236340586000,7.5265859375,0.0149301503673195,0.0047618075743317,-0.0889472804754972,0.014137465506792,-0.0036815088242292,0.0040519451722502
1783204236350524000,7.53652392578125,0.0194268772646784,0.0081654785379767,-0.0696627342909574,0.0171907804906368,0.0022988854907453,0.0064019188284873
1783204236360461000,7.5464609375,0.0232134100660681,0.0109787823930382,-0.0478892939001321,0.0132590793073177,0.0068974918685853,0.0069972584024071
1783204236370398000,7.55639794921875,0.0089066522940993,0.0174143683984875,-0.01471475405097,0.0069066416472196,0.0113444384187459,0.0065623642876744
1783204236380336000,7.566336181640625,-0.0119365215092897,0.002705021174997,-0.002055178964138,-0.0027760369703173,0.0116409258916974,0.0072168828919529
1783204236390272800,7.576272705078125,-0.021482933011651,-0.0061398179292678,0.0144873750358819,-0.0004385812208056,0.0018263785168528,0.0036064353771507
1783204236400210000,7.5862099609375,-0.0200844643905758,-0.0013956921420991,0.0104874917447566,-0.0047027664259076,-0.0086692655459046,0.0022417076397687
1783204236410147800,7.59614794921875,-0.0308221315041184,-0.0097673607766628,-0.0022141689181327,-0.0012353304773569,-0.0155034707859158,-0.0005205229390412
1783204236420085000,7.6060849609375,-0.0415016386896371,0.010380524238944,-0.0258206699550151,0.0043004471808671,-0.0149367097765207,0.0026064803823828
1783204236430023000,7.61602294921875,-0.0393847926661372,0.0095016955778002,0.0042711014479398,0.0112457051873207,-0.0065868999809026,-0.0011118252296
1783204236439960000,7.6259599609375,-0.0362917950868606,0.0134114163674414,-0.0061883332461118,0.0076230885460972,-0.0050024753436446,-0.0022547761909663
1783204236449897000,7.63589697265625,-0.0316939459025859,-0.0006045417644083,-0.0118079266935586,0.0016900980845093,-0.0063020978122949,-0.0024087070487439
1783204236459835100,7.645835205078125,-0.0261851193532347,-0.0147056939616799,-0.0059749827563762,-0.0055306758731603,-0.0068112914450466,-0.004933554213494
1783204236469771800,7.655771728515625,-0.024026772275567,-0.0254839853465557,-0.0124865566074848,-0.011153407394886,-0.0039928681217134,-0.0064973626285791
1783204236479709000,7.665708984375,-0.0267445068016648,-0.0160176533430814,-0.0297521641850471,-0.015570948831737,-0.0063306563533842,-0.0104902982711792
1783204236489646800,7.675646728515625,-0.0244651636928319,-0.0193168410189449,-0.0401221670299768,-0.0136995455250144,0.0017637554556131,-0.0070803873240947
1783204236499584000,7.685583984375,-0.007353577633202,-0.0208196467973291,-0.0591945317685604,-0.0065289139747619,0.0043700644746422,-0.0085604293271899
1783204236509521000,7.69552099609375,-2.54267022013e-05,-0.0087280808568,-0.0617640899956226,-0.0015075234696269,0.0071232402697205,-0.0054719615727663
1783204236519459000,7.705458984375,-0.0010404489636421,0.0013872165746986,-0.0552373185753822,0.0054073198698461,0.0053902063518762,-0.0054157716222107
1783204236529396000,7.71539599609375,0.0156616795122623,0.0005966507188975,-0.038836803394556,0.0040491074323654,-0.0027076681144535,-0.0066943550482392
1783204236539334100,7.725334228515625,0.0299213832721114,0.009433014255762,-0.0268704712688922,0.0001047449186444,-0.0050836484879255,-0.0010991911403834
1783204236549270800,7.735270751953125,0.0380938760727644,0.0237597919024527,-0.0264449393332004,0.000332711264491,-0.0017219400033354,-0.0016480686608701
1783204236559208000,7.7452080078125,0.0337830271363258,0.0350086234085261,-0.0240817173331975,-0.0008665127679705,-0.0036367392167448,0.0031066890805959
1783204236569145900,7.755145751953125,0.0319406141400337,0.0295052036866545,-0.0324859730631113,-0.0029046293348073,-0.0017893039621412,0.0051432088948786
1783204236579083000,7.7650830078125,0.0277472541034221,0.0237912099540233,-0.0450567008227109,-0.0004434557631611,-0.0025751972571015,0.0054026949219405
1783204236589020000,7.77502001953125,0.0183028416708111,0.015527093347162,-0.048814592051506,0.0012138290330767,0.0002799774520099,0.0071276244707405
1783204236598958000,7.7849580078125,-0.0139808868184685,0.0106818452730774,-0.0503910475879907,0.005139029584825,0.0011832895688712,0.0062443553470075
1783204236608895000,7.79489501953125,-0.0162166830465197,0.0100520229369401,-0.0475602080762386,0.005580314900726,0.0023412322625517,0.0063266470097005
1783204236618833200,7.804833251953125,-0.0137155138805508,0.0116407534331083,-0.0453524688988924,0.0015954114496707,0.0021225484088063,0.0046221343800425
1783204236628769800,7.814769775390625,-0.0266425077319145,-0.0031175474986433,-0.0358908130705356,0.0060367649421095,0.0050056865438818,0.0056381300091743
1783204236638707000,7.82470703125,-0.0336307591840624,-0.0086537004463374,-0.0313940861731767,0.0089637776836752,-0.0029128435999155,0.0037256211508065
1783204236648644900,7.834644775390625,-0.041667935167253,-0.0071828972414135,-0.043562662872672,0.0104221245273947,-0.0030095158144831,0.0036838094238191
1783204236658582000,7.84458203125,-0.0329544673576951,-0.0064275488294661,-0.0241705646604299,0.0109360236674547,0.0028649577870965,0.0025579091161489
