time,seconds_elapsed,ax,ay,az,gx,gy,gz
1783204256727086000,0.094086181640625,0.0298430573388934,-0.0089405545637011,0.0531985062241554,-0.0432689674198627,-0.0580908097326755,0.0315344855189323
1783204256737023200,0.104023193359375,-0.0186865802913904,-0.0513651533171534,-0.0218938519001007,-0.0447640679776668,-0.0513591393828392,0.0230331420898437
1783204256746960100,0.113960205078125,-0.0636865824908018,-0.0992813352242112,-0.1099456448405981,-0.0373596027493476,-0.0308218896389007,0.0146266566589474
1783204256756897000,0.12389697265625,-0.0919189897626638,-0.1255095630668103,-0.2205564755916595,-0.0232033021748065,-0.0136114750057458,0.0071466360241174
1783204256766834000,0.133833984375,-0.1025318614527583,-0.122056207742542,-0.2739607335209846,-0.0071269795298576,-0.005803941283375,0.0006827935576438
1783204256776771000,0.14377099609375,-0.1105062013328075,-0.1065399280503392,-0.2977297316431999,0.0140478145331144,-0.0092905517667531,0.0009150211699306
1783204256786708200,0.153708251953125,-0.0830500391304493,-0.1089203934460878,-0.2909685669451952,0.023555064573884,-0.0113756032660603,-0.006343609187752
1783204256796645000,0.16364501953125,-0.0522211856245994,-0.1087140572190284,-0.2673234874635934,0.0392208434641361,0.0010179486125707,-0.0119727328419685
1783204256806583000,0.1735830078125,-0.0517906852528452,-0.0899906520485877,-0.2217208431959152,0.047148510813713,0.017915092408657,-0.0162392444908618
1783204256816520000,0.18352001953125,-0.0434665090218186,-0.0139048989728093,-0.1431996796667575,0.0445639118552207,0.0417498499155044,-0.0194230526685714
1783204256826457000,0.19345703125,-0.0347042336344718,0.0513271593943238,-0.0370779770284891,0.0341363847255706,0.0459240637719631,-0.0200279001146554
1783204256836394000,0.20339404296875,-0.0025841712743043,0.0753669372819364,0.0569300939679145,0.0202796924859285,0.038239512592554,-0.0156328845769166
1783204256846331100,0.2133310546875,0.0477349801212549,0.0632920302152633,0.1091384201109409,0.0032930113375186,0.0225930586457252,-0.0155501225963234
1783204256856268300,0.223268310546875,0.0717307727366685,0.0541391480751335,0.1292979955643415,-0.0120673030614852,0.0067440550774335,-0.0109258098527789
1783204256866205000,0.233204833984375,0.0715381727740168,0.0533864300116896,0.135015204167366,-0.018264003098011,-0.0005585658363997,-0.0059814509004354
1783204256876142000,0.24314208984375,0.046869303202629,0.080487056774646,0.1188280394762754,-0.021723449230194,0.003402353497222,-0.0055462904274463
1783204256886079000,0.253078857421875,0.0382417601108551,0.0688973028764128,0.1123293251067399,-0.0167347379028797,-0.0003175768069922,2.26034317165e-05
1783204256896016100,0.26301611328125,0.050478141349554,0.0522623944178223,0.0520855765461921,-0.0204045735299587,-0.0140831898897886,0.0051044477149844
1783204256905953300,0.272953369140625,0.0659817076906561,0.0216951144576072,0.0096896193653345,-0.0213692374527454,-0.0274306554347276,0.010219782590866
1783204256915890000,0.282889892578125,0.0598968348190188,-0.0213138600550591,-0.0350146147578954,-0.0220094621181488,-0.0359474420547485,0.0106645300984382
1783204256925827000,0.2928271484375,0.0396495810821652,-0.0340653512090444,-0.0741547850131988,-0.0122226616367697,-0.0390493869781494,0.0074205975979566
1783204256935764000,0.302763916015625,0.0032499417066574,-0.0391011534191668,-0.1717681870251894,-0.0074364291504025,-0.0106068262830376,0.0003278008662164
1783204256945701000,0.312701171875,-0.0376353186503052,-0.0291598973803222,-0.1799088233828544,0.0067106499336659,0.01936736702919,-0.0017899125814437
1783204256955638300,0.32263818359375,-0.0444961443305015,-0.0057201312124729,-0.1766132889688015,0.0166575573384761,0.0320647880434989,-0.00290790759027
1783204256965575000,0.332574951171875,-0.0268944366663694,-0.0137504390634596,-0.1997925045043229,0.0213117264211177,0.0293780043721199,-0.0051714666187763
1783204256975512000,0.342511962890625,0.0159819975078105,-0.0323952260397374,-0.1666407610088586,0.0225346498191356,0.0196401551365852,-0.001339444424957
1783204256985449000,0.352448974609375,0.0181347916275262,-0.031073622047156,-0.1310889706343412,0.0262772403657436,0.0076226158998906,0.0015922284219413
1783204256995386000,0.36238623046875,0.0114162970274686,-0.0139990069970488,-0.106471246728301,0.0307814441621303,0.0066364472731947,-3.15008219331e-05
1783204257005324000,0.372323974609375,-0.0167135266527533,0.0060386956423521,-0.0760930595993995,0.039706964045763,0.0158500242978334,-0.0079651530832052
1783204257015261000,0.382260986328125,-0.0278512989997863,0.0025716040536761,-0.0465156674593687,0.0419573336839675,0.0241921097040176,-0.0112650766968727
1783204257025198000,0.392197998046875,-0.0305719561353325,0.0301020005360245,-0.0040764556586742,0.0370723605155944,0.0227277223020792,-0.0075285881757736
1783204257035135000,0.402135009765625,-0.0014075287103652,0.0312266206517815,-0.0015419687449932,0.0369216240942478,0.0118865258991718,-0.0012022489681839
1783204257045072100,0.412072021484375,0.0257987503841519,0.0187174138210713,-0.0145639474034309,0.038531593978405,0.0031028613448143,0.0074245920404791
1783204257055009000,0.422009033203125,0.0191997905105352,0.0171074944064021,-0.0251017080307006,0.0445932149887084,0.0122478902339935,0.0096259610727429
1783204257064946000,0.43194580078125,0.0027870003700256,0.0194071496509015,-0.0130500357091426,0.0443612672388553,0.035916544497013,0.0099402358755469
1783204257074883000,0.441883056640625,-0.0365937006428837,0.0123559159651398,-0.0148731594830751,0.0437700450420379,0.0635582953691482,-0.0012026960030198
1783204257084820000,0.451820068359375,-0.0677528090164065,0.0362672451674938,-0.0278577287405729,0.0454006567597389,0.0452795289456844,-0.0112257590517401
1783204257094757000,0.461757080078125,0.0070896660000085,0.0303974763512611,-0.065465282601118,0.033019620925188,0.0458838008344173,-0.0109437303617596
1783204257104694000,0.471694091796875,0.0240016378343105,-0.0018009119421243,0.0704407329261302,0.0098751336336135,0.0091271931305527,-0.0041564805433154
1783204257114631000,0.481630859375,0.0326025851801037,-0.0303346402481198,0.0746837773233652,-0.003447862342,-0.0153792146593332,0.0012015332467854
1783204257124568000,0.491568115234375,0.0055105801150202,-0.0324450565308332,0.0163350487291812,-0.006504962220788,-0.0158993005752563,-0.0084272436797618
1783204257134505000,0.5015048828125,-0.0142106039211153,-0.0462890190966427,0.0170300452560186,-0.0084301605820655,-0.0013334075920283,-0.0185496527701616
1783204257144442000,0.511442138671875,-0.0366001303836703,-0.0244312614232301,-0.0032253917872905,-0.0093510821461677,0.0092113781720399,-0.0183879993855953
1783204257154380000,0.521380126953125,-0.0368427069678902,-0.0153647423923015,-0.0382914444714784,-0.0097433663904666,0.0171297546476125,-0.0179592296481132
1783204257164317200,0.531317138671875,-0.017407938657701,-0.0004990355633199,-0.038366847795248,-0.0128273069858551,0.0210091825574636,-0.0189443342387676
1783204257174253800,0.54125390625,-0.0220733001202344,0.0065659343868494,-0.0341185427010059,-0.0178822521120309,0.017059713602066,-0.0174071565270423
1783204257184191000,0.55119091796875,-0.0105342534959316,-0.0036027006670832,-0.0134901806920766,-0.0192487128078937,0.0087225753813982,-0.015651449561119
1783204257194128100,0.561128173828125,-0.0006684007808566,-0.0138308108232915,-0.0107008422344923,-0.0184713378548622,-0.0025074421428143,-0.0141414375975728
1783204257204065000,0.57106494140625,0.0098123689621686,-0.0155215403892099,0.0031914895176887,-0.0187397617846727,-0.0140918102115392,-0.0152562316507101
1783204257214002200,0.581002197265625,0.018415069873631,0.006489215888828,0.0101052144289016,-0.0197965037077665,-0.0136774238198995,-0.0165465325117111
1783204257223938800,0.590938720703125,0.0293807005241513,0.0457354768671095,0.0384732307791709,-0.0265965946018695,-0.0140725169330835,-0.0077076544985175
1783204257233876000,0.6008759765625,0.0362540934249758,0.0569514290168881,0.0678758508741855,-0.0334553010761737,-0.0290631856769323,-0.0040713744238018
1783204257243813000,0.610813232421875,0.0606412234455347,0.0479839864462614,0.0695008217275142,-0.0342997536063194,-0.0443228632211685,-0.0003452259115874
1783204257253750000,0.62075,0.0566539073750376,0.0496381833940744,0.0401911406129598,-0.03645770996809,-0.0462264902889728,0.0026992999482899
1783204257263687200,0.630687255859375,0.0617526918187737,0.0328261648029089,0.0434381597101688,-0.0407165400683879,-0.0474866479635238,0.0052245943807065
1783204257273625000,0.640625,0.0463189758434891,0.0446038424886763,0.0709831692397594,-0.0486431717872619,-0.0518209412693977,0.0079623237252235
1783204257283562000,0.65056201171875,0.0314338336616754,0.0651680532202124,0.072048752644658,-0.056881844997406,-0.0608775801956653,0.0141402836889028
1783204257293499000,0.660498779296875,0.0419371074974536,0.0630368864104151,0.0966343278467655,-0.0620667487382888,-0.0772440433502197,0.0235870480537414
1783204257303436000,0.67043603515625,0.0479512532204389,0.0756483845718204,0.1496130538403987,-0.0748579874634742,-0.1040481179952621,0.0361301749944686
1783204257313373200,0.680373291015625,0.022227029377222,0.1667959515705704,0.2734095293790102,-0.0942340865731239,-0.1237025111913681,0.0455710813403129
1783204257323310000,0.69031005859375,0.0652069239258766,0.1950125767514109,0.4524871626347303,-0.112865999341011,-0.1788397431373596,0.0580826960504055
1783204257333247000,0.7002470703125,0.1256149231374263,0.1337624276272952,0.4498129749894142,-0.1270915418863296,-0.2385105341672897,0.0756944492459297
1783204257343184000,0.710183837890625,0.1551017143845558,0.0982028923377394,0.4786515314608812,-0.1436812281608581,-0.2960665225982666,0.0941156968474388
1783204257353121000,0.72012109375,0.1180038636118173,0.1738330106005072,0.5675508811414242,-0.170751467347145,-0.3374078571796417,0.0995549336075782
1783204257363058200,0.73005810546875,0.0434141943126916,0.2083214095272123,0.5301344659388065,-0.1986118853092193,-0.3420282006263733,0.08671585470438
1783204257372995000,0.7399951171875,0.0598687777683138,0.071959320795536,0.4429191238224506,-0.233547493815422,-0.3013353645801544,0.0788840278983116
1783204257382933200,0.749933349609375,0.0586558948472142,-0.1247831484884023,0.246602186474204,-0.2731015682220459,-0.2530694901943207,0.0592249706387519
1783204257392870000,0.759869873046875,-0.0218304312750697,-0.1999324974969029,-0.0457569580465555,-0.3131760358810425,-0.1947625130414962,0.0350687652826309
1783204257402807000,0.76980712890625,-0.1255892041742801,-0.201144503635168,-0.3182230690956115,-0.3359425365924835,-0.1191914528608322,0.0194776691496372
1783204257412744000,0.779743896484375,-0.2270981523200869,-0.2389956569932401,-0.4904845925956964,-0.3238416612148285,-0.0470437593758106,-0.0025618532672524
1783204257422681000,0.78968115234375,-0.2988379851460456,-0.2963838699921965,-0.6303466522723435,-0.2765527665615082,-0.0183364190161228,-0.0322062708437442
1783204257432618200,0.7996181640625,-0.2861158662170172,-0.3445874905385077,-0.7951017456650733,-0.2069537341594696,-0.019116723909974,-0.0534545704722404
1783204257442555000,0.809554931640625,-0.2254258351936936,-0.3756634506732225,-0.9083785807549952,-0.1233939379453659,-0.0273553021252155,-0.0654403567314148
1783204257452492000,0.819491943359375,-0.1521238676175475,-0.3628182898864149,-0.9111913000881672,-0.0427683368325233,-0.0320288836956024,-0.0667378455400466
1783204257462429000,0.829428955078125,-0.0911143953815102,-0.2664481659337878,-0.8340729890942573,0.0242638681083917,-0.0319706872105598,-0.0624461136758327
1783204257472367000,0.8393671875,-0.0374383347734808,-0.1170417405813932,-0.6979898634344339,0.0700800940394401,-0.0172929409891366,-0.055790077894926
1783204257482304000,0.849303955078125,0.0364195131197571,0.0101907007552683,-0.5191296723216772,0.0864485055208206,0.0001282533630728,-0.0504363738000392
1783204257492241200,0.8592412109375,0.1198261106029152,0.0884850697912275,-0.3311731515616178,0.0824660137295723,0.0129383243620395,-0.0358015038073062
1783204257502178000,0.869177978515625,0.1710813738048076,0.154831811401993,-0.1311585287392139,0.0610152930021286,0.0274773221462965,-0.0266933310776948
1783204257512115000,0.879114990234375,0.2137254605278372,0.2166900094218552,0.0687082100450992,0.0355179235339164,0.0212644319981336,-0.0140031026676297
1783204257522052000,0.889052001953125,0.2269528986304998,0.2319901621453464,0.19530337639153,0.0094705438241362,0.0056429607793688,-0.0039864112623035
1783204257531989000,0.898989013671875,0.2306912083759904,0.2598708333700895,0.3247644535630941,-0.0111622968688607,-0.0270761027932167,0.0088729280978441
1783204257541926100,0.908926025390625,0.2298562188565731,0.2592000945016741,0.4082300877571105,-0.0288473051041364,-0.0657776966691017,0.0277260839939117
1783204257551863000,0.918863037109375,0.2407718728855252,0.252988818771392,0.4621119000703096,-0.0494860038161277,-0.1187594234943389,0.0482928790152072
1783204257561801000,0.928801025390625,0.2380062075644731,0.2342015545845031,0.4789817863285541,-0.0685100331902504,-0.1652968376874923,0.0650825127959251
1783204257571738000,0.938738037109375,0.2201645536646246,0.1902075145572423,0.4798620762944221,-0.0886035785079002,-0.1919002085924148,0.0889441668987274
1783204257581675000,0.948675048828125,0.1966024762913584,0.1597521705389022,0.4789467150151729,-0.1142554879188537,-0.2317517697811126,0.1112993285059928
1783204257591612200,0.958612060546875,0.1857180941835045,0.1597204602263867,0.4401157568395137,-0.1385347247123718,-0.2571450173854828,0.1288644820451736
1783204257601549000,0.968549072265625,0.1256599313229322,0.0758805858924984,0.4103296903848648,-0.1690609455108642,-0.2695059776306152,0.1365805864334106
1783204257611486000,0.97848583984375,0.0697904523238539,0.027107787156105,0.3805237501859664,-0.2027022689580917,-0.2739278972148895,0.1362168043851852
1783204257621423000,0.988423095703125,0.017683832989633,0.0056057110525667,0.3436579546034335,-0.235601931810379,-0.2787014245986938,0.1363454014062881
1783204257631360000,0.998360107421875,-0.0233598327994346,-0.0232610486000776,0.2851572503179311,-0.2612527012825012,-0.2795858681201935,0.1321352124214172
1783204257641298200,1.008298095703125,-0.0353533451929688,-0.0421790995597839,0.2139958019018173,-0.2796440422534942,-0.2868475615978241,0.1308815777301788
1783204257651235000,1.018235107421875,-0.0520733015865087,-0.067556117400527,0.1237853696227073,-0.2931481301784515,-0.2898931503295898,0.1248593628406524
1783204257661172200,1.028172119140625,-0.0428220736384391,-0.0653513738978654,0.0618348171442747,-0.2977882921695709,-0.2965834140777588,0.1228277534246444
1783204257671108900,1.03810888671875,-0.0541404632493853,-0.0903745367996394,-0.0315448928207159,-0.2920617163181305,-0.3094485998153686,0.1188066452741622
1783204257681046000,1.0480458984375,-0.0466033457428216,-0.0915028101772069,-0.1308627606630325,-0.2814490497112274,-0.3126756548881531,0.1133285015821456
1783204257690983200,1.057983154296875,-0.0384150708511471,-0.0906025734018534,-0.1976303580343723,-0.2607909142971039,-0.3050174713134765,0.110198751091957
1783204257700920000,1.067920166015625,-0.0262315888434648,-0.0942706674553453,-0.2971592382788658,-0.2409737110137939,-0.2883097231388092,0.1028438583016395
1783204257710858000,1.07785791015625,-0.0155813077524304,-0.101451153543964,-0.3745388305574655,-0.2092847526073455,-0.271696388721466,0.1020821928977966
1783204257720795100,1.087795166015625,0.004203589169681,-0.1077533954933285,-0.4433925865530967,-0.1757472455501556,-0.2773129940032959,0.1010365709662437
1783204257730732000,1.09773193359375,-0.0003577273964881,-0.1153217118557542,-0.5195616339981556,-0.1335340142250061,-0.269266277551651,0.1023913249373436
1783204257740669000,1.1076689453125,0.0172778825372457,-0.1221233546946197,-0.5867997714906931,-0.0834316536784172,-0.2585998475551605,0.0902953296899795
1783204257750606000,1.117606201171875,-0.0072153382062911,-0.113654290100187,-0.5902554649025201,-0.0404575541615486,-0.2232133597135543,0.076875127851963
1783204257760543200,1.127543212890625,0.0175227972090244,-0.1027971613254398,-0.6084177290588617,-0.0144992843270301,-0.1741986572742462,0.0623556151986122
1783204257770480000,1.137480224609375,0.0518543981388211,-0.0854663795571774,-0.5670429316192865,-0.0097884181886911,-0.1098830476403236,0.0547821186482906
1783204257780417000,1.1474169921875,0.0749623020038008,-0.0546901330213993,-0.5191892935544252,-0.0207761079072952,-0.0453641302883625,0.0523826740682125
1783204257790355000,1.15735498046875,0.0843517693787813,-0.0524297868739813,-0.4587310254603624,-0.0290550775825977,0.0004611490294337,0.04950512945652
1783204257800292000,1.1672919921875,0.0701549017220735,-0.0443970678701996,-0.4235287791758775,-0.0258721951395273,0.0285481549799442,0.0450170710682868
1783204257810229000,1.17722900390625,0.0623357524037361,-0.0534663633801043,-0.4068856874108314,-0.0187053624540567,0.0402628704905509,0.0423893295228481
1783204257820166100,1.187166259765625,0.0493014987856149,-0.0509564263857901,-0.359272872364521,0.0034043798223137,0.0383980236947536,0.038101889193058
1783204257830103000,1.19710302734375,0.0359112713366746,-0.0465540267083793,-0.3328846316546202,0.0372254587709903,0.0285110399127006,0.0353820025920867
1783204257840040000,1.2070400390625,0.0182274383470416,-0.0252439660456031,-0.3186404177248478,0.0688892006874084,0.0247132033109664,0.0329934284090995
1783204257849977900,1.216977783203125,0.0062882864892482,-0.0001869739394634,-0.2489940500468015,0.0949698016047477,0.021365875378251,0.0333934351801872
1783204257859915000,1.2269150390625,0.0006289455533027,0.0057801908366382,-0.1644172397404909,0.1028461530804634,0.018189450725913,0.0358313731849193
1783204257869852200,1.23685205078125,0.0127694652020931,0.0007491378668695,-0.0916068550735712,0.1012695655226707,0.0182339251041412,0.0380838774144649
1783204257879789000,1.2467890625,0.0150257196962833,0.003417553358525,-0.0002279635369777,0.0876951590180397,0.0205326434224843,0.0408790707588195
1783204257889726200,1.256726318359375,0.0051946460336446,0.0178555362947285,0.0711924280762672,0.0629786252975463,0.0170209985226392,0.0383221693336963
1783204257899662800,1.266662841796875,-0.0211021170005202,0.0064182695444673,0.1292255148500204,0.0398535281419754,0.0163000337779521,0.0336018912494182
1783204257909600000,1.27660009765625,-0.0405173038274049,0.0021795359961688,0.1910252606809139,0.0183580890297889,0.0055009145289659,0.0294324457645416
1783204257919538000,1.286537841796875,-0.0556669421643018,-0.0071188190292567,0.1810579934179782,0.0053554531186819,-0.0019145859405398,0.0231802761554718
1783204257929475000,1.29647509765625,-0.0791325734257698,-0.0293604614537209,0.1488864931315183,-0.00092055182904,-0.0036160796880722,0.0142879812046885
1783204257939412200,1.306412109375,-0.0880482858091592,-0.0303349325090646,0.1470025790810585,-0.0086864065378904,-0.0146006010472774,0.0090073775500059
1783204257949349000,1.31634912109375,-0.0836912596434354,-0.0254454069018363,0.104268768247962,-0.0176625903695821,-0.0278429016470909,0.003772934898734
1783204257959286000,1.3262861328125,-0.0737564333453774,-0.0286962253913283,0.0711591103285551,-0.0234263371676206,-0.0357065163552761,0.0050595449283719
1783204257969223000,1.336222900390625,-0.0696381843715906,-0.0510032612022012,0.0543687190473079,-0.0295601319521665,-0.0403665155172348,0.0015915767289698
1783204257979161000,1.3461611328125,-0.0698079879805445,-0.0376588456563651,0.0353986456394195,-0.0387271866202354,-0.0335543677210807,-0.0075219394639134
1783204257989098000,1.356097900390625,-0.078826283955574,-0.0396880864616483,-0.0107744919925928,-0.0414446741342544,-0.018467029556632,-0.0088290190324187
1783204257999035100,1.36603515625,-0.0634182869434356,-0.0427258467223495,-0.033937340915203,-0.0459750480949878,-0.0111079700291156,-0.0161794852465391
1783204258008972300,1.37597216796875,-0.0592433393463492,-0.0358488736249506,-0.0638140082627534,-0.0440261475741863,-0.0039171683602035,-0.0223124790936708
1783204258018909000,1.385908935546875,-0.0266705647826194,-0.0372859206907451,-0.1120820723474025,-0.0381883531808853,0.0031421594321727,-0.0215216670185327
1783204258028846000,1.39584619140625,0.0035036242067813,-0.0280596810534596,-0.1159247192502021,-0.0362820625305175,0.0067339646629989,-0.0211632065474987
1783204258038783700,1.40578369140625,0.0245382289290428,-0.0104538817360997,-0.1349281104058027,-0.0266105514019727,0.0029787260573357,-0.0144965425133705
1783204258048721000,1.415720947265625,0.0430658192664384,0.0036710166629403,-0.1347328800946474,-0.0173888243734836,-0.0055388621985912,-0.0125266015529632
1783204258058657800,1.42565771484375,0.0594461684420704,0.0119898591317236,-0.1490682794392109,-0.0076039554551243,-0.0119591150432825,-0.0113868601620197
1783204258068594700,1.4355947265625,0.0625721915081143,0.0241613584406673,-0.1562257499784231,0.0037935748696327,-0.011599589139223,-0.0085809547454118
1783204258078531800,1.44553173828125,0.0622898674353957,0.0369292162075638,-0.1307283206284046,0.0093388753011822,-0.001570604275912,-0.0069544203579425
1783204258088468700,1.45546875,0.076752400290966,0.043972631913051,-0.1109194583088159,0.0090483240783214,0.0032023128587752,-0.0027937637642025
1783204258098407000,1.465406982421875,0.089475396002829,0.0528645980946719,-0.1060416231393814,0.0054440232925117,0.0056352852843701,0.0023666166234761
1783204258108343800,1.47534375,0.08675999956429,0.0525857811532914,-0.073054130294919,-0.001057019457221,0.0132870795205235,0.0076109133660793
1783204258118281000,1.485281005859375,0.0794362325474619,0.037930502204597,-0.0573866055637598,0.0028826370835304,0.0134789440780878,0.0098207555711269
1783204258128217600,1.495217529296875,0.0619847470089793,0.0293100464407354,-0.0345522579431533,0.0022802297025918,0.0078354394063353,0.0102958641946315
1783204258138154800,1.50515478515625,0.0475008791044354,0.022019085714966,-0.0537689995884895,0.0049568880349397,0.007343319710344,0.0131769683212041
1783204258148092700,1.5150927734375,0.0377589450299739,0.0199300775464624,-0.048648587834835,0.004000280983746,0.0064783249981701,0.0141351744532585
1783204258158029800,1.52502978515625,0.0147249831840395,0.0060888183943927,-0.0255120423972606,0.0048052407801151,0.0019043600186705,0.0169479958713054
1783204258167966700,1.534966796875,-0.0071823127195239,-0.0045801673971116,-0.0236439104378223,0.0042148176580667,-0.0102399196475744,0.0160526409745216
1783204258177903900,1.54490380859375,-0.0140802555397152,-0.0148969787500798,-0.0142319389700889,0.0075353411957621,-0.0161563344299793,0.0113800521939992
1783204258187840800,1.5548408203125,-0.0328381475016474,-0.0409589101150631,-0.0275076001286506,0.0042221024632453,-0.0119008691981434,0.0086902594193816
1783204258197777700,1.564777587890625,-0.0313180983275175,-0.0460682890180498,-0.0219184018194675,-0.0010963752865791,-0.0038217329420149,0.0027791995089501
1783204258207715800,1.5747158203125,-0.0593090980589389,-0.0424896998789161,-0.0086076693475246,-0.0034189186990261,0.0048876032233238,-0.0003657275810837
1783204258217652700,1.58465283203125,-0.0685953973203897,-0.0397468309115618,0.0014589666366577,-0.0104780085384845,0.0064969579689204,-0.0024627647362649
1783204258227590000,1.59458984375,-0.0599415507435798,-0.03748655782938,-0.0057370823472738,-0.0147851388901472,0.0016193785704672,-0.0101031074300408
1783204258237526800,1.60452685546875,-0.0569222029224038,-0.040662557516992,-0.0161193601518869,-0.0170719213783741,-0.0089098121970891,-0.0147886872291564
1783204258247463700,1.614463623046875,-0.0580152588561177,-0.028016499498859,-0.0190004685461521,-0.0136220613494515,-0.0196290351450443,-0.0141415391117334
1783204258257401600,1.624401611328125,-0.0364984235748648,-0.0164672968067228,-0.0348608855009078,-0.0081729684025049,-0.0266269389539957,-0.0153640126809477
1783204258267338800,1.6343388671875,-0.0029041970089077,-0.0212227477055042,-0.0552940171986818,0.0002873614430427,-0.025658881291747,-0.0109463613480329
1783204258277276000,1.64427587890625,0.0230298701927065,0.0130680097572505,-0.0717483083933591,0.0081023750826716,-0.0105810593813657,-0.0064646620303392
1783204258287212800,1.654212890625,0.0496717934027314,0.0311538476765155,-0.0642126521915197,0.008972430601716,-0.006592177785933,-0.0039370562881231
1783204258297150000,1.66414990234375,0.0585316839456558,0.0405777287777513,-0.0748643945872783,0.0114098479971289,-0.0057015377096831,0.0005156050901859
1783204258307088000,1.674087890625,0.0596510433644056,0.0304915113102644,-0.0842506470918655,0.008402606472373,-0.003465814050287,0.0013228093739598
1783204258317024800,1.684024658203125,0.0762926738247275,0.0195656281482428,-0.0952805751502513,0.0048823906108736,-0.0004162858240306,0.0041486732661724
1783204258326961700,1.693961669921875,0.0763935038506984,0.0224881645314395,-0.0844037918269634,0.0002338429912924,0.0101535338908433,0.0050501534715294
1783204258336898800,1.70389892578125,0.0620402765884995,0.0374812971323728,-0.0953922188311815,0.0008598417043685,0.0187056753784418,0.0066582430154085
1783204258346836000,1.7138359375,0.0708154114574193,0.0436860700566321,-0.0974824691087007,0.0038524353876709,0.0219685807824134,0.0100828018039464
1783204258356774000,1.72377392578125,0.0748921593770384,0.0386560400001704,-0.0832750800579786,0.0059724734164774,0.027231890708208,0.0144934896379709
1783204258366710800,1.733710693359375,0.0790244368761777,0.0350575771167874,-0.081877488219738,0.0090239234268665,0.0239050686359405,0.0199857279658317
1783204258376647700,1.743647705078125,0.0692819182798266,0.0293728825438767,-0.0779138452857732,0.0105040185153484,0.0171990357339382,0.0247730873525142
1783204258386584800,1.753584716796875,0.0529962616503238,0.027370822006464,-0.0669897156894206,0.0146614788100123,0.0089925061911344,0.0266777798533439
1783204258396521700,1.763521728515625,0.044416941614449,0.0014847586650401,-0.0474707762271165,0.0167076140642166,0.0056825289502739,0.0248965919017791
1783204258406460000,1.7734599609375,0.0305301628202199,-0.0062111295998096,-0.0609270546495914,0.0174287986010313,0.0090037565678358,0.0266678594052791
1783204258416396800,1.783396728515625,-0.0059048401296138,-0.0065641077559441,-0.0395271237462759,0.017736293375492,0.0109233055263757,0.0198100805282592
1783204258426334000,1.793333984375,-0.0273024329453706,-0.0049411827292293,-0.0272983412921428,0.0150185385718941,0.0108210397884249,0.0189362987875938
1783204258436270600,1.8032705078125,-0.0465101145014166,-0.0119226391144096,-0.0241284790843725,0.0154001265764236,0.0026094347704201,0.0158800017088651
1783204258446207700,1.813207763671875,-0.0472018961578607,-0.0254041981086134,-0.0196375974059104,0.0120658483356237,-0.0035318150185048,0.0129172354936599
1783204258456145700,1.823145751953125,-0.0511506337836384,-0.0402905823994427,-0.0184697226703166,0.012669326737523,-0.005066005513072,0.0076967123895883
1783204258466082800,1.833082763671875,-0.0600397504210472,-0.0417917076773941,-0.0098626378446817,0.0109084453433752,-0.0084005491808056,0.0034058273304253
1783204258476020000,1.84302001953125,-0.0658323623478412,-0.0429136974446475,-0.00514729976058,0.0086692012846469,-0.0079798428341746,-0.0012388499453663
1783204258485956900,1.852956787109375,-0.0618915157675743,-0.0379638930175453,-0.0050327334702014,0.0009521599858999,-0.0063662333413958,-0.0024199618492275
1783204258495893800,1.862893798828125,-0.0472319990351796,-0.0291029064960777,-0.0070808981716632,-0.0015569692477583,0.000454660039395,-0.0050426498055458
1783204258505831700,1.872831787109375,-0.0286135155439376,-0.0255433873835951,0.0101315179139375,-0.0083901081234216,0.0050624613650143,-0.0064440052956342
1783204258515768800,1.882768798828125,-0.0261681682184338,-0.002610036367923,0.0008610007435083,-0.0127929486334323,0.0077663911506533,-0.0064841751009225
1783204258525705700,1.892705810546875,-0.0266717338263988,0.0088713617850095,-0.0259317291140556,-0.0116845406591892,0.010554720647633,-0.0073832585476338
1783204258535643000,1.902642822265625,-0.0230997205585241,0.0013099135547876,-0.0277852480262517,-0.0107498466968536,0.0058088647201657,-0.0128122717142105
1783204258545580000,1.912580078125,-0.0011167290702462,0.0006572948649525,-0.0292138195246458,-0.0139280632138252,-0.0001108096912503,-0.0095416437834501
1783204258555518000,1.92251806640625,0.0199622993156313,0.0120713268700987,-0.0262122996211051,-0.0157543420791625,-0.0040906020440161,-0.0058765737339854
1783204258565454800,1.932454833984375,0.0248316589176654,0.0171838475782424,-0.03608779694736,-0.0106101790443062,-0.0100129395723342,-0.0058866934850811
1783204258575391700,1.942391845703125,0.0409603714197874,0.0170250768199563,-0.0487093781113624,-0.0091961100697517,-0.0117024676874279,-0.006258787587285
1783204258585329000,1.952328857421875,0.0355342547178268,0.0146587860800325,-0.0560264231264591,-0.0099998526275157,-0.0079849613830447,-0.0068337642587721
1783204258595266800,1.962266845703125,0.0347287835538387,0.009662073771283,-0.0543242953836917,-0.0176289081573486,-0.001328146085143,-0.0054385778494179
1783204258605204000,1.972203857421875,0.039532384443283,0.0168975779827684,-0.0371744231402874,-0.0209858231246471,-0.0032783793285489,-0.001582587021403
1783204258615140900,1.982140869140625,0.0390592139735817,0.0175608641970902,-0.0389613065570592,-0.0162249412387609,-0.0099454075098037,0.0013174710329622
1783204258625077800,1.992077880859375,0.0349307358667254,0.0094310414943844,-0.0834516056686639,-0.0046505779027938,-0.010095877572894,0.0021470456849783
1783204258635014700,2.0020146484375,0.030748189485073,0.0056739539831876,-0.11012860019207,0.004010621458292,-0.0132419522851705,0.0008088848553597
1783204258644952800,2.011952880859375,0.0260255448773503,0.0109423959054052,-0.0981739585041999,0.0145309064537286,-0.0137045439332723,0.0043120067566633
1783204258654889700,2.0218896484375,0.0190308636844158,-0.0001332709908485,-0.0952957727193832,0.0130840977653861,-0.0073364367708563,0.0051342914812266
1783204258664827000,2.031826904296875,0.0243517664462327,-0.0057686465293169,-0.0891495250493288,0.0087892180308699,0.0019670501351356,0.0023227920755743
1783204258674764000,2.041763916015625,0.0198345812827348,0.001983428902179,-0.0720996060490608,-0.0033299541100859,0.0134456073865294,0.0038135065697133
1783204258684700700,2.05170068359375,0.0149099843621253,0.0244322843365371,-0.0379950918734073,-0.0065364008769392,0.011317741125822,0.0025493041612207
1783204258694638800,2.061638916015625,-0.0035126842960715,0.0078580930892378,-0.032723288950324,-0.0096726231276988,0.0126951076090335,-0.0009370900224894
1783204258704575700,2.07157568359375,-0.0061865796804428,-0.0036716742500662,-0.0269219091951847,-0.0102193709462881,0.0039024150464683,-0.0020913039334118
1783204258714513000,2.081512939453125,-0.0008323591709136,-0.0084309976063668,-0.0289794262468814,-0.005622430704534,0.0050936914049088,-0.0044790063984692
1783204258724449800,2.09144970703125,-0.0153463299527764,-0.0346158246986567,-0.0021714988201856,-0.0096653765067458,0.0087078670039772,-0.0046718190424144
1783204258734388000,2.101387939453125,-0.0022089082211256,-0.0309405702520161,0.0015676877081394,-0.012777448631823,0.0015736580826342,-0.0013971934095025
1783204258744324600,2.11132470703125,0.0213186823606491,-0.0229332779504358,-0.0086462477922439,-0.0098698092624545,0.0050059398636221,-0.0008182222954928
1783204258754261800,2.12126171875,0.0560164862543344,-0.0401947208095341,-0.0025356559574604,-0.0142412846907973,0.0088480599224567,0.0047578602097928
1783204258764198700,2.13119873046875,0.0961032897099852,-0.080296794899553,0.0280418531358242,-0.0262683853507041,-0.0003390465863049,0.0090396907180547
1783204258774136800,2.14113671875,0.1320671680167317,-0.1153347174677997,0.0141214643329381,-0.0368628799915313,-0.0100839529186487,0.0166177190840244
1783204258784073700,2.15107373046875,0.1687947241723537,-0.1621020216006785,0.0114683194756507,-0.0544951371848583,-0.0206638947129249,0.021087035536766
1783204258794011000,2.161010986328125,0.2032593038320541,-0.2192654128678142,-0.0238765501499176,-0.0741809159517288,-0.0276429504156112,0.0268109999597072
1783204258803947800,2.17094775390625,0.2129001156195998,-0.2425674510654062,-0.0830827723562717,-0.0888490751385688,-0.018813507631421,0.0308502148836851
1783204258813885700,2.1808857421875,0.2174921195849776,-0.2503880616884678,-0.121850017645955,-0.0873321741819381,0.0014460477977991,0.0396891720592975
1783204258823822800,2.19082275390625,0.2797393169224262,-0.2864204021215438,-0.1437736801624298,-0.0779748857021331,0.0147972740232944,0.0571552477777004
1783204258833759700,2.200759765625,0.3744102357417345,-0.3510583670530468,-0.2084942818760871,-0.06081073731184,-0.0117120817303657,0.0786299407482147
1783204258843697000,2.21069677734375,0.4627043130055069,-0.4172225917037576,-0.2283282786369323,-0.0396844148635864,-0.0281504429876804,0.1081148609519004
1783204258853633800,2.2206337890625,0.5857768581837416,-0.5366094341065735,-0.2120692177534103,-0.0196879096329212,-0.0332220532000064,0.1534932255744934
1783204258863572000,2.230572021484375,0.7834531011864543,-0.7311056588336825,-0.1300654728055,-0.0141980685293674,-0.0525012090802192,0.2046733200550079
1783204258873508600,2.240508544921875,0.8516396254450083,-0.9648767130464316,-0.1229378128826618,-0.0313051268458366,-0.0962662398815155,0.2412367165088653
1783204258883445800,2.25044580078125,0.8006906517133117,-0.9764434513952582,-0.0761561879634857,-0.0574043728411197,-0.1482284963130951,0.247783824801445
1783204258893383000,2.2603828125,0.6813909030720591,-0.8812957819096744,-0.0444476290136575,-0.0757123455405235,-0.2002592235803604,0.2820139527320862
1783204258903320800,2.27032080078125,0.5272594950243831,-0.717538248186931,-0.1365133337706327,-0.0521249994635582,-0.2519733011722564,0.2996864318847656
1783204258913257700,2.2802578125,0.3164408618539571,-0.370468512378633,-0.2347287933290004,-0.0162821616977453,-0.2468767911195755,0.2539921998977661
1783204258923195000,2.29019482421875,0.1900049777224659,-0.0598459083493798,-0.1299380470335483,0.0135505693033337,-0.2059535980224609,0.2311910092830658
1783204258933131800,2.3001318359375,-0.0903904650211334,0.3234600929662585,-0.1815109978824853,0.0485474988818168,-0.1703481972217559,0.1936572045087814
1783204258943069700,2.310069580078125,-0.183632227820158,0.5505298959746957,-0.1337625737577676,0.0636393651366233,-0.1640335768461227,0.1439431756734848
1783204258953006800,2.3200068359375,-0.2766711615234613,0.7593154158823192,-0.0468991138190031,0.0455569513142108,-0.1702755689620971,0.106128804385662
1783204258962943700,2.32994384765625,-0.4425228179812431,0.8699903248455375,0.0178366854637861,-0.035500880330801,-0.1778706312179565,0.096790961921215
1783204258972881000,2.339880859375,-0.4793517886847257,0.951869712761417,0.0871253257453441,-0.1814850568771362,-0.1388180255889892,0.1032241061329841
1783204258982818800,2.34981884765625,-0.4564472984373569,0.9029130088254808,0.3493319085866213,-0.3606508076190948,-0.0440204180777072,0.1374161541461944
1783204258992756000,2.359755859375,-0.3144184161156416,0.7265691844478249,0.6200006148248911,-0.5356507301330566,0.0816497057676315,0.1752771586179733
1783204259002692600,2.369692626953125,-0.276074949195981,0.6318894247349351,0.6787649384826422,-0.6500100493431091,0.1499043852090835,0.1425082981586456
1783204259012629800,2.379629638671875,-0.2686024213582277,0.6540102903239429,0.5458206953704356,-0.7296804189682007,0.2339532375335693,0.0796164497733116
1783204259022567700,2.389567626953125,-0.281073195874691,0.7609491545639931,0.3789426184743643,-0.7726191282272339,0.326552152633667,0.0213438291102647
1783204259032504800,2.3995048828125,-0.2715209391534328,0.7595197062827647,0.2889157260686159,-0.7623348832130432,0.3942410051822662,-0.0188404694199562
1783204259042443000,2.409443115234375,-0.0503416554883122,0.589275294758752,0.1041255603849887,-0.7269250154495239,0.4646640121936798,-0.0377116277813911
1783204259052380200,2.419380126953125,0.1140031035378575,0.4244773120723664,-0.0859668033599853,-0.6703395843505859,0.5927098989486694,-0.0481759458780288
1783204259062318000,2.429318115234375,0.1501797478124499,0.4861380147587508,-0.1867097355693578,-0.6117076873779297,0.7067347168922424,-0.0794097632169723
1783204259072255000,2.4392548828125,0.2286994500368833,0.6463350064557045,-0.2990729629456997,-0.5591896176338196,0.7803665399551392,-0.0855729430913925
1783204259082192000,2.44919189453125,0.4419517400950193,0.690660981851071,-0.4547334802567958,-0.5128570199012756,0.8651919960975647,-0.0336125381290912
1783204259092129000,2.45912890625,0.7021107427567244,0.5874699258372187,-0.6079939506888389,-0.4763754308223724,0.9899513125419616,0.0548962019383907
1783204259102067000,2.46906689453125,0.8091504370227456,0.4177528991881757,-0.7742880902171134,-0.4308771789073944,1.1517876386642456,0.1402840614318847
1783204259112004000,2.479004150390625,0.7935098002985119,0.3258097248323262,-0.8974316548049449,-0.3680192232131958,1.2666386365890503,0.1913021951913833
1783204259121940700,2.488940673828125,0.5417889556363225,0.1180067862212657,-1.0309960756421088,-0.2752575874328613,1.29118549823761,0.2116913646459579
1783204259131878000,2.4988779296875,0.389730262209475,-0.1689871049392968,-1.1702233445465564,-0.1512807309627533,1.2110425233840942,0.2347416877746582
1783204259141815800,2.50881591796875,-0.0103293785735964,-0.2357899928197264,-1.3498989436954258,0.0094777885824441,1.0361088514328003,0.2527832686901092
1783204259151753000,2.5187529296875,-0.3605710954815149,-0.3433196625597774,-1.4862281530708077,0.2062802910804748,0.909516990184784,0.2660461664199829
1783204259161690000,2.528690185546875,-0.746455495917797,-0.3664765201330184,-1.525097105169296,0.4211920499801636,0.840926468372345,0.2375841587781906
1783204259171627000,2.538626953125,-1.05544428820014,-0.5178461353171616,-1.5198749866068362,0.6627311706542969,0.8136599659919739,0.1684401184320449
1783204259181565000,2.54856494140625,-1.3353738669976591,-0.6963223686136305,-1.7467372843444346,0.8980022668838501,0.8505995869636536,0.0916465371847152
1783204259191501800,2.558501708984375,-1.4879007624581455,-0.7553329221174121,-1.603518899977207,1.0963356494903564,0.8623302578926086,-0.0037637839559465
1783204259201439000,2.56843896484375,-1.6250062169030308,-0.5262905769269913,-1.40936644718647,1.2259514331817627,0.8766381144523621,-0.0659198313951492
1783204259211375900,2.5783759765625,-1.663577647359669,-0.2574112383235246,-0.9897481194525956,1.282510757446289,0.8648387789726257,-0.1029635220766067
1783204259221314000,2.58831396484375,-1.6394927151560783,-0.1173915038671344,-0.5959235736668109,1.2740315198898315,0.8362127542495728,-0.1288808733224868
1783204259231251000,2.5982509765625,-1.5899220440402626,-0.1213935060501098,-0.3143745769739151,1.220470905303955,0.8406237959861755,-0.1854850351810455
1783204259241188000,2.60818798828125,-1.5909446650862693,-0.2993251110758632,-0.103379125931859,1.1302112340927124,0.8639515042304993,-0.2931358516216278
1783204259251124700,2.618124755859375,-1.7060653744772076,-0.4906706897523253,0.0884977831423282,1.0012142658233645,0.8679214715957642,-0.4460716545581817
1783204259261063000,2.62806298828125,-1.849178252643347,-0.5443572717543691,0.2503986561477184,0.8395673632621765,0.8573654890060425,-0.6018955707550049
1783204259270999800,2.637999755859375,-1.9838734310761093,-0.4736446630842983,0.3946189110338687,0.6648326516151428,0.8821395635604858,-0.7517555952072144
1783204259280937000,2.64793701171875,-2.057349293914437,-0.4996480691950768,0.5217582672595977,0.5079860687255859,0.947728157043457,-0.9010812044143676
1783204259290874000,2.6578740234375,-2.148652489866316,-0.6065816727381199,0.4639683415919542,0.388241171836853,1.0419665575027466,-1.078601956367493
1783204259300812000,2.66781201171875,-2.0944290245085955,-0.7314606097511946,0.2251017178058624,0.3220943808555603,1.077494502067566,-1.278886318206787
1783204259310749000,2.6777490234375,-2.0034119520217177,-0.8852383820556103,-0.4849883332669735,0.3110615313053131,1.0597652196884155,-1.4551368951797483
1783204259320685800,2.687685791015625,-1.8265858970850704,-0.9686649994134904,-1.1722171487122774,0.3401805162429809,1.155875325202942,-1.570467472076416
1783204259330623000,2.697623046875,-1.8603918667055663,-0.8052752030245959,-1.34957394952476,0.3696690499782562,1.3916378021240234,-1.610083818435669
1783204259340561000,2.707560791015625,-1.819670126347244,-0.4952630590438842,-1.0877455523461104,0.3736419379711151,1.6257379055023191,-1.5893925428390503
1783204259350498000,2.717498046875,-1.6612024426609278,-0.0911656871773302,-0.9901029242396354,0.3214127123355865,1.8107739686965945,-1.4691548347473145
1783204259360435000,2.72743505859375,-1.3973027921661734,0.1168077856950461,-1.0715548805236816,0.3437252044677734,2.0156848430633545,-1.3009461164474487
1783204259370373000,2.737373046875,-1.0327841281026602,0.187914142923057,-1.160296993815899,0.5740814805030823,2.307708740234375,-1.1602810621261597
1783204259380310000,2.74731005859375,-0.8687912512540816,0.2792202614843845,-1.3602315371394156,1.018070936203003,2.6845803260803223,-1.0570968389511108
1783204259390247000,2.757246826171875,-0.7589002592101692,0.7673466005161405,-0.998684874624014,1.5146582126617432,2.9996981620788574,-0.9868809580802916
1783204259400183800,2.767183837890625,-0.6737037095703184,1.2929903309069573,-0.5681570303410292,1.995043992996216,2.962898731231689,-0.9191144704818726
1783204259410122000,2.7771220703125,-0.3554556521639228,1.6794482934474944,-0.786668848362565,2.4422154426574707,2.4697155952453613,-0.7651703953742981
1783204259420059000,2.787058837890625,0.0341771958193741,2.003786630553007,-1.4849708464860916,2.8222081661224365,2.1945700645446777,-0.5040690302848816
1783204259429996000,2.79699609375,0.7592479036040604,1.740471794208884,-0.5220376687228679,2.9830586910247803,1.7226186990737915,-0.2844206690788269
1783204259439933200,2.80693310546875,1.2408563851743937,1.540914852026105,0.0009919336467981,2.86092472076416,0.9319698810577391,-0.1485179513692855
1783204259449871000,2.81687109375,1.1462891459252684,1.87825675535053,0.2854138554275036,2.4920413494110107,0.5022389888763428,-0.1207196190953254
1783204259459808000,2.82680810546875,1.2755971514269708,2.2009774281263352,2.0989310121029616,1.950507402420044,0.5889416337013245,-0.2072649002075195
1783204259469745000,2.836744873046875,1.2299123818337916,2.082984378169477,3.0678479404509065,1.481590986251831,0.8675994873046875,-0.2132676988840103
1783204259479682800,2.846682861328125,0.7899573685139417,1.621508145654201,3.093084088516235,1.0773385763168335,1.1351969242095947,-0.2688412070274353
1783204259489620000,2.856619873046875,0.2555678754791617,1.5147458070248363,2.903510195687413,0.7445560097694397,1.405272364616394,-0.3828328549861908
1783204259499557000,2.86655712890625,-0.1684734563287347,1.839916795562208,2.823074722969532,0.5327542424201965,1.593953013420105,-0.4583936631679535
1783204259509494000,2.876493896484375,-0.2013200063325464,1.8027841657370327,2.780474767649173,0.4244034886360168,1.5204910039901731,-0.4548363089561462
1783204259519432200,2.88643212890625,0.0786293000787496,1.423646609212458,2.2627964631795883,0.3858888447284698,1.3438472747802734,-0.3845578730106354
1783204259529368800,2.896368896484375,0.4492193199452012,1.093639578820765,1.886156860950589,0.4009229838848114,1.1587687730789185,-0.2380374073982238
1783204259539306000,2.906305908203125,0.716608785317093,0.9039847297102211,1.7232757447361946,0.424492210149765,0.9455553889274596,-0.0957367271184921
1783204259549243000,2.916242919921875,0.8348499648161232,0.8795385629788041,1.6335358525782822,0.448526531457901,0.7048119902610779,0.0282843336462974
1783204259559181000,2.92618115234375,0.840709358368814,0.9361506770387292,1.1472592330664395,0.4959622323513031,0.6141270995140076,0.1691386550664901
1783204259569118000,2.936117919921875,0.7645216062232851,0.9204188548997044,0.7052496253043413,0.5810149908065796,0.7648397088050842,0.268431007862091
1783204259579055000,2.94605517578125,0.6316212022528052,0.8259510574370622,0.5053682734727859,0.6869781613349915,1.0148979425430298,0.3089081346988678
1783204259588993000,2.955992919921875,0.4312140729814767,0.692239921605587,0.1906213560551405,0.7420827150344849,1.138778567314148,0.3419134318828583
1783204259598930000,2.965929931640625,0.2174415584415197,0.5277022703558206,-0.186118199416995,0.7441138625144958,1.1445791721343994,0.3636195361614227
1783204259608866800,2.97586669921875,0.1740406620018184,0.3910810922965407,-0.289682034265995,0.7160958051681519,1.0255894660949707,0.3768024146556854
1783204259618804000,2.985803955078125,0.3560195696569979,0.2407400164425372,-0.2316775890648365,0.6552793383598328,0.8131493330001831,0.4082671403884887
1783204259628742000,2.995741943359375,0.5243352781407534,-0.0200596222102642,-0.2052963626176118,0.566273033618927,0.5855862498283386,0.4673895537853241
1783204259638679000,3.005678955078125,0.731843325458467,-0.2324237312570214,-0.1719166555851697,0.5050586462020874,0.3524515330791473,0.5617517232894897
1783204259648616200,3.0156162109375,0.8605795954868197,-0.309542334511876,-0.1387970607936382,0.4409697949886322,-0.0161948353052139,0.6418685913085938
1783204259658554000,3.02555419921875,0.8522346687287091,-0.2102647986799478,-0.3792775495171546,0.3867116272449493,-0.4163587391376495,0.7050736546516418
1783204259668491000,3.035490966796875,0.7298264326781034,-0.2009182936638593,-0.6327011064440011,0.3999384939670563,-0.6534032821655273,0.7585689425468445
1783204259678428000,3.045427978515625,0.4035080276712775,-0.2413707155615091,-0.256844763547182,0.4137983918190002,-0.9618268609046936,0.7856953740119934
1783204259688365000,3.055364990234375,-0.0831435626327991,-0.1379682087540626,-0.1371720899403095,0.4373920559883117,-1.271355390548706,0.7769925594329834
1783204259698303000,3.065302978515625,-0.4316211924776434,-0.1607230613976717,-0.0773486126184463,0.4882432520389557,-1.5352519750595093,0.7211564779281616
1783204259708240100,3.075240234375,-0.7196227993760258,-0.3468681488215923,-0.0476367804437875,0.3348082304000854,-1.2743065357208252,0.5888466835021973
1783204259718177000,3.085177001953125,-0.9634742258373648,-0.5169494056731462,0.2101116539448499,0.4714416861534118,-0.5868722796440125,0.467445969581604
1783204259728115200,3.095115234375,-1.2754305626884102,-0.4465571880638599,1.1391951690763231,0.3621360957622528,-0.6433393955230713,0.2973906993865967
1783204259738051800,3.1050517578125,-1.4748404976159333,0.4046078056067228,-0.4043289886653423,0.2546884715557098,-0.4553905427455902,0.1450576335191726
1783204259747989000,3.114989013671875,-1.005636812653765,0.4364648331165313,-0.0543967760980129,0.0792234912514686,-0.1927433460950851,0.0906689167022705
1783204259757926000,3.12492578125,-0.3297965294461697,0.1796773527145385,0.4493967954039573,-0.2279396504163742,0.21461883187294,0.155835673213005
1783204259767864000,3.134864013671875,0.4113525306265801,0.4270674746960401,0.7222966216951608,-0.4970008432865143,0.6525949835777283,0.2877795994281769
1783204259777801000,3.144801025390625,0.8938711127791553,0.5196323611468077,0.5314771127194166,-0.4737112522125244,0.7238582372665405,0.4241470098495483
1783204259787738000,3.154738037109375,0.5934899167791009,-0.4545055167198181,-0.440223308867216,-0.2671093940734863,0.5187187194824219,0.4690810739994049
1783204259797675000,3.164675048828125,0.3526192596942186,-0.5267161819279194,-0.9659954879432916,-0.0287389010190963,0.2201112508773803,0.4268279075622558
1783204259807613000,3.174613037109375,0.0754400755833834,-0.0407189638793468,-1.0838912150055169,0.1667036861181259,-0.0414195619523525,0.420845091342926
1783204259817549800,3.1845498046875,-0.1228351562257856,-0.2688736395150423,-1.0866799689412117,0.288431704044342,-0.1275400668382644,0.4048464298248291
1783204259827487000,3.194487060546875,-0.2252223485108465,-0.5500029494911431,-0.7134253329753876,0.3419471681118011,-0.1962068527936935,0.3461874127388
1783204259837425000,3.2044248046875,-0.2721577026870102,-0.4844470659971236,-0.5854045177400112,0.3533343076705932,-0.2535606920719147,0.2717555165290832
1783204259847362000,3.214362060546875,-0.3924005773972719,-0.4466811067044735,-0.3171615773439407,0.3195310831069946,-0.289480596780777,0.1628160029649734
1783204259857299000,3.224298828125,-0.5730065892640501,-0.3652151218950748,0.0371083721667528,0.2440136969089508,-0.2807278633117676,0.0250155199319124
1783204259867236900,3.23423681640625,-0.6247027281012386,-0.329290991076827,0.3988514340370893,0.1275141984224319,-0.3242065012454986,-0.0713373348116874
1783204259877174000,3.244174072265625,-0.4586662165958434,-0.4599146822869777,0.6398100616663694,0.0143668735399842,-0.5559254884719849,-0.126895934343338
1783204259887111000,3.25411083984375,-0.0206472859051078,-0.4138847525179386,0.3736100252747535,-0.0050926879048347,-0.7184961438179016,-0.1631207913160324
1783204259897048000,3.264048095703125,0.3479629583209753,-0.2675420986503362,0.1373708273828029,0.0199106652289628,-0.8562124967575073,-0.1813810169696808
1783204259906986000,3.273986083984375,0.1682967845875769,0.2446352703154087,-0.1933610101521015,0.0812076106667518,-0.1811447888612747,-0.1603034287691116
1783204259916923100,3.283923095703125,-0.3744873195659369,0.9576514379680156,-0.0809381615430116,0.2637132704257965,0.1397336274385452,-0.0209402088075876
1783204259926859800,3.29385986328125,-0.3653870443958789,0.5954477728486061,0.0439303271412849,0.4748883843421936,0.3089007437229156,0.1216847151517868
1783204259936798000,3.3037978515625,-0.310974705402553,0.6465010837376117,-1.0913619892776012,0.7740351557731628,0.5132197737693787,0.2324948608875274
1783204259946734800,3.31373486328125,-0.2810818175725639,0.6478226877301931,-1.1211264284223317,0.9971023797988892,0.4429342448711395,0.230238527059555
1783204259956672000,3.323672119140625,-1.002476375861466,0.9980196887135504,-1.1640589766979217,1.154340744018555,0.2251020669937133,0.1820725947618484
1783204259966609000,3.33360888671875,-0.9570834288217128,0.9059002079427242,-0.9878455007016658,1.276798963546753,0.0287433452904224,0.1238058805465698
1783204259976547000,3.343547119140625,-0.8987834347400814,0.4141559706747532,-0.5267740495949983,1.3390663862228394,-0.2280716598033905,0.0345995686948299
1783204259986484000,3.35348388671875,-0.9475333640575409,0.1822621085107326,-0.1318406657844781,1.336373805999756,-0.4854016900062561,-0.0490869358181953
1783204259996420900,3.3634208984375,-1.005868648648262,0.2111690540432929,0.3973836995720863,1.2613331079483032,-0.7078651189804077,-0.132835641503334
1783204260006358800,3.37335888671875,-0.9711102006085216,0.2673345933794975,1.0562567736268045,1.1058392524719238,-0.8938907980918884,-0.1714022755622863
1783204260016296000,3.3832958984375,-0.796311852107197,0.3077981211930513,1.6427350580781697,0.8853593468666077,-1.0386475324630735,-0.1552994698286056
1783204260026232800,3.39323291015625,-0.5018133574701845,0.2512310153186321,2.1648592360407117,0.6276926398277283,-1.1839189529418943,-0.09145188331604
1783204260036171000,3.4031708984375,-0.1179860356941819,0.1991793410420417,2.490848262962699,0.3498769998550415,-1.3016929626464844,0.0389468669891357
1783204260046107100,3.413107177734375,0.4063436894886195,0.0717389560431241,2.734518487638235,0.0527722090482711,-1.4713882207870483,0.2088591605424881
1783204260056044000,3.4230439453125,0.8838594949178397,-0.0965244377315044,2.720168475246429,-0.2076367437839508,-1.7161489725112915,0.3479459583759308
1783204260065981200,3.432981201171875,1.167728605121374,-0.0289852714657783,2.2561112863272426,-0.414796233177185,-1.850069046020508,0.4486422538757324
1783204260075919000,3.442919189453125,1.162055527921021,0.1295464173674583,1.756642007765174,-0.5828187465667725,-1.825858473777771,0.5140886306762695
1783204260085856000,3.45285595703125,0.884434591392055,0.4140273758590221,1.3312006729662418,-0.6980234980583191,-1.704734444618225,0.5394941568374634
1783204260095793000,3.46279296875,0.373317691264674,0.9226619576513768,0.8182914825946093,-0.7466243505477905,-1.5263553857803345,0.5432958602905273
1783204260105731000,3.47273095703125,-0.0409301224119961,1.3686311166942118,0.3133212685286998,-0.730832040309906,-1.3011343479156494,0.5548619031906128
1783204260115668000,3.48266796875,-0.3001338701754808,1.4646294847249983,-0.0569388617962598,-0.6447674632072449,-1.082768201828003,0.5553905367851257
1783204260125605000,3.492605224609375,-0.4301644908633082,1.3552321214169265,-0.3307616481512784,-0.50173020362854,-0.9720546007156372,0.5566745400428772
1783204260135543000,3.50254296875,-0.3783468445383012,1.1083008491188286,-0.5175765976607799,-0.4214633405208587,-0.7911742925643921,0.5770634412765503
1783204260145480200,3.512480224609375,-0.2132785204779356,0.7704086184352635,-0.1149538283914327,-0.6113033294677734,-0.6769452095031738,0.6426712274551392
1783204260155417000,3.5224169921875,0.1527624577820301,0.3068926967859268,1.4663006328076122,-0.7651762366294861,-0.9205986261367798,0.6920366287231445
1783204260165354000,3.53235400390625,0.4662647819660603,-0.3268202170491218,1.013791258341074,-0.8633229732513428,-1.319939136505127,0.6505873203277588
1783204260175292000,3.5422919921875,0.3817357563242316,-0.6582680938988924,0.343621714246273,-0.9130980372428894,-1.6525444984436035,0.5553670525550842
1783204260185229000,3.55222900390625,0.3810172327913343,-0.4974497554332017,-0.0206155025273561,-0.9219862818717957,-1.739842653274536,0.4818482995033264
1783204260195166200,3.562166259765625,0.4251392831124365,-0.4176777150601148,-0.3463461707741022,-0.9046536684036256,-1.6495453119277954,0.4429312646389007
1783204260205104000,3.572104248046875,0.3053995356187224,-0.5011339969038963,-0.6675088004529476,-0.8406544923782349,-1.4134373664855957,0.4150545299053192
1783204260215041300,3.582041259765625,0.126112497396022,-0.5380389554530381,-1.0741010578751564,-0.7429484128952026,-1.2023509740829468,0.3644075989723205
1783204260224978000,3.59197802734375,-0.1483275440745055,-0.6322194604068995,-1.2873510098457337,-0.6365782618522644,-0.9859588146209716,0.3197440803050995
1783204260234916000,3.601916015625,-0.2416014555774629,-0.7183943535596132,-1.5222007992058992,-0.5204388499259949,-0.8499447703361511,0.2948033213615417
1783204260244853000,3.61185302734375,-0.184688605005294,-0.8038742501854896,-1.6162749211758374,-0.3993079960346222,-0.7847558856010437,0.3033163249492645
1783204260254790100,3.6217900390625,-0.2488276074387133,-0.8437228609710932,-1.6484534357249736,-0.2835257351398468,-0.8023766875267029,0.3487999439239502
1783204260264728000,3.63172802734375,-0.1141191311329603,-0.6861848593503236,-1.5518576863229274,-0.153431624174118,-0.8753867149353027,0.4031248688697815
1783204260274665200,3.641665283203125,-0.0184214996144175,-0.6363245576381683,-1.4649351896733045,-0.0122028682380914,-0.9267412424087524,0.4170119166374206
1783204260284602000,3.65160205078125,0.001767886455357,-0.6458703846186399,-1.3491104236662388,0.1022611558437347,-0.9156320691108704,0.3836199641227722
1783204260294540300,3.661540283203125,-0.0369675023913383,-0.5628220990538597,-1.143213172546029,0.1764760017395019,-0.8596013188362122,0.3362686932086944
1783204260304477000,3.671476806640625,-0.0265907775446772,-0.4256014937967062,-0.8617395791769027,0.1936099529266357,-0.7865309715270996,0.287346214056015
1783204260314414000,3.6814140625,0.0747913293510675,-0.2658312030792236,-0.5751356371819972,0.1710588485002517,-0.7110955715179443,0.2387251406908035
1783204260324351000,3.69135107421875,0.1683855588495731,-0.0651098932921886,-0.2967576717406511,0.1289193779230117,-0.6387398838996887,0.2059592008590698
1783204260334289200,3.7012890625,0.2679451264932752,0.1376724406778812,-0.0547796379357576,0.0784660577774047,-0.5979554653167725,0.2027543634176254
1783204260344226000,3.71122607421875,0.3386655531436204,0.3334416810154915,0.1603209103375673,0.028050621971488,-0.5844491124153137,0.2077271938323974
1783204260354163200,3.7211630859375,0.3985737861394882,0.4786749123364687,0.3222223678648471,-0.0101199336349964,-0.6277766227722168,0.2224310487508773
1783204260364100900,3.731100830078125,0.4598772728860378,0.4430693459481,0.2884434323817491,-0.0591863766312599,-0.687503457069397,0.2783645987510681
1783204260374038000,3.7410380859375,0.44380613579005,0.1571972253590822,0.3215378927320241,-0.1409400850534439,-0.6607775688171387,0.3674385547637939
1783204260383975000,3.750974853515625,0.5567889563694596,-0.1059498532027006,0.7035264547735453,-0.2647658586502075,-0.7500202059745789,0.4114180505275726
1783204260393913000,3.7609130859375,0.5399722616031766,0.0257204244509339,0.8652519712120295,-0.3609094321727752,-0.8773515224456787,0.4281069934368133
1783204260403850000,3.77085009765625,0.3265808553352952,0.4318526631459593,0.7090104391425848,-0.421371191740036,-0.97105211019516,0.4501903355121612
1783204260413787100,3.780787109375,0.3096501788005232,0.3061550301611423,0.692631551271677,-0.4589278995990753,-1.05974018573761,0.4496662318706512
1783204260423725000,3.79072509765625,0.2744268897280096,0.168792386084795,0.3962918126821517,-0.4843516647815704,-1.0321264266967771,0.4087193608283996
1783204260433662000,3.800661865234375,0.1858560413494706,0.0783002142548561,0.1900058545053005,-0.5172619223594666,-0.9152508974075316,0.3558636009693146
1783204260443599000,3.81059912109375,0.1251198330968618,-0.0821764711663126,0.1051636712610721,-0.5739633440971375,-0.7688483595848083,0.3041731119155884
1783204260453537000,3.820537109375,0.1196715045630931,-0.2592404265120625,-0.0220399823725223,-0.6450366973876953,-0.6011126041412354,0.2795769572257995
1783204260463474000,3.830473876953125,0.1506184314906597,-0.4542486193493008,-0.0653156449973583,-0.7368305921554565,-0.4640754461288452,0.2692433297634125
1783204260473411000,3.8404111328125,0.1555991425126791,-0.5698518515601754,-0.0227215348958969,-0.8321205973625183,-0.4615217447280884,0.2484056949615478
1783204260483348200,3.85034814453125,-0.0030590953096747,-0.5674170256286859,-0.3023708354473113,-0.8732938766479492,-0.4470846951007843,0.2009319514036178
1783204260493286100,3.8602861328125,-0.2159595031902194,-0.5188637148618698,-0.5451350511938333,-0.8732517957687378,-0.4635834991931915,0.1414236277341842
1783204260503223000,3.87022314453125,-0.2537684248417616,-0.4319496937796473,-0.74777417730093,-0.86085045337677,-0.5667083263397217,0.0532250106334686
1783204260513160000,3.880159912109375,-0.2502490185439586,-0.3379220412999391,-1.146723226493597,-0.8633702993392944,-0.7102566957473755,-0.0501618310809135
1783204260523098000,3.89009814453125,-0.2202162838518619,-0.1809644699156284,-1.1651263136684893,-0.8284449577331543,-0.6961701512336731,-0.0563887432217597
1783204260533035000,3.900034912109375,-0.2444654667064547,-0.2996352730035782,-0.9087848234683276,-0.7768941521644592,-0.4912913143634796,-0.0724420100450515
1783204260542972200,3.90997216796875,-0.2927925675019621,-0.4276145871847868,-0.5067290404319763,-0.7040746212005615,-0.2210511863231659,-0.0737131386995315
1783204260552910000,3.91991015625,-0.3901782982379198,-0.3438610759600997,-0.2876601730495691,-0.6395025849342346,-0.0224619172513484,-0.1021564975380897
1783204260562847200,3.92984716796875,-0.4549064987361431,-0.0998562125027179,-0.3085568306058645,-0.5963566899299622,0.0893891379237175,-0.1286390572786331
1783204260572783900,3.939783935546875,-0.3277557443335652,0.1218763211309909,-0.3487824580103159,-0.5507385730743408,0.1390547007322311,-0.1280062943696975
1783204260582722000,3.94972216796875,-0.2018260561585426,0.2270543131783604,-0.4169306960850953,-0.4866654574871063,0.2007713466882705,-0.1128945872187614
1783204260592659000,3.959658935546875,-0.0592962385773658,0.2138356429040432,-0.3123690823704004,-0.4059596955776214,0.2460128664970398,-0.0847529619932174
1783204260602596000,3.96959619140625,0.060014031457901,0.1465042741701006,-0.1800941168218851,-0.3262647986412048,0.2460916489362716,-0.0408203899860382
1783204260612534000,3.979533935546875,0.1511564838901162,0.1004842812731862,-0.0999281086951494,-0.2653841376304626,0.2062238752841949,0.0139464531093835
1783204260622471200,3.98947119140625,0.2185083108901977,0.0376224591687321,0.0239227273792028,-0.2157829850912094,0.1243368536233902,0.0699201971292495
1783204260632408000,3.999407958984375,0.2447457449525594,-0.0104641108691692,0.1047989296019077,-0.1754443496465683,-0.0724379941821098,0.0854293778538703
1783204260642346200,4.00934619140625,0.1378279235005378,-0.0082575407356023,-0.1310235041826963,-0.1285925358533859,-0.2428459227085113,0.0486450418829917
1783204260652283000,4.019282958984375,-0.0337561391294002,-0.0023369185149669,-0.4306418260514736,-0.0969222337007522,-0.2095710635185241,6.76540657877e-05
1783204260662220000,4.029219970703125,-0.0954115080535411,-0.0550350740015506,-0.2227355731964111,-0.0987307801842689,-0.0878538712859153,-0.0343698151409626
1783204260672158000,4.039157958984375,-0.1282815119981765,-0.1060451302707195,-0.0972819781005382,-0.1179526820778846,-0.0033291298896074,-0.0529954321682453
1783204260682095000,4.04909521484375,-0.2275926578387617,-0.1005225674569606,-0.2335276008456945,-0.1335116177797317,0.028810329735279,-0.0525668859481811
1783204260692032000,4.059031982421875,-0.2590603937700391,-0.0743400784522295,-0.3125555448532104,-0.125669926404953,0.0388075709342956,-0.0464549325406551
1783204260701970200,4.06897021484375,-0.2118438845649361,-0.124293319144845,-0.3426075687676668,-0.0933704599738121,0.0228211265057325,-0.0419387891888618
1783204260711907000,4.078906982421875,-0.1112602345705032,-0.1730634875327348,-0.3594347849279642,-0.0510336607694625,-0.0059969397261738,-0.0354931391775608
1783204260721844000,4.088843994140625,-0.0458677249446511,-0.181534086497128,-0.3739513860583305,-0.0002578040584921,-0.0212271548807621,-0.0229713954031467
1783204260731782000,4.098781982421875,0.0037105449557304,-0.1677645043417811,-0.2922334723144769,0.0540395230054855,-0.0417129918932914,-0.0023936829529702
1783204260741719000,4.108718994140625,0.0311538476765155,-0.0987768928334116,-0.1657277378171682,0.0979731529951095,-0.062506690621376,0.0161899831146001
1783204260751656000,4.118656005859375,0.0232499426841735,0.0002110124021768,-0.0563555089503526,0.1147257685661315,-0.0651288405060768,0.023216200992465
1783204260761594000,4.128593994140625,0.0258589561387896,0.0978413655489683,0.1317874742925167,0.0863765478134155,-0.0632405877113342,0.0293108019977808
1783204260771531000,4.138531005859375,0.0581689881131052,0.1750593375250697,0.3013940993696451,0.0194236114621162,-0.0666678100824356,0.0277030523866415
1783204260781468200,4.14846826171875,0.0683966598778963,0.2353510168805718,0.3910907369077205,-0.0566891729831695,-0.0842765122652053,0.0202046576887369
1783204260791405000,4.158405029296875,0.0298629310831427,0.3210223444253206,0.3993652287781238,-0.1209422051906585,-0.0880257040262222,0.0104540269821882
1783204260801343000,4.168343017578125,0.0028556816920638,0.359047246915102,0.3815437408834695,-0.1691040992736816,-0.0740475356578826,0.0032289600931108
1783204260811280100,4.178280029296875,0.0088417703643441,0.3520648406818509,0.3971715181261301,-0.2047997862100601,-0.0465493276715278,0.0025194939225912
1783204260821217000,4.188217041015625,0.0075900167375802,0.3260127000585198,0.4231330578565597,-0.2230971604585647,-0.0387386605143547,8.73678363859e-05
1783204260831155000,4.198155029296875,-0.0003173953860998,0.2655067934304476,0.4036269778758287,-0.2442692816257476,-0.0670288875699043,0.0046786572784185
1783204260841092000,4.208092041015625,0.0123386725693941,0.1808236001402139,0.2925450224816799,-0.2588220536708832,-0.1026621758937835,0.0138500891625881
1783204260851030000,4.218030029296875,0.0495537199810147,0.08647095348984,0.2662181565701961,-0.2795475721359253,-0.1494682878255844,0.0251312404870986
1783204260860967200,4.22796728515625,0.0919476313352584,0.0046487025886774,0.2262257533997297,-0.3032107353210449,-0.2142745107412338,0.035343263298273
1783204260870904000,4.237904052734375,0.1165674010679125,-0.0409758612498641,0.1046264956444501,-0.318149983882904,-0.2769107222557068,0.0415566861629486
1783204260880842000,4.247842041015625,0.0638929187178611,-0.108574941009283,-0.0414741661608219,-0.3467306792736053,-0.2904537320137024,0.0365689471364021
1783204260890779100,4.257779052734375,-0.0158902275711298,-0.1337467916667461,-0.0295662862241268,-0.3771988451480865,-0.2881024181842804,0.0147275626659393
1783204260900716000,4.267716064453125,-0.1713885400578379,-0.15500059209764,-0.0089811788350343,-0.4297299385070801,-0.28836190700531,-0.0149352625012397
1783204260910653200,4.277653076171875,-0.3304726020768284,-0.225232942970097,0.0037537995755672,-0.4868073463439941,-0.2694425582885742,-0.051658920943737
1783204260920591000,4.287591064453125,-0.4088444202631712,-0.2499257779389619,0.0691921941697597,-0.5356695055961609,-0.272684633731842,-0.0979533195495605
1783204260930528300,4.2975283203125,-0.4511889395177364,-0.247139362090826,0.0413777200490236,-0.5611101388931274,-0.2738681137561798,-0.1402885168790817
1783204260940465000,4.30746484375,-0.4491843216970562,-0.34665801320225,-0.0557061051309108,-0.5600624084472656,-0.2679058015346527,-0.1570726931095123
1783204260950403000,4.317403076171875,-0.3676704060927033,-0.4672916407957673,-0.1421165606051683,-0.540691077709198,-0.2768071591854095,-0.1860779821872711
1783204260960340000,4.327340087890625,-0.3239893775373697,-0.4360489457920193,-0.2854489267408848,-0.5133066177368164,-0.2295768707990646,-0.2229979634284973
1783204260970277000,4.337277099609375,-0.2378101004704833,-0.3300266118749976,-0.3406242859959602,-0.4886476397514343,-0.1580499559640884,-0.237008050084114
1783204260980215000,4.347215087890625,-0.1336748954743147,-0.2544920629411936,-0.2872135983258486,-0.4480872452259063,-0.0591993555426597,-0.2229175865650177
1783204260990152200,4.357152099609375,-0.1493634629935026,-0.1803150660961866,-0.2608919931113719,-0.3937680721282959,0.0314285531640052,-0.2159342467784881
1783204261000089000,4.367089111328125,-0.133191203610599,-0.059868485507369,-0.288010886183381,-0.3351772129535675,0.0924535170197486,-0.2287819534540176
1783204261010027300,4.37702734375,-0.1258957859054207,0.0071641925409436,-0.3414467082947492,-0.2954156994819641,0.1432626247406005,-0.2309865206480026
1783204261019964000,4.3869638671875,-0.0662891662046313,-0.0117138186693191,-0.3249894944906235,-0.2682926654815674,0.1772564053535461,-0.2148514837026596
1783204261029902000,4.396902099609375,0.0122545014172792,-0.0174269356191158,-0.284293911486864,-0.2367834597826004,0.1865732073783874,-0.1975728869438171
1783204261039839500,4.406839599609375,0.0255664029330015,0.0124760352134704,-0.3082639851391315,-0.1878758817911148,0.2042685002088546,-0.187779039144516
1783204261049776400,4.4167763671875,0.0146995564818382,0.0527355648875236,-0.3221399502784013,-0.1336235553026199,0.2235812097787857,-0.1846982985734939
1783204261059714300,4.42671435546875,0.0327948928818106,0.1093427105113863,-0.2563420747220516,-0.0803811848163604,0.2329598516225814,-0.1778322011232376
1783204261069651500,4.4366513671875,0.0933063524678349,0.1895578184768557,-0.1856026511102914,-0.0332363061606884,0.2259331047534942,-0.1608657389879226
1783204261079588400,4.44658837890625,0.193112003827095,0.2591714529290795,-0.1536047538250684,-0.0033475467935204,0.1964716911315918,-0.1300816833972931
1783204261089526500,4.456526611328125,0.3344748234555125,0.314020356708765,-0.1090168395578861,0.0135195832699537,0.1610410064458847,-0.0902479961514473
1783204261099463400,4.46646337890625,0.4488961524054408,0.3593351239457726,-0.0346077875226736,0.0202931798994541,0.1247866973280906,-0.0516363680362701
1783204261109400600,4.476400634765625,0.5284831916004419,0.4013634168580174,0.0484790764868259,0.0261537320911884,0.0733014047145843,-0.0097943786531686
1783204261119338500,4.48633837890625,0.5556541071206331,0.4247817018464207,0.0302045841276645,0.0332405492663383,0.0543620847165584,0.0255010724067688
1783204261129275400,4.496275390625,0.554287202681601,0.4161258094429969,0.0273702374845743,0.0391157492995262,0.0584055632352829,0.0620926432311534
1783204261139212300,4.50621240234375,0.5409957594320177,0.4070513993665576,0.1050970357656478,0.0513368025422096,0.053549725562334,0.0985268577933311
1783204261149150500,4.516150390625,0.5009709152966737,0.3917205592438578,0.0746416917473077,0.063457116484642,0.0477815866470336,0.1266705989837646
1783204261159087400,4.52608740234375,0.4384107064872979,0.3733674486905336,0.0544832853376865,0.0721591934561729,0.0278374068439006,0.1552877426147461
1783204261169024500,4.5360244140625,0.3812821673378348,0.339533568149805,0.0356423912674188,0.0721959471702575,-0.0149329612031579,0.1884169280529022
1783204261178962400,4.54596240234375,0.3288233735650777,0.2604582778692245,-0.0042284313499927,0.0634832829236984,-0.0502891540527343,0.2088086605072021
1783204261188899600,4.555899658203125,0.2200792134687304,0.1543985345512628,-0.0175058460742235,0.0540010966360569,-0.0660486742854118,0.2059817165136337
1783204261198836200,4.565836181640625,0.0771446144789457,0.0862514655202627,-0.0107411742448806,0.0417854227125644,-0.0572358295321464,0.1903469711542129
1783204261208774400,4.5757744140625,-0.0561564792469143,0.028422669146955,-0.0050654666960239,0.0261880867183208,-0.0270923115313053,0.1699341088533401
1783204261218711300,4.585711181640625,-0.1144946864470839,-0.0285141468226909,0.0096826051026582,0.0199416205286979,-0.016335442662239,0.1535144597291946
1783204261228648400,4.5956484375,-0.147919109404087,-0.0950973275378346,-0.038592473244667,0.0241368990391492,-0.02724215015769,0.1418727189302444
1783204261238586400,4.60558642578125,-0.1751180819749832,-0.1692991665631532,-0.1696393583029508,0.049149040132761,-0.0269083268940448,0.1404251307249069
1783204261248523500,4.6155234375,-0.1591264398559927,-0.2482674893379211,-0.2135463045686483,0.080361820757389,-0.0333907268941402,0.1347070634365081
1783204261258460400,4.62546044921875,-0.1421107153862714,-0.2592354580760002,-0.2741004342526197,0.1147274151444435,-0.0527758188545703,0.1269536614418029
1783204261268398600,4.635398681640625,-0.1603425376474857,-0.2506505850821733,-0.2921282583743333,0.1344193667173385,-0.080598659813404,0.1194725707173347
1783204261278335200,4.645335205078125,-0.1743973664849996,-0.2404506781071424,-0.2337362751603126,0.1458108574151992,-0.1279646903276443,0.1042199432849884
1783204261288272400,4.6552724609375,-0.1856429831206798,-0.2412935586720705,-0.1701484768688678,0.1437620818614959,-0.1735196560621261,0.0799401700496673
1783204261298210300,4.665210205078125,-0.2253945632725953,-0.2531874100834131,-0.1258083998829126,0.126007929444313,-0.1966879665851593,0.0487233996391296
1783204261308147500,4.6751474609375,-0.2499251934170722,-0.2334291089072823,0.0080266545891761,0.0967286080121994,-0.1873184293508529,0.0288578160107135
1783204261318084400,4.68508447265625,-0.2093365779191255,-0.1684653460875153,0.1834504415124654,0.0595429167151451,-0.177807405591011,0.0115596484392881
1783204261328022500,4.6950224609375,-0.1582391356274485,-0.0584583264485001,0.2278758586943149,0.0197710059583187,-0.1785421669483184,0.0002183099277317
1783204261337959400,4.70495947265625,-0.109774087665975,0.0649596711665391,0.238884743964672,-0.0132765471935272,-0.1513277888298034,-0.0041917990893125
1783204261347896300,4.714896240234375,-0.0503337644428014,0.1408165839225053,0.3033165918648243,-0.0444147586822509,-0.1248570308089256,-0.0023488919250667
1783204261357834200,4.724834228515625,-0.0069219082176685,0.1849006403207778,0.335275910705328,-0.0708126649260521,-0.1176473572850227,0.0051726782694458
1783204261367771400,4.734771484375,0.0332961204022169,0.1975932408943772,0.3262731045603751,-0.0890939384698867,-0.141729786992073,0.0130255417898297
1783204261377708500,4.74470849609375,0.0640913638994097,0.1967231800615787,0.260755799511075,-0.0817677304148674,-0.177052155137062,0.0291010942310094
1783204261387646500,4.754646484375,0.0972606430515646,0.1684194611191749,0.16977146025002,-0.061811339110136,-0.2049788683652877,0.0457048378884792
1783204261397583400,4.764583251953125,0.1236295945391058,0.153430274040997,0.1395318048089742,-0.0315364859998226,-0.2182618230581283,0.0621404014527797
1783204261407521500,4.774521484375,0.1698971324563026,0.1391135793969035,0.0975555343449115,-0.0185554400086402,-0.2249756455421447,0.0761486291885376
1783204261417458400,4.78445849609375,0.2331207736104726,0.1337783558487892,0.0449462261855602,-0.0231784731149673,-0.223246231675148,0.0975094363093376
1783204261427395300,4.794395263671875,0.2793006332442164,0.0991825510248541,-0.0076782795429229,-0.037461269646883,-0.2051790803670883,0.1147171854972839
1783204261437333200,4.804333251953125,0.2970969866976142,0.0742585376486182,-0.0401584073871374,-0.048671968281269,-0.1951935887336731,0.1359572410583496
1783204261447270400,4.8142705078125,0.2823325482860207,0.0983051836684346,-0.1017424646407365,-0.0559120327234268,-0.208272099494934,0.1526970714330673
1783204261457207600,4.82420751953125,0.2286822066411376,0.1272676587805151,-0.2143254722476005,-0.0463989600539207,-0.2131739109754562,0.160252183675766
1783204261467145500,4.8341455078125,0.1509621303617954,0.1023494906231761,-0.3356722165465354,-0.0258422847837209,-0.1759676933288574,0.1569922119379043
1783204261477082400,4.844082275390625,0.0823626413881778,0.0425277668669819,-0.3438829955309629,-0.0130574675276875,-0.1295476555824279,0.1463149785995483
1783204261487019500,4.85401953125,0.0088484923660755,0.0066194181397557,-0.3789759362220763,-0.0044394778087735,-0.0818368569016456,0.1333714723587036
1783204261496957400,4.86395751953125,-0.0334419586136937,-0.0224976630121469,-0.3770382461577654,0.0058691124431788,-0.0467397645115852,0.1285142749547958
1783204261506894300,4.873894287109375,-0.036669688488543,-0.0746647803619503,-0.3614204057872295,0.0145161300897598,-0.0346335656940937,0.119954340159893
1783204261516831500,4.88383154296875,-0.0336173151805996,-0.1221045769289135,-0.3681576050877571,0.0225154180079698,-0.0348978787660598,0.118901640176773
1783204261526769400,4.893769287109375,-0.021126666919887,-0.1581421049937605,-0.3444014664471149,0.0308742821216583,-0.040891058743,0.1160893440246582
1783204261536706600,4.90370654296875,-0.0216126968711614,-0.1526891002848744,-0.3062812868893146,0.0416610166430473,-0.0349732786417007,0.1165609881281852
1783204261546643500,4.9136435546875,-0.0159369893223047,-0.1331730834320187,-0.2504822427779436,0.0536998361349105,-0.0343157462775707,0.1099454313516616
1783204261556581400,4.923581298828125,-0.0859253023058176,-0.0920820713698863,-0.1889221509218215,0.0748299062252044,-0.0366488993167877,0.1034346297383308
1783204261566518500,4.9335185546875,-0.1792547433882951,-0.0419695484623312,-0.2115840645849704,0.1090320870280265,-0.0030480637215077,0.0923399031162262
1783204261576456200,4.943456298828125,-0.205792037180066,-0.028336744429171,-0.0820621971368789,0.1388968676328659,0.0178033746778965,0.0819648429751396
1783204261586393300,4.953393310546875,-0.1945154408842325,-0.0013481997385621,-0.0023100305080413,0.1584521979093551,0.0131393810734152,0.0815272852778434
1783204261596330500,4.96333056640625,-0.1390969205230474,-0.0023790040910243,0.0294523044556379,0.163868710398674,0.0350809954106807,0.0867430418729782
1783204261606268400,4.973268310546875,-0.039414895543456,-0.0340542452931404,0.183505386570096,0.1415873765945434,0.0146660041064023,0.0896725133061409
1783204261616205600,4.98320556640625,-0.0010413257464766,-0.0296487038105726,0.2282236492186784,0.1025652214884758,-0.0475260987877845,0.0692652910947799
1783204261626142500,4.993142578125,-0.1319727677315473,0.1410445474594831,0.0780816030681133,0.072461113333702,-0.0330622047185897,0.0620116330683231
1783204261636080400,5.003080322265625,-0.1117661382660269,0.1499997150704264,0.2535796242713928,0.0410302989184856,-0.0165845863521099,0.0587775446474552
1783204261646017300,5.013017333984375,-0.0850318605974316,0.0523097406908869,0.3249234435170888,0.0123318089172244,-0.0480101555585861,0.0513180308043956
1783204261655954400,5.022954345703125,-0.0793985308855772,0.0204120889097452,0.2091787570089101,-0.0125622414052486,-0.0801206901669502,0.0456488654017448
1783204261665892400,5.032892333984375,-0.0655582215815782,-0.0046858197286725,0.189717685213685,-0.0424692705273628,-0.1137401685118675,0.0307812355458736
1783204261675829500,5.04282958984375,-0.0831722042053937,-0.0288002702876925,0.1970166100502014,-0.0732060670852661,-0.138805404305458,0.0138755328953266
1783204261685766400,5.052766357421875,-0.1056570077359676,-0.0358861368954181,0.1447743816375732,-0.1039804965257644,-0.1348223835229873,0.0060445074923336
1783204261695704600,5.06270458984375,-0.1051876366585493,-0.0356701560571789,0.1544534796088933,-0.1257462799549102,-0.1227700784802436,-0.0006481462623924
1783204261705641500,5.072641357421875,-0.0769645817369222,-0.0567886396706104,0.1203659165680408,-0.1448387503623962,-0.1131009384989738,-0.0088477525860071
1783204261715578400,5.082578369140625,-0.0560556492209434,-0.0512356817185878,0.0475590390324592,-0.1515565067529678,-0.1034527197480201,-0.0082605239003896
1783204261725516300,5.092516357421875,-0.0568348168998956,-0.0543140662506222,-0.0182429281771183,-0.1473668217658996,-0.1041342243552208,-0.0132195958867669
1783204261735453400,5.102453369140625,-0.0687695848435163,-0.0504524223864078,-0.069739891180396,-0.138994038105011,-0.1086465641856193,-0.0176212657243013
1783204261745391400,5.112391357421875,-0.0846212339699268,-0.0808010911598801,-0.0803963097512722,-0.1258614510297775,-0.1077011376619339,-0.017849763855338
1783204261755328500,5.12232861328125,-0.0752437492936849,-0.0759665106102824,-0.0727858347475528,-0.1094733402132988,-0.0809678435325622,-0.0108884461224079
1783204261765265400,5.132265380859375,-0.0140086516082286,-0.1231032325774431,-0.0443429995954036,-0.0949212983250618,-0.056618295609951,-0.0022499500773847
1783204261775203600,5.14220361328125,0.0578641599476337,-0.1514876155406236,-0.03166764241755,-0.102682739496231,-0.0971355214715004,-0.0141675435006618
1783204261785140500,5.152140380859375,-0.0372778835147619,0.0031479426369071,-0.1947095021516084,-0.1121819764375686,-0.0746509879827499,-0.029060473665595
1783204261795077400,5.162077392578125,-0.0397071564882993,0.1421340962618589,-0.1206686989068984,-0.1199934557080268,-0.0243404600769281,-0.0234365928918123
1783204261805015300,5.172015380859375,-0.0096054482132196,0.1199547054186463,-0.0113964232832193,-0.1121746823191642,-0.007152949925512,-0.0202943291515111
1783204261814952400,5.181952392578125,-0.005811316627264,0.0819715962439775,-0.0733762018561363,-0.0902695059776306,-0.0189944226294755,-0.0198801141232252
1783204261824889300,5.191889404296875,0.012581249153614,0.0610632482498884,-0.1469189924508333,-0.0553187057375907,-0.0195933673530817,-0.0125676058232784
1783204261834827500,5.20182763671875,0.0323053557991981,0.0483177484452724,-0.1733966650098562,-0.0214025601744651,-0.0077417832799255,-0.0026954845525324
1783204261844764400,5.211764404296875,0.0346031113475561,0.0525385810106992,-0.1925537854224443,0.0137093523517251,0.0095330774784088,0.0030497529078274
1783204261854702600,5.22170263671875,0.0341740722805261,0.0936731399536132,-0.2173135481476783,0.0447189025580883,0.0315927788615226,0.0091606797650456
1783204261864639500,5.231639404296875,0.0214303260415792,0.1012637412130832,-0.2293015075832605,0.0671816021203994,0.0525137707591056,0.012219320051372
1783204261874576400,5.241576416015625,0.0207031808108091,0.0795630737975239,-0.1995838301897048,0.0804720446467399,0.0606402978301048,0.0160840190947055
1783204261884514300,5.251514404296875,0.012592355069518,0.0558054738521575,-0.1669195779502391,0.0921247079968452,0.0483500771224498,0.0159263592213392
1783204261894451500,5.261451416015625,0.0060474634706974,0.037003450487554,-0.1819932284414768,0.1032148599624633,0.0433157868683338,0.014008617028594
1783204261904388400,5.271388427734375,0.0049374564021825,-0.0103074590027332,-0.1456634394317865,0.1085696741938591,0.0372493751347065,0.0159026570618152
1783204261914326500,5.281326416015625,0.0205272397220134,-0.0221235690027475,-0.1066448497295379,0.1028390079736709,0.0325537994503974,0.0158516969531774
1783204261924263400,5.291263427734375,0.0246317524313926,-0.0219935128822922,-0.0892430485516786,0.0868725627660751,0.0447044745087623,0.01399627327919
1783204261934200600,5.30120068359375,0.0190793790012598,-0.0165869776636362,-0.0120522568434476,0.0602931082248687,0.0563535951077938,0.0101744569838047
1783204261944138500,5.311138427734375,-0.0019359364986419,0.0038210195928812,0.0609118570804595,0.0321914330124855,0.0537588782608509,0.0116336029022932
1783204261954075400,5.321075439453125,-0.0134796592980623,0.0245174784019589,0.0717605833530426,0.0129986032843589,0.0453082136809825,0.0072022825479507
1783204261964012300,5.33101220703125,-0.0248825123220682,0.0096785134494304,0.0887228240698576,0.0032096216455101,0.0373000875115394,0.0040533607825636
1783204261973950500,5.340950439453125,-0.0333119024932384,0.0141290631175041,0.0789455264210701,0.0005017248913645,0.03249416872859,0.0081811342388391
1783204261983887400,5.350887451171875,-0.0352396556854248,0.0234562789112329,0.0762941351294517,0.0053934189490973,0.0253600925207138,0.0095204384997487
1783204261993825500,5.360825439453125,-0.0240823018550872,0.0294034968778491,0.0732481915622949,0.0115810018032789,0.0154307391494512,0.0112628042697906
1783204262003762400,5.370762451171875,-0.0169429514944553,0.0195709619104862,0.0680851097106933,0.0140137998387217,0.0077605694532394,0.0097535913810133
1783204262013699600,5.380699462890625,-0.0233937350690364,0.0152884622856974,0.0662134706199169,0.0109957223758101,-0.0001219511032104,0.0101586999371647
1783204262023637500,5.390637451171875,-0.0377636212050914,0.0462552629575133,0.0424310284942388,0.0076926038600504,0.0009766030125319,0.0107682971283793
1783204262033574400,5.400574462890625,-0.041184827825427,0.0437806895375251,0.0275812498867511,0.0103229824453592,0.0052226930856704,0.0104361614212393
1783204262043511000,5.410510986328125,-0.0365472311526536,0.0126256728172302,0.0025911855369806,0.0088531840592622,0.006315388251096,0.0047375299036502
1783204262053449200,5.42044921875,-0.0306581731140613,-0.0140197575241327,-0.0047872342765331,9.48281958699e-05,0.0072450814768671,0.000652024988085
1783204262063385900,5.4303857421875,-0.0175555304348468,-0.0178077516302466,-0.0054810617595911,-0.0086693689227104,0.0107071902602911,0.0005532219074666
1783204262073324000,5.440323974609375,-0.0156692782968282,-0.013882979401946,-0.0351747737556695,-0.0141580803319811,0.0101293930783867,0.0053640347905457
1783204262083261000,5.450260986328125,-0.0080406831145286,-0.005910100826621,-0.0438899951308965,-0.0168097913265228,0.0068105617538094,0.0041954391635954
1783204262093198000,5.460197998046875,-0.0034866730719804,-0.0048883565634489,-0.0693260496824979,-0.0174881219863891,0.0004743156023323,0.0029658181592822
1783204262103136000,5.470135986328125,-0.00973521207273,0.0079234864756464,-0.0689396807134151,-0.0149373477324843,0.007351130247116,0.0022009583190083
1783204262113073200,5.4800732421875,-0.0160749364882707,0.0227986917853355,-0.1153869591116905,-0.0069246888160705,0.0328639633953571,0.0013252610806375
1783204262123010000,5.490010009765625,0.0019692542463541,0.0438476172938942,-0.091767598593235,0.001594497822225,0.0554544925689697,0.0029457944910973
1783204262132948200,5.4999482421875,0.0158639240860939,0.0757768332570791,-0.0977577789187431,0.0111408215016126,0.0632734596729278,0.0054798033088445
1783204262142884900,5.509884765625,0.0324748671472072,0.0809220871910452,-0.0922960063815116,0.0156309101730585,0.0556757301092147,0.0129984393715858
1783204262152822000,5.519822021484375,0.0412321740984916,0.0446899133369326,-0.0745078362345695,0.0211815033107996,0.0427309796214103,0.016802679747343
1783204262162760000,5.529760009765625,0.0371662398338317,0.0173754976928234,-0.0369166489869356,0.0196954607963562,0.0198674760758876,0.0192525219172239
1783204262172697000,5.539697021484375,0.0344657487034797,0.0125929395914077,-0.021885668593645,0.0190513506531715,0.0068021947517991,0.0178255904465913
1783204262182635000,5.549635009765625,-0.0084901804476976,0.0095806060329079,-0.0645090047895908,0.0212250221520662,0.0184809546917676,0.0144505659118294
1783204262192572200,5.559572265625,-0.0306961670368909,0.0139879010811448,-0.0413859033554792,0.0219297800213098,0.0215829070657491,0.0075021544471383
1783204262202509000,5.569509033203125,-0.0591191284447908,0.0305570508271455,-0.0738292063206434,0.0292524062097072,0.0346611589193344,0.0030024778097867
1783204262212447200,5.579447265625,-0.0681476535528898,0.0128615273997187,-0.0964122095286846,0.0367001183331012,0.0608854256570339,0.002551702549681
1783204262222383900,5.5893837890625,-0.0269260008484125,0.0117503512874245,-0.0428992305278778,0.0428994223475456,0.0511763393878936,0.0084178475663065
1783204262232321000,5.599321044921875,0.0068307228028774,0.021699206110835,-0.0341337402701377,0.0352306403219699,0.0391338840126991,0.0100172040984034
1783204262242259000,5.609259033203125,0.0561684619456529,0.0055652329117059,-0.0129775549948215,0.0127447731792926,0.0380366630852222,0.0182322580367326
1783204262252196000,5.619196044921875,0.0654845718234777,-0.003987316070497,0.0718763186872005,-0.0133499996736645,0.0448862202465534,0.0193051155656576
1783204262262134000,5.629134033203125,0.0243576116651296,0.0146709149092435,0.1250999593526124,-0.036779161542654,0.0375729128718376,0.0161130521446466
1783204262272071200,5.6390712890625,-0.032518121767044,0.0325748203903436,0.1284860946595668,-0.0473781488835811,0.0245042070746421,0.0126630077138543
1783204262282007800,5.6490078125,-0.0703735129088163,0.004421908095479,0.1220154373407363,-0.0402294285595417,0.0106216799467802,0.0096626905724406
1783204262291946000,5.658946044921875,-0.0656949997037649,-0.0226391173094511,0.094281627240777,-0.0280854105949401,-0.0046560522168874,0.0078348368406295
1783204262301883000,5.6688828125,-0.0606084902197122,-0.005587444743514,0.0747100808084011,-0.0204237625002861,-0.0258343070745468,0.0060358718037605
1783204262311820000,5.678820068359375,-0.0380500369310379,0.0099374566465616,0.059359366941452,-0.019138865172863,-0.0355363376438617,0.007539540529251
1783204262321758000,5.688758056640625,-0.004295066845417,0.0170431969985365,0.0497018962800502,-0.0256239287555217,-0.0366950780153274,0.01261499337852
1783204262331695000,5.698695068359375,-0.008610591956973,0.0259334826797246,0.0410831210166215,-0.0340804010629653,-0.024580642580986,0.012725468724966
1783204262341632000,5.708632080078125,-0.0372159241944551,0.0297118321746587,0.034620062482357,-0.0396927520632743,-0.0189278200268745,0.0081000914797186
1783204262351570200,5.718570068359375,-0.0573421819001436,0.0126940618783235,0.0039478608429431,-0.0340316258370876,-0.0230223722755908,0.004171167500317
1783204262361506800,5.7285068359375,-0.071302902713418,-0.0111123456448316,-0.0997328783839941,-0.021189596503973,-0.0114378882572054,0.0027040324639528
1783204262371445000,5.738445068359375,-0.0612701689988374,-0.0232590027734637,-0.1079518406748771,-0.0060668205842375,-0.0048260204493999,-3.20095568895e-05
1783204262381382000,5.7483818359375,-0.0648135406941175,-0.0191673495456576,-0.1095890864878892,3.2084994018e-05,-0.0016675111837685,-0.0050105229020118
1783204262391319000,5.758319091796875,-0.0457025975108146,-0.0213929166406393,-0.1275683952927589,0.0070095146074891,-0.0067787654697895,-0.0056856372393667
1783204262401257000,5.768257080078125,-0.0254243641138076,-0.0178676651239395,-0.09895721783638,0.0051279915496706,-0.007520455867052,-0.0021068812347948
1783204262411194000,5.778194091796875,-0.0139005150586366,-0.0110103465750813,-0.0786205322504043,0.0023629423230886,-0.0163350291550159,-0.0046834079548716
1783204262421131000,5.788131103515625,-0.0007236380994319,-0.0053103813678026,-0.0679436554133892,-0.0075879581272602,-0.0162716452032327,-0.008027272298932
1783204262431069200,5.798069091796875,0.0175941088795661,-0.0033691841721534,-0.048775429084897,-0.0132922250777482,-0.0091701298952102,-0.0098432712256908
1783204262441005800,5.808005859375,0.03286123611629,-0.0099023853331804,-0.03310381270051,-0.0195735562592744,-2.61669047176e-05,-0.0061545269563794
1783204262450944000,5.817944091796875,0.0292623348414897,0.0223559164538979,-0.0332166254252195,-0.0199906602501869,0.002616373123601,-0.0037776585668325
1783204262460881000,5.827880859375,0.0284463422834873,0.0521384757772088,-0.0336883345901966,-0.0140419565141201,-0.0069542289711534,-0.0015214283484965
1783204262470818000,5.837818115234375,0.010438391906023,0.057412324526906,-0.0747720401287078,-0.0002310872077941,-0.0104480683803558,0.0027073149103671
1783204262480756000,5.847755859375,0.0012204817056655,0.0478349333643913,-0.0545329696983099,0.0204784516245126,-0.0126331914216279,0.0027280875947326
1783204262490693000,5.857693115234375,0.0029565117180347,0.0410936424106359,-0.0120171855300664,0.0237941741943359,-0.0200709644705057,0.0046253660693764
1783204262500630000,5.867630126953125,0.0167716865807771,0.0410313908293843,0.0037386020064353,0.0148765789344906,-0.0239389408379793,0.0080930683761835
1783204262510568200,5.877568115234375,0.0218593651086091,0.0270730081036686,0.0409913510799407,0.0053657167591154,-0.0208665486425161,0.0076456991955637
1783204262520504800,5.8875048828125,0.0135895494133234,0.0235541863277554,0.0718669663369655,-0.0095967212691903,-0.0247574262320995,0.006786030717194
1783204262530443000,5.897443115234375,-0.0034784897655248,0.0217550279513001,0.0654044923245906,-0.0160889346152544,-0.0246393475681543,0.0017039733938872
1783204262540380000,5.9073798828125,-0.0317208339095115,0.0132180857524275,0.0436246221929788,-0.0148023627698421,-0.0139946937561035,-0.0051030660979449
1783204262550317000,5.917317138671875,-0.0429448232352733,-0.0053629883378744,0.0320166019856929,-0.0167585052549839,-0.0076732630841434,-0.0092275068163871
1783204262560255000,5.9272548828125,-0.0446931282073259,-0.0162760120183229,0.0311550167202949,-0.0193942356854677,-0.001033469568938,-0.007327607832849
1783204262570192100,5.937192138671875,-0.029181670820713,-0.0241197112560272,0.0309890125036239,-0.0266855806112289,-0.0021149986423552,-0.0062072603031992
1783204262580129000,5.94712890625,-0.0215647660762071,-0.0172723295792937,0.0354962607949972,-0.0300962924957275,-0.0011354885064065,-0.0060141813009977
1783204262590067200,5.957067138671875,-0.0150140292584896,-0.0160506788298487,0.0308177475899457,-0.0397276021540164,-0.0004129572771489,-0.0036512087099254
1783204262600003800,5.96700390625,-0.0186859957695007,-0.0062722121372818,0.0340367096364498,-0.0473309271037578,0.0090489871799945,-0.0104404054582118
1783204262609942000,5.97694189453125,-0.0335316827237606,0.0143988199695944,0.0473474421083927,-0.0530780889093875,0.0095657911151647,-0.0104326847940683
1783204262619879000,5.98687890625,-0.0262134686648845,0.0140817168444395,0.0424152464032173,-0.0590246580541133,0.005385959520936,-0.0112287029623985
1783204262629816000,5.996816162109375,-0.0156359605491161,0.0081754154101014,0.0214367557823658,-0.0538266412913799,-0.0035642758011817,-0.0132178161293268
1783204262639754000,6.00675390625,-0.0116091892510652,0.0210810742124915,0.0060012862414121,-0.0462997518479824,-0.0098131168633699,-0.0117866331711411
1783204262649691100,6.016691162109375,-0.0047024786025285,0.0252788181632757,0.0093260467499494,-0.0426987409591674,-0.0216670297086238,-0.0066243265755474
1783204262659628000,6.0266279296875,0.0004132569760084,0.0305982596203684,0.001928337714076,-0.0360954329371452,-0.02542395144701,-0.0080917282029986
1783204262669566200,6.036566162109375,-0.0019938041657209,0.0336029943943023,0.0121872813999652,-0.0358463525772094,-0.0261644683778285,-0.0036484585143625
1783204262679502800,6.0465029296875,0.0047024786025285,0.0282519887551665,0.0112047001034021,-0.0332495048642158,-0.0310409851372241,0.0014445704873651
1783204262689440000,6.05643994140625,0.0074964932352304,0.0237774736896157,-0.0023632220000028,-0.0240539163351058,-0.0394878089427948,0.0045477733947336
1783204262699378000,6.0663779296875,0.004541150560975,0.009955284564197,-0.0395440748810768,-0.0115098943933844,-0.0450961627066135,0.0028342949226498
1783204262709315000,6.076315185546875,0.0127075058817863,0.0071983870714902,-0.0555816019684076,-0.007260413840413,-0.0350411236286163,0.0021891065407544
1783204262719253000,6.0862529296875,0.0113923316299915,0.0114800099134445,-0.0348538712382316,-0.0090537872165441,-0.0291949566453695,0.0067865215241909
1783204262729190100,6.096190185546875,0.0102022450625896,0.0384410820752382,-0.0227905084788799,-0.0079751424491405,-0.0224695429205894,0.0046253181062638
1783204262739127000,6.106126953125,0.0051449616730213,0.0326882176369428,-0.0223550396710634,-0.003553494811058,-0.0175687931478023,0.0038021351210772
1783204262749065200,6.116065185546875,-0.0016629647761583,0.00582797550112,-0.0229524210423231,-0.005715288221836,-0.017601478844881,0.0057801492512226
1783204262759001900,6.126001953125,0.009235445857048,0.0074900634944438,-0.0107324064165353,-0.00520502589643,-0.0228889193385839,0.0069830995053052
1783204262768939000,6.13593896484375,0.0194207397848367,0.0173678989082574,0.0011778116077184,-0.0002853805199265,-0.0282724872231483,0.0095178466290235
1783204262778877000,6.145876953125,0.0014957915157079,0.0170770992681384,-0.0213525846302509,0.0041573056951165,-0.0237517729401588,0.0026359721086919
1783204262788814000,6.15581396484375,-0.0120797293722629,0.0076812021523714,-0.0129290396779775,0.0037690615281462,-0.0011515752412378,-0.0019199844682589
1783204262798751200,6.165751220703125,-0.0126245037734508,0.0333753231182694,0.0216945299357175,-0.0057464130222797,0.0125708952546119,-0.0012555257417261
1783204262808689200,6.175689208984375,0.0024719430714845,0.049070028117299,0.033642741882801,-0.0147996330633759,0.0181014128029346,0.0020753282587975
1783204262818626000,6.1856259765625,0.0135737673223018,0.0261406956896185,0.0418833314836025,-0.0239910036325454,0.0175927486270666,0.0022415092680603
1783204262828563000,6.19556298828125,0.0247287830650806,0.0107768300801515,0.0637210692822933,-0.0194505304098129,-0.0010868995450437,0.0062771355733275
1783204262838500900,6.2055009765625,0.0060141457229852,0.0022585925817489,0.0595054974138736,-0.0163021422922611,-0.0220457110553979,0.003445396432653
1783204262848438000,6.21543798828125,-0.0184282216161489,0.0071557169735431,0.0252513456344604,-0.010468048043549,-0.034366451203823,0.0033425067085772
1783204262858376000,6.2253759765625,-0.0267968215107917,-0.0050882630497217,0.0167214176982641,-0.0055545167997479,-0.0285735428333282,0.0003067695070058
1783204262868313000,6.23531298828125,-0.0384866747826337,-0.0005626023188233,0.0227279646366834,-0.0070099830627441,-0.0127160940319299,-0.0055355858057737
1783204262878250200,6.245250244140625,-0.0253787714064121,0.0097173841550946,0.0080792615592479,-0.0162703264504671,0.0115737980231642,-0.0046367687173187
1783204262888188200,6.255188232421875,-0.01335340256989,0.0399678532510995,0.0255552970170974,-0.0295273289084434,0.0250908583402633,-0.0031287996098399
1783204262898125000,6.265125,-0.0014554595053195,0.0501972785815596,0.0452694667905569,-0.0386526510119438,0.0363357923924922,-0.0057605355978012
1783204262908062000,6.27506201171875,0.0199281047850847,0.0217988670930266,0.0482844306975603,-0.047223012894392,0.0374073199927806,1.64401717483e-05
1783204262917999900,6.284999755859375,0.0221060333460569,-0.0061614452391862,0.0443769018650054,-0.0516220219433307,0.0304578002542257,0.0009578675962984
1783204262927937000,6.29493701171875,-0.0012397709280252,-0.0164671506762504,0.0350718979030847,-0.0504497997462749,0.0204414427280426,0.0002770314458757
1783204262937874200,6.304874267578125,-0.0106020580351352,-0.0244078805476427,0.0182031806886196,-0.0465538576245307,0.0209186822175979,-0.0041113253682851
1783204262947812000,6.31481201171875,-0.029916414836049,-0.014776421110332,0.0263555074840784,-0.043936800211668,0.0119779277592897,-0.0070773363113403
1783204262957749200,6.324749267578125,-0.0545540124863386,0.0086135145664215,0.010391630154848,-0.0423077419400215,0.0064470744691789,-0.0072216796688735
1783204262967686000,6.334685791015625,-0.0497784686475992,0.0095624858543276,0.0027981062859296,-0.0402965247631073,0.0091094365343451,-0.0119674326851964
1783204262977624000,6.3446240234375,-0.0352659591704607,0.0144260002374649,0.0246118786871433,-0.0389573089778423,0.007081183604896,-0.0126943830400705
1783204262987561000,6.35456103515625,-0.0149976626455783,0.0272343361452221,0.0088671970665454,-0.0416427254676818,0.00888417288661,-0.0048372619785368
1783204262997498000,6.364498046875,0.0078746788978576,0.0139124977573752,0.0087666593015193,-0.0434305034577846,0.0126794446259737,-0.0035538848023861
1783204263007436000,6.37443603515625,0.0111643680930137,0.0008963643178343,0.0176852942943573,-0.0413310825824737,0.0080983527004718,-0.0032514370977878
1783204263017373200,6.384373291015625,0.0060346039891242,-0.0084065938174724,-0.010154898789525,-0.036005824804306,0.0040689902380108,0.0014863265678286
1783204263027310000,6.39431005859375,-0.0038683658659458,-0.0044072950482368,-0.0175298114717006,-0.022269356995821,-0.0034198435023427,0.0021516657434403
1783204263037248300,6.404248291015625,-0.0268079274266958,-0.0034364041894674,-0.0160404496967792,-0.0149600459262728,-0.0063746208325028,-0.0036636129952967
1783204263047185000,6.414184814453125,-0.0284346518456935,-0.0212915020927786,-0.0192167416453361,-0.0083636343479156,0.0044738911092281,-0.0055129574611783
1783204263057122000,6.4241220703125,-0.0009457564175128,-0.0302235810890793,-0.0022661913663148,-0.0147349815815687,0.012869507074356,-0.0001088711433112
1783204263067060000,6.43406005859375,0.0162169753074645,0.0062543842196464,0.0230839384675025,-0.0244139451533556,0.0101983109489083,0.0005259842146188
1783204263076997000,6.4439970703125,0.0163899937868118,0.0457400069117546,0.0373930343270301,-0.0216109659522771,-0.0004223752766847,0.0033310914877802
1783204263086934000,6.45393408203125,0.0153618197828531,0.0409288072377443,0.0203138892322778,-0.0129780359566211,-0.0077566811814904,0.0056382771581411
1783204263096872200,6.4638720703125,0.0090904844284057,0.0193935595169663,0.0253425310492515,-0.0043262243270874,-0.0175922662019729,0.0065022064372897
1783204263106809000,6.47380908203125,0.0059919338911771,0.025522563791275,0.0124807113885879,0.0017464309930801,-0.0205543525516986,0.0056946882978081
1783204263116746000,6.48374609375,0.0098287355750799,0.020833821453154,0.01016425113976,-0.0062595643103122,-0.0137715470045804,0.0058645978569984
1783204263126684000,6.493683837890625,0.0151776953876018,0.0267144039243459,0.0642658436834812,-0.0133969215676188,-0.0172413177788257,0.0081457290798425
1783204263136621000,6.50362109375,0.0088747958511114,0.0346329219639301,0.0544891305565834,-0.0177328139543533,-0.0161997564136981,0.0099822450429201
1783204263146558000,6.513557861328125,-0.0094528880000114,0.0409849213391542,0.0383335300475358,-0.0090748174116015,-0.0177888683974742,0.0118473032489418
1783204263156496100,6.52349609375,-0.0129471598565578,0.0305769245713949,0.0484562801331281,-0.0080034276470541,-0.0199676007032394,0.0087428567931056
1783204263166433000,6.53343310546875,-0.0048860184758901,0.0181944128602743,0.0243295546144247,-0.0096835372969508,-0.0076311966404318,0.0079594841226935
1783204263176370200,6.5433701171875,0.0115863928973674,0.0150157828241586,0.025250176590681,-0.0220400691032409,0.0056366715580224,0.0062334900721907
1783204263186308000,6.55330810546875,0.0089694883972406,0.0264189281091094,0.0580523759961128,-0.0351851657032966,0.0090543059632182,0.0076196650043129
1783204263196245000,6.563244873046875,-0.00158522336483,0.0387763053789734,0.0073258128434419,-0.0327145531773567,0.0182201080024242,0.0047466466203331
1783204263206182000,6.573181884765625,-0.030022797819972,0.0213555072396993,0.0072363809943199,-0.0270454809069633,0.0284756738692522,0.0014800133649259
1783204263216120000,6.5831201171875,-0.0312450330913066,-0.0021761749953031,0.0237993932604789,-0.0229649879038333,0.0208425223827362,-0.0013258929830044
1783204263226057000,6.593056884765625,-0.0242903916478157,-0.0006058569386601,-0.0080868603438138,-0.019629493355751,0.0134463524445891,0.0042841872200369
1783204263235994000,6.602994140625,0.0060287587702274,-0.0087438629478216,0.0055792614370584,-0.0168829783797264,0.0035551057662814,0.0080269947648048
1783204263245932000,6.61293212890625,0.0099468089967966,0.001497545081377,0.0020125088661909,-0.0174623653292655,-0.001660656183958,0.0073173968121409
1783204263255869200,6.622869140625,0.0094616558283567,0.0048524084672331,-0.0010018705189228,-0.0123775908723473,-0.0022364314645528,0.0070444224402308
1783204263265806000,6.63280615234375,-0.0003168108642101,-0.0094449969545006,0.0060597384303808,-0.0129958745092153,-0.0003372686915099,0.0049241012893617
1783204263275744000,6.642743896484375,-0.0028080431580543,-0.00837386059165,0.0232458510309457,-0.0129830911755561,-0.0037514413706958,0.0081004537642002
1783204263285681000,6.652680908203125,-0.0106178401261568,0.0075000003665685,0.0347638548672199,-0.0148337222635746,-0.0038872617296874,0.0047195698134601
1783204263295618000,6.6626181640625,-0.0167027129977941,0.0198173378869891,0.0536035798937082,-0.0185325853526592,-0.0068593495525419,0.0026734634302556
1783204263305555200,6.67255517578125,-0.016307576200366,-0.0021802666485309,0.0709767394989728,-0.0254126898944377,-0.0022405101917684,0.0021667110268026
1783204263315493000,6.6824931640625,0.0017319383591413,0.0092605802983045,0.0559393293648958,-0.0323755256831646,0.0087242564186453,0.001571760745719
1783204263325430300,6.69243017578125,0.0095031568825244,0.0143646254390478,0.0744482150018215,-0.0350989624857902,0.0184789691120386,0.0058155935257673
1783204263335367000,6.702366943359375,-0.0031347908943891,0.0364320803403854,0.0865899036943912,-0.0322456508874893,0.0154743902385234,0.0055415546521544
1783204263345305000,6.71230517578125,-0.0122971715152263,0.0399421342879533,0.0615828882098197,-0.0245788544416427,0.002477693138644,0.0065219528041779
1783204263355242000,6.722241943359375,-0.0064542907059192,0.0217161572456359,0.0440828873544931,-0.0148487305268645,-0.0080724190920591,0.0068010515533387
1783204263365179100,6.73217919921875,-0.0075678049057722,0.0120987263336777,0.0513455718338489,-0.0099384728819131,-0.0222355816513299,0.012783178128302
1783204263375117000,6.742116943359375,-0.0044639936715364,0.0049205052673816,0.0362637380361557,-0.0103059895336627,-0.0245903488248586,0.0145895993337035
1783204263385054200,6.75205419921875,-0.0019932196438312,0.010848726272583,0.0456131656616926,-0.0119193661957979,-0.0215032529085874,0.0135958855971694
1783204263394991000,6.7619912109375,0.009449965390563,0.012521627920866,0.0484206242978572,-0.0269963219761848,-0.0117217283695936,0.008297792635858
1783204263404929300,6.77192919921875,0.0016898527830839,0.0119756844758987,0.0627384879857301,-0.041300568729639,-0.0007803197950124,0.0072912066243588
1783204263414866000,6.781865966796875,-0.0237140530645847,0.0136409873396158,0.0710591570854187,-0.0480926968157291,-0.0058206184767186,0.001817877870053
1783204263424803000,6.791802978515625,-0.0314063611328601,0.008135083399713,0.0138987614929676,-0.0411363691091537,-0.0019195755012333,0.0013178694061934
1783204263434740000,6.801739990234375,-0.0363783043265342,-0.0046606852874159,-0.0081102412194013,-0.0291588008403778,0.0053881383500993,0.0016864505596458
1783204263444678100,6.81167822265625,-0.0211819042384624,0.0092594112545251,-0.0078735098540782,-0.0166256576776504,0.0001557227224111,0.0042894687503576
1783204263454615000,6.821614990234375,0.001723170530796,0.0076490534484386,-0.0345101723670959,-0.0113533986732363,-0.0053562219254672,0.0067632785066962
1783204263464552200,6.83155224609375,0.0114683194756507,0.0100792032048106,-0.0274503169834613,-0.0039206258952617,-0.0186015889048576,0.010530499741435
1783204263474490000,6.841489990234375,0.0058189154118299,0.0178463300749659,-0.0399169998466968,0.004406014457345,-0.0161589384078979,0.0056934007443487
1783204263484427000,6.851427001953125,-0.0139887778639793,-0.0014507833302021,-0.0425876803606748,0.0132755739614367,-8.17272812128e-05,0.0024452300276607
1783204263494364000,6.861364013671875,-0.0104471597343683,0.0167579503163695,-0.0148690678298473,0.0130830276757478,0.0133113097399473,0.0025293861981481
1783204263504302000,6.871302001953125,-0.0077560209542512,0.0209089325159788,0.0033440497308969,0.0095879863947629,0.0233763772994279,0.0003477681893855
1783204263514239000,6.881239013671875,0.0081020579129457,0.0331228096619248,0.0120218617051839,0.0038861585780978,0.0209800656884908,0.0031779096461832
1783204263524176100,6.891176025390625,0.0261024095058441,0.0228159351810812,0.036831893312931,-0.0004509324207901,0.0086051244288682,0.0076825153082609
1783204263534113300,6.90111328125,0.0344037893831729,0.0028337621212005,0.0338140067964792,0.0001322999596595,-0.0021716230548918,0.0073565440252423
1783204263544051200,6.91105126953125,0.0187228206485509,-0.0012517536267638,0.0138771341830492,0.0032698661088943,-0.0036871186457574,0.0044835247099399
1783204263553988000,6.920988037109375,0.0120072486579418,-0.0116287707343697,0.0336918417215347,0.0035050231963396,0.0027084629982709,0.007085433229804
1783204263563925000,6.930925048828125,0.0237216518491506,0.0080599723368883,0.042680619341135,-0.0037741372361779,0.0171312540769577,0.0055986358784139
1783204263573863000,6.94086279296875,0.035313889965415,0.0158078099846839,0.0396726696968078,-0.0170712992548942,0.029223870486021,0.0076588573865592
1783204263583800000,6.950800048828125,0.0245668705016374,0.0550663459226489,0.0690665219634771,-0.0316170565783977,0.0304253920912742,0.0131783466786146
1783204263593737200,6.9607373046875,0.0073632222443819,0.0652989861235022,0.0820493376553058,-0.0353087298572063,0.01252122502774,0.0219627823680639
1783204263603673900,6.970673828125,0.0110217447519302,0.035789398522675,0.061561845421791,-0.0267002694308757,-0.0022579310461878,0.0234731510281562
1783204263613612000,6.980612060546875,0.0162339264422655,0.0210536016836762,0.0228320095330476,-0.0182404704391956,-0.0082846637815237,0.0214211866259574
1783204263623549000,6.990548828125,0.0110480482369661,0.020984920361638,0.0120458271026611,-0.0057103997096419,-0.0075288247317075,0.0262455493211746
1783204263633486000,7.000486083984375,-0.0083978259891271,0.0245931739866733,0.017570143482089,-0.0004996582865715,-0.0070728911086916,0.0258189104497432
1783204263643424000,7.010424072265625,-0.0011836568266153,0.0242336930245161,0.0268172797769308,0.0025299014523625,-0.0145377870649099,0.0283608064055442
1783204263653361200,7.020361083984375,0.0078296707123517,0.0183563254237175,0.0281429754227399,0.0011868700385093,-0.018780468031764,0.0274707786738872
1783204263663298000,7.030298095703125,0.006232756909728,-0.0071864043727517,0.011270166555047,0.0018338840454816,-0.0107134822756052,0.0225338544696569
1783204263673235000,7.04023486328125,-0.0039431846678256,-0.0004714169040322,0.0188479083329439,-0.0035393089056015,0.0019357344135642,0.0214488822966814
1783204263683172900,7.0501728515625,-0.0082575407356023,0.0268152339503169,0.027891046488285,-0.0019667251035571,0.0109049808233976,0.0220269672572612
1783204263693110000,7.060110107421875,-0.0113496615320444,0.0034326047971844,0.0082803370893001,-0.0066954344511032,0.0210502929985523,0.0187765806913375
1783204263703047000,7.070046875,-0.0277010768741369,0.002545592829585,0.0295896670997142,-0.0079332748427987,0.0194798372685909,0.0178892165422439
1783204263712984000,7.079984130859375,-0.0403892935335636,0.009250351165235,0.0509440052956342,-0.0081050498411059,0.0051019634120166,0.0153011567890644
1783204263722922000,7.089921875,-0.0371796838372945,-0.0092348613351583,0.0524485646396875,-0.0107807414606213,-0.0157425887882709,0.0186961591243743
1783204263732859100,7.099859130859375,-0.0260772750645875,-0.0158709383487701,0.0548246461212635,-0.012968529947102,-0.026659682393074,0.0137762343510985
1783204263742796000,7.109796142578125,-0.0211649531036615,-0.0117407066762447,0.0342979909211397,-0.0142954522743821,-0.0176712926477193,0.0136510161682963
1783204263752734000,7.11973388671875,-0.0138572604387998,0.0137213590994477,0.0609288082152605,-0.0250660739839077,-0.0025189700536429,0.0133924232795834
1783204263762671000,7.129671142578125,-0.01154430732131,0.043322132115066,0.0856722043275833,-0.0316062495112419,0.0046110143885016,0.0115785915404558
1783204263772608000,7.13960791015625,-0.0205167183279991,0.0512555554628372,0.0755751732051372,-0.0336068198084831,-0.0001690932549536,0.009352721273899
1783204263782545200,7.149545166015625,-0.0038747956067323,0.0436237454101443,0.0181441439777612,-0.0250761527568101,-0.0339394249022007,0.0100390613079071
1783204263792483000,7.159483154296875,0.0348491950631141,0.039131402426958,0.0125894324600696,-0.0223133917897939,-0.0222609303891658,0.0226741638034582
1783204263802420200,7.169420166015625,0.0737801064819097,-0.0001604512587189,0.0686556030750274,-0.0080012325197458,-0.0245963186025619,0.0288706757128238
1783204263812356900,7.17935693359375,-0.0295516731768846,0.0075610829040408,0.0157522804051637,0.0010308790951967,-0.0220511369407176,0.015614521689713
1783204263822294000,7.1892939453125,-0.0548573793470859,0.0231172562152147,-0.0209779060989618,0.0054786410182714,-0.0083854990079998,0.0094749173149466
1783204263832232000,7.19923193359375,-0.0330827699124813,-0.021967793919146,0.0071381813168525,-0.0015720780938863,0.0034498546738177,0.0067824609577655
1783204263842169000,7.209169189453125,-0.0097018943250179,-0.014147767817974,0.0267453835844993,-0.0118415402248501,0.0051640886813402,0.0112199978902935
1783204263852106000,7.21910595703125,0.0040215106010437,0.0160872114479541,0.0319914675444364,-0.0206014737486839,0.0031784358434379,0.010853280313313
1783204263862044200,7.229044189453125,0.0175561149567365,0.0096194767385721,0.0110813659846782,-0.031853899359703,0.0030877378303557,0.0139880450442433
1783204263871981000,7.23898095703125,0.0324818814098835,-0.0071624389752745,0.000619008681178,-0.0345290452241897,-0.0004039327614009,0.0121531272307038
1783204263881918000,7.24891796875,0.0129611883819103,-0.0052525137007236,0.0122311205416917,-0.031088525429368,-0.0029204147867858,0.0146220512688159
1783204263891855000,7.258855224609375,-0.0007125321835279,-0.009229892899096,0.0061620297610759,-0.0244995970278978,-0.0025342567823827,0.0142430830746889
1783204263901793000,7.26879296875,-0.0098421795785427,0.0108723994091153,0.011240355938673,-0.0144550334662199,-0.0065564531832933,0.0157210547477006
1783204263911730200,7.278730224609375,0.0049169981360435,0.0121899117484688,0.0222340436398983,-0.0111375339329242,-0.0052096927538514,0.0177336055785417
1783204263921667000,7.2886669921875,0.0255757552832365,0.0276385330319404,0.0372995108246803,-0.0111044021323323,-0.0078992415219545,0.0198031030595302
1783204263931604200,7.298604248046875,0.0167722711026668,0.0472024806797504,0.0537386044502258,-0.0149771710857748,-0.0131880138069391,0.0180201157927513
1783204263941542100,7.308542236328125,-0.0079226096928119,0.0531698646515607,0.0120633627593517,-0.0109696565195918,0.002105031395331,0.0180991683155298
1783204263951479000,7.31847900390625,-0.0051578211545944,0.0492176198944449,0.0334030879080295,-0.0039477003738284,0.013681792654097,0.0155515866354107
1783204263961416000,7.328416015625,-0.0067062196403741,0.0378857862800359,0.0492459692060947,-0.0007879575714468,0.0097482176497578,0.0164094809442758
1783204263971353000,7.33835302734375,-0.0161690445125103,0.0277121827900409,0.0271107097655534,-0.0005251038819551,0.0023643372114747,0.0223219655454158
1783204263981291000,7.348291015625,-0.0071393503606319,0.0033449265137314,0.0411667076468467,-0.0029451893642544,-0.0156480483710765,0.0204213522374629
1783204263991228200,7.358228271484375,-0.0147761288493871,-0.0224962017074227,0.0239209738135337,-0.0056027574464678,-0.0263049528002738,0.0221492126584053
1783204264001165000,7.3681650390625,-0.0080061963230371,-0.0414867333814501,0.0209779060989618,-0.006826383061707,-0.0206521525979042,0.0210899971425533
1783204264011102000,7.37810205078125,-0.0220779762953519,-0.0235132697954773,0.0219698397457599,-0.0117220720276236,-0.0063240812160074,0.0159160085022449
1783204264021039900,7.388039794921875,-0.0252776491194963,0.0030178865164518,0.0316588745892047,-0.0192719250917434,0.0048123206943273,0.0130741419270634
1783204264030977000,7.39797705078125,-0.0221703307539224,0.0270446587920188,0.0333083953619003,-0.0183619260787963,0.0107098910957574,0.0118916984647512
1783204264040914200,7.4079140625,-0.0134814128637313,0.0262128841429948,0.0301385331541299,-0.0223820284008979,0.0068508004769682,0.0135174831375479
1783204264050850600,7.4178505859375,0.0036503392010927,0.0118207861751317,0.0243377379208803,-0.0191263109445571,-0.0040862690657377,0.0158639941364526
1783204264060788700,7.427788818359375,0.0128384387850761,0.0239417243406176,0.0141290631175041,-0.0158681366592645,-0.0075152940116822,0.0166894309222698
1783204264070725600,7.4377255859375,-0.0041460137635469,0.018469138148427,0.0224988320559263,-0.0079220626503229,-0.0024273251183331,0.0163826346397399
1783204264080662500,7.44766259765625,-0.0099450554311275,0.0236260825201869,0.0287538007974624,-0.0043962486088275,-0.0040475009009242,0.0160810779780149
1783204264090599400,7.457599365234375,-0.0126794488310813,0.0244487970799207,0.0154044898808002,-0.0055384784936904,-0.004050962626934,0.0154214138165116
1783204264100537600,7.46753759765625,-0.0061707975894212,0.0255494517982006,0.0343991132080554,-0.0079327700659632,-0.001328345388174,0.0140175316482782
1783204264110474500,7.477474609375,0.0115326168835163,0.0150274732619523,0.051994391131401,-0.0113197779282927,-0.0027946820482611,0.0157832074910402
1783204264120411600,7.48741162109375,0.00533376224339,0.0149169986248016,0.040754035192728,-0.0171463452279567,-0.0056687896139919,0.0152185689657926
1783204264130348800,7.497348876953125,0.0180482823878526,0.0031295301973819,0.0388017320811748,-0.0177096016705036,-0.0055358982644975,0.0165469534695148
1783204264140286700,7.50728662109375,0.0221381820499897,0.0138753806173801,0.034543490114808,-0.0194223411381244,-0.0105961672961711,0.0197712462395429
1783204264150223600,7.5172236328125,0.0174088154405355,0.0184171157002449,0.0238368026614189,-0.0141881639137864,-0.0168985370546579,0.0222565084695816
1783204264160160500,7.527160400390625,0.0061444941043853,0.0148199679911136,0.0126373632550239,-0.0073181791231036,-0.0144313629716634,0.0188285373151302
1783204264170097700,7.53709765625,0.0049620063215494,0.0170677469179034,0.0016962825238704,-0.0039229160174727,-0.015387438237667,0.019083134829998
1783204264180035600,7.54703564453125,0.0064326633960008,0.0066083122238516,0.0147638538897037,-0.0048722187057137,-0.0101281385868787,0.0169272162020206
1783204264189972700,7.55697265625,-0.0090279405862092,0.0127069213598966,0.0178752639085054,-0.00393105763942,-0.0064937225542962,0.0177362840622663
1783204264199909600,7.56690966796875,-0.0201852944165468,0.0112035310596227,0.0149023855775594,-0.0065601225942373,-0.002145358826965,0.0173692069947719
1783204264209846500,7.576846435546875,-0.0335983182191848,0.018924188439548,0.0283475580841302,-0.0016439268365502,0.0014541698619723,0.0152735654264688
1783204264219783400,7.586783447265625,-0.0211123461335897,0.0054310851380228,0.0285685073584318,-0.0007578525692224,-0.0078946119174361,0.0150514207780361
1783204264229721600,7.5967216796875,-0.0128150579094886,-0.0100759883344173,0.0043967736542224,0.0059660961851477,-0.0115679092705249,0.0163475796580314
1783204264239658500,7.606658447265625,-0.0030593875706195,-0.0023170447707176,0.0024064766198396,0.0104665718972682,-0.0241838358342647,0.0118284625932574
1783204264249595600,7.616595703125,-0.0231657715320587,0.0097825583457946,-0.0265372937917709,0.0205117501318454,-0.0211403761059045,0.0092633059248328
1783204264259532800,7.62653271484375,-0.0496522119194269,0.0038172202005982,-0.0563759672164917,0.0327346324920654,0.0115284416824579,0.0088075539097189
1783204264269470700,7.636470703125,-0.0298421805560588,0.0207066879421472,-0.0015969138026237,0.036274503916502,0.0199160687625408,0.011434762738645
1783204264279407600,7.64640771484375,0.0011877484798431,0.0385018723517656,0.0095429043710231,0.0332614295184612,0.0121602118015289,0.019150597974658
1783204264289344500,7.656344482421875,0.0327653745263814,0.0500076012283563,0.0267833775073289,0.0252953805029392,-0.0038829375989735,0.0186054483056068
1783204264299281700,7.66628173828125,0.068175126081705,0.0193079270601272,0.0632838469088077,0.0071894866414368,-0.0078446995466947,0.0200722366571426
1783204264309219600,7.676219482421875,0.0234901811808347,0.0139718267291784,0.094919340622425,-0.0100009515881538,-0.0026440792717039,0.0179861821234226
1783204264319156700,7.68615673828125,-1.98737442493e-05,0.0198106158852577,0.145140292340517,-0.0225690715014934,0.0005650953389704,0.0125492103397846
1783204264329093600,7.69609375,-0.0221913735419511,0.0049152445703744,0.1070434936583042,-0.027512963861227,0.003784590633586,0.0113297495990991
1783204264339030500,7.706030517578125,-0.0001508066475391,0.0079804773598909,0.0935275940030813,-0.0325621515512466,0.0013483529910445,0.0130243627354502
1783204264348967700,7.7159677734375,0.0144306764125823,0.0278036604657769,0.1013566801935434,-0.0361294597387313,-0.0103320041671395,0.0149466330185532
1783204264358905600,7.725905517578125,0.01352116035223,0.0503036615654826,0.0788105018645524,-0.0318717323243618,-0.0258559025824069,0.0174559913575649
1783204264368842500,7.735842529296875,0.0060568158209323,0.0310956877484917,0.0477250432491302,-0.0272357016801834,-0.02467399276793,0.0186853073537349
1783204264378779600,7.745779541015625,0.0038823943912982,0.0098602997571229,0.0497404747247695,-0.0238901022821664,-0.0170181356370449,0.0134693766012787
1783204264388716800,7.755716796875,-0.0121183078169822,-0.0014253566280007,0.0433721087366342,-0.0290467794984579,-0.0112055214121937,0.0111609492450952
1783204264398654700,7.76565478515625,-0.0273363352149724,0.0103220720499753,0.0337315892100334,-0.0362830609083175,-0.0146087314933538,0.0104904528707265
1783204264408591600,7.775591552734375,-0.0155804309695959,0.0155751702725887,0.0353857861578464,-0.0314712673425674,-0.0888225063681602,0.0039843507111072
1783204264418528500,7.785528564453125,0.0052355625659227,-0.0010866261929273,-0.0211088390022516,-0.036556988954544,-0.0820384174585342,0.0186122134327888
1783204264428465700,7.795465576171875,0.1205605623573064,-0.0474976642340421,0.0497404747247695,-0.0439352765679359,-0.062862329185009,0.0255846362560987
1783204264438402600,7.805402587890625,-0.0211444948375225,0.0003048281654715,0.0325169527232646,-0.0375005602836608,-0.0405471436679363,0.0116177247837185
1783204264448340700,7.8153408203125,-0.0805073689103126,0.067639996291697,-0.0267658418506383,-0.0327774435281753,-0.0092885559424757,-0.0037039734888821
1783204264458277600,7.825277587890625,-0.0577238746941089,0.0408344069525599,-0.0099941552698612,-0.0337211787700653,0.0133340638130903,6.67995773255e-05
1783204264468214500,7.835214599609375,0.0013239420801401,0.0014437690675258,-0.0081347911387681,-0.0321062356233596,0.0095875281840562,0.0027864195872098
1783204264478151700,7.845151611328125,0.0193313079357147,0.0073337038889527,-0.0414694899857044,-0.029843408614397,-0.0008574342355132,0.0060492372140288
1783204264488089600,7.855089599609375,0.0383177479565143,-0.0045040334209799,-0.0443196187198162,-0.0231876336038112,-0.0169290788471698,0.0125167230144143
