time,seconds_elapsed,ax,ay,az,gx,gy,gz
1783197260927199700,0.10219970703125,0.0344131417334079,0.0110766898095607,0.0044692543685436,0.005756976082921,-0.0030003618448972,0.0314489044249057
1783197260937137000,0.112136962890625,0.0091223408713936,0.0119068570233881,0.0316723185926675,-0.0037345299497246,-0.00040431227535,0.0309130772948265
1783197260947074000,0.122073974609375,-0.0028489596903324,0.0135778589755296,0.0313987623482942,-0.0127593427896499,-0.0043436009436845,0.020249193534255
1783197260957011000,0.132010986328125,-0.0126491998232901,0.007422551216185,-0.0093172789216041,-0.0094975028187036,0.0024136372376233,0.0118421260267496
1783197260966948000,0.141947998046875,-0.0283330911673605,0.0207538880847394,-0.0017126491367816,-0.0076566794887185,0.0085063958540558,0.0109278140589594
1783197260976884700,0.151884765625,-0.0346966348499059,0.03129471745193,0.0135001175642013,-0.0076766526326537,0.0069508431479334,0.014597650617361
1783197260986822000,0.16182177734375,-0.0058699149467051,0.0184510179698467,0.034592005431652,-0.0110884439200162,-0.0079764723777771,0.0233241058886051
1783197260996759000,0.171759033203125,0.0175415019094943,-0.0043564416438341,0.0156792151689529,-0.0090726986527442,-0.0266987606883049,0.0207773242145776
1783197261006696000,0.181696044921875,-0.0213296421460807,-0.0074482701793313,-0.0456277787089347,-0.0060455026105046,-0.0084447329863905,0.0129816625267267
1783197261016633000,0.191633056640625,-0.0699818832427263,-0.0142556121066212,-0.0529693736433982,-0.0006765695288777,0.018767712637782,0.0073874266818165
1783197261026569700,0.20156982421875,-0.0855374720320105,0.0084141926020383,-0.0834469294935464,0.0155380293726921,0.0196044668555259,0.0061787422746419
1783197261036507000,0.2115068359375,-0.033962621486932,0.0355200800620019,-0.0818003313302993,0.0253475159406662,0.007705464027822,0.0076943477615714
1783197261046444000,0.221444091796875,0.0674868515565991,0.0240177121862769,-0.0401923096567392,0.0247931592166423,-0.0147052118554711,0.0136074982583522
1783197261056381000,0.231380859375,0.0893146524831652,0.0086909637168049,0.0190635969102382,0.0069270757958292,-0.0321417264640331,0.0244380421936512
1783197261066318000,0.241318115234375,0.0491859095819294,0.0019445581965148,0.0507201334118843,-0.0124336834996938,-0.0334550216794014,0.0315821021795272
1783197261076254700,0.251254638671875,-0.0072850424416363,-0.0197347741700708,0.0104436526030302,-0.0259111411869525,-0.0155833465978503,0.029555968940258
1783197261086191900,0.26119189453125,-0.0717705202251672,-0.0228631353236734,-0.0397971728593111,-0.0196357034146785,0.0114835808053612,0.0153735894709825
1783197261096128000,0.2711279296875,-0.0923475904382765,-0.017721242390573,-0.083268650317192,-0.0085862455889582,0.0224299728870391,0.0053047109395265
1783197261106065200,0.281065185546875,-0.0899019508518278,-0.0168052965894341,-0.0819417856276035,0.0040237577632069,0.0178255196660757,0.0026086072903126
1783197261116001800,0.291001708984375,-0.039305005428195,-0.0440368562556803,-0.0516939468801021,0.004043199121952,0.0019221873953938,0.0066086752340197
1783197261125939000,0.30093896484375,0.0046725218556821,-0.0491914625398814,-0.0047480713099241,0.0024655284360051,-0.0163947418332099,0.0144838960841298
1783197261135875800,0.310875732421875,0.0122191378429532,-0.0189012459553778,0.0115209264457225,0.0049590459093451,-0.0239384118467569,0.0153456954285502
1783197261145813000,0.32081298828125,-0.0238435246631503,-0.0088072835728526,-0.0005126256972551,0.0031698364764451,-0.0112848104909062,0.0148230753839015
1783197261155750100,0.330750244140625,-0.0810346076548099,-0.0066984747253358,0.0074520695716142,0.0044297780841588,-0.0037198355421423,0.0056804423220455
1783197261165686800,0.340686767578125,-0.0932597368471324,-0.0224663910910487,0.0085346041113138,0.0035327654331922,-0.0067095318809151,-0.0004384585190564
1783197261175624000,0.3506240234375,-0.0587675385281443,-0.0321177242726087,0.026921324673295,-0.0020667975768446,-0.0175318196415901,-0.0007942568045109
1783197261185561900,0.360561767578125,-0.0456666494145989,-0.0270491888366639,0.0417184963107109,-0.0038973735645413,-0.0304520577192306,-0.0038036967162042
1783197261195499000,0.3704990234375,-0.050677755574882,-0.0303735109537839,0.0218535198897123,-0.0010145027190446,-0.0250711422413587,-0.0099761048331856
1783197261205435600,0.380435546875,-0.0351116453915834,0.0074678516626358,0.0233849672406911,0.0063792169094085,-0.0238928273320198,-0.0096136182546615
1783197261215372800,0.390372802734375,-0.011109715296328,0.0285262756519019,0.0250660521954298,0.001959434710443,-0.0313600674271583,-0.0086761843413114
1783197261225310000,0.40031005859375,0.0019176701895892,0.0148486095637083,0.0243517664462327,-0.0068384017795324,-0.035243734717369,0.0012479308061301
1783197261235246800,0.410246826171875,0.0114905313074588,0.0018577566958963,0.0338122532308101,-0.0083199180662631,-0.0400965511798858,0.0086552463471889
1783197261245184000,0.42018408203125,0.00936228710711,0.0100083299256861,0.0131055652886629,-0.0136851808056235,-0.0451407916843891,0.007659793831408
1783197261255120600,0.43012060546875,0.0015958908893167,-0.0058015258856117,-0.0338835649013519,-0.0180184096097946,-0.0397849082946777,0.0038538703229278
1783197261265057800,0.440057861328125,-0.0483510661929845,-0.0350397491991519,-0.0641021775543689,-0.0156536810100078,-0.0327228084206581,-0.0021718840580433
1783197261274995000,0.449994873046875,-0.0619607816115021,-0.0241907306656241,-0.1055740056276321,-0.0116647994145751,-0.0239775218069553,-0.0072049922309815
1783197261284931800,0.459931884765625,-0.0415180053025484,-0.0263552152231335,-0.1440501590162515,-0.0031677177175879,-0.0233993493020534,-0.0036968099884688
1783197261294869000,0.469868896484375,-0.0156334763310849,-0.0270693548418581,-0.1658352898448705,0.0099406260997056,-0.0277136694639921,0.0033046405296772
1783197261304805600,0.4798056640625,0.0044080257005989,-0.0199753049276769,-0.1532780060887336,0.0143803348764777,-0.0296961050480604,0.0067124706692993
1783197261314742800,0.48974267578125,-0.0335378202036023,-0.0328315716303884,-0.1384019239962101,0.0182973127812147,-0.0282769072800874,0.0007954593747854
1783197261324679000,0.499678955078125,-0.0611541414037346,-0.0422901587188243,-0.1362146430850029,0.0258239097893238,-0.0185205265879631,-0.007059515453875
1783197261334616000,0.509615966796875,-0.0910287629246711,-0.0378640128396451,-0.1340039812982082,0.0299179852008819,-0.0059072626754641,-0.0235623251646757
1783197261344552700,0.519552734375,-0.1246463703662157,-0.0112141985841095,-0.1049462291181087,0.0257598087191581,0.0140420068055391,-0.0401133932173252
1783197261354489900,0.52948974609375,-0.1480950504928827,0.0010289046563208,-0.0402332261890172,0.0050241714343428,0.047584518790245,-0.0604871064424514
1783197261364426800,0.5394267578125,-0.1315041273064911,-0.0127747258991003,0.0330120427638292,-0.0175727494060993,0.059024129062891,-0.0607334487140178
1783197261374364000,0.549364013671875,-0.1076522732064127,-0.0466565372347831,0.0288677825659513,-0.0275992862880229,0.0647270232439041,-0.0569373778998851
1783197261384301000,0.559301025390625,-0.0631235417805612,-0.0516579987838864,0.0467529833465814,-0.0310078635811805,0.0477014333009719,-0.0523604713380336
1783197261394237700,0.56923779296875,-0.0557649957112967,-0.0179908531121909,-0.0013759645283222,-0.0196465551853179,0.0195036176592111,-0.0461462512612342
1783197261404174800,0.5791748046875,-0.0434618328467011,-0.0371805606201291,-0.0193055889725685,-0.0009291796013712,0.0025977820623666,-0.0326127372682094
1783197261414111700,0.58911181640625,0.0006467734709382,-0.0356361076571047,0.0117377840667963,0.0229431297630071,-0.0064769396558403,-0.0287295803427696
1783197261424049000,0.599048828125,0.0656647506959736,-0.0227424315534532,0.0055190556824207,0.0641065686941146,-0.0697162300348281,-0.01269525103271
1783197261433986000,0.608986083984375,0.1284203359469771,0.0136566233001649,-0.1279880820095539,0.126358225941658,-0.1200238689780235,0.0013997945934534
1783197261443922700,0.618922607421875,0.13994067787081,0.0467699344813823,-0.1698462790518999,0.1992474198341369,-0.1489286720752716,-0.0051471218466758
1783197261453859800,0.62885986328125,0.1572173913642764,0.1921349754884839,-0.1709188767194747,0.2641558647155761,-0.210403487086296,0.0033081478904932
1783197261463796700,0.638796630859375,0.2857029015019536,0.1303504272267222,-0.2472054130643606,0.298893392086029,-0.2188666015863418,0.0383624397218227
1783197261473734000,0.64873388671875,0.3280529737144708,0.0224067698583006,-0.1022463225096464,0.2941300570964813,-0.2041007131338119,0.0595502816140651
1783197261483671000,0.658671142578125,0.1730855532340705,0.0954400034956634,-0.0880102918863296,0.2687104046344757,-0.1626704931259155,0.0500546097755432
1783197261493607700,0.668607666015625,-0.033922435607016,0.1831098113812506,-0.0452478394806385,0.2296410202980041,-0.0734886899590492,0.028288597241044
1783197261503544800,0.678544921875,-0.0832125362157821,0.1769296614415943,0.1340086574733257,0.1696888208389282,-0.0189904235303401,0.0103846006095409
1783197261513481700,0.688481689453125,0.0089215576022863,0.0826407276771962,0.1612105526536703,0.0927085578441619,0.0006700973026454,0.0022326642647385
1783197261523419000,0.6984189453125,0.024527561404556,0.0048513855539262,0.1875976243197918,0.0154294557869434,0.0430360659956932,-0.0049799429252743
1783197261533356000,0.70835595703125,-0.0067928750105202,0.0485943734295666,0.274139012697339,-0.0563645735383033,0.0532801747322082,-0.0039418428204953
1783197261543292700,0.718292724609375,0.0436141007989644,0.0791837190911173,0.2452922729194164,-0.1102844327688217,0.0379747077822685,0.0091293705627322
1783197261553229800,0.728229736328125,0.0697942517161369,0.0188723121218383,0.2111784063935279,-0.1464706659317016,0.0257465355098247,0.0457504987716674
1783197261563167000,0.7381669921875,0.0738327134519815,0.0251174901217222,0.1372773038804531,-0.1372441053390503,-0.0202942639589309,0.0465182662010192
1783197261573103900,0.748103759765625,0.0110858960293233,0.0439538541473448,-0.037693478578329,-0.1026744097471237,-0.0228242669254541,0.0321883298456668
1783197261583041000,0.758041015625,-0.0652938715569674,0.010063421113789,-0.0905079539209604,-0.0576398186385631,-0.0280672311782836,0.0259469449520111
1783197261592977700,0.767977783203125,-0.0929211525425314,0.0091577044457197,-0.193865452542901,-0.0242006368935108,-0.036842081695795,0.0292191728949546
1783197261602914800,0.777914794921875,-0.0907747881636023,-0.0011821955218911,-0.1962058781892061,-0.0058225933462381,-0.0305288136005401,0.027102643623948
1783197261612852000,0.78785205078125,-0.0593263414546847,-0.0279939223408699,-0.1808592559754848,0.0055874539539217,-0.0382309406995773,0.0315698310732841
1783197261622788900,0.797788818359375,-0.0345499198555946,-0.0516536148697137,-0.2118272256910801,0.0101246563717722,-0.0295952428132295,0.0314657315611839
1783197261632726000,0.80772607421875,-0.0389331033758819,-0.0470709632545709,-0.1707365058898925,0.0127140479162335,-0.0192493945360183,0.0326718762516975
1783197261642662700,0.81766259765625,-0.0258702081851661,-0.0650898734174668,-0.1820201164484023,0.0167905483394861,0.0024082309100776,0.0270342323929071
1783197261652599800,0.827599853515625,-0.0530925616316497,-0.0846129045329988,-0.1514630656212568,0.0124687710776925,0.017824737355113,0.0253516472876071
1783197261662536000,0.837535888671875,-0.0713373895049095,-0.0887128871977329,-0.1249041445195674,0.0043677007779479,0.0206855051219463,0.0175848044455051
1783197261672472800,0.847472900390625,-0.0416831327363848,-0.1056575922578573,-0.1146188973486423,0.0027650110423564,0.0109119703993201,0.0190002750605344
1783197261682409700,0.85740966796875,-0.0481570049256086,-0.11381196487993,-0.1021598132699728,0.0036034369841217,0.0089753847569227,0.0182247087359428
1783197261692347000,0.867346923828125,-0.0510027497455477,-0.066603054459393,-0.0689928722053766,0.0082924645394086,-0.0167899001389741,0.0129186268895864
1783197261702283800,0.87728369140625,-0.0500889959014952,-0.0634431291237473,-0.1158791265428066,0.0212219431996345,-0.0175388231873512,0.0144479796290397
1783197261712221000,0.887220947265625,-0.0691670597285032,-0.071021163162589,-0.1052051723152399,0.0333547741174697,-0.0105224596336483,0.0077091180719435
1783197261722158000,0.897157958984375,-0.1161401155665516,-0.0118353992223739,-0.0699789606332779,0.0393591374158859,-0.013344787992537,0.0076148393563926
1783197261732094700,0.9070947265625,-0.1105475562565028,0.0157766841940581,-0.0688105013757944,0.0443059615790843,-0.0133714200928807,0.0089964866638183
1783197261742032000,0.917031982421875,-0.0606647504515945,-0.0081624097980558,-0.0358504810601472,0.0420754477381706,-0.0203154552727937,0.0124285938218235
1783197261751968800,0.92696875,-0.0527541234575211,-0.0167164492622017,-0.0221995568484067,0.0359722822904586,-0.0204600654542446,0.01235615555197
1783197261761906000,0.936906005859375,-0.0837260386958718,0.0007519874110817,-0.0282610488444566,0.0323695093393325,-0.0122785698622465,0.0075817052274942
1783197261771843000,0.946843017578125,-0.100495679450035,0.0190491299934685,-0.0497667782098054,0.0322832204401493,-0.015022424980998,0.0104925399646162
1783197261781779700,0.95677978515625,-0.0876180776983499,0.0441623823314905,-0.0662538026303052,0.0276563167572021,-0.0794465988874435,0.0254471879452466
1783197261791716900,0.966716796875,-0.0654759501256048,0.0524061868026852,-0.06339139893651,0.0228943191468715,-0.107393279671669,0.0371184907853603
1783197261801653800,0.97665380859375,0.1145528463751077,-0.0276563609495759,0.0063140054523944,0.0183205492794513,-0.1276229172945022,0.0413926616311073
1783197261811591000,0.9865908203125,0.0650786213710904,-0.0026408698976039,-0.0890711991161107,0.012198207899928,-0.1126181408762931,0.0485557690262794
1783197261821528000,0.996528076171875,0.0023863106146454,0.0716767044618725,-0.1159159514218568,0.0085906200110912,-0.0676337108016014,0.0545844286680221
1783197261831464700,1.006464599609375,-0.0235500946745276,0.0641512773931026,-0.1454454127669334,0.0058331838808953,-0.0334624163806438,0.0531692281365394
1783197261841401900,1.01640185546875,-0.023152035267651,0.0498088637858629,-0.2006891610831022,0.0022943755611777,-0.0239618569612503,0.0558963045477867
1783197261851338800,1.0263388671875,-0.0655734191507101,0.0141261405080556,-0.2064817730098962,0.0046776384115219,-0.0116748316213488,0.0531585738062858
1783197261861276000,1.03627587890625,-0.114006756799668,-0.0064610127076506,-0.0778986477166414,-0.0122131174430251,0.0114122219383716,0.0334825254976749
1783197261871213000,1.046213134765625,-0.0762136172391474,0.0045008185505867,0.0047591772258281,-0.0284528099000453,0.0036112908273935,-0.000986234517768
1783197261881149700,1.056149658203125,-0.0366726110979914,-0.1368728147327899,-0.1714846939086914,-0.0196202434599399,0.0341397933661937,-0.0156415272504091
1783197261891086800,1.0660869140625,-0.0476104769587516,-0.1224039982669055,-0.1590682799279689,0.0007553342729806,0.0570666827261447,-0.0205188412219285
1783197261901023700,1.076023681640625,-0.0729986007153987,0.0273353123016655,-0.1736526855975389,0.0189957097172737,0.0668506696820259,-0.0219075307250022
1783197261910961000,1.0859609375,-0.0015247253492474,0.0175771577447652,-0.1535837110370397,0.0311181508004665,0.0648871213197708,-0.0045562372542917
1783197261920898000,1.09589794921875,0.0896095437765121,-0.0561582328125834,-0.0936509281218051,0.0344924442470073,0.0431382358074188,0.0140759702771902
1783197261930834700,1.105834716796875,0.0784117118053138,-0.063260027641803,-0.1026934817552566,0.0381004959344863,0.0285728778690099,0.0310472305864095
1783197261940771800,1.115771728515625,-0.0069769994057714,-0.0166977445617318,-0.0777478410691022,0.0470520965754985,0.055155374109745,0.044915460050106
1783197261950709000,1.125708984375,-0.0753895875051617,0.0185468795597553,-0.0312935484081506,0.0611926801502704,0.0607064664363861,0.0398586466908454
1783197261960646000,1.13564599609375,-0.0559089342266321,-0.0713162005864083,-0.0640682752847671,0.0682443901896476,0.0538742169737815,0.0235074404627084
1783197261970583000,1.1455830078125,-0.0625013182289898,-0.0633414223149418,0.0028057050704956,0.0663591399788856,0.0479731857776641,0.0017105317674577
1783197261980519700,1.155519775390625,-0.1089654016315937,-0.0507679180763661,0.071920157828927,0.0580470226705074,0.0558888986706733,-0.0110030034556984
1783197261990456800,1.165456787109375,-0.1059279336318373,-0.0205041511073708,0.1107411791324615,0.0625855848193168,0.0996590182185173,-0.0086493017151951
1783197262000394000,1.17539404296875,-0.1151654253154993,0.0301861716881394,0.1247913317948579,0.0456728413701057,0.1080451309680938,-0.0227227061986923
1783197262010331000,1.185330810546875,-0.0420718397930264,0.0344365226089954,0.1685135691434144,0.0074916328303515,0.0942195951938629,-0.0149806309491395
1783197262020268000,1.19526806640625,0.076772858557105,-0.0266711493045091,0.2245604505360126,-0.017688300460577,0.0689397826790809,-0.0016512288711965
1783197262030204700,1.20520458984375,0.0955335269980132,-0.0147312667943537,0.1946200703024864,-0.0229163523763418,0.04771039634943,0.0033222245983779
1783197262040141800,1.215141845703125,0.0552592381462454,0.0587235532559454,0.1780728401273489,-0.0281129106879234,0.0191816389560699,-0.0019916482269763
1783197262050079000,1.225078857421875,0.0707272947825491,0.0424278136238455,0.131180740571022,-0.0302588865160942,-0.0171111188828945,0.008637560531497
1783197262060015900,1.235015869140625,0.0803821350954473,-0.0197952721856534,0.0349643458753824,-0.0267161484807729,-0.0361394956707954,0.0110741537064313
1783197262069953000,1.244953125,0.0020049100816249,-0.0106496965691447,-0.0216764097571372,-0.0112210791558027,-0.0264663621783256,0.0058160084299743
1783197262079889700,1.2548896484375,-0.0692627751879394,0.0469752477951347,-0.1019166521638631,0.0053092269226908,-0.0029998291283845,-0.0050683980807662
1783197262089826800,1.264826904296875,-0.069435939797759,0.0368228332236409,-0.1653466295450925,0.0222850143909454,0.0211220197379589,-0.005521135404706
1783197262099764000,1.274763916015625,-0.0486249146983027,0.0074596683561801,-0.2012549782723188,0.0321517772972583,0.0341234132647514,-0.003266786923632
1783197262109700900,1.284700927734375,-0.0359033802911639,0.0003884147956967,-0.2049094091266393,0.035597376525402,0.0355889536440372,-0.0008843231480568
1783197262119638000,1.294637939453125,-0.0162141988284885,-0.0049700434975326,-0.1945043349683284,0.0346238873898983,0.0412793755531311,0.0043371701613068
1783197262129574700,1.30457470703125,-0.0127921154253184,-0.0327659590482711,-0.2308002217084169,0.0426884740591049,0.0557504594326019,0.0160873048007488
1783197262139511800,1.31451171875,-0.0269578572914004,-0.0150666362285614,-0.2218897700220346,0.0539213493466377,0.0803245976567268,0.0144034558907151
1783197262149449000,1.324448974609375,-0.0412991018548607,0.0272452959306538,-0.1741091971933841,0.0774053782224655,0.0695699527859687,0.0116074029356241
1783197262159385900,1.3343857421875,-0.0277583600193262,0.0391384166896343,-0.2800695717900991,0.1208903640508651,0.124171994626522,0.0349019728600978
1783197262169323000,1.344322998046875,-0.0562602318823337,0.0597634176976978,0.0671206485927105,0.1463033109903335,0.1484821289777755,0.0214447509497404
1783197262179260000,1.354260009765625,0.2132411841422319,0.0981314345367252,0.4188432517081499,0.1353535801172256,-0.0832857936620712,0.0254345815628767
1783197262189196300,1.3641962890625,0.3565180206984281,-0.0466731961086392,-0.0732078595519065,0.0980576053261756,-0.1795470863580703,0.0622306764125824
1783197262199133400,1.374133544921875,0.1442841139025986,-0.2014135298348963,0.1751303569346666,0.075044497847557,-0.1479632258415222,0.0859119743108749
1783197262209070000,1.384070068359375,-0.1031100997321307,0.0016758242577314,0.1573030238211155,0.0633353739976883,-0.1139405518770217,0.0660011172294616
1783197262219007200,1.39400732421875,-0.2134254546679556,0.0826345901973545,-0.0574894814163446,0.0568709187209606,-0.0392181538045406,0.0363139621913433
1783197262228944400,1.4039443359375,-0.2197492508620023,-0.0840672533489763,-0.1155669918537139,0.0460534282028675,0.0326528400182724,0.0008667551446706
1783197262238881300,1.41388134765625,-0.2212085097596049,-0.0931283655524253,-0.1345084236890077,0.0291995611041784,0.0626967847347259,-0.0239274892956018
1783197262248818400,1.423818359375,-0.2163131389334797,-0.0419381304107606,-0.1065150858700275,0.010169144719839,0.0666830018162727,-0.0351167619228363
1783197262258755300,1.43375537109375,-0.1438493757471442,-0.0825818370968103,-0.12585048545897,0.0025912709534168,0.0803175196051597,-0.0340860001742839
1783197262268692200,1.443692138671875,-0.0562573092728853,-0.0995049148470163,-0.1355582250028848,0.0094507746398448,0.0750236883759498,-0.0391473397612571
1783197262278629400,1.45362939453125,0.0399248908922076,-0.108716687567532,-0.1265367141574621,0.0169050637632608,0.0557556748390197,-0.0457680597901344
1783197262288566300,1.463566162109375,0.0326820801571011,-0.0568115821547806,-0.019214988079667,0.0199290830641984,0.0516906231641769,-0.0533404909074306
1783197262298503400,1.47350341796875,0.0320766616098582,0.0814899502068758,0.1247545069158077,0.0166163779795169,0.0067872707732021,-0.039705391973257
1783197262308440300,1.4834404296875,0.1533725525043904,0.0602853957451879,0.0398404274791479,0.0120479920879006,-0.0371660739183425,-0.0023441696539521
1783197262318377200,1.493377197265625,0.2264997480355203,-0.0288872179187834,0.0364946241825819,0.0174759943038225,-0.0598446726799011,0.018854659050703
1783197262328314400,1.503314453125,0.1398784262895584,0.0214808871850371,0.0295008197724819,0.0333441719412803,-0.0590342730283737,0.0199196599423885
1783197262338251300,1.513251220703125,0.009007043928653,0.0977329367384314,0.0137988082498311,0.0501505956053733,-0.0372791215777397,0.0046631731092929
1783197262348188400,1.5231884765625,-0.0236867266662418,0.1046745725698769,-0.0109743984788656,0.0598066858947277,-0.0147173544391989,-0.0119472295045852
1783197262358125300,1.533125244140625,-0.001934913585335,0.0972460300043225,-0.0088894088983535,0.0592282861471176,0.0018580881878733,-0.0137304961681365
1783197262368062200,1.543062255859375,0.0516731963530182,0.1206125848054885,0.0345645329028368,0.039454847574234,0.0062893219292163,-0.0105773136019706
1783197262377999400,1.552999267578125,0.1081701596006751,0.1647954254031181,0.0857727420926094,0.0188514068722724,0.012387054041028,-0.000613214680925
1783197262387936300,1.562936279296875,0.1750634291782975,0.204695474115014,0.1025508584141731,0.0004092827439308,0.0100922081619501,0.0169940069317817
1783197262397873400,1.572873291015625,0.2236426050387323,0.2246171491593122,0.0677571929305791,-0.0166969485580921,0.0043171206489205,0.0355106480419635
1783197262407810300,1.582810302734375,0.2438843058176338,0.2319657583564519,0.0308037190645933,-0.0232768207788467,-0.0024686139076948,0.0590370148420333
1783197262417747200,1.592747314453125,0.2514643856830895,0.2301980180315673,0.0080400985926389,-0.0255476720631122,-0.012938811443746,0.0797039344906807
1783197262427684400,1.602684326171875,0.207340143404901,0.2045728706486523,-0.0451157375335693,-0.011808424256742,-0.0187005586922168,0.092090293765068
1783197262437621200,1.612621337890625,0.1327367378413677,0.1383010939702391,-0.0882809255212545,-0.0021928306668996,-0.0108641162514686,0.0945148319005966
1783197262447558400,1.622558349609375,0.0758221337035298,0.1009418157823383,-0.1582569635450839,0.010153317824006,-0.0002199942246079,0.0978808030486106
1783197262457495300,1.632495361328125,0.0458782463386654,0.0520163107022643,-0.1632809291869401,0.0180329643189907,0.0141572803258895,0.1024082899093627
1783197262467432200,1.64243212890625,0.0270119255661964,0.0151679046459496,-0.1235018765062093,0.0097579909488558,0.0186830572783947,0.1051438897848129
1783197262477369300,1.652369384765625,0.0078556819364428,-0.0151255268089473,-0.0973427683770656,0.0018730424344539,0.0256220623850822,0.1023687049746513
1783197262487306200,1.66230615234375,-0.0219084649473428,-0.0553926552675664,-0.1034907696127891,0.0012506619095802,0.037619337439537,0.1033567413687706
1783197262497243400,1.672243408203125,-0.0800265996560454,-0.08298793367967,-0.125820674842596,0.0108271986246109,0.0618409365415573,0.0977099910378456
1783197262507180300,1.68218017578125,-0.0998157343618571,-0.0950697088785469,-0.1307090314060449,0.0194529108703136,0.0617876723408699,0.0941682532429695
1783197262517117200,1.6921171875,-0.0906003083795309,-0.1323128133408725,-0.112232294473052,0.0310741290450096,0.0531589724123477,0.0936241522431373
1783197262527054300,1.702054443359375,-0.0865410961166024,-0.1686202443882823,-0.0477794037848711,0.0307713262736797,0.0416226908564567,0.0966694802045822
1783197262536991200,1.7119912109375,-0.1016074400842189,-0.182149588046968,0.0449099858283996,0.0220490247011184,0.0255208946764469,0.0942105501890182
1783197262546928400,1.721928466796875,-0.1480604175709187,-0.1949772131770849,0.0844844558477401,0.0196250155568122,0.0257746949791908,0.0877081751823425
1783197262556865300,1.731865234375,-0.1959993958316743,-0.2088392959214746,0.1213268705546855,0.0154125588014721,0.0335251055657863,0.0741969794034957
1783197262566802200,1.74180224609375,-0.2251362045973539,-0.1894040892198681,0.1539127968609333,0.006180178374052,0.0294382199645042,0.0512122996151447
1783197262576739300,1.7517392578125,-0.214486800289154,-0.1952126293681561,0.1864899553388357,-0.0089114028960466,0.0193278528749942,0.043691549450159
1783197262586676500,1.761676513671875,-0.1716533284738659,-0.2144901612900197,0.2345809092909097,-0.0340103656053543,0.007523656822741,0.0407580770552158
1783197262596613400,1.77161328125,-0.1594521646790206,-0.1868178721189498,0.2390904956698417,-0.0454601347446441,-0.0054391445592045,0.0423996821045875
1783197262606550300,1.78155029296875,-0.1765923923112451,-0.1521636151060462,0.1796598170578479,-0.0486814901232719,-0.0189166031777858,0.0299163814634084
1783197262616487200,1.791487060546875,-0.2290184528581798,-0.1523256737999617,0.0886702170997858,-0.0305796675384044,-0.0050750514492392,0.0032559768296778
1783197262626424300,1.80142431640625,-0.2641317056849598,-0.1536487390972673,0.0282633869320154,-0.015213493257761,0.009459682740271,-0.0285493582487106
1783197262636361500,1.811361572265625,-0.2528419576466083,-0.1216398820266127,-0.0075169515013694,-0.0081563126295804,0.0158232953399419,-0.0438211075961589
1783197262646298400,1.82129833984375,-0.1775054155029356,-0.1255516486428678,0.0194271695256233,-0.0114349294453859,0.0154975904151797,-0.0449401661753654
1783197262656235300,1.8312353515625,-0.0983200889766216,-0.10900018068403,0.0751519793570041,-0.0294963773339986,-0.0035316934809088,-0.0414376929402351
1783197262666172200,1.841172119140625,-0.0476551928833127,-0.0913308146111667,0.1089186398804187,-0.0484037548303604,-0.0218806080520153,-0.0296817012131214
1783197262676109300,1.851109375,-0.0336143925711512,-0.0967462637886405,0.1215296996504068,-0.057173017412424,-0.0360163003206253,-0.0275260880589485
1783197262686046500,1.86104638671875,-0.0585004120245575,-0.0909365545965731,0.0685562343537807,-0.0539500601589679,-0.0361268222332,-0.0313599742949008
1783197262695983400,1.8709833984375,-0.0817678903654217,-0.0724913818456232,0.0100835871189832,-0.0418420583009719,-0.0243179202079772,-0.0421947129070758
1783197262705920300,1.880920166015625,-0.0769990685284137,-0.0565372952580451,-0.0293231251180171,-0.039026029407978,-0.0233333520591259,-0.05029072239995
1783197262715857200,1.890857177734375,-0.0409743999451398,-0.0572951278880238,-0.0975157868564128,-0.0283028613775968,-0.0201304443180561,-0.0468035824596881
1783197262725794300,1.900794189453125,-0.0035854572713375,-0.0469226408250629,-0.119667997431755,-0.0202238950878381,-0.0143199590966105,-0.0474840179085731
1783197262735731500,1.9107314453125,0.0421679936438798,-0.0162266199186444,-0.1098719950824975,-0.0165314264595508,-0.0254757888615131,-0.0401251539587974
1783197262745668400,1.92066845703125,0.0816708597317338,0.0073714055508375,-0.1243085167139768,-0.0188782066106796,-0.0325688533484935,-0.0278647597879171
1783197262755605200,1.930605224609375,0.0781570063918828,-0.0087795187830924,-0.1325368313550949,-0.0160432122647762,-0.0225952230393886,-0.0222080051898956
1783197262765542100,1.940542236328125,0.0440498618677258,0.0136707979559898,-0.13303075235188,-0.008827643468976,-0.0137090533971786,-0.019300365820527
1783197262775479300,1.950479248046875,0.0090511753313243,0.0595651186466217,-0.1203197393387556,-0.0033780690282583,0.002803633455187,-0.0189538393169641
1783197262785416400,1.96041650390625,0.0054987435467541,0.0430532520458102,-0.0925029271304607,-0.0007577845826745,0.0062827868387103,-0.0250082686543464
1783197262795353300,1.970353271484375,0.0172971717596054,0.0421054498016834,-0.0358709393262863,-0.0080983210355043,-0.0024049142375588,-0.0220994818955659
1783197262805290200,1.980290283203125,0.0288027545057237,0.0400727749302983,0.0029506664991378,-0.0136715173721313,-0.0128341205418109,-0.0194887854158878
1783197262815227400,1.990227294921875,0.0392851316839456,0.0399989790417254,0.0187444479584693,-0.01633489318192,-0.0255640521645545,-0.0132722193375229
1783197262825164300,2.000164306640625,0.0188780112102627,0.0489249205581843,-0.0091378307014703,-0.0129279103130102,-0.0190723314881324,-0.0053245471790432
1783197262835101400,2.010101318359375,-0.0086725512772798,0.0549251838862895,-0.0095101711452007,-0.0117436032742261,-0.0075935749337077,-0.0060326815582811
1783197262845038300,2.020038330078125,-0.0156273388512432,0.0492478689022362,0.0128542208760976,-0.0149159617722034,-0.0048300120979547,-0.0064180409535765
1783197262854975200,2.029975341796875,-0.0080174483694136,0.0271545489072799,0.0375999550759792,-0.0246029943227767,-0.0092950453981757,-0.0008064445573836
1783197262864912400,2.039912353515625,-0.0052535366140305,-0.0023451018214225,0.0923620573550462,-0.04043735191226,-0.0153428167104721,-0.0019907522946596
1783197262874849300,2.049849365234375,-0.0042085576057434,-0.0111029932945966,0.1191512800812721,-0.0530523508787155,-0.0220743473619222,0.0020315200090408
1783197262884786400,2.059786376953125,-0.0104984515301883,-0.0252817407727241,0.1391483584493398,-0.0587192922830581,-0.0277447495609521,-0.001488379901275
1783197262894723300,2.069723388671875,-0.0095047643177211,-0.038285745383054,0.1024935752689838,-0.0665947645902633,-0.0353983528912067,-0.005984578281641
1783197262904660200,2.07966015625,-0.0117915600806474,-0.0363188292242586,0.0314841025441885,-0.0684770867228508,-0.0258527845144271,-0.0128656541928648
1783197262914597400,2.089597412109375,-0.0295851370550692,-0.0060283203788101,-0.0146112936764955,-0.0668848678469657,-0.0103362910449504,-0.0135127520188689
1783197262924534300,2.0995341796875,-0.0408802919209003,0.0130310387477278,-0.0517506455034017,-0.0628730803728103,-0.0029705194756388,-0.0121526755392551
1783197262934471400,2.109471435546875,0.0100400402382016,0.0222235222458839,-0.0959568669766187,-0.0629341676831245,-0.0061535229906439,-0.0101834675297141
1783197262944408300,2.119408203125,0.0701639618113637,0.0039364626660943,-0.120039168831706,-0.0617735646665096,-0.0120508270338177,-0.0011478946544229
1783197262954345200,2.12934521484375,0.0969965852878987,0.0030389293044805,-0.1259194590419531,-0.066866435110569,-0.0070746643468737,0.0123741393908858
1783197262964282400,2.139282470703125,0.127090840908885,0.0393405151329934,-0.1283072309613227,-0.0647572055459022,-0.0041808737441897,0.0255418717861175
1783197262974219300,2.14921923828125,0.1390519123375415,0.0627731209076941,-0.1389496210068464,-0.0604738928377628,-0.0099331783130764,0.0435711070895195
1783197262984156400,2.159156494140625,0.1254316755250096,0.0670072513461113,-0.1538227804899215,-0.050838578492403,-0.0093142595142126,0.0611658096313476
1783197262994093300,2.16909326171875,0.080158847733587,0.065840253393352,-0.1638590213358402,-0.0326268076896667,-0.0107704019173979,0.0614437945187091
1783197263004030200,2.1790302734375,0.0271487036883831,0.0637295448496937,-0.14304595040977,-0.0267366953194141,-0.0216970853507518,0.0481655411422252
1783197263013967400,2.18896728515625,-0.1026551955714821,0.0154249481469392,-0.1675216354966163,-0.0172045584768056,-0.023078229278326,0.024532001465559
1783197263023904300,2.198904296875,-0.1637302803896367,-0.045756811916083,-0.1726397091627121,-0.0071953348815441,-0.0047098761424422,-0.00547756254673
1783197263033841400,2.20884130859375,-0.1766200109705328,-0.0782775640316307,-0.1656312917053699,-0.0047542229294776,0.0161907039582729,-0.0328069888055324
1783197263043778300,2.2187783203125,-0.1492258080884814,-0.0612684154331684,-0.1673252361416816,-0.0052330587059259,0.0322889797389507,-0.0451832301914691
1783197263053715200,2.228715087890625,-0.09624357496351,-0.0427685898855328,-0.1594721845537424,-0.0128682442009449,0.0427039116621017,-0.0410897694528102
1783197263063652400,2.23865234375,-0.0155284085214138,-0.0387029478818178,-0.1614607280224561,-0.0234282109886407,0.0327857658267021,-0.0249973498284816
1783197263073589200,2.24858935546875,0.0325200214631855,-0.0327685893967747,-0.2026817962050437,-0.0252123083919286,0.0246624611318111,-0.0067986068315804
1783197263083526400,2.2585263671875,0.0207945123560726,-0.0161235979355871,-0.2177875954002142,-0.0202931817620992,0.0258994996547698,0.0050210347399115
1783197263093463300,2.26846337890625,-0.015426263321191,-0.0005696165814995,-0.2285895599216222,-0.0058753099292516,0.0223566740751266,0.0058305859565734
1783197263103400200,2.278400146484375,-0.0497486580312252,-0.0076261109642684,-0.2676677708566188,-0.0011740308254957,0.0279951188713312,0.0050920909270644
1783197263113337300,2.28833740234375,-0.0875567028999328,-0.0459855061054229,-0.2538251234650612,-0.0004841741174459,0.0421488620340824,-0.0092326030135154
1783197263123274200,2.298274169921875,-0.0788220461718738,-0.0358252004884183,-0.2599573426097631,0.0044482666999101,0.0549762435257434,-0.0132345352321863
1783197263133212400,2.30821240234375,-0.0511518028274178,-0.0391185429453849,-0.2665051568180323,0.0126496972516179,0.0693941563367843,-0.0057103056460618
1783197263143149300,2.3181494140625,-0.0551493480309843,0.0052478375256061,-0.2517746206760406,0.0334093049168586,0.0862072259187698,-0.0062972665764391
1783197263153086500,2.32808642578125,-0.0766929251886904,0.0350378495030105,-0.2469891399651765,0.0565332844853401,0.0893866047263145,-0.0037669469602406
1783197263163023400,2.3380234375,-0.0347466114714741,-0.032274814530462,-0.219485046967864,0.0781512260437011,0.0844118222594261,0.0002669431269168
1783197263172960300,2.347960205078125,-0.0108370358347892,-0.0254047826305031,-0.1177548572868108,0.0788184404373169,0.0618350021541118,0.000103540951386
1783197263182897700,2.357897705078125,-0.0598898205563426,-0.0193850839495658,0.0245803145051002,0.0638349577784538,0.0555760413408279,-0.0030139554291963
1783197263192834600,2.36783447265625,-0.0491295032195746,-0.0059878422379493,0.142762457293272,0.051448754966259,0.0452052429318428,-0.0111425891518592
1783197263202771700,2.377771728515625,-0.0437467872679233,-0.0602742898292839,0.1150578732877969,0.0435034781694412,0.0602438487112522,-0.0142560899257659
1783197263212708400,2.387708251953125,-0.0580707884356379,-0.0094515728257596,0.2075397576302289,0.0329993925988674,0.0694852694869041,-0.0220202524214983
1783197263222645500,2.3976455078125,-0.0820912771008908,0.0817873257182538,0.2548275785058737,0.0227890983223915,0.0676692575216293,-0.0267329830676317
1783197263232582700,2.407582763671875,-0.0263695360094308,0.0572670708373188,0.2968891891658305,0.0063569671474397,0.0508137978613376,-0.0216254070401191
1783197263242519600,2.41751953125,0.0299276668824255,0.0453247041091322,0.3280009512662887,-0.0079420767724514,0.0180063173174858,-0.0147328786551952
1783197263252456700,2.427456787109375,0.0575362431675195,0.0470963899567723,0.2927116112202406,-0.0128339296206831,-0.0106701515614986,-0.010571289807558
1783197263262393600,2.4373935546875,0.0394986283041536,0.0599498801805079,0.260090029078722,-0.0136927990242838,-0.0228218901902437,-0.0124831739813089
1783197263272330500,2.44733056640625,0.0154081431426107,0.0806238348968327,0.1966664814382791,-0.0094932625070214,-0.0327479839324951,-0.007671607658267
1783197263282267600,2.457267578125,0.0270440742701292,0.0937004663519561,0.1212257482677698,-0.0140656447038054,-0.0323919206857681,-0.0038172143977135
1783197263292204500,2.46720458984375,0.0341404622718691,0.0599178776070475,0.0807698192387819,-0.0152189983054995,-0.0239845123142004,-0.0057810288853943
1783197263302141700,2.4771416015625,0.043488136331737,0.0515754350669682,0.0371188935607671,-0.0261488780379295,-0.0156978201121091,-0.0033684712834656
1783197263312078600,2.48707861328125,0.0461313443168997,0.0541771419979631,-0.0045177696853876,-0.0305359289050102,-0.0075798789039254,-0.0021079976577311
1783197263322015500,2.497015380859375,0.0532061050087213,0.0400438410967588,-0.0422492421865463,-0.0331506207585334,0.0006343750283122,-0.0015103842597454
1783197263331952600,2.50695263671875,0.0733357237152755,0.0269851836897432,-0.0707423462212085,-0.0313329361379146,-0.00071412185207,0.0004514171741902
1783197263341889500,2.5168896484375,0.0883029912225902,0.0194160636097192,-0.1163444059669971,-0.0224054902791976,-0.0104541014879941,-0.0007467388641089
1783197263351826700,2.52682666015625,0.0888550721473991,-0.0031166707158088,-0.163247611439228,-0.0106880236417055,-0.0050178719684481,-0.0042996793054044
1783197263361763600,2.536763671875,0.088815178528428,0.0048052083246409,-0.1551128203004598,0.0048129055649042,-0.0018172850832343,-0.0020391882862895
1783197263371700500,2.546700439453125,0.0817063694365322,0.024658932699263,-0.1602829164147377,0.0105917127802968,0.0051972880028188,0.003406659932807
1783197263381637600,2.5566376953125,0.091480306084454,0.0111690442681312,-0.1360106449455022,0.0123328873887658,0.0137638784945011,0.0155690507963299
1783197263391574500,2.566574462890625,0.0895442234553396,-0.0113112292177975,-0.1160913079887628,0.0136229777708649,0.0204927120357751,0.0276490822434425
1783197263401511700,2.57651171875,0.0535132712617516,0.0003492518290877,-0.0873246477097272,0.018462473526597,0.0180905424058437,0.0324462354183197
1783197263411448600,2.586448486328125,0.0356932446718215,-0.0197739371366798,-0.0701964027762413,0.0251503065228462,0.0198480673134326,0.0332030206918716
1783197263421385500,2.596385498046875,-0.0036824879050254,-0.0280547126173973,-0.0337631533920764,0.0348940156400203,0.0166368298232555,0.0299853887408971
1783197263431322600,2.606322509765625,-0.0263524387441575,-0.0317993059732019,0.0132388362795114,0.0400773733854293,0.0129546057432889,0.0277592204511165
1783197263441259500,2.616259521484375,-0.0529378094613552,-0.0264458161160349,0.0882242268979549,0.0385428592562675,0.0058748577721416,0.0236989650875329
1783197263451196700,2.62619677734375,-0.0476528547957539,-0.0167735862769186,0.1487643280565738,0.0214019641280174,-0.0023516854271292,0.0203694477677345
1783197263461133600,2.636133544921875,-0.0518164042159914,-0.0197049635536968,0.2223264078736305,0.0027206875383853,-0.0058473506942391,0.0189848691225051
1783197263471070500,2.646070556640625,-0.0575881194852292,-0.0076369246192276,0.2670487621754407,-0.017171312123537,-0.0217186268419027,0.0122896842658519
1783197263481007600,2.656007568359375,-0.0804930481240153,-0.018998714980483,0.2634983762174844,-0.0334525480866432,-0.0230331625789403,0.0055209938436746
1783197263490944500,2.665944580078125,-0.0922815394647419,-0.026089550024271,0.2669821266800165,-0.045490838587284,-0.0262431055307388,0.004538788460195
1783197263500881700,2.675881591796875,-0.0877937265262007,-0.0319601956233382,0.2149690308481454,-0.0501657575368881,-0.0425347276031971,0.0001781284809112
1783197263510818600,2.685818603515625,-0.0672132953122258,-0.0473000958353281,0.1770557720392942,-0.0588962845504283,-0.0651779547333717,-0.000641627702862
1783197263520755500,2.69575537109375,-0.0519052515432238,-0.0763265760943293,0.0903811126708984,-0.0587428845465183,-0.070330373942852,-0.0026150299236178
1783197263530692600,2.705692626953125,-0.0810030434727668,-0.0665738283649086,0.0067898062705993,-0.0572100207209587,-0.0643486678600311,-0.0052574016153812
1783197263540629500,2.71562939453125,-0.0961494669392705,-0.0403825715318322,-0.0296656549453735,-0.0526538863778114,-0.0557820759713649,-0.0114204892888665
1783197263550566700,2.725566650390625,-0.096331253246963,-0.0523820752747356,-0.0870493378996849,-0.0487678050994873,-0.0507695525884628,-0.0114931436255574
1783197263560503600,2.735503662109375,-0.0575233836859464,-0.0672299541860818,-0.1130301668524742,-0.0517228469252586,-0.0502624846994876,-0.0057188775390386
1783197263570441500,2.74544140625,-0.0469189875632524,-0.086485858798027,-0.1507517024815082,-0.0466441437602043,-0.0493167415261268,-0.0033823193516582
1783197263580378600,2.755378662109375,-0.0931543767765164,-0.08230725793913,-0.2208393841862678,-0.0290736705064773,-0.023435078561306,-0.0098950797691941
1783197263590315500,2.7653154296875,-0.1069457323722541,-0.0884875540092587,-0.2295534365177154,-0.0146440863609313,-0.0093943076208233,-0.0268969517201185
1783197263600252700,2.775252685546875,-0.0962752852760255,-0.1082921785451471,-0.2219476376891136,-0.0005778018385171,0.0009233113378286,-0.0397994332015514
1783197263610189600,2.785189453125,-0.0502259201541543,-0.0994919092349708,-0.1583504870474338,0.0022553782910108,-0.0055158780887722,-0.0409982353448867
1783197263620126500,2.79512646484375,0.0001231879882514,-0.0840378811240196,-0.0922334625393152,-0.0057141305878758,-0.0112589839845895,-0.0362639352679252
1783197263630063600,2.805063720703125,-0.0019271686702966,-0.0522346296280622,-0.0458463898956775,-0.0156654063612222,-0.0041727609932422,-0.0328779742121696
1783197263640000500,2.81500048828125,0.0048370647676289,1.31517425179e-05,-0.0081809683680534,-0.0226807035505771,-0.0012952154502272,-0.0331267155706882
1783197263649937700,2.824937744140625,0.0190139125496149,0.0194346221797168,0.0131225164234638,-0.0312527269124984,-0.0082110585644841,-0.0308394264429807
1783197263659874600,2.83487451171875,0.0353593365423381,0.0189409934438765,0.0135813661068677,-0.0439474806189537,-0.0288106109946966,-0.0328810065984725
1783197263669811500,2.8448115234375,0.0338072847947478,0.034764585519582,-0.0451829575508832,-0.0497294217348098,-0.0374064780771732,-0.0314466431736946
1783197263679748600,2.85474853515625,0.0112473702013492,0.0378285031348466,-0.1094961475074291,-0.0481842532753944,-0.0331656597554683,-0.0292929466813802
1783197263689685500,2.864685546875,-0.0084399115651845,0.0691753891654312,-0.1826888094902038,-0.0352211557328701,-0.0149608552455902,-0.029014877974987
1783197263699622700,2.87462255859375,-0.0088609134562313,0.083414196267724,-0.2193365784078836,-0.026444174349308,0.0014862953685224,-0.0211889129132032
1783197263709559600,2.8845595703125,0.0113406014427542,0.0742304805979132,-0.2538169401586055,-0.0189992003142833,0.010213466361165,-0.0108050499111413
1783197263719496400,2.894496337890625,-0.0060953942656517,0.0776284524731338,-0.2720078458875417,-0.010391597636044,0.0294188521802425,-0.0027870703488588
1783197263729433600,2.90443359375,-0.029778467670083,0.0940688612729311,-0.2581201903104781,0.0058155967853963,0.0424626767635345,-0.0022025713697075
1783197263739370500,2.91437060546875,-0.0143899060107767,0.0818050075054168,-0.2229261273324489,0.0142663391306996,0.0389651432633399,-0.0060263378545641
1783197263749307600,2.9243076171875,0.0067407064318656,0.0438914564356207,-0.1872083327412605,0.0157199427485466,0.0302375257015228,0.000896749086678
1783197263759244800,2.934244873046875,0.0018986732281744,0.0108377664871513,-0.1422936707377433,0.0123401256278157,0.026914432644844,0.000487953890115
1783197263769181400,2.944181396484375,-0.023140929351747,-0.012361176662147,-0.1140028112769126,0.0107273235917091,0.0321701020002365,-0.0040010218508541
1783197263779118600,2.95411865234375,-0.0430851084887981,-0.0130000590875744,-0.0775590404987335,0.008925961330533,0.041433110833168,-0.0109579972922801
1783197263789055500,2.964055419921875,-0.0283512113459408,-0.0006521802984178,-0.051748307415843,0.0060720639303326,0.0500596463680267,-0.0093749640509486
1783197263798992600,2.97399267578125,-0.0219521579585969,-0.0057533028297126,-0.0271843595236539,0.0072324033826589,0.0548424161970615,-0.0133979357779026
1783197263808929800,2.9839296875,-0.0199234286099672,-0.0049710664108395,0.007816226708889,0.0094666862860322,0.0478890612721443,-0.012567744590342
1783197263818866400,2.993866455078125,0.0215897543869912,-0.0062606678299605,0.0489683213084936,0.0070999348536133,0.0335045307874679,-0.0153550086542963
1783197263828803600,3.003803466796875,0.0483139490529894,0.0045268297746777,0.0869622441381216,-0.0005223490297794,0.0212467070668935,-0.0131085664033889
1783197263838740500,3.013740478515625,0.0481383002251386,0.0209106860816478,0.1140010577112436,-0.012871160171926,0.0154522014781832,-0.0128651531413197
1783197263848677600,3.023677734375,0.0442301868706941,0.0366153279528021,0.1384428405284881,-0.0242699719965457,0.0136277619749307,-0.0092451851814985
1783197263858614800,3.03361474609375,0.0411637850373983,0.0604243658244609,0.1334393331527709,-0.0355021208524704,0.0148365711793303,-0.0061457976698875
1783197263868551400,3.043551513671875,0.029410072749108,0.0713864893436431,0.1016407578319311,-0.0424030609428882,0.0107740238308906,0.0048287389799952
1783197263878488600,3.053488525390625,0.0094045188136398,0.0663578475266695,0.0486585247069597,-0.0395047403872013,0.01565533131361,0.0004888514522463
1783197263888425500,3.063425537109375,-0.0016641338199377,0.0811048964120447,0.0192757783561944,-0.0347300693392753,0.0197418481111526,-0.0004969669971615
1783197263898363600,3.07336376953125,0.0031551030300557,0.0832943692803382,-0.0235059632718563,-0.0340285934507846,0.0124943200498819,-0.0003936362918466
1783197263908300500,3.083300537109375,0.0225786192938685,0.0776351744748651,-0.0446831913352012,-0.0333045870065689,0.0040176762267947,0.0075695980340242
1783197263918237400,3.093237548828125,0.0476315197467803,0.0484615408301353,-0.0621188947826623,-0.0355922393500804,0.0032120703253895,0.0188635308295488
1783197263928174600,3.103174560546875,0.051852644573152,0.0410652930989861,-0.0628016163498163,-0.036015473306179,0.0053997286595404,0.0244231801480054
1783197263938111500,3.113111572265625,0.0306704480737447,0.044485915197432,-0.0603629910260438,-0.028969282284379,0.0154917770996689,0.0217506978660821
1783197263948048600,3.123048583984375,0.0117249245852231,0.0293336465120315,-0.0534358221113681,-0.0310603901743888,0.0291305091232061,0.0155934859067201
1783197263957985500,3.132985595703125,-0.0368289707034826,0.0093735391534864,-0.0451578231096267,-0.0344516597688198,0.0391466543078422,0.0074548660777509
1783197263967922400,3.14292236328125,-0.0439057772219181,-0.012177490658313,-0.0453431165486574,-0.0279492903500795,0.0401433259248733,-0.0011218606960028
1783197263977859600,3.152859619140625,-0.0129857383012771,-0.0419563967198133,-0.0314496157526969,-0.0194341000169515,0.0220857635140419,-0.0015253296587616
1783197263987796500,3.16279638671875,0.0406875458277761,-0.0637831747330725,-0.0650455958843231,-0.0113640232011675,0.0054823686368763,0.0005105233285576
1783197263997733600,3.172733642578125,0.0725806675642728,-0.0731476537972688,-0.064592591419816,-0.0009689079597592,-0.0032322937622666,0.0094928322359919
1783197264007670500,3.18267041015625,0.0151002462372183,-0.0531125815063714,-0.0367085591942071,-0.0007729530334472,-0.0094185266643762,0.0159782133996486
1783197264017607400,3.192607421875,-0.0333031346648931,-0.0671542586013674,-0.0343213717967271,0.0021645138040184,-0.0039963312447071,0.0136103965342044
1783197264027544600,3.202544677734375,-0.0489434791281819,-0.1043425641365349,-0.0328238267153501,0.007103273179382,-0.007870745845139,0.009131477214396
1783197264037481500,3.2124814453125,-0.0680034227766096,-0.1177202243648469,-0.0210796129077672,0.0067583937197923,0.0044210739433765,-0.0042684837244451
1783197264047418600,3.222418701171875,-0.0959801017217338,-0.089566873678565,0.0203162273198366,0.0026647606864571,0.0099449278786778,-0.0137935820966959
1783197264057355500,3.23235546875,-0.0813886817894875,-0.0547552341468632,0.0556488219857215,-0.0066744126379489,0.0075355661101639,-0.0147991916164755
1783197264067292400,3.24229248046875,-0.0405129199132323,-0.0531119969844818,0.0544587354183197,-0.0187668185681104,-0.0045127775520086,-0.0118199447169899
1783197264077229600,3.2522294921875,-0.0163102065488696,-0.0461444960594177,0.0267974060326814,-0.0238414723426103,-0.0152117600664496,-0.0069088097661733
1783197264087166500,3.26216650390625,-0.0307704013168811,-0.0103485216654837,-0.0114899467855691,-0.0210445616394281,-0.0131328832358121,0.0014404489193111
1783197264097103600,3.272103515625,-0.0501183681264519,0.0157094641767442,-0.0172036482572555,-0.0151720251888036,-0.0147792492061853,0.0021091683302074
1783197264107040800,3.282040771484375,-0.0549862664237618,0.0139889239944517,-0.0363987625926733,-0.0153342643752694,-0.017122009769082,-0.0048666652292013
1783197264116977400,3.291977294921875,-0.0437576009228825,0.0016389993786811,-0.0499263526856899,-0.0159510523080825,-0.0258997902274131,-0.0052568186074495
1783197264126914600,3.30191455078125,-0.0500737983323633,-0.0076416007943451,-0.0951268458932638,-0.0118978321552276,-0.0194870010018348,-0.0027829243335872
1783197264136851500,3.3118515625,-0.0774907975681126,0.0018820143543183,-0.1231815585106611,-0.0027440153062343,-0.0063669392839074,-0.0087976735085248
1783197264146788600,3.32178857421875,-0.0774132022872567,0.0075502692490816,-0.1262082128554582,0.0048481784760952,-0.0005807126872241,-0.0135621186345815
1783197264156725800,3.331725830078125,-0.073939973218739,-0.0222984871782362,-0.1151315230458974,0.0134459277614951,0.0012837667018175,-0.0133836865425109
1783197264166662400,3.341662353515625,-0.0670056439109146,-0.047110856873542,-0.096805008238554,0.0138872927054762,0.0061730630695819,-0.0132283382117748
1783197264176600600,3.3516005859375,-0.073910162602365,-0.0516169361211359,-0.0546697478204965,0.0184471569955348,0.013109266757965,-0.0183943398296833
1783197264186538500,3.36153857421875,-0.0674517802432179,-0.0366615051820874,0.0099894790947437,0.0170490238815546,0.0090229818597435,-0.0202571563422679
1783197264196475400,3.371475341796875,-0.0423641007378697,-0.0602383417330682,0.0619984832733869,0.0085138585418462,-0.0063714208081364,-0.0272924285382032
1783197264206412500,3.38141259765625,-0.0238210205703973,-0.077261518856883,0.0963935048282146,2.41827219724e-05,-0.0168252177536487,-0.0291632339358329
1783197264216349400,3.391349365234375,-0.025047785886377,-0.0649788142584264,0.1347422324448824,-0.0112867951393127,-0.022059928625822,-0.0342631861567497
1783197264226286300,3.401286376953125,-0.0321979499019682,-0.0228209036171436,0.1624555842787027,-0.0224856566637754,-0.0263251326978206,-0.0368438065052032
1783197264236223500,3.411223388671875,-0.0003685410514473,0.0045183542072772,0.1674339572131633,-0.0381058976054191,-0.0313643626868724,-0.03804462403059
1783197264246160400,3.421160400390625,0.0227121825456619,0.0270974118925631,0.1633797133862972,-0.0570311918854713,-0.0349826999008655,-0.0423778519034385
1783197264256097500,3.43109765625,0.0287001709140837,0.0463685140736401,0.1388017369687557,-0.0713552683591842,-0.0290196165442466,-0.0376912206411361
1783197264266034400,3.441034423828125,0.018666706547141,0.0704629447579383,0.0991559552788734,-0.0811365023255348,-0.0139820054173469,-0.0389303229749202
1783197264275971300,3.450971435546875,0.0230732709430158,0.1028603627547621,0.0686158555865287,-0.0925526767969131,-0.0104149673134088,-0.0383172668516635
1783197264285908500,3.460908447265625,0.0612333441197872,0.1202827683292329,0.0293880070477724,-0.0985340997576713,-0.0122074848040938,-0.0316962152719497
1783197264295845600,3.470845703125,0.114785486087203,0.0891270209565758,-0.0237561386406421,-0.1015096455812454,-0.0168965123593807,-0.0182906594127416
1783197264305782500,3.480782470703125,0.1019825570069253,0.0718842097327113,-0.1052297222346067,-0.0950544998049736,-0.0011014146730303,-0.0085616689175367
1783197264315719400,3.490719482421875,0.038738019195199,0.0882554988190531,-0.1446644915223121,-0.0791144147515297,0.0153705030679702,-0.0056484369561076
1783197264325656300,3.50065625,0.0286788358651101,0.0819637051984667,-0.1627238798260688,-0.0682318955659866,0.0156895667314529,-0.0147986561059951
1783197264335593500,3.510593505859375,0.062171794013679,0.0241986217111349,-0.1766705721139908,-0.0626381933689117,0.0094114318490028,-0.0122635941952466
1783197264345530600,3.520530517578125,0.0767009623646736,-0.0066249710977077,-0.1695318062752485,-0.0607808604836463,0.0062112039886415,-0.0049165310338139
1783197264355467500,3.530467529296875,0.0620258096717298,0.0217249250739812,-0.1580254928767681,-0.063969999551773,0.0124837476760149,0.000723511679098
1783197264365404400,3.540404296875,0.0572442744836211,0.0464002243861556,-0.1431780523568391,-0.0703600570559501,0.0183051377534866,0.0048474352806806
1783197264375341300,3.55034130859375,0.0355731254234909,0.0213480545856058,-0.1650181282430887,-0.0792789831757545,0.0243065729737281,0.0071816956624388
1783197264385278500,3.560278564453125,0.0005618716664612,0.0093326226212084,-0.1946685856193304,-0.0787492096424102,0.0503405816853046,0.0060799280181527
1783197264395215600,3.570215576171875,-0.0510709926761686,0.0035559389159083,-0.1719482197672128,-0.0803391188383102,0.0766081362962722,-0.0006421573925763
1783197264405152300,3.58015234375,-0.0674184624955058,0.0147056939616799,-0.1499339563578367,-0.0758791640400886,0.0850995332002639,-0.0096310591325163
1783197264415089400,3.59008935546875,-0.0267938989013433,-0.0131241238586604,-0.1307575467228889,-0.0859120935201644,0.0723251476883888,-0.0143943894654512
1783197264425027300,3.60002734375,-0.0012837562002241,-0.0410660237513482,-0.109162385508418,-0.0995768159627914,0.0539602041244506,-0.0114605519920587
1783197264434964500,3.609964599609375,-0.003402648050338,-0.0721172878362238,-0.1814391016900539,-0.1004660427570343,0.0573735758662223,-0.0070168012753129
1783197264444901400,3.6199013671875,-0.068384092657268,-0.0725191466353833,-0.2346685875743627,-0.0878680348396301,0.0859322026371955,-0.0122027900069952
1783197264454838500,3.629838623046875,-0.1596750136494636,-0.0293232712484896,-0.2170861691325902,-0.0843771621584892,0.1215599700808525,-0.0198322124779224
1783197264464775400,3.639775390625,-0.2297638643980026,-0.0130989894174039,-0.0485340215444564,-0.0938042104244232,0.1092354282736778,-0.0427454859018325
1783197264474712300,3.64971240234375,-0.1265324763737619,-0.1010594508126378,-0.1232411797434091,-0.0902845710515976,0.1026342511177063,-0.0423489436507225
1783197264484649500,3.6596494140625,-0.0566603371158242,-0.1718320460416376,-0.122336924380064,-0.0775026381015777,0.1038025021553039,-0.0368941202759742
1783197264494586400,3.66958642578125,-0.0810185333028435,-0.0376616221353411,-0.0604810644477605,-0.0624877363443374,0.0951400399208068,-0.0397239960730075
1783197264504523500,3.6795234375,-0.0934536519840359,0.0169271694034338,-0.0423906964838504,-0.0555082708597183,0.0969151407480239,-0.033303465694189
1783197264514460400,3.68946044921875,-0.0726947954632341,-0.0752944565676152,0.0093383217096328,-0.0629827007651329,0.094555839896202,-0.0302240513265132
1783197264524397300,3.699397216796875,-0.079558251491934,-0.1161028522960841,0.0241308171719312,-0.0819192305207252,0.0934674218297004,-0.0379133261740207
1783197264534334500,3.70933447265625,-0.1073147118151187,-0.1011132268264889,0.0504033225476741,-0.0925042331218719,0.0879429578781127,-0.0545362457633018
1783197264544271400,3.719271240234375,-0.111770668310672,-0.0974381915755569,0.0502513468563556,-0.1025513261556625,0.0802893191576004,-0.0675971433520317
1783197264554208500,3.72920849609375,-0.0900314224503934,-0.1180561783209443,-0.0036824879050254,-0.1181595772504806,0.0688822045922279,-0.0757147222757339
1783197264564145400,3.7391455078125,-0.0758630502358078,-0.1100917753130197,-0.093677231606841,-0.1183671280741691,0.0708928555250167,-0.0742455720901489
1783197264574082300,3.749082275390625,-0.0663245297789573,-0.0723230395413935,-0.1557517027258873,-0.0982653275132179,0.0845458209514617,-0.0793002471327781
1783197264584019500,3.75901953125,-0.0721153881400823,-0.0263400176540017,-0.2175683996915817,-0.0677329376339912,0.0960010811686515,-0.0834908187389373
1783197264593956400,3.768956298828125,-0.0217607270397245,-0.0008909574903547,-0.2454138534724712,-0.0219492074102163,0.0888827219605445,-0.0771437063813209
1783197264603893500,3.7788935546875,0.0621356997869908,0.0272645851530134,-0.2164496247947216,0.0180162712931633,0.0726482570171356,-0.0660433173179626
1783197264613830400,3.788830322265625,0.1117357431277632,0.0905301657527685,-0.1024538277804851,0.0388674922287464,0.0617165192961692,-0.052764531224966
1783197264623767300,3.798767333984375,0.1606511652052402,0.1162640342071652,0.0153682495236396,0.0422449186444282,0.0405610501766204,-0.0327018573880195
1783197264633704400,3.808704345703125,0.1623852955214679,0.0883766409806907,0.0943535234332084,0.0361723788082599,0.0356509797275066,-0.0134498653933405
1783197264643641300,3.818641357421875,0.1266007193043828,0.0759039667680859,0.1751589985072612,0.0264447480440139,0.0312662683427333,-0.0070418994873762
1783197264653578500,3.82857861328125,0.0495674562454223,0.079069591192156,0.228045370042324,0.0190656594932079,0.024035520851612,-0.0171709656715393
1783197264663516400,3.838516357421875,0.0006122866794466,0.0601078472211956,0.2794914796411991,0.0059073567390441,0.0078988494351506,-0.0272173080593347
1783197264673453300,3.848453369140625,-0.0163483466021716,0.0389120605878531,0.3066565499424934,-0.0115118473768234,-0.0118391690775752,-0.0419336706399917
1783197264683390500,3.858390380859375,-0.0235344587139785,0.0457122421219944,0.3251362094849347,-0.0346023514866828,-0.0222411286085844,-0.0509669817984104
1783197264693327400,3.868327392578125,-0.0134244219794869,0.0467889314427971,0.3300409326612949,-0.0599135607481002,-0.0234419479966163,-0.0506114512681961
1783197264703264500,3.878264404296875,0.0141767016515135,0.0630681583315134,0.2935311109095811,-0.0749848335981369,-0.0256763063371181,-0.0437259934842586
1783197264713201400,3.888201416015625,0.0388506857894361,0.0965947264887392,0.2018219645053148,-0.0757028311491012,-0.0285546481609344,-0.0340600498020648
1783197264723138300,3.89813818359375,0.073501581801474,0.1019011623337864,0.1558499024033546,-0.0701874047517776,-0.0324296280741691,-0.0292623173445463
1783197264733075500,3.908075439453125,0.0723427671551704,0.078690090355277,0.1000198786318302,-0.0530017539858818,-0.0531351752579212,-0.0217825639992952
1783197264743012400,3.918012451171875,0.0709080581769347,0.0634764468714594,0.046593408870697,-0.0339836031198501,-0.0694907531142234,-0.0177729409188032
1783197264752949500,3.927949462890625,0.0724859750181436,0.057644525847584,0.0299357040584087,-0.0162911564111709,-0.0824488922953605,-0.0142059028148651
1783197264762886400,3.937886474609375,0.0745098820611834,0.0844467541858553,0.0255985516369342,-0.0041345544159412,-0.085554614663124,-0.0062198676168918
1783197264772823300,3.9478232421875,0.080523443262279,0.0780566147573292,0.028331191471219,-0.0097000282257795,-0.0916223675012588,-0.0002437343355268
1783197264782760400,3.957760498046875,0.0820132434286177,0.0441634052447974,0.0496679940104484,-0.0265474058687686,-0.0921320393681526,0.0050366828218102
1783197264792697300,3.967697265625,0.0668254650384187,-0.0044071489177644,0.0287923792421817,-0.0444864593446254,-0.0873996019363403,0.0069991666823625
1783197264802634500,3.977634521484375,0.0269917595610022,-0.036705052062869,0.0168324768573045,-0.0521383732557296,-0.0836917906999588,0.0011418943759053
1783197264812571600,3.987571533203125,-0.0079600190937519,-0.0624539719559252,-0.0146381816834211,-0.0500009208917617,-0.0842113718390464,-0.0066465204581618
1783197264822508300,3.99750830078125,-0.0478657668940722,-0.0763740684978663,-0.0878700066328048,-0.0413691289722919,-0.0756693705916404,-0.0185180269181728
1783197264832445400,4.007445556640625,-0.0645019905269145,-0.0822924987614154,-0.1253811143815517,-0.0270786061882972,-0.067500926554203,-0.0273637175559997
1783197264842382300,4.01738232421875,-0.0544024751864373,-0.0614858575761318,-0.1322515846729278,-0.0096970666199922,-0.0696054548025131,-0.03339409455657
1783197264852319500,4.027319580078125,-0.0135316817462444,-0.0387483944587409,-0.1354763919383287,-0.0042477063834667,-0.07115089148283,-0.0362687110900878
1783197264862256600,4.037256591796875,0.0105213940143585,-0.0142969670303165,-0.0968377414643764,-0.0051122717559337,-0.0651748329401016,-0.0285563468933105
1783197264872193300,4.047193359375,0.0115139121830463,0.0138968617968261,-0.0427279656141996,-0.0142261404544115,-0.0618120543658733,-0.0172794573009014
1783197264882131500,4.05713134765625,0.0235462952822446,0.0100014617934823,-0.0263362182617187,-0.0247578788548707,-0.0721688270568847,-0.0140631571412086
1783197264892068400,4.067068359375,0.0169064188763499,0.0024213819280266,-0.0297141702622175,-0.0379112288355827,-0.0783303156495094,-0.0163588020950555
1783197264902005500,4.077005615234375,-0.0071421268396079,-0.0174092538319528,-0.0468932686001062,-0.0421126335859298,-0.0719653591513633,-0.0164163261651992
1783197264911942400,4.0869423828125,-0.0362675374284386,-0.021025106241554,-0.0798100342959165,-0.0391131117939949,-0.0658528730273246,-0.0226529166102409
1783197264921879600,4.096879638671875,-0.0631605127900838,-0.0175005853772163,-0.1225771628767252,-0.0319204553961753,-0.0493179857730865,-0.0299803558737039
1783197264931816400,4.10681640625,-0.0693441698610782,-0.0033890579164028,-0.130613754338026,-0.0200134627521038,-0.040789745748043,-0.0402700081467628
1783197264941753300,4.11675341796875,-0.0351841261059045,0.0133459499157965,-0.1073164653807878,-0.0133411427959799,-0.0405317395925521,-0.0381760485470294
1783197264951690500,4.1266904296875,-0.0115007604405283,0.0331735169358551,-0.0931874022632837,-0.0125203551724553,-0.0549839176237583,-0.0302323717623949
1783197264961627400,4.13662744140625,0.0036130759306252,0.0291796249940991,-0.0885235021054744,-0.0168423149734735,-0.0597075186669826,-0.0253896676003932
1783197264971564500,4.146564453125,-0.0032345980070531,0.0186225751444697,-0.0847153419941663,-0.021995797753334,-0.0627752095460891,-0.0256690308451652
1783197264981501400,4.15650146484375,0.0044593174964189,0.009238222336024,-0.1231441491097211,-0.0273679830133914,-0.0523023083806037,-0.025323037058115
1783197264991438300,4.166438232421875,0.0044376901865005,-0.0016267244189977,-0.149062434220314,-0.0235577970743179,-0.0361427813768386,-0.0287558510899543
1783197265001375500,4.17637548828125,0.0062616907432675,0.0156606565989553,-0.1581271996855735,-0.0272475704550743,-0.0235369186848402,-0.0286230575293302
1783197265011312400,4.1863125,0.0076480305351316,0.019191753334552,-0.1526864699363708,-0.023645382374525,-0.0166142974048852,-0.0272845532745122
1783197265021249500,4.19624951171875,0.0229907072260975,0.0153916303992271,-0.1370855807006359,-0.0233028419315814,-0.0159269608557224,-0.0232392624020576
1783197265031186400,4.2061865234375,0.0268614111796021,0.0304240720972418,-0.1411784029722213,-0.017548818141222,-0.0215486250817775,-0.0211763773113489
1783197265041123300,4.216123291015625,0.0203871005989611,0.0466892704606056,-0.1442763689875602,-0.0092021124437451,-0.0277251116931438,-0.0171484779566526
1783197265051060500,4.226060546875,0.0043162557639181,0.052181876527518,-0.1370318046867847,0.0001498432829976,-0.0301840081810951,-0.0128762349486351
1783197265060997400,4.235997314453125,-0.015489683946222,0.057565177001059,-0.1406546713590621,0.0017665168270468,-0.0295236706733703,-0.0127535155043005
1783197265070934500,4.2459345703125,-0.0157123867861926,0.0500153461433947,-0.1446241595119237,-0.0021587153896689,-0.0213935710489749,-0.0146952262148261
1783197265080871400,4.255871337890625,-0.0336420112304389,0.0548188009023666,-0.1097989298462867,-0.0096188327297568,-0.0093640852719545,-0.0157034806907176
1783197265090809300,4.265809326171875,-0.0350688291631638,0.0603865180321037,-0.0856879864186048,-0.0190687924623489,0.0010784361511468,-0.0153207844123244
1783197265100746500,4.27574658203125,-0.0305171572081744,0.0722711632236838,-0.0733574971556663,-0.0236950628459453,0.0169759914278984,-0.0138559136539697
1783197265110683400,4.285683349609375,-0.0127636199831962,0.0736475661434233,-0.0514630607336759,-0.023765105754137,0.0222391951829195,-0.0134569723159074
1783197265120620500,4.29562060546875,0.0030333763465285,0.0727795511372387,-0.0290279415637254,-0.0232521444559097,0.0118168564513325,-0.0068082059733569
1783197265130557400,4.305557373046875,0.0243733937561511,0.0329475992254912,0.0008504793494939,-0.0163194015622138,-0.00446517765522,-0.003092030994594
1783197265140494300,4.315494384765625,0.0342485988214611,0.0046200610160827,0.0135895494133234,-0.0080922544002532,-0.0144371632486581,-0.0029999860562384
1783197265150431500,4.325431396484375,0.014935849455744,-0.0044457273624837,0.0301256736725568,0.0010375948622822,-0.0141029376536607,-0.0060264021158218
1783197265160368400,4.335368408203125,-0.0171354053266346,-0.0160476100899279,0.0586731382429599,-0.0034952694550156,-0.0174155738204717,-0.0091994078829884
1783197265170305500,4.345305419921875,-0.0290976457990705,-0.0273261060819029,0.076245035290718,-0.0114562576636672,-0.0142855606973171,-0.0156850032508373
1783197265180242400,4.355242431640625,-0.0345481662899255,-0.038620530295372,0.0950128641247749,-0.0270500779151916,-0.0103438394144177,-0.0219509396702051
1783197265190178300,4.36517822265625,-0.035119828698039,-0.0244642869099974,0.1205319207847118,-0.0444650202989578,-0.0104208039119839,-0.026332639157772
1783197265200115200,4.375115234375,-0.0098186525724828,-0.0203872467294335,0.1431371358245611,-0.0620746426284313,-0.0228135585784912,-0.0272860508412122
1783197265210052400,4.38505224609375,0.0057262686923146,-0.0239947697021067,0.1006260278314351,-0.0697666481137275,-0.0299937054514884,-0.0286999233067035
1783197265219989200,4.3949892578125,-0.0148009710296988,-0.0133018185131251,0.0398415965229272,-0.0690619125962257,-0.0271069798618555,-0.0247504878789186
1783197265229926400,4.404926513671875,-0.0197249834284186,0.002970832504332,0.0104126729428768,-0.0640104264020919,-0.040225975215435,-0.0256615560501813
1783197265239863300,4.41486328125,-0.0048962476089596,0.0016980360895395,-0.0787561413288116,-0.0543232224881649,-0.0540811419486999,-0.0234879478812217
1783197265249800200,4.42480029296875,0.0147308284029364,-0.0017488894939422,-0.148680156904459,-0.0443078689277172,-0.0545120425522327,-0.0179187450557947
1783197265259737300,4.4347373046875,-0.0036899405591189,0.0292306245289742,-0.2094248407244682,-0.0288964100182056,-0.038439180701971,-0.0090749040246009
1783197265269674200,4.44467431640625,-0.0243678407981991,0.080087097671628,-0.2356499998271465,-0.0238683633506298,-0.0264336504042148,-0.0026777249295264
1783197265279611400,4.454611328125,-0.0110416184961795,0.0751492028780281,-0.2450719081670045,-0.0259259901940822,0.0030247804243117,-0.0041272486560046
1783197265289549300,4.46454931640625,-0.0057224693000316,0.0262925252504646,-0.2050549550771713,-0.0445742420852184,0.0253372751176357,-0.0047573526389896
1783197265299486500,4.474486572265625,-0.0482674795627594,0.0022281974434852,-0.1936766519725322,-0.0506649687886238,0.0234333463013172,-0.0002151844091713
1783197265309423000,4.484423095703125,-0.0709746936723589,-0.0336895036339759,-0.2681622763752937,-0.0243289694190025,0.0245334971696138,0.0036045876331627
1783197265319360300,4.4943603515625,-0.0256363994292914,-0.054905602402985,-0.275038007363677,0.012639601714909,0.0118083115667104,-0.0035631945356726
1783197265329297400,4.50429736328125,-0.002286357371509,-0.0586911122910678,-0.2911743186503648,0.0433985777199268,-0.0009993622079491,-0.0081100091338157
1783197265339234300,4.514234375,-0.0184898886755108,-0.0701765290319919,-0.2548123809367418,0.0596410073339939,-0.0131306974217295,-0.0026276283897459
1783197265349171500,4.52417138671875,-0.0434586179763078,-0.0906599296122789,-0.2179044997781515,0.0663772076368331,-0.0200192295014858,0.0085179675370454
1783197265359108000,4.534108154296875,-0.0530856934994459,-0.0556342089384794,-0.16678747600317,0.0706419497728347,-0.0154875488951802,0.0042682820931077
1783197265369045200,4.544045166015625,-0.0469808007530868,-0.0432869146712124,-0.1188888297528028,0.0701961368322372,-0.0044407565146684,-0.0025507421232759
1783197265378982400,4.553982421875,-0.0543183040343224,-0.0587972030140459,-0.0629845717012882,0.059112075716257,-0.0002152356319129,-0.0088464394211769
1783197265388919300,4.563919189453125,-0.0719347708761692,-0.0813765529602766,-0.0324742826253175,0.0560052320361137,0.0068461359478533,-0.0093199498951435
1783197265398856400,4.5738564453125,-0.0890083630129695,-0.0869004309482872,-0.0103092125684022,0.0537441857159137,0.0100975558161735,-0.0194525104016065
1783197265408793000,4.58379296875,-0.0918894714072346,-0.0475036555834114,-0.0024795418560504,0.0574031025171279,-0.0042843129485845,-0.0302870478481054
1783197265418730200,4.593730224609375,-0.0802083859637379,-0.0431182801060378,0.000529576832056,0.0590135529637336,-0.0191830322146415,-0.0341983698308467
1783197265428667400,4.60366748046875,-0.0829734667629003,-0.0261871651798486,0.0096124624758958,0.0642280206084251,-0.0268761068582534,-0.0337863788008689
1783197265438604300,4.613604248046875,-0.0919593217730522,0.0194613640561699,0.0253571440964937,0.0697728097438812,-0.0250587314367294,-0.0351047925651073
1783197265448541400,4.62354150390625,-0.1057791728109121,0.0928153540804982,0.0424509022384881,0.0689022243022918,-0.0198687613010406,-0.0380276106297969
1783197265458478300,4.633478271484375,-0.0650678077161312,0.1134359711743891,0.0648024347782135,0.0601122230291366,-0.0240680910646915,-0.0338995233178138
1783197265468415200,4.643415283203125,-0.0023522622145712,0.0790054399147629,0.0728916332095861,0.0472755208611488,-0.0409293621778488,-0.0284096859395504
1783197265478353200,4.653353271484375,0.0373567939698696,0.0723569418109953,0.0463777202934026,0.0377876348793506,-0.0541174300014972,-0.0254445429891347
1783197265488290300,4.663290283203125,0.0528311342164874,0.0632316783301532,0.0046329204976558,0.0341122075915336,-0.0584397390484809,-0.0221281088888645
1783197265498227500,4.6732275390625,0.0663271601274609,0.0625131547972559,-0.0672819766342639,0.0372261703014373,-0.0504508018493652,-0.0231832340359687
1783197265508164400,4.683164306640625,0.0599516337461769,0.0508456594876945,-0.1322258657097816,0.049222644418478,-0.0328630171716213,-0.0221334174275398
1783197265518101200,4.693101318359375,0.0640355420589447,0.0558504820376634,-0.1559679758250713,0.0587212406098842,-0.0154888927936553,-0.0231623463332653
1783197265528038100,4.7030380859375,0.0812248695299029,0.0621755934059619,-0.1626344479769468,0.0713941603899002,-0.0198245178908109,-0.0179412178695201
1783197265537975300,4.712975341796875,0.1194593231171369,0.0757090287178754,-0.1619306836217641,0.0823044404387474,-0.0272092465311288,-0.0112346801906824
1783197265547912400,4.722912353515625,0.1499511997535824,0.0980082465484738,-0.1234533611893653,0.0903378650546073,-0.049238383769989,-0.0004965483676642
1783197265557849300,4.732849365234375,0.1501085822723805,0.1152438973791897,-0.1179758065611124,0.0937884971499443,-0.0587306059896945,0.0116953551769256
1783197265567786200,4.7427861328125,0.1166734917908906,0.1140467965491116,-0.0873497821509838,0.0993169546127319,-0.0642705112695694,0.0242337826639413
1783197265577723400,4.752723388671875,0.0752013714566826,0.0965666694380343,-0.106157942995429,0.1001329272985458,-0.0577933192253112,0.0235570594668388
1783197265587660300,4.762660400390625,0.0217146959409117,0.0598851443812251,-0.0970037456810474,0.0859406739473342,-0.0454423800110816,0.0130452960729599
1783197265597597400,4.772597412109375,-0.0146717916920781,0.0349614232659339,-0.0789011027574539,0.063665322959423,-0.0235835816711187,-0.0037201861850917
1783197265607534300,4.782534423828125,-0.036488778963685,0.0147220605745911,-0.0833528214693069,0.0386225581169128,0.0009164349175989,-0.0166239999234676
1783197265617471200,4.79247119140625,-0.0539160068437457,0.0338606224171817,-0.1210047989934682,0.0207835473120212,0.0196542516350746,-0.0192548055201768
1783197265627408400,4.802408447265625,-0.0055719549134373,0.0523851440146565,-0.1442138251453638,0.0110949678346514,0.0223096869885921,-0.0167359877377748
1783197265637345300,4.81234521484375,0.05747472223863,0.0476021475218236,-0.2183773779869079,0.0232315212488174,0.0169956441968679,-0.0038730483502149
1783197265647282400,4.822282470703125,0.0839500567100942,0.0483430290170013,-0.2848965535551309,0.042974330484867,0.0174542404711246,0.0114483833312988
1783197265657219300,4.83221923828125,0.0514060698494315,0.0743903473347425,-0.3210013016372919,0.0783696472644805,0.0214382447302341,0.0254771634936332
1783197265667157500,4.842157470703125,0.0183545718580484,0.0701695147693157,-0.3220750683486461,0.1105470210313797,0.0218731388449668,0.0425621420145034
1783197265677094100,4.85209423828125,0.0059285132661461,0.0525622541472315,-0.2922866638064384,0.1391426473855972,0.0148118827491998,0.0469748973846435
1783197265687031300,4.86203125,-0.0351838338449597,0.0462877039223909,-0.2315717906028032,0.1485659778118133,0.0377680659294128,0.042195588350296
1783197265696968200,4.87196826171875,-0.083247169137746,0.0143326228655874,-0.1102618711829185,0.123471513390541,0.0813997760415077,0.0234522130340337
1783197265706905300,4.8819052734375,-0.1337298405319452,0.018817805455625,0.046798576053977,0.0895625501871109,0.0796338394284248,0.0195461548864841
1783197265716842500,4.891842529296875,-0.1192746141999959,-0.0249485632956027,0.0622895751744508,0.0672013163566589,0.0773977637290954,0.0224781818687915
1783197265726779100,4.901779052734375,-0.0389874639116227,-0.0729223206087946,0.1246843642890453,0.0503997057676315,0.0796968713402748,0.0130559178069233
1783197265736716300,4.91171630859375,-0.0190736799128353,-0.0288686593487858,0.1515419760763645,0.0457067973911762,0.0658407211303711,0.0086966585367918
1783197265746653400,4.9216533203125,-0.0226696585781872,-0.0430061980336904,0.1486474236786365,0.0515449792146682,0.061579130589962,0.0074119502678513
1783197265756590300,4.93159033203125,-0.0060278819873929,-0.0638034868687391,0.2094990750044584,0.0537264049053192,0.052705593407154,0.0078539121896028
1783197265766527500,4.941527587890625,-0.0026192425876855,-0.0313601839035749,0.2486421678692102,0.0616820678114891,0.0333151221275329,0.0076802736148238
1783197265776464100,4.951464111328125,0.0184624161466956,-0.0303644508644938,0.2681190217554569,0.0712138041853904,0.0190083868801593,0.0109456069767475
1783197265786401300,4.9614013671875,0.0353350788839161,-0.0406672336921095,0.3437883029848337,0.0616280287504196,0.002007832750678,0.0095453169196844
1783197265796338400,4.97133837890625,0.0114898006550967,-0.0073467095009982,0.3832476221919059,0.0431995540857315,-0.0158514380455017,0.0093456832692027
1783197265806275300,4.981275390625,-0.0187739663138985,-0.0317354469567537,0.4088198703438043,0.0155285093933343,-0.0168256238102912,0.0050324276089668
1783197265816212500,4.99121240234375,-0.0345643867723643,-0.0560671935282647,0.4408557615518569,-0.0196780785918235,-0.0273459237068891,-0.003617322538048
1783197265826149000,5.001149169921875,-0.0534250084564089,-0.0315974997907876,0.3689648298174142,-0.048381894826889,-0.0338981002569198,-0.0104158399626612
1783197265836086300,5.011086181640625,-0.0718020844072103,-0.0703840343028306,0.3287053001433611,-0.0705368593335151,-0.020371738821268,-0.0222921222448349
1783197265846023400,5.0210234375,-0.0935140038691461,-0.0338873642936348,0.2559299867898225,-0.0889472886919975,-0.0160686038434505,-0.0357639901340007
1783197265855961300,5.03096142578125,-0.0947097895249724,-0.013808452861011,0.1654851612329483,-0.0962188988924026,-0.0129687255248427,-0.0394245125353336
1783197265865898500,5.0408984375,-0.0378460387915372,-0.0065055825017392,0.0933633433520793,-0.0969278290867805,-0.0188588388264179,-0.0312848314642906
1783197265875835400,5.05083544921875,-0.0201874863736331,0.0268288240842521,-0.000158405432105,-0.0980475023388862,-0.0227246042340993,-0.019894091412425
1783197265885772300,5.060772216796875,-0.0051090135768055,0.0221434427469968,-0.0760527275890111,-0.0936833769083023,-0.0089637851342558,-0.0058720167726278
1783197265895709200,5.070709228515625,-0.0322258608222007,0.0049283963128924,-0.1054869118660688,-0.098371148109436,-0.0013357307761907,-0.0091422321274876
1783197265905646300,5.080646240234375,-0.0754879333131015,0.0120633627593517,-0.168471483567357,-0.0933612138032913,-0.0050484435632824,-0.0115113798528909
1783197265915583500,5.09058349609375,-0.0620863076873123,-0.04069441395998,-0.2442576691746711,-0.0818951278924942,0.0035860107745975,-0.0127240177243947
1783197265925520400,5.100520263671875,-0.0521925440520048,-0.0780637751504778,-0.294956175276637,-0.0624119713902473,0.0082364231348037,-0.020154770463705
1783197265935457300,5.110457275390625,-0.0524076481074094,-0.0366977455392479,-0.3457394370526075,-0.0449661798775196,0.0107210585847496,-0.0207187607884407
1783197265945394200,5.120394287109375,-0.0150217741735279,-0.0493576128870248,-0.3543354159623384,-0.0219647251069545,0.0066898316144943,-0.0132232951000332
1783197265955331300,5.130331298828125,0.0287431332729756,-0.0696779318600893,-0.3694996673464775,0.0060868170112371,0.0080875987187027,-0.0066423225216567
1783197265965268500,5.1402685546875,0.0322661928325891,-0.0523725767940282,-0.354188700968027,0.0226839035749435,0.0256269127130508,-0.0077073206193745
1783197265975205400,5.150205322265625,-0.0007733224600553,-0.0196247379243373,-0.2760597516268491,0.0301345847547054,0.0297182314097881,-0.0112769566476345
1783197265985142300,5.160142333984375,-0.0031159400634467,-0.0172318514384329,-0.2386129412859678,0.0369472168385982,0.0327971130609512,-0.0079482709988951
1783197265995079200,5.1700791015625,0.0193709092937409,-0.0155542736150324,-0.1769037963479757,0.036756195127964,0.0324094071984291,0.0001290191430598
1783197266005016300,5.180016357421875,0.0282742005869746,0.0143454823471605,-0.1493698927342891,0.0431938543915748,0.0367783233523368,0.0051256418228149
1783197266014953500,5.189953369140625,0.0172407653972506,0.0272736452423036,-0.0868657980263233,0.0408200733363628,0.047046273946762,0.004426241852343
1783197266024891400,5.199891357421875,0.0027677111476659,0.0256710323512554,-0.0036842414706945,0.0367568880319595,0.0411580242216587,0.0033564497716724
1783197266034828500,5.20982861328125,0.0001595744758844,0.0156774616032838,0.0470218634158372,0.0219527538865804,0.0367778800427913,0.0041997730731964
1783197266044765200,5.21976513671875,-0.0096259064793586,0.0033580782562494,0.1093891800016164,0.0078704906627535,0.0319863185286521,-0.000602173153311
1783197266054702300,5.229702392578125,-0.0125929395914077,0.01909749917984,0.1319564011186361,-0.0046937577426433,0.0298944674432277,-0.0049669244326651
1783197266064639200,5.23963916015625,-0.0137155138805508,0.0534518964633345,0.1459773276865482,-0.0142694190144538,0.0213023126125335,-0.0071302102878689
1783197266074576400,5.249576416015625,-0.0073785659439861,0.059228726299107,0.1364239019215107,-0.0204606503248214,0.016218613833189,-0.0049070222303271
1783197266084513500,5.259513427734375,0.0126491998232901,0.0515063153535127,0.1120247892022132,-0.022356554865837,0.0060506640002131,0.002788714133203
1783197266094450200,5.2694501953125,0.0223360427096486,0.059956163790822,0.0789262371987104,-0.0232135914266109,-0.0051353555172681,0.0070253517478704
1783197266104387300,5.27938720703125,0.0309656316280364,0.0569018907867372,0.0121937111407518,-0.0220559164881706,-0.010595635510981,0.012280567549169
1783197266114324200,5.28932421875,0.0295832373589277,0.0268859610989689,-0.041996144208312,-0.0172944068908691,-0.0076154647395014,0.0136759988963603
1783197266124261400,5.299261474609375,0.0195183549404144,0.0334869667991995,-0.075353639408946,-0.012327610515058,0.0031660767272114,0.0144946537911891
1783197266134198500,5.309198486328125,0.0133294371724128,0.0408978275775909,-0.1080968021035194,-0.0095464410260319,0.010756030678749,0.0148050971329212
1783197266144135200,5.31913525390625,0.019791326662898,0.0120819213293492,-0.1222726269721984,-0.0068832794204354,0.0153084378689527,0.0162775591015815
1783197266154072300,5.329072265625,0.0508592496216297,0.015640782854706,-0.1478466286897659,-0.0002572368830442,0.0145119559019804,0.0175909157842397
1783197266164009200,5.33900927734375,0.0634349458172917,0.0068457742415368,-0.1535468861579895,0.0042000962421298,0.0198097825050354,0.0238030049949884
1783197266173946400,5.3489462890625,0.0269673557721078,0.0211965172857046,-0.115764560252428,0.0021740030497312,0.0240227319300174,0.0254011005163192
1783197266183883500,5.358883544921875,0.0054150107860565,0.0060876493506133,-0.1038654481440782,0.0011987537145614,0.0261324867606163,0.026437871158123
1783197266193821700,5.36882177734375,-0.0013476152166724,-0.0077908000066876,-0.1072048216998577,0.004145173355937,0.0275564976036548,0.028994733467698
1783197266203758600,5.378758544921875,0.0089871701844036,-0.0132888129010796,-0.0766430946975946,0.004564887844026,0.0246866755187511,0.0249533858150243
1783197266213695500,5.388695556640625,-0.010307751263678,-0.0196074945285916,-0.0578887098670005,0.0051059192046523,0.0287502892315387,0.0203057210892438
1783197266223632600,5.398632568359375,-0.0363857569806277,-0.0256285083837807,-0.0555015224695205,0.0042545059695839,0.0422139018774032,0.0219443645328283
1783197266233569500,5.408569580078125,-0.0623074030920863,-0.0350894335597753,-0.037331659528613,0.0038798106834292,0.0546851009130477,0.0183555036783218
1783197266243506700,5.418506591796875,-0.0638574090130627,-0.019508856459707,-0.0125280576616525,0.0013801679015159,0.0429163239896297,0.0133634088560938
1783197266253443800,5.42844384765625,-0.0206157947883009,-0.0455690342590212,0.0085462945491075,0.0011589238420128,0.0285629034042358,0.0117641882970929
1783197266263380500,5.43838037109375,0.0108535485781729,-0.0633976825468242,0.0053512979000806,0.0037448536604642,0.0182591341435909,0.0151040591299533
1783197266273317600,5.448317626953125,-0.0275439866162836,-0.0162698745384812,0.0028723405659198,0.0085125230252742,0.0225190725177526,0.0191966146230697
1783197266283254500,5.458254638671875,-0.0476920177623629,0.0232652863837778,0.0143003280311822,0.0110337371006608,0.0244085844606161,0.0213284753262996
1783197266293191700,5.468191650390625,-0.0444995053313672,0.0165048523381352,0.0256844763547182,0.0042336219921708,0.0166446715593338,0.0187944788485765
1783197266303128800,5.47812890625,-0.0461817593298852,-0.0226743347533047,0.0316062676191329,-0.009056351147592,0.0138155948370695,0.0169907193630933
1783197266313065500,5.4880654296875,-0.054702481046319,-0.0445164564661681,0.0163040690690279,-0.0178855415433645,0.0199955776333808,0.0123038068413734
1783197266323002600,5.498002685546875,-0.0780224202267825,-0.0461570632800459,0.007456161224842,-0.0264819599688053,0.0265781134366989,0.0102497106418013
1783197266332939500,5.507939453125,-0.0815133310824632,-0.044269642098248,0.0050602059990167,-0.0286845453083515,0.0292228516191244,0.0026521440595388
1783197266342876700,5.517876708984375,-0.0450721906527876,-0.0587000262498855,-0.0268400761306285,-0.0280043743550777,0.0214064735919237,0.0012462614104151
1783197266352813800,5.527813720703125,-0.0318202026307582,-0.0539744590327143,-0.0559475126713514,-0.0205283351242542,0.0165620669722557,0.0045640422031283
1783197266362751700,5.537751708984375,-0.0419707175061106,-0.0407613417163491,-0.0627969401746988,-0.0088090980425477,0.0152829503640532,0.0037560400087386
1783197266372688600,5.547688720703125,-0.0417553211897611,-0.0289962312512099,-0.0781043994218111,0.0047386130318045,0.0189410932362079,-0.0001118851359933
1783197266382625500,5.55762548828125,0.0068175710603594,-0.0168900522634387,-0.0747837305665016,0.0126314237713813,0.0227739140391349,0.0006146251689642
1783197266392562700,5.567562744140625,0.0377609908565878,-0.0268976515367627,-0.0518406618744134,0.0118805533275008,0.0152794094756245,0.001239221310243
1783197266402499600,5.57749951171875,0.0475144692383706,-0.0136887720040977,-0.0189122057408094,0.011788141913712,0.0171918254345655,0.0116047775372862
1783197266412436700,5.587436767578125,0.0643001843445003,-0.0229692260466516,0.0093558573663234,0.0178330987691879,0.0204560160636901,0.0161967650055885
1783197266422373600,5.59737353515625,0.0542940463759005,-0.0040280864723026,0.0341933615028858,0.0156218754127621,0.0183545146137475,0.0184071883559227
1783197266432310500,5.607310546875,0.0290618438333272,0.011504121441394,0.0866360809236764,0.0164413154125213,0.0167173184454441,0.0153517285361886
1783197266442247700,5.61724755859375,0.0085743515998125,0.0007768295913934,0.151734868299961,0.0162943098694086,0.0124418810009956,0.0134987002238631
1783197266452184600,5.6271845703125,0.0023540157802402,0.0016417758576571,0.2031745481580495,0.0079493168741464,-0.0035563148558139,0.0115973893553018
1783197266462121500,5.63712158203125,0.0119106564156711,0.0006971884839236,0.2497077512741088,-0.0042112097144126,-0.0188790783286094,0.0080314166843891
1783197266472058600,5.64705859375,0.0032901275865733,1.70972652733e-05,0.2579156076490879,-0.0143961692228913,-0.0430480353534221,0.0080823134630918
1783197266481995500,5.65699560546875,0.0216664728850126,-0.0023360417321324,0.2356441546082496,-0.0189240761101245,-0.0655631944537162,0.0101169683039188
1783197266491932700,5.6669326171875,0.0157915895022451,-0.0033294366836547,0.1584697295129299,-0.0174374170601367,-0.0799807384610176,0.0134746637195348
1783197266501869600,5.67686962890625,-0.0058908116042613,0.0130057581759989,0.0419727633327245,-0.0160520412027835,-0.0901300460100174,0.0181751418858766
1783197266511806500,5.686806396484375,-0.0385822441115975,0.0273795898348093,-0.0486152700871229,-0.0093282628804445,-0.0950992554426193,0.0191115476191043
1783197266521743600,5.69674365234375,-0.0587236993864178,0.0306023512735962,-0.1334428402841091,-0.0030895415693521,-0.094100035727024,0.0227696653455495
1783197266531681500,5.706681640625,-0.0827943108037114,0.0185895496577024,-0.2158539969891309,0.001555067487061,-0.0920683369040489,0.0234457924962043
1783197266541618700,5.71661865234375,-0.0944581528514623,-0.0081914897620677,-0.3133686148017645,0.0124295530840754,-0.0808854550123214,0.0232370011508464
1783197266551555600,5.7265556640625,-0.0947699952796101,-0.0369236632496118,-0.389763872218132,0.0243927557021379,-0.0655159428715705,0.0225062444806098
1783197266561492700,5.73649267578125,-0.097989249587059,-0.0299843655057251,-0.4760767125368118,0.0498563051223754,-0.0490938238799572,0.0219555050134658
1783197266571429400,5.746429443359375,-0.1276569503590464,-0.0437533631391823,-0.5094891527950763,0.071716159582138,-0.0289778299629688,0.0174959246069192
1783197266581366500,5.756366455078125,-0.1152289920710027,-0.0552583613634109,-0.4881897596567869,0.0960164368152618,-0.0264092124998569,0.016998978331685
1783197266591303700,5.7663037109375,-0.0703846188247203,-0.0573240617215633,-0.4846738604903221,0.119482010602951,-0.0247373189777135,0.0197533667087554
1783197266601240600,5.776240478515625,-0.0687516107954084,-0.0558804387845098,-0.4069458931654691,0.1326279193162918,-0.0247493032366037,0.019880399107933
1783197266611177700,5.786177734375,-0.0638198534816503,-0.0618275106206536,-0.3640618602067232,0.1360983699560165,-0.0182792320847511,0.0240249466150999
1783197266621114400,5.7961142578125,-0.0777685915961861,-0.0907386939369142,-0.2985831336021423,0.1399442255496978,-0.0054260184988379,0.019220869988203
1783197266631051500,5.806051513671875,-0.0910591580629348,-0.0919052534982562,-0.2398871990054845,0.1430948078632354,0.0058412603102624,0.0135733196511864
1783197266640988700,5.81598876953125,-0.1199108662769198,-0.057001990160346,-0.201416890835762,0.1415821313858032,0.0155466180294752,-0.0032251011580228
1783197266650925600,5.825925537109375,-0.0993194752775132,-0.0282221781387925,-0.1244675066679716,0.1449379026889801,0.0096744270995259,-0.013341786339879
1783197266660862700,5.83586279296875,-0.0383447820939123,0.0008152619056403,-0.1521574776262045,0.1547902673482895,-0.0046922611072659,-0.0088370498269796
1783197266670799600,5.845799560546875,0.0225477857641875,0.0353695656754076,-0.2515758832335472,0.1720354110002517,0.0190666988492012,0.0070920316502451
1783197266680736500,5.855736572265625,-0.0126432084739208,0.135290367846936,-0.1568447586596012,0.1527179181575775,0.0559818409383297,0.0076624806970357
1783197266690673700,5.865673583984375,-0.0259796599090099,0.2117129516616463,-0.027469606205821,0.1190592721104621,0.0498494729399681,0.0176067668944597
1783197266700611600,5.875611572265625,0.0386696301341056,0.0965814286157488,-0.0589805967569351,0.1056947261095047,0.0385382324457168,0.0322666689753532
1783197266710548700,5.885548828125,0.1156105387344956,0.040450083810091,-0.0687041183918714,0.0996545851230621,0.0234239436686038,0.0278410837054252
1783197266720485600,5.895485595703125,0.0719086135216057,0.1258174599722027,-0.1221183131933212,0.1076517850160598,0.0315607003867626,0.0115401428192853
1783197266730422500,5.905422607421875,0.039553865622729,0.1626755106396973,-0.113133042705059,0.1184603422880172,0.059682834893465,0.007366869598627
1783197266740359400,5.915359375,0.0704508159287273,0.1776969925522804,-0.1015425581544637,0.1178318336606025,0.0745259597897529,0.0051729576662182
1783197266750296600,5.925296630859375,0.1350138889931142,0.2251404423810541,-0.0735398679852485,0.1068965122103691,0.0913302898406982,0.0162203814834356
1783197266760233700,5.935233642578125,0.2031651958078145,0.2218120286107063,0.0143932670116424,0.0965000689029693,0.0994523987174034,0.0358100607991218
1783197266770170600,5.945170654296875,0.2443589375920593,0.2159592109292745,0.0995090065002441,0.0808591693639755,0.0864742323756218,0.0530139841139316
1783197266780107500,5.955107421875,0.2506391869053244,0.2076039089076221,0.1193669686585664,0.0756761282682418,0.0635441541671752,0.0786780640482902
1783197266790044700,5.965044677734375,0.215454768538475,0.1572641531154513,0.1098959604799747,0.0735141411423683,0.052603680640459,0.090319886803627
1783197266799981600,5.974981689453125,0.1313164957799017,0.0762545337714254,0.0979179379165172,0.0710949227213859,0.0516249686479568,0.0906687602400779
1783197266809918700,5.984918701171875,0.0308085413701832,0.0352628904305398,0.1047977605581283,0.068206250667572,0.0599200390279293,0.0809950605034828
1783197266819855600,5.994855712890625,-0.0323227453254163,-0.0016432371623814,0.1192079787045717,0.0622261241078376,0.0598742328584194,0.0682355910539627
1783197266829792500,6.00479248046875,-0.0420423214375972,-0.0708034287586808,0.136139824283123,0.0458470322191715,0.0653913989663124,0.0625554174184799
1783197266839729700,6.014729736328125,-0.0314895093716681,-0.1200938216283917,0.173686003345251,0.0230367928743362,0.070818118751049,0.0570757016539573
1783197266849666600,6.02466650390625,-0.0522284921482205,-0.1314469902917742,0.2127162834852933,0.0015888232737779,0.0734747573733329,0.0515330992639064
1783197266859603700,6.034603759765625,-0.0618336481004953,-0.112425332827121,0.2144447147130966,-0.012463878840208,0.0794354453682899,0.0446373745799064
1783197266869540600,6.04454052734375,-0.0690672526158392,-0.1218399346433579,0.2204559378266334,-0.0210623331367969,0.0790278986096382,0.0402885638177394
1783197266879477500,6.0544775390625,-0.0812237004861235,-0.1052042955324053,0.2105260799646377,-0.0199294239282608,0.0741319432854652,0.0240563340485095
1783197266889414700,6.06441455078125,-0.0755773651622235,-0.0925071649141609,0.2360579961061477,-0.020224492996931,0.0690326690673828,0.0107967369258403
1783197266899352600,6.0743525390625,-0.0780965083763003,-0.0985316859006881,0.2975017681062221,-0.0278219617903232,0.0616834126412868,0.0021340060047805
1783197266909289500,6.08428955078125,-0.0837668090976774,-0.0779344496823847,0.3224719587117433,-0.0456922985613346,0.0473829209804534,0.0014224250335246
1783197266919226600,6.0942265625,-0.0642879093848168,-0.0770185038812458,0.354039647886157,-0.0659541562199592,0.0375390797853469,0.0072416979819536
1783197266929163800,6.104163818359375,-0.0425866574473679,-0.0791775816112756,0.3598486264258623,-0.0839274674654007,0.0362790562212467,0.012639794498682
1783197266939100400,6.114100341796875,-0.0419578580245375,-0.0425739440962672,0.3457230704396963,-0.0944472253322601,0.0336222872138023,0.013502923771739
1783197266949037600,6.12403759765625,-0.0569622426718473,-0.0143351070836186,0.2904723078608512,-0.1059210002422332,0.0315942913293838,0.0089091509580612
1783197266958974700,6.133974609375,-0.0471279541388154,-0.0103486677959561,0.2523509592592716,-0.1083897501230239,0.0262804850935935,0.0023228880017995
1783197266968911600,6.14391162109375,-0.0354147199913859,-0.0367624813385307,0.1884288144469261,-0.1089622527360916,0.0151255680248141,0.0052252868190407
1783197266978848800,6.153848876953125,-0.0506587586134672,-0.0579036151751875,0.104084059330821,-0.1008108481764793,0.0186023246496915,0.0072737904265522
1783197266988785400,6.163785400390625,-0.0808512139119207,-0.046280105137825,0.0427075073480606,-0.0870915353298187,0.0313262157142162,0.0078592495992779
1783197266998722600,6.17372265625,-0.0989938965849578,-0.0340872707799077,0.0132248077541589,-0.0716348215937614,0.0428510457277298,-0.0017505006399005
1783197267008659700,6.18365966796875,-0.0853901725158095,-0.0355965062990784,0.0303986453950405,-0.0610164254903793,0.0422154143452644,-0.0055759814567863
1783197267018596600,6.1935966796875,-0.0134704530782997,-0.0716309656240046,0.0403916316211223,-0.0564206093549728,0.0252545438706874,-0.0068300636485219
1783197267028533800,6.20353369140625,0.034247868169099,-0.0911496128253638,0.0677870035469532,-0.0632849186658859,0.0102649051696062,-0.0007727365009486
1783197267038470400,6.213470458984375,0.0499231378152966,-0.0789519561618566,0.0982400094777345,-0.0724195539951324,0.0011497042141854,0.0009372793138027
1783197267048407600,6.223407470703125,0.0430795555308461,-0.0622644407331943,0.1211024141490459,-0.090487502515316,0.001033476088196,0.0010986828710883
1783197267058344700,6.2333447265625,0.0465836181290447,-0.0723645405955612,0.1148825167208909,-0.0995654165744781,0.0036929086782038,0.0112543813884258
1783197267068281600,6.243281494140625,0.0462840506605803,-0.0897714563399553,0.0739537094831466,-0.1049584820866584,0.0081343678757548,0.0102401655167341
1783197267078218800,6.25321875,0.0086810268446803,-0.0824152483582496,0.0475590390324592,-0.1032553911209106,0.0067836120724678,0.0055921506136655
1783197267088155400,6.2631552734375,-0.0066682257175445,-0.079450114942342,0.0054804772377014,-0.1084962710738182,0.0166768971830606,0.0030877802055329
1783197267098092500,6.273092529296875,-0.0392269717559218,-0.0922102277942001,-0.0099111531615257,-0.1043952703475952,0.0197065100073814,-0.004931264091283
1783197267108029700,6.28302978515625,-0.0787064569681882,-0.0592456774339079,-0.0714589700579643,-0.0951602831482887,0.0200958102941513,-0.0070302681997418
1783197267117966600,6.292966552734375,-0.0718219581514596,-0.0645757864154875,-0.1274766253560781,-0.0721982419490814,0.0094945654273033,-0.0019332445226609
1783197267127903700,6.30290380859375,-0.0462434263892471,-0.0699517803654074,-0.161184833690524,-0.0482902973890304,0.0006689862348139,0.0058544045314192
1783197267137840400,6.31284033203125,-0.0352865635670721,-0.0474434498287737,-0.1465641876637935,-0.0339033678174018,-0.0166271794587373,0.009382028132677
1783197267147777500,6.322777587890625,-0.0397395974531769,-0.043550534043461,-0.1492559109658002,-0.0247069969773292,-0.0181695073843002,0.0068241273984313
1783197267157714700,6.332714599609375,-0.0551002481922507,-0.051518882574141,-0.1239636487990617,-0.0248055346310138,-0.0089792050421237,0.0098510766401886
1783197267167652600,6.342652587890625,-0.0671167030699551,-0.0327580680027604,-0.1019417866051197,-0.0256855487823486,-0.0030390927568078,0.0049278074875473
1783197267177589800,6.35258984375,-0.0830447784334421,-0.0235552092410624,-0.0604512538313865,-0.0325194858014583,0.0101456856355071,0.003668398829177
1783197267187526700,6.362526611328125,-0.0828606540381908,-0.02616130008623,-0.0451975705981254,-0.0374051705002784,0.0047334269620478,0.0026789014227688
1783197267197463800,6.3724638671875,-0.0756733728826045,-0.0454635280579328,0.000363572615385,-0.0517449602484703,0.0121644455939531,-0.0032588827889412
1783197267207400700,6.382400634765625,-0.0404645507268607,-0.0643470922261476,0.0877139392882585,-0.0726901292800903,-0.0152667080983519,-0.0031835986301302
1783197267217337900,6.392337890625,-0.0220376442849636,-0.071076254350692,0.0313140066742897,-0.0724246129393577,-0.0286581441760063,-0.0028887866064906
1783197267227275000,6.40227490234375,-0.0612698767378926,-0.0405238796986639,-0.025875030490756,-0.0480930060148239,-0.0133975418284535,-0.0124973878264427
1783197267237211600,6.412211669921875,-0.1096865555129945,0.006468757622689,-0.0451186601430177,-0.0223088171333074,0.0007638176903128,-0.0218701176345348
1783197267247148800,6.422148681640625,-0.0930126302182674,0.004535597603023,-0.0468915150344371,-0.0028994614258408,-0.0138727976009249,-0.0250972360372543
1783197267257085700,6.432085693359375,-0.0229942143574357,-0.0386025562472641,-0.0367839625179767,-0.0054875211790204,-0.038750983774662,-0.0276823677122592
1783197267267022800,6.44202294921875,0.0350286432832479,-0.0556923688665032,0.0066050973534584,-0.0142481001093983,-0.0313522554934024,-0.0216525867581367
1783197267276960000,6.4519599609375,0.028232407271862,-0.0433522349923849,0.1186369008183479,-0.0149554358795285,-0.0153035158291459,-0.0150660574436187
1783197267286896600,6.461896728515625,-0.029343875645101,0.0286294437654316,0.0835392839521169,-0.0170181430876255,-0.0029861256480216,-0.0175286158919334
1783197267296833800,6.471833740234375,-0.0162066000439226,0.0532470215409994,0.0898679024517536,-0.0164402369409799,0.0058949841186404,-0.0182133149355649
1783197267306770700,6.481770751953125,0.0400227983087301,0.0042673020556569,0.095926471838355,-0.0180038437247276,0.0009397035464644,-0.0222362037748098
1783197267316707800,6.491707763671875,0.0556061518877744,0.0309209157034754,0.1038712933629751,-0.0254612267017364,-0.0136799858883023,-0.0259832702577114
1783197267326645000,6.50164501953125,0.0714488870553672,0.0732249568171799,0.120813075813651,-0.0313625372946262,-0.030282774940133,-0.0173061415553092
1783197267336581600,6.51158154296875,0.0949826151169836,0.0791109461158514,0.1313040746897459,-0.0435403734445571,-0.0417916253209114,-0.0066795963793993
1783197267346518800,6.521518798828125,0.0930278277873992,0.0690137688629329,0.1258341188460588,-0.0553575679659843,-0.0540211498737335,0.0033000172115862
1783197267356455700,6.53145556640625,0.0715801122196018,0.061186143977195,0.0965010568559169,-0.0600620433688163,-0.0583226904273033,0.0046640885993838
1783197267366392800,6.541392822265625,0.0492827940851449,0.0544191340602934,0.0499842203527688,-0.0570625327527523,-0.0590940564870834,-0.0007309264037758
1783197267376330000,6.551330078125,0.0124210901558399,0.0538990557089447,-0.0214893627524375,-0.0520525909960269,-0.0505245327949523,-0.0040524210780858
1783197267386266600,6.5612666015625,-0.0437961793676018,0.0613772826351225,-0.0836070884913206,-0.0376153700053691,-0.0306297857314348,-0.0066417795605957
1783197267396203800,6.571203857421875,-0.0359548182174563,0.0444569813638925,-0.1036404072165489,-0.0225788988173007,-0.0270321238785982,-0.0046420120634138
1783197267406141000,6.581140869140625,-0.0026510990306735,0.0282505274504423,-0.1430582253694534,-0.0140420058742165,-0.0375409834086895,-0.0006907954812049
1783197267416077800,6.591077880859375,0.0209967569299042,0.0222802208691835,-0.184268187636137,-0.0056399991735816,-0.0285541452467441,0.0135773569345474
1783197267426015000,6.601014892578125,-0.0018077800743281,0.0183912506066262,-0.2065676977276802,0.0089753400534391,-0.006194619461894,0.0157729499042034
1783197267435951600,6.61095166015625,-0.0305297244288027,0.0262884335972368,-0.2001706901669502,0.0220413412898778,0.0149271776899695,0.0191117525100708
1783197267445888800,6.620888671875,-0.0226151519119739,0.0156551036410033,-0.1430880359858274,0.0282492078840732,0.0137302186340093,0.0203460976481437
1783197267455826000,6.630825927734375,0.0035772739648818,-0.0346307300068438,-0.0994897172778844,0.025049153715372,-0.0035616867244243,0.017024602741003
1783197267465762800,6.6407626953125,0.0204556357905268,-0.0781406397789716,-0.0873164644032716,0.0229850374162197,-0.0156745873391628,0.0170149151235818
1783197267475700000,6.650699951171875,-0.0054296238332986,-0.0659786389507353,-0.0745271254569292,0.0282833985984325,-0.0016597025096416,0.015506500378251
1783197267485636600,6.66063671875,-0.0408192093834281,-0.0128626964434981,-0.0624286913841962,0.034263115376234,0.0141346836462616,0.0172209274023771
1783197267495573800,6.67057373046875,-0.0351733124509453,0.0068269234105944,-0.0362198988944292,0.0338617749512195,0.0221614502370357,0.0158512648195028
1783197267505511000,6.680510986328125,-0.0075175360232591,-0.0327567528285086,0.0133650930076837,0.0236547775566577,0.0141463568434119,0.0168157629668712
1783197267515447800,6.69044775390625,-0.0117819154694676,-0.0552709285840392,0.0629126755088567,0.0089442748576402,0.006988045759499,0.0141150504350662
1783197267525385000,6.700385009765625,-0.0455599741697311,-0.0544242486268281,0.0761392368286848,0.0049510318785905,0.0038114720955491,0.0113281514495611
1783197267535321600,6.710321533203125,-0.0825187087327241,-0.0319943901538848,0.0732552058249711,0.0063968622125685,0.0149541376158595,0.0039472011849284
1783197267545258800,6.7202587890625,-0.1049070661514997,-0.0081812606289982,0.0762906279981136,0.0072927973233163,0.0199160519987344,-0.0045070648193359
1783197267555196000,6.73019580078125,-0.072908584344387,-0.0228372702300548,0.0954758054614067,0.0018218653276562,0.0182984471321105,-0.0104741435497999
1783197267565132800,6.7401328125,-0.0403425317823886,-0.0210394270278513,0.1103735148638486,-0.0074994973838329,0.0086163692176342,-0.0118722571060061
1783197267575070000,6.750070068359375,-0.0239846866995096,0.0012757190242409,0.0866501094490289,-0.004691993817687,0.0116238761693239,-0.0036992817185819
1783197267585006600,6.760006591796875,-0.0024452011950314,0.0312358268715441,0.0962076268672943,0.0016239285469055,0.0089216995984315,-0.0026470345910638
1783197267594943700,6.76994384765625,0.0164198044031858,0.0579274344421923,0.0574392125338315,0.0015637408941984,-0.0052782744169235,0.0019501140341162
1783197267604881000,6.779880859375,0.0391889778330922,0.0206748314991593,0.0308802914321422,-0.0011767596006393,-0.0108027793467044,0.0101042836904525
1783197267614817800,6.78981787109375,0.0508425907477736,-0.002560498137772,0.0135386960089206,0.0001470977440476,-0.0118491351604461,0.0134175214916467
1783197267624755000,6.7997548828125,0.0272657541967928,0.020716332553327,0.0014835165560245,-0.001223849132657,-0.0082019595429301,0.0155317550525069
1783197267634691800,6.80969189453125,0.0226983001507818,0.0243600958831608,-0.0073743281602859,-0.001053406856954,-0.0084408447146415,0.0137564921751618
1783197267644627700,6.819627685546875,0.0376532926984131,0.0057571022219955,-0.0158399586886167,-0.0054015507921576,-0.0097788162529468,0.014226539991796
1783197267654564900,6.82956494140625,0.025319150173664,-0.0102039986282587,-0.0377256272822618,-0.0009463485330343,-0.0048466427251696,0.0122992107644677
1783197267664502000,6.839501953125,0.0034422494083642,0.0016042203262448,-0.0646773470938205,0.0047265486791729,0.0073191663250327,0.0084990467876195
1783197267674438700,6.849438720703125,-0.0297531870983541,0.009150544052571,-0.0868295576691627,0.0135685103014111,0.0184679571539163,0.0074601471424102
1783197267684375800,6.859375732421875,-0.0335787367358803,0.0018114333361387,-0.0819973152071237,0.0257378965616226,0.0224625691771507,0.0108744911849498
1783197267694312700,6.869312744140625,-0.0180640644788742,-0.0060581309951841,-0.0981704513728618,0.0369500741362571,0.0231571197509765,0.0121208503842353
1783197267704249900,6.879249755859375,-0.0059361120507121,-0.0052148120388388,-0.0518622891843318,0.0441074892878532,0.0125369867309927,0.0165809597820043
1783197267714187000,6.88918701171875,0.0175382870391011,-0.0077511986486613,-0.0057014265120029,0.0381931401789188,0.0078903036192059,0.0209679845720529
1783197267724123600,6.89912353515625,0.0092956516116857,-0.023448680126667,0.0360603244185447,0.0298620462417602,0.0080539342015981,0.0246702302247285
1783197267734060800,6.909060791015625,-0.0308460969015955,-0.0375993705540895,0.0844628285378217,0.0159006901085376,0.0101575646549463,0.0203343369066715
1783197267743997700,6.918997802734375,-0.0568605358630418,-0.0300146145135164,0.1188099192976951,0.0014201095327734,0.0110204089432954,0.0132094686850905
1783197267753934800,6.928934814453125,-0.076095982208848,-0.0483766390256583,0.1354769764602184,-0.010699669830501,0.0117724863812327,0.0010076637845486
1783197267763872000,6.9388720703125,-0.0683886227019131,-0.0496475357443094,0.1631540879368782,-0.0188881680369377,0.0049397926777601,-0.0057385880500078
1783197267773808600,6.94880859375,-0.0594336012214422,-0.0290799640119075,0.1388759712487459,-0.0196975022554397,-0.0021569989621639,-0.013288383372128
1783197267783745800,6.958745849609375,-0.0394449984207749,-0.0134711837306618,0.1145855796009302,-0.0132273063063621,-0.0022608833387494,-0.013376316986978
1783197267793682700,6.9686826171875,-0.0354255336463451,0.0077243106417357,0.1038859064102172,-0.0138270501047372,-0.0014286455698311,-0.0123307593166828
1783197267803619800,6.978619873046875,-0.0088813717223703,0.0205013746283948,0.1150911910355091,-0.0165296085178852,-0.0086565958335995,-0.0099512571468949
1783197267813557000,6.988556884765625,0.0158690386526286,0.0176923085570335,0.1074649339407682,-0.0232865810394287,-0.0133999530225992,-0.003103204537183
1783197267823493600,6.99849365234375,0.0361915495827794,0.0030053192958235,0.1223532909929752,-0.0341459810733795,-0.017339788377285,-0.001538498327136
1783197267833430800,7.0084306640625,0.0154632343307137,0.0304980141162872,0.1143663838922977,-0.0374493636190891,-0.017260693013668,-0.0041025900281965
1783197267843368000,7.018367919921875,0.0202244573831558,0.0332319691248238,0.0842296043038368,-0.0406720750033855,-0.0131966825574636,-0.0058176782913506
1783197267853304800,7.028304931640625,0.0303571443408727,0.0201565067134797,0.0389092841088771,-0.0391886942088604,-0.0108895860612392,-0.003082611830905
1783197267863242000,7.038241943359375,0.0445908368766307,0.0312865341454744,-0.0145317986994981,-0.0300046410411596,-0.0135946236550807,-0.0006491641979664
1783197267873178600,7.0481787109375,0.0363102075263857,0.0333573490701615,-0.0496235703468322,-0.0179168209433555,-0.0172514095902442,0.0040984535589814
1783197267883115800,7.05811572265625,0.0465729506045579,0.0309714768469333,-0.0805880329310893,-0.0076541220769286,-0.0213653109967708,0.0044841589406132
1783197267893053000,7.068052978515625,0.0355798474252224,0.0149273738883435,-0.1257891106605529,0.001328719779849,-0.018383901566267,0.0123639199882745
1783197267902989800,7.07798974609375,0.001208499006927,0.0045407121695578,-0.1378045426249504,0.0111335534602403,0.0002744067460298,0.011185323819518
1783197267912925700,7.08792578125,-0.0190622817359864,-0.001997311297059,-0.1119815345823764,0.0109380772337317,0.0164592340588569,0.0058800396509468
1783197267922862800,7.09786279296875,-0.0515527848437428,-0.0197340435177087,-0.0911667100906372,0.0017400681972503,0.0312035344541072,-0.0016356541309505
1783197267932799700,7.1077998046875,-0.0792209823615849,-0.0232766845606267,-0.0457020129889249,-0.0025963569059967,0.0296956524252891,-0.0012202011421322
1783197267942737000,7.11773681640625,-0.0578958702601492,-0.0519075896307826,-0.069818217113614,0.0004332046955823,0.0310378037393093,-0.0061193462461233
1783197267952673800,7.127673828125,-0.0493166963547468,-0.0565751430504024,-0.057451487493515,0.0099779739975929,0.0285592004656791,-0.0111183654516935
1783197267962610700,7.137610595703125,-0.0423218690313398,-0.0259891583897173,-0.0653092152565717,0.0242057256400585,0.0143209621310234,-0.0070821470580995
1783197267972547800,7.1475478515625,-0.0211056241318583,-0.0195849904358387,-0.0581055674880743,0.0357065871357917,0.0040329042822122,0.0049872985109686
1783197267982484700,7.157484619140625,-0.0245791454613208,-0.0070420274659991,-0.0164689042419195,0.0454951152205467,-0.0032728239893913,0.0036499833222478
1783197267992422000,7.167421875,-0.0336420112304389,-0.0037095220424234,0.0302595291852951,0.0430284924805164,-0.0033047823235392,-0.0006867081392556
1783197268002359000,7.177359130859375,-0.0320918591789901,-0.0019137246668338,0.0807388395786285,0.0223555117845535,-0.0004398040473461,-0.0062764543108642
1783197268012295700,7.187295654296875,-0.0328108211033046,0.007351824067533,0.1161047519922256,0.0030420022085309,0.0131532363593578,-0.0087531944736838
1783197268022232800,7.19723291015625,-0.0405151118703186,0.0190682730853557,0.1525385858982801,-0.0174344480037689,0.0195535961538553,-0.0145555343478918
1783197268032169700,7.207169677734375,-0.0215970609106123,0.0149986855588853,0.1514034443885087,-0.0305443927645683,0.0143023757264018,-0.01623678766191
1783197268042107000,7.21710693359375,0.0098418873175978,0.0162877024561166,0.1405091254085302,-0.0378573574125766,0.0015319352969527,-0.0143718142062425
1783197268052044000,7.2270439453125,0.0303245572455227,0.0023540157802402,0.1110989065289497,-0.0341070927679538,-0.0015820986591279,-0.0175018273293972
1783197268061980700,7.236980712890625,0.0065754328675568,-0.0036342648491263,0.0393909301459789,-0.0338219441473484,-0.0037631774321198,-0.0144894877448678
1783197268071917800,7.246917724609375,-0.0159231069274246,0.0078453066729009,-0.0346276612669229,-0.0145576996728777,0.0033951331861317,-0.0106654549017548
1783197268081854700,7.256854736328125,-0.0112125911489129,0.0203000068373978,-0.0589256516993045,-0.0011429460719227,0.0063831428997218,-0.0119868582114577
1783197268091790800,7.266790771484375,0.0339202436499297,0.0219191324718296,-0.0706394703686237,0.0089096873998641,-0.0029831947758793,-0.0084496475756168
1783197268101727700,7.276727783203125,0.0675967416718602,0.0052729719668626,-0.0481201800465583,0.0140399076044559,-0.001098302192986,0.0004435752052813
1783197268111665000,7.286664794921875,0.0736950585469603,0.0161611534669995,-0.0159884272485971,0.009972995147109,0.0013640564866364,0.0005253343842923
1783197268121601800,7.296601806640625,0.0559291002318263,0.0408766386590898,0.0063519993752241,0.00282449927181,0.0091126905754208,0.0006251612212508
1783197268131539000,7.3065390625,0.0641661827012896,0.0335506796851754,0.0391261417299509,-0.008255049586296,0.0208694823086261,0.0019937597680836
1783197268141475800,7.316475830078125,0.0569726179353892,0.0280468215718865,0.0563297899872064,-0.0179995559155941,0.0203850530087947,0.002541039371863
1783197268151412700,7.326412841796875,0.0538823968350887,0.0360590092442929,0.0589770896255969,-0.0264015607535839,0.0111385565251111,0.0029546285513788
1783197268161350000,7.336349853515625,0.0485816600784659,0.0376367799550294,0.0566074378848075,-0.0292184799909591,-0.0018895929679274,0.0093652829527854
1783197268171286800,7.346286865234375,0.0400955712839961,0.0344708632700145,0.0312613997042179,-0.0244687348604202,-0.0095011731609702,0.0114420149475336
1783197268181224000,7.356223876953125,-0.0023950784429907,0.0362644686885178,0.0094230773836374,-0.015523524954915,-0.0124006336554884,0.0124372476711869
1783197268191160600,7.36616064453125,-0.0100274730175733,0.0293602422580122,0.0061176060974597,-0.0082821249961853,-0.0104389479383826,0.0126524316146969
1783197268201097500,7.376097412109375,-0.0245128022268414,0.0223094469636678,-0.0035141456007957,0.0001221904531121,-0.0030619502067565,0.0149250058457255
1783197268211034600,7.38603466796875,-0.0407858916357159,0.0147264444887638,0.0016465981632471,0.001923818141222,-0.0012510009109973,0.0108314603567123
1783197268220971500,7.395971435546875,-0.0325442791216075,0.0182740539677441,-0.0065764557808637,0.002211126498878,-0.0022959941998124,0.0115776667371392
1783197268230907600,7.40590771484375,-0.0157278766162693,0.0009947101257741,-0.0058843818634748,0.0062122591771185,-0.0018568383529782,0.0122583704069256
1783197268240844500,7.415844482421875,-0.0182828217960894,-0.0178485220320522,-0.0093014968305826,0.0047776978462934,0.0064336778596043,0.0113008357584476
1783197268250781400,7.425781494140625,-0.0242073895394802,-0.0136231594219803,0.0167599961429834,0.0046256305649876,0.0103602427989244,0.0105815157294273
1783197268260718600,7.435718505859375,-0.0373057944349944,-0.0072127078577876,0.0420861605793237,0.0012441352009773,0.0118973143398761,0.008556636981666
1783197268270655700,7.44565576171875,-0.023472937785089,-0.018787994839251,0.0395581034064292,0.0002984469756484,0.0062191882170736,0.0042636217549443
1783197268280592600,7.455592529296875,-0.0218168411411345,-0.02235664710626,0.0572638559669256,0.0043843556195497,0.0076422099955379,0.0034413752146065
1783197268290529500,7.465529541015625,-0.0150165134765207,-0.0215843475595116,0.0629933395296335,0.0072709564119577,-0.0012008161284029,0.0007702242583036
1783197268300466400,7.475466552734375,-0.0032414661392569,-0.0212865336567163,0.044099838489294,0.0039578061550855,-0.007952238433063,-0.0005204423796385
1783197268310403600,7.485403564453125,-0.0062073302075266,-0.0293488440811634,0.0382405910670757,-0.0010595889762043,-0.0073927082121372,0.0021421858109533
1783197268320340700,7.4953408203125,-0.0208206697106361,-0.0272987796835601,0.0522556724160909,-0.008429991081357,-0.0023162653669714,0.0001251173671334
1783197268330277600,7.505277587890625,-0.0334033801689744,-0.0213198514044284,0.0390086528301239,-0.0104236342012882,-0.0015830975025892,-0.0016576026100665
1783197268340214500,7.515214599609375,-0.0355254868894815,-0.0151677585154771,0.0297995104581117,-0.0103195970878005,-0.0027776090428233,-0.0095215821638703
1783197268350150700,7.525150634765625,-0.0316128434903919,-0.0211306124426424,0.0241670575290918,-0.0075080981478095,-0.0034625735133886,-0.013076102361083
1783197268360087600,7.535087646484375,-0.0316007146611809,-0.0336889191120862,0.0141781629562377,-0.0026064654812216,-0.0149658750742673,-0.0110002681612968
1783197268370024700,7.545024658203125,-0.0115612584561109,0.0001822246991097,-0.0253694190561771,0.0122523754835128,-0.0157286040484905,-0.0128085538744926
1783197268379961600,7.554961669921875,0.0037371407017111,0.0249383341625332,-0.0204886612772941,0.0185150224715471,-0.0151924900710582,-0.0067388946190476
1783197268389898500,7.5648984375,0.0050134442478418,0.0324438874870538,-0.0185094701588153,0.0188945233821868,-0.0152281746268272,-0.0022535985335707
1783197268399835600,7.574835693359375,0.0205067814558744,0.0203667884632945,0.0203384391516447,0.0115028703585267,-0.0183128882199525,-0.0001647314056754
1783197268409772500,7.5847724609375,0.0254950912624597,0.0241860544905066,0.032878187251091,0.0005847085267305,-0.0119154434651136,-0.0006438340060412
1783197268419709700,7.594709716796875,0.0287368496626615,0.0205050278902053,0.0469318470448255,-0.0096202017739415,-0.0094439247623085,0.0008216830901801
1783197268429646600,7.604646484375,0.0293929754838347,0.0156600720770657,0.0589770896255969,-0.0184054374694824,-0.0064870165660977,0.0017966665327548
1783197268439583500,7.61458349609375,0.0315542451709508,0.0174944478973746,0.0277262113153934,-0.0211826302111148,-0.007691940292716,0.0070704445242881
1783197268449520600,7.624520751953125,0.0166883922114968,0.0175976160109043,-0.010938158121705,-0.0167045257985591,-0.0091673312708735,0.0102273551747202
1783197268459456800,7.634456787109375,0.0231757084041833,0.0121877197913825,-0.0412748441964387,-0.0009740963578224,-0.015354354865849,0.0127887744456529
1783197268469393400,7.644393310546875,-0.0037174130879342,0.0043961891323328,-0.0595464139461517,0.0149167198687791,-0.0104195168241858,0.0139765441417694
1783197268479330600,7.65433056640625,-0.0243719324514269,-0.0042430443972349,-0.0387128847539424,0.0193431172519922,-0.0073051946237683,0.0072521110996603
1783197268489267700,7.664267822265625,-0.0135968559369444,-0.0085768358178436,0.0147176766604185,0.0180339068174362,-0.0080583365634083,0.0004522625822573
1783197268499204600,7.67420458984375,-0.0159136084467172,-0.0152379011422395,0.0692827950626611,0.007701207883656,-0.0060258628800511,-0.0013570284936577
1783197268509141500,7.6841416015625,-0.0043466509021818,-0.004789280103147,0.1235106443345546,-0.0049725100398063,-0.0026740077883005,-0.0014425159897655
1783197268519078400,7.694078369140625,-0.0191658882409334,-0.0075429627254605,0.1512964768826961,-0.0218780487775802,-0.0042278012260794,-0.0020568869076669
1783197268529015600,7.704015625,-0.0210462951600551,-0.0037744039721786,0.1070154366075992,-0.0260541513562202,0.0006838664412498,-0.0090213194489479
1783197268538952700,7.71395263671875,-0.0192903914034366,-0.0068915130794048,0.090428458943963,-0.0271507166326046,0.0018449355848133,-0.0107430405914783
1783197268548889600,7.7238896484375,-0.0166641345530748,-0.0016821078680455,0.069700728213787,-0.0245272368192672,0.0009320038370788,-0.0110969748347997
1783197268558825500,7.733825439453125,-0.019560148255527,-0.0216100665226578,0.0581616815894842,-0.0261935777962207,-0.00339962169528,-0.0138495117425918
1783197268568762600,7.7437626953125,-0.0105447748899459,-0.0384986574813723,0.0411854123473167,-0.0287656560540199,-0.0096133099868893,-0.011809529736638
1783197268578699500,7.753699462890625,-0.0167218560896813,-0.0342183498136699,0.021346739411354,-0.0260815806686878,-0.0142929526045918,-0.0087291710078716
1783197268588636700,7.76363671875,0.0026961072161793,-0.0129268477208912,0.0221732533633708,-0.0216652601957321,-0.0199681483209133,-0.0093297138810157
1783197268598573600,7.773573486328125,0.0047961482353508,-0.0078409227587282,0.0190209268122911,-0.0231458209455013,-0.008720364421606,-0.0092973131686449
1783197268608510500,7.783510498046875,-0.0110949561186134,-0.0023269816428422,0.0193429983735084,-0.038933839648962,0.0294256880879402,-0.0213531758636236
1783197268618447600,7.793447509765625,-0.0509558418639004,0.0012725041538476,0.1003022027045488,-0.0646285638213157,0.0414462722837924,-0.0276830065995454
1783197268628384500,7.803384521484375,-0.0686282766766846,0.0344122649505734,0.057727381825447,-0.0641414746642112,0.0289270207285881,-0.0205438714474439
1783197268638321700,7.81332177734375,0.0058358665466308,0.0126999070972204,0.0293874225258827,-0.0536473281681537,0.0009912797249853,-0.0192444659769535
1783197268648257500,7.823257568359375,0.0588861964717507,0.0190454767316579,-0.0337836116582155,-0.0320592150092124,-0.0266043953597545,-0.0130739212036132
1783197268658194400,7.8331943359375,0.0647086190149188,0.0675705843172967,-0.0872924990057945,-0.0179204605519771,-0.0332090482115745,-0.0086663318797945
1783197268668131600,7.843131591796875,0.0471779307603836,0.0500189994052052,-0.090409754243493,-0.0105352504178881,-0.0321967788040638,-0.0045935595408082
