time,seconds_elapsed,ax,ay,az,gx,gy,gz
1783204074926808600,0.09580859375,-0.0463718750745058,-0.004688450077176,0.2122042423099279,-0.0023014610633254,-0.0120451282709836,-0.0488417707383632
1783204074936745700,0.105745849609375,-0.0612871201336383,0.0287485401004552,0.1833142479121685,-0.0199437588453292,-0.0231112949550151,-0.0415038168430328
1783204074946683600,0.11568359375,-0.0120312140554189,0.0194143100440502,0.1691927835792303,-0.0433534793555736,-0.0161918681114912,-0.0289853662252426
1783204074956620500,0.12562060546875,0.0303352247700095,0.0010801964521408,0.1681499965280294,-0.0592277944087982,-0.0022063902579247,-0.0239918902516365
1783204074966557400,0.135557373046875,0.0323515330284833,0.0401075539827346,0.1174456452071666,-0.0704149380326271,-0.0032460880465805,-0.0262534469366073
1783204074976494600,0.14549462890625,0.0460790296077728,0.042917350706458,0.0643523529231548,-0.0775301754474639,-0.0044424459338188,-0.0300403386354446
1783204074986432500,0.1554326171875,0.0529518379867076,0.0317334011301398,0.0623626404106616,-0.0801283493638038,-0.0137613788247108,-0.03001051209867
1783204074996369700,0.16536962890625,0.0574164161801338,0.0513391420930623,0.0311187763631343,-0.0876025706529617,-0.020890437066555,-0.0280579701066017
1783204075006306600,0.175306640625,0.0796966370493173,0.0476654220163822,-0.0128220721721649,-0.0914495065808296,-0.0341212898492813,-0.0246778856962919
1783204075016243500,0.185243408203125,0.0983396704599261,0.0169970197692513,-0.1242377895653247,-0.0785186141729354,-0.0304182767868042,-0.0210780370980501
1783204075026181400,0.195181396484375,0.1218418343394994,-0.0179904147207736,-0.2301052251815795,-0.0576655231416225,-0.0161991268396377,-0.0130656510591506
1783204075036118500,0.205118408203125,0.1195329728752374,-0.0001630816072225,-0.2979150250822305,-0.0354634746909141,0.0140836797654628,-0.0049699149094522
1783204075046055700,0.2150556640625,0.1099228484869003,0.0082478961244225,-0.3152110277980566,-0.0160895101726055,0.0428807064890861,0.0044438270851969
1783204075055992600,0.22499267578125,0.0995923008695244,0.0013061141625046,-0.2746796954452991,-0.0048506557941436,0.0561903193593025,0.0098027745261788
1783204075065929700,0.2349296875,0.0872469062983989,-0.0016787468671798,-0.2316191368758678,-0.0026338398456573,0.0520523004233837,0.0178846698254346
1783204075075867600,0.24486767578125,0.0670814856261014,-0.0365355407148599,-0.1882505352705717,-0.0061451476067304,0.0399895757436752,0.0194485988467931
1783204075085804500,0.254804443359375,0.0552446250990033,-0.0458820457309484,-0.1492331146121025,-0.0043669547885656,0.0174736138433218,0.0239826310425996
1783204075095741400,0.264741455078125,0.0371370137393474,-0.043452772757411,-0.1623679059952497,0.0040739690884947,0.0019912417046725,0.025348400697112
1783204075105678600,0.2746787109375,0.0139750415995717,-0.037839024528861,-0.1489069513976574,0.0165021419525146,-0.0096315927803516,0.0235281288623809
1783204075115616500,0.284616455078125,0.0012467851907014,-0.0364957932263612,-0.1301484749138355,0.0213419236242771,-0.0157607290893793,0.0202995669096708
1783204075125553700,0.2945537109375,-0.0004655716851353,-0.0291565363794565,-0.1213192717701196,0.0216596387326717,-0.0207775924354791,0.0225078593939542
1783204075135490600,0.304490478515625,0.0013701193094253,-0.0215443078100681,-0.0927343977987766,0.0212795548141002,-0.0153447389602661,0.0244277380406856
1783204075145427500,0.314427490234375,-0.0048915714338421,-0.0277846635043621,-0.0786976891398429,0.0256007984280586,-0.007611985784024,0.0244290679693222
1783204075155364600,0.324364501953125,-0.0211409877061843,-0.0216419229656457,-0.037907998111844,0.0310197994112968,-0.0051389741711318,0.0256906077265739
1783204075165302500,0.334302490234375,-0.0496121721699833,0.0038023148924112,0.0323760829478502,0.0255611166357994,-0.008243154734373,0.0232080090790987
1783204075175239700,0.34423974609375,-0.0671077891111373,0.0174719438046216,0.09750234285295,0.0080516245216131,-0.0191391669213771,0.024188945069909
1783204075185176600,0.354176513671875,-0.055284372587502,0.0287780584558844,0.1531546719700098,-0.0164475925266742,-0.0247637629508972,0.0265634190291166
1783204075195113700,0.36411376953125,-0.0467772410050034,0.0304787248939275,0.1933411364078521,-0.0424096323549747,-0.0412468202412128,0.0340994521975517
1783204075205051600,0.3740517578125,-0.0439911174178123,0.0313590148597955,0.1965612674981355,-0.0571480989456176,-0.0607597976922988,0.0351181142032146
1783204075214988500,0.383988525390625,-0.0325374109894037,0.0242725637301802,0.2149836438953876,-0.0758809745311737,-0.0816982239484787,0.0397627055644989
1783204075224925400,0.393925537109375,-0.0232008428454399,0.0294417830616235,0.223250536981225,-0.0922687426209449,-0.1008191853761673,0.0494600757956504
1783204075234862600,0.403862548828125,-0.0224836344867944,0.0429068293124437,0.2312766070485115,-0.1106735840439796,-0.1127156317234039,0.0458968132734298
1783204075244800500,0.413800537109375,-0.0158145319864153,0.0306663564205169,0.2156570131123066,-0.1310856491327285,-0.1151486933231353,0.0476635545492172
1783204075254737700,0.423737548828125,-0.0109492640376091,0.0056070262268185,0.1779752249717712,-0.1435971707105636,-0.1144926995038986,0.0462269037961959
1783204075264674600,0.433674560546875,-0.017682079423964,-0.0067938979238271,0.1542816301733255,-0.1594035625457763,-0.1071674078702926,0.0441938489675521
1783204075274611500,0.443611572265625,-0.0121907885313034,-0.006889174991846,0.1381979258567094,-0.1671868711709976,-0.0965147167444229,0.0423137433826923
1783204075284548600,0.453548583984375,0.0007911503776907,-0.0182668935745954,0.0956646060317754,-0.1706678867340088,-0.095643863081932,0.0385696068406105
1783204075294486500,0.463486572265625,0.0157364983141422,-0.0275841724961996,0.041692192825675,-0.1689344495534896,-0.0927920565009117,0.0338317640125751
1783204075304423700,0.473423583984375,-0.0014183423653244,-0.0454459924012422,0.0491126982152462,-0.1676553338766098,-0.0869099348783493,0.0288830772042274
1783204075314360600,0.483360595703125,-0.0123316583067178,-0.050077159333229,0.0311737214207649,-0.1720935851335525,-0.086898349225521,0.0245077665895223
1783204075324297700,0.493297607421875,-0.01942395465523,-0.0661652475640177,0.0071299980103969,-0.1783645302057266,-0.0838053524494171,0.0155342454090714
1783204075334235600,0.503235595703125,-0.032072423826158,-0.0904755129560828,-0.0282750773698091,-0.1844444721937179,-0.087722398340702,0.0070623317733407
1783204075344172500,0.513172607421875,-0.0422901587188243,-0.0970931775301694,-0.066852937567234,-0.1923905462026596,-0.0916758626699447,-0.0072881113737821
1783204075354109400,0.523109375,-0.0396764690890908,-0.0799982503443956,-0.0945727191418409,-0.1959710121154785,-0.0962109267711639,-0.0122495023533701
1783204075364046600,0.533046630859375,-0.0195852826967835,-0.0913020269080996,-0.1487730958849191,-0.1943544745445251,-0.0999151170253753,-0.0186719819903373
1783204075373984500,0.542984619140625,-0.0073018474459648,-0.1212865385442972,-0.2096995660126209,-0.1863055527210235,-0.0949568599462509,-0.0229131039232015
1783204075383921700,0.552921630859375,-0.0144967273861169,-0.1299514910370111,-0.2713818229436874,-0.1705470830202102,-0.0811909809708595,-0.0281848311424255
1783204075393858600,0.562858642578125,-0.007532733592391,-0.1452770704627037,-0.3456324695467949,-0.1428555995225906,-0.0649973452091217,-0.0335111171007156
1783204075403795500,0.57279541015625,0.0407660178914666,-0.1911106008768081,-0.4472825797289609,-0.1093711405992508,-0.0514101609587669,-0.0377508662641048
1783204075413733400,0.5827333984375,0.0588935029953718,-0.2120581118375062,-0.4972556941658258,-0.0731035098433494,-0.0332450456917285,-0.0432184189558029
1783204075423670500,0.59267041015625,0.0541173746347427,-0.1991860630437731,-0.4820066871076822,-0.0412161536514759,-0.0138958496972918,-0.0387933105230331
1783204075433607700,0.602607666015625,0.0225868026003241,-0.1573278660014271,-0.4533142611086368,-0.0097139505669474,-0.0077849412336945,-0.0428229011595249
1783204075443544600,0.612544677734375,-0.011188041229546,-0.1029074167668819,-0.3781891697585582,0.0111721567809581,-0.0044075204059481,-0.0431768335402011
1783204075453481500,0.6224814453125,-0.0064969608038663,-0.0764247757717967,-0.3076356241077184,0.0218574367463588,-0.0096369627863168,-0.0418333858251571
1783204075463419400,0.63241943359375,-0.0126923083126544,-0.0426706824690103,-0.2371352699488401,0.0223184283822774,-0.0211143884807825,-0.0384674146771431
1783204075473356500,0.6423564453125,0.0006517419070005,-0.0257633868098258,-0.1595651235342025,0.0200261455029249,-0.0307436361908912,-0.0372983999550342
1783204075483293400,0.65229345703125,0.0019765607699751,-0.0144713006839156,-0.1080038631230592,0.0187443662434816,-0.0343423672020435,-0.0375719033181667
1783204075493230600,0.662230712890625,-0.001987958946824,-0.0131032272011041,-0.0901736074000597,0.0174914635717868,-0.0356410518288612,-0.0361079648137092
1783204075503168500,0.67216845703125,0.0056181321427226,-0.0183525260314345,-0.0554126751422882,0.0155702605843544,-0.0349323861300945,-0.0367910638451576
1783204075513105700,0.682105712890625,0.0153682495236396,-0.016581716966629,-0.0424070630967617,0.0183910802006721,-0.0322878658771514,-0.0336440056562423
1783204075523042600,0.69204248046875,0.0308951967403292,-0.0113993458926677,-0.0162532156646251,0.017471756786108,-0.0238949134945869,-0.0343502759933471
1783204075532979500,0.7019794921875,0.033709961900115,0.0086164371758699,0.0374304437279701,0.0184725150465965,-0.0162276066839694,-0.0291292835026979
1783204075542917400,0.71191748046875,0.0240980839461088,0.027771804022789,0.0712660778343677,0.0084001738578081,-0.0143125290051102,-0.0319410488009452
1783204075552854500,0.7218544921875,0.0294271700143814,0.0477668365642428,0.1147977610468864,-0.0062904059886932,-0.0225286912173032,-0.0352453216910362
1783204075562791700,0.731791748046875,0.0238689513653516,0.0487280828118324,0.1604693788975477,-0.0259629115462303,-0.0303575843572616,-0.0389729477465152
1783204075572728600,0.741728515625,0.0240180044472217,0.0488113771811127,0.1624421402752399,-0.042456779628992,-0.0326048955321311,-0.0325696468353271
1783204075582666800,0.751666748046875,0.0126738958731293,0.0595192336782813,0.155470547696948,-0.057585135102272,-0.0425784364342689,-0.0343526303768157
1783204075592603400,0.761603271484375,0.0063420625030994,0.0564560467153787,0.1404477506101131,-0.0730713605880737,-0.0454507172107696,-0.0285638496279716
1783204075602540500,0.77154052734375,0.0161269589364528,0.0632131197601556,0.1135305175900459,-0.0804286003112793,-0.0431886278092861,-0.0250223781913518
1783204075612477400,0.7814775390625,0.0316582900673151,0.0413373880386352,0.0770008220940828,-0.0893646106123924,-0.0485119670629501,-0.0230626966804265
1783204075622415600,0.79141552734375,0.0462505867823958,0.0190592129960656,0.021561258944869,-0.0927838385105133,-0.0470791831612587,-0.0194623693823814
1783204075632352500,0.8013525390625,0.0379687883883714,0.0141436761647462,-0.0130079501330852,-0.0952454805374145,-0.0392652414739131,-0.0160333663225173
1783204075642289700,0.81128955078125,0.0462263291239738,0.0091232176542282,-0.0449701915830373,-0.0928134769201278,-0.0327633991837501,-0.0131052220240235
1783204075652226600,0.8212265625,0.0542842556342482,-0.0004290390670299,-0.0978372738957405,-0.0877280682325363,-0.0315239839255809,-0.0085382107645273
1783204075662164500,0.83116455078125,0.0559118568360805,-0.0140413848340511,-0.1521510478854179,-0.0789255201816558,-0.0320251919329166,-0.0060289804823696
1783204075672101400,0.841101318359375,0.0398152930378913,-0.0278162276864051,-0.1609580391973257,-0.0742443203926086,-0.0249741841107606,-0.0013087496627122
1783204075682038500,0.85103857421875,0.0269587340742349,-0.0164691965028643,-0.1377045893818139,-0.0708503872156143,-0.0165322292596101,0.0010526753030717
1783204075691975700,0.8609755859375,0.0337181452065706,-0.0187476628288626,-0.1494657543241977,-0.065580278635025,-0.013817623257637,0.0075320056639611
1783204075701913600,0.87091357421875,0.0266299405112862,-0.0473813443779945,-0.1922586018681526,-0.0574453920125961,-0.0101129002869129,0.0123954713344573
1783204075711850800,0.880850830078125,0.0173190913304686,-0.0589835193663835,-0.2235579954952001,-0.0433521196246147,-0.0034168283455073,0.0097370129078626
1783204075721787400,0.890787353515625,0.0046931262522935,-0.0517316485419869,-0.2525935358434915,-0.0254439543932676,0.0089399730786681,0.0123807340860366
1783204075731724500,0.900724609375,-0.0129544663801789,-0.0438747975617647,-0.2882797662526369,-0.004233555868268,0.0356490574777126,0.0107683734968304
1783204075741662500,0.910662353515625,0.0032370822250843,-0.0645545974969863,-0.297998027190566,0.0143561083823442,0.059781290590763,0.0113002071157097
1783204075751599600,0.920599609375,0.0257075649693608,-0.0844601981893181,-0.3278361160933971,0.0298995003104209,0.0842275843024253,0.0141278579831123
1783204075761536500,0.93053662109375,0.0454515453591942,-0.0813666160881519,-0.3431131802022457,0.0502250120043754,0.1046982407569885,0.0194794796407222
1783204075771473700,0.9404736328125,0.0578863717794418,-0.0637839053854346,-0.3506926755458116,0.0688368082046508,0.1154961735010147,0.0233562886714935
1783204075781411600,0.95041162109375,0.0554132596641778,-0.0569382772743701,-0.3100210579395294,0.0859817042946815,0.1127203628420829,0.0230678655207157
1783204075791348500,0.960348388671875,0.0427145216107368,-0.0346846521511673,-0.2510691027551889,0.0924144089221954,0.1006122827529907,0.0245599914342165
1783204075801285600,0.97028564453125,0.021635785485804,-0.0142594114989042,-0.1876777038186788,0.0963577553629875,0.0768510326743125,0.0269219502806663
1783204075811223600,0.9802236328125,0.0187765966624021,0.0016384148567914,-0.1129343052625656,0.0915023162961006,0.0551590994000434,0.0296874660998582
1783204075821160400,0.990160400390625,0.0069686699688434,0.0117687637269496,-0.0590320346832275,0.0850806385278701,0.0394376628100872,0.0307058598846197
1783204075831097600,1.00009765625,-0.0020785598397254,0.0180757549166679,-0.0198515324175357,0.0816257745027542,0.0321366377174854,0.0343962870538234
1783204075841034800,1.01003466796875,-0.0152075060039758,0.0158446348637342,-0.0080558806836605,0.0779104009270668,0.0307019930332899,0.0376336276531219
1783204075850972700,1.01997265625,-0.0322100787311792,0.0087491236448287,0.0327618673950433,0.0700114667415618,0.0375922918319702,0.0396329089999198
1783204075860909600,1.02990966796875,-0.0364162982493639,0.0041088966235518,0.0880102918863296,0.0639554411172866,0.0432198196649551,0.0365321934223175
1783204075870846500,1.039846435546875,-0.0524503182053565,-0.0202343942552804,0.1216483575940132,0.0510418191552162,0.0397875793278217,0.0294733066111803
1783204075880783600,1.04978369140625,-0.0613093319654464,-0.0239542915612459,0.1419908883988857,0.0390413478016853,0.0334593765437603,0.0222694538533687
1783204075890721500,1.059721435546875,-0.0642921471685171,-0.0286094238907098,0.1828840398013591,0.0240129642188549,0.0279776006937026,0.0137879932299256
1783204075900658700,1.06965869140625,-0.0647170945823192,-0.0175949856624007,0.2039227361768484,0.0081011103466153,0.0158133469521999,0.0078297024592757
1783204075910595600,1.079595703125,-0.0719236649602651,-0.006027589726448,0.221538472366333,-0.0059742741286754,0.0013398109003901,0.0011916821822524
1783204075920532500,1.089532470703125,-0.0603162292748689,-0.0031377135038375,0.2070049201011657,-0.0224054437130689,-0.01309425663203,0.001043610740453
1783204075930470400,1.099470458984375,-0.0611523878380656,-0.0088759648948907,0.2097825681209564,-0.0422142781317234,-0.0219600237905979,-0.0049644354730844
1783204075940407600,1.109407470703125,-0.0617716887801885,-0.0124228437215089,0.1925567080318927,-0.0574347786605358,-0.03576585277915,-0.0107940947636961
1783204075950344400,1.119344482421875,-0.0618421236678957,-0.0150035078644752,0.1632914505809545,-0.0745957046747207,-0.0490923523902893,-0.0132871689274907
1783204075960281600,1.129281494140625,-0.04874181907624,-0.005548281776905,0.1018868415474891,-0.0873903259634971,-0.0507080927491188,-0.0199719686061143
1783204075970219500,1.139219482421875,-0.0357417599886655,-0.0004261164575815,0.0186772279411554,-0.0898085236549377,-0.0368386469781398,-0.0114081278443336
1783204075980156700,1.14915673828125,-0.0153875387459993,-0.0192930217519402,-0.0542237576186656,-0.080393448472023,-0.0170494951307773,-0.0081875678151845
1783204075990093600,1.159093505859375,0.0175151984244585,-0.0454582673609256,-0.0748643945872783,-0.075833261013031,0.010168744251132,0.0060682008042931
1783204076000031500,1.169031494140625,0.0832119516938924,-0.1009594975695014,-0.0815256060421466,-0.0823681205511093,-0.0155797619372606,0.0078346757218241
1783204076009968600,1.17896875,0.0193353995889425,0.0047983401924371,-0.2109966200858354,-0.0752183645963668,-0.0350669771432876,-0.0102578680962324
1783204076019905500,1.188905517578125,0.0137222358822822,0.0364554612159729,-0.1740297022163867,-0.0629220232367515,-0.0323739871382713,-0.0192985013127326
1783204076029842700,1.1988427734375,0.0286754748642444,-0.0243517664462327,-0.153847914931178,-0.0572387054562568,-0.029722936451435,-0.0121066337451338
1783204076039780600,1.208780517578125,0.0266407541662454,-0.0269897137343883,-0.1966746647447347,-0.0478185713291168,-0.0240839608013629,-0.0035613486543297
1783204076049717800,1.2187177734375,0.019146014496684,-0.0013742109626531,-0.2283423071622848,-0.0389390923082828,-0.0093003939837217,0.0023425666149705
1783204076059654400,1.228654296875,0.0364385100811719,0.0055833530902862,-0.2186813293695449,-0.0246240682899951,0.0054809493012726,0.0064526228234171
1783204076069591600,1.238591552734375,0.0648348757430911,-0.0274406723722815,-0.2218886009782552,-0.0147005645558238,0.0058025661855936,0.0130951255559921
1783204076079529500,1.248529541015625,0.0746294167876243,-0.0452212437346577,-0.2363169393032789,-0.0079670278355479,-0.005884715821594,0.013863181695342
1783204076089466600,1.258466552734375,0.0768465083152055,-0.0460799063906073,-0.2224655240833759,0.0018807779997587,-0.0084346001967787,0.0110084926709532
1783204076099403500,1.268403564453125,0.0556698647737503,-0.0524386277675628,-0.210730662626028,0.0153736835345625,0.0045483103021979,0.0124892108142375
1783204076109341700,1.278341796875,0.0210746444717049,-0.0543061752051115,-0.2043108587116003,0.0247139073908329,0.0190216433256864,0.0148228937759995
1783204076119278600,1.288278564453125,-0.0008370353460311,-0.0318622882068157,-0.1617372068762779,0.0350813269615173,0.0188096556812524,0.012318723835051
1783204076129215500,1.298215576171875,-0.0168494279921054,-0.0147340432733297,-0.1221972236484289,0.0347140580415725,0.0179993752390146,0.0125184170901775
1783204076139152600,1.308152587890625,-0.0185091778978705,-0.0212809806987643,-0.0677431644052267,0.0284417793154716,0.0166598055511713,0.0079324543476104
1783204076149090600,1.318090576171875,-0.0187538003087043,-0.0222393043369054,-0.0347036491125822,0.0259404703974723,0.0150702279061079,0.0063810292631387
1783204076159027500,1.32802734375,-0.0177393625691533,-0.0267930221185088,-0.0068570262879133,0.0237979590892791,0.0099929105490446,0.0054305475205183
1783204076168964600,1.337964599609375,-0.0147159230947494,-0.017957973755896,0.0164700732856988,0.0134334675967693,0.0035866887774318,0.0059615839272737
1783204076178901800,1.34790185546875,-0.008448387132585,-0.0162108378276228,0.0334989494979381,0.0081340428441762,0.0005038133822381,0.0069442903622984
1783204076188839400,1.35783935546875,-0.0016594576448202,-0.0240133282721042,0.0498445196211338,0.001882784999907,-0.0058573065325617,0.0054904255084693
1783204076198776600,1.367776611328125,-0.015276187326014,-0.0200496853381395,0.0405512060970068,5.71878626942e-05,-0.0086821215227246,0.003945792093873
1783204076208713500,1.37771337890625,-0.0232069803252816,-0.0185600313022732,0.052572483280301,-0.009689369238913,0.0010472764261066,0.0045132208615541
1783204076218651600,1.387651611328125,-0.0327878786191344,-0.0143625796124339,0.0460480499476194,-0.011549319140613,0.0054638623259961,0.0049297390505671
1783204076228588500,1.397588623046875,-0.0265738264098763,-0.0133829209253191,0.0311211144506931,-0.0201201066374778,0.0048169288784265,-0.000248291529715
1783204076238525700,1.407525634765625,-0.0229416073873639,-0.0295294613450765,0.0159340667128562,-0.0227350629866123,-0.0040620500221848,-0.0040424969047307
1783204076248462300,1.41746240234375,-0.0194227856114506,-0.0211491710126399,0.0065910688281059,-0.0291072204709053,-0.0062996633350849,-0.0071776579134166
1783204076258400500,1.427400390625,-0.0139206810638308,-0.0236637841820716,-0.0020797288835048,-0.0284307785332202,-0.0087455101311206,-0.0087435971945524
1783204076268337400,1.43733740234375,-0.0091132807821035,-0.0315761647418141,-0.0404489147663116,-0.0261480212211608,-0.0147238736972212,-0.0044126762077212
1783204076278274600,1.447274658203125,-0.0052314709126949,-0.0263797651425004,-0.0572977582365274,-0.0210683085024356,-0.0074076373130083,-0.004098689649254
1783204076288212500,1.45721240234375,0.0081844754993915,-0.019252397480607,-0.0561322215884923,-0.0236669555306434,-0.0045212465338408,0.0001510062720626
1783204076298149600,1.467149658203125,0.0132820908993482,-0.029700141736865,-0.1019791960060596,-0.0180527456104755,-0.0007592649199068,0.0039105908945202
1783204076308086500,1.47708642578125,0.0192582426995038,-0.0350976168662309,-0.1060392850518226,-0.0136554604396224,0.0060644266195595,0.0052927723154425
1783204076318023400,1.4870234375,0.0184644619733095,-0.0389478625535964,-0.0921130510300397,-0.011249559931457,0.0069097140803933,0.0002657892182469
1783204076327961300,1.49696142578125,0.0134027946695685,-0.0362760129958391,-0.0985848773926496,-0.0090609621256589,0.006810525432229,0.0010394810233265
1783204076337898500,1.5068984375,-0.0032186697855591,-0.0275786195382475,-0.0855611451685428,-0.0123473033308982,0.0026626519393175,0.0042717596516013
1783204076347835600,1.516835693359375,-0.0029608956322073,-0.0269838685154914,-0.0791167913347482,-0.0140182757750153,0.0052530094981193,-0.001686442643404
1783204076357773600,1.526773681640625,-0.0132937813371419,-0.0307172098249196,-0.0671785162597894,-0.0143983094021677,-0.002327412366867,-0.0018254596507176
1783204076367710500,1.53671044921875,-0.0069727616220712,-0.0198024325788021,-0.0711900899887084,-0.0135613121092319,-0.0068710488267242,-0.0038811541162431
1783204076377647600,1.546647705078125,-0.0022404724031686,-0.0198310741513967,-0.0869289263904094,-0.0108076035976409,-0.010835962370038,-0.0038121782708913
1783204076387584500,1.55658447265625,0.0058732759475708,-0.0197369661271572,-0.0992892262697219,-0.0075281858444213,-0.006121780257672,-0.0001189506147056
1783204076397522400,1.5665224609375,0.0011240355938673,-0.016518296341598,-0.0803366885185241,-0.0007890574634075,0.0022733025252819,-0.0016654483042657
1783204076407459600,1.57645947265625,0.005522270552814,-0.0156488200306892,-0.082858315950632,-0.0003373110666871,-0.0009800777770578,-0.0027723910752683
1783204076417396500,1.586396484375,0.0084667995721101,-0.0132081488803029,-0.0816162069350481,-0.002786885946989,0.0007645590230822,2.47268471866e-05
1783204076427334700,1.596334716796875,0.0107347445040941,-0.0088058222681283,-0.0754144296854734,-0.0018287692219018,0.0021744731348007,0.0009904347825795
1783204076437271600,1.606271484375,0.0085085928872227,-0.0159241298407316,-0.0664765054702758,0.0002130763605237,0.007582554128021,0.0041239103302359
1783204076447208700,1.616208740234375,0.0041389995008707,-0.0186366036698222,-0.0464957937151193,-0.0009596180170774,0.0063367974944412,0.006901008542627
1783204076457145300,1.626145263671875,-0.0012426935374736,-0.0260720143675804,-0.0475672223389148,0.0017871661111712,-0.000292875804007,0.0043409117497503
1783204076467083500,1.63608349609375,-0.007381634683907,-0.0285112242132425,-0.0335194077640771,-0.0051634889096021,-0.0056367353536188,0.0030248221009969
1783204076477020400,1.6460205078125,-0.0184159466564655,-0.0317757789671421,-0.0160375270873308,-0.0089294649660587,-0.004815683234483,-0.0009856321848928
1783204076486957600,1.65595751953125,-0.0199906486272811,-0.0262011937052011,-0.0211538471877574,-0.0124501725658774,-0.0045451307669281,-0.0003159351181238
1783204076496895500,1.6658955078125,-0.0091281860902905,-0.0306546659827232,-0.0480997217804193,-0.0145783042535185,-0.0094408197328448,-0.005952781997621
1783204076506832600,1.67583251953125,-0.0042503509208559,-0.0326525618016719,-0.0505278257101774,-0.0165486186742782,-0.0111253447830677,-0.0084722219035029
1783204076516769500,1.68576953125,-0.0097749595612287,-0.0177829094499349,-0.0595984363943338,-0.0120015377178788,-0.002878067549318,-0.0056974738836288
1783204076526706400,1.69570654296875,-0.0219423672169446,-0.0105038583576679,-0.0639478637754917,-0.0110868541523814,0.0014145574532449,-0.0060764420777559
1783204076536644400,1.705644287109375,-0.0089300331696867,-0.0141854694798588,-0.06460369733572,-0.0083339447155594,0.0016310722567141,-0.0052628461271524
1783204076546581500,1.71558154296875,-0.0052247489109635,-0.014763269367814,-0.0751040485620498,-0.0064723975956439,-0.0021374220959842,-0.0104391882196068
1783204076556518700,1.7255185546875,0.0054562195792794,-0.0079226096928119,-0.0714671533644199,-0.006524596363306,0.0019052564166486,-0.0074790846556425
1783204076566456600,1.73545654296875,-0.003347556862235,-0.0082388360351324,-0.0450374116003513,-0.0113427694886922,0.0060974000953137,-0.0071425484493374
1783204076576393700,1.745393798828125,0.0004801847323775,-0.0009963175609707,-0.0305360080391168,-0.0145100653171539,0.0047343946062028,-0.0035217150580137
1783204076586330600,1.75533056640625,-5.87444499135e-05,0.0018076339438557,-0.0374725293040275,-0.0165275856852531,0.0014009773731231,-0.003109635785222
1783204076596268500,1.7652685546875,0.0101683427929878,-0.0048357495933771,-0.0387660762459039,-0.0182634331285953,-0.0028947014361619,-0.0045040668919682
1783204076606205400,1.775205322265625,0.0127905079901218,-0.0163794723927974,-0.0371761767059564,-0.0195794850587844,-0.0077931387349963,-0.0043828492052853
1783204076616142600,1.785142578125,0.0213712893307209,-0.0186348501041531,-0.0476642529726028,-0.0171887651085853,-0.0088530769571661,-0.0043647396378219
1783204076626079500,1.79507958984375,0.029627368761599,-0.0054503743603825,-0.0469493827015161,-0.0137012097984552,-0.010368637740612,-0.0046711363829672
1783204076636017700,1.805017578125,0.0478118447497487,-0.0045370589077472,-0.0680266575217247,-0.0086830146610736,-0.008858093060553,-0.0043046851642429
1783204076645954600,1.81495458984375,0.0552487167522311,-0.000926759456098,-0.0607698182612657,-0.0113560622557997,-0.0068859416060149,-0.0018326061544939
1783204076655891700,1.8248916015625,0.0621294161766767,0.0124023854553699,-0.0657236412763595,-0.011141943745315,-0.0041434182785451,0.0046519245952367
1783204076665829600,1.83482958984375,0.0630208120584487,0.003963058412075,-0.0987485435217618,-0.0090046292170882,0.0032041622325778,0.0111182583495974
1783204076675766500,1.8447666015625,0.0616664748400449,0.004218494477868,-0.0826724379897117,-0.0058658281341195,0.0049450704827904,0.0124040329828858
1783204076685703400,1.854703369140625,0.0566357871964573,-0.0067737319186329,-0.0742892250478267,-0.0044376421719789,-0.006029631011188,0.0119380680844187
1783204076695641600,1.8646416015625,0.0571498741984367,-0.0214975460588932,-0.0844739344537258,-0.0009848540648818,-0.0116781964898109,0.0127657782286405
1783204076705578500,1.87457861328125,0.0380053210064768,-0.0255769243270158,-0.0784586196869611,-0.0039339940994977,-0.0065445224754512,0.0130148278549313
1783204076715515600,1.884515625,0.0026905542582273,-0.015016951867938,-0.084089319050312,0.0004924461245536,-0.0066973879002034,0.0189419575035572
1783204076725452500,1.89445263671875,-0.0311889189898967,0.0045212768167257,-0.1037958900392055,0.0080717718228697,0.0058520408347249,0.0192765854299068
1783204076735390700,1.904390625,-0.0519487984240055,-0.0125403326213359,-0.0711322223216295,0.0092046801000833,0.0119978170841932,0.0185881592333316
1783204076745327400,1.914327392578125,-0.0563818124353885,-0.0283154093801975,-0.046339726370573,0.0079513546079397,0.0070569575764238,0.0155473165214061
1783204076755264500,1.924264404296875,-0.0512169770181179,-0.0426838342115283,-0.0217827927410602,0.0003283228725194,-0.0029551964253187,0.0146186724305152
1783204076765202400,1.934202392578125,-0.0518047137781977,-0.06999357368052,-0.0052115971684455,-0.0079450532793998,-0.0071179838851094,0.0107746655121445
1783204076775139600,1.9441396484375,-0.06339139893651,-0.0798959590137004,-0.0065904843062162,-0.0137052051723003,-0.0056926598772406,0.0045553855597972
1783204076785076700,1.95407666015625,-0.0672527505397796,-0.0829699596315622,-0.0459328991353511,-0.0128821926191449,-0.0085603520274162,0.0021695045288652
1783204076795014700,1.9640146484375,-0.0598588408961892,-0.0756812639281153,-0.0628325960099697,-0.009199040941894,-0.0002446314319968,-0.0059129232540726
1783204076804951600,1.97395166015625,-0.0573529955551028,-0.0628100919172167,-0.0790951640248298,-0.0030328733846545,-0.0007436871528625,-0.007326484657824
1783204076814888400,1.983888427734375,-0.0571130493193864,-0.0532987517282366,-0.070060793697834,-0.0010714549571275,-0.0046667899005115,-0.007818104699254
1783204076824825600,1.99382568359375,-0.0401239205956459,-0.0500517326310277,-0.0501221675187349,-0.0036247102543711,-0.0074883480556309,-0.0116071160882711
1783204076834762800,2.0037626953125,-0.0360612012013792,-0.0408762002676725,-0.0360807826846837,-0.0100112380459904,-0.01297552511096,-0.0128369638696312
1783204076844700000,2.013699951171875,-0.0451627915456891,-0.0174926943317055,-0.0235533095449209,-0.0162636116147041,-0.0102812265977263,-0.0126188499853014
1783204076854636800,2.02363671875,-0.0373810516282916,-0.0164601364135742,-0.039454058510065,-0.0199917703866958,-0.0040853833779692,-0.0127139240503311
1783204076864575000,2.033574951171875,-0.0182540340930223,-0.0108043026089668,-0.0734884300589561,-0.0148110035806894,-0.0013730330392718,-0.0094709508121013
1783204076874512000,2.043511962890625,0.0087573069512844,-0.0277308874905109,-0.092071549975872,-0.0069131329655647,0.0010632267221808,-0.0140699632465839
1783204076884449000,2.053448974609375,0.0378679583624005,-0.0289329567566514,-0.0993669676810503,-0.0042500207200646,-0.0012496262788772,-0.0156519263982772
1783204076894387000,2.063386962890625,0.0448547485098242,-0.0238154676124453,-0.079913494670391,-0.0003239894285798,-0.0037588565610349,-0.0139767965301871
1783204076904323800,2.07332373046875,0.0405745869725942,-0.015686521692574,-0.0613917495518922,-0.001949249766767,-0.0049662524834275,-0.0118945594877004
1783204076914261000,2.083260986328125,0.0265279414415359,0.0082207158565521,-0.0561713845551013,-0.0050174770876765,-0.0035092374309897,-0.0114239789545536
1783204076924199000,2.093198974609375,0.0271925428301095,0.0377104297131299,-0.044403789871931,-0.0063894037157297,-0.0011527948081493,-0.0066556306555867
1783204076934135800,2.1031357421875,0.0282321150109171,0.0474751601412892,-0.0826198310196399,-0.0008452339097857,0.0071315001696348,-0.0008302321657538
1783204076944073000,2.113072998046875,0.0458285619780421,0.0412561394959688,-0.0902449190706014,0.005203416571021,0.0134285688400268,0.0041117938235402
1783204076954010000,2.123010009765625,0.0699620094984769,0.021141572228074,-0.0902373202860355,0.0102120237424969,0.0094229076057672,0.0063738832250237
1783204076963948000,2.132947998046875,0.0732432231262326,0.010850479838252,-0.097265611487627,0.0080498987808823,-0.0012541161850094,0.008000542409718
1783204076973885000,2.142885009765625,0.0638607700139284,0.0029307927548885,-0.0745206957161426,0.0074613401666283,-0.0041100904345512,0.0084426272660493
1783204076983821800,2.15282177734375,0.0466541991472244,0.0058867199510335,-0.04923603233397,0.0042049502953886,-0.0044798157177865,0.0100727900862693
1783204076993759700,2.162759765625,0.0244312614232301,0.0012160977914929,-0.0606821399778127,0.0062870094552636,-0.0040603675879538,0.0082700960338115
1783204077003697000,2.17269677734375,0.0146413965538144,0.0044344753161072,-0.0838993494361639,0.0084730815142393,-0.0006554955616593,0.0137623772025108
1783204077013634000,2.182634033203125,0.0049631753653287,0.0042117724761366,-0.0676893883913755,0.012226540595293,0.0042878640815615,0.0123514346778392
1783204077023572000,2.192572021484375,0.0076253803119063,-0.0061009472236037,-0.063909869852662,0.0127697084099054,0.0043885516934096,0.0144846718758344
1783204077033509000,2.202509033203125,0.0092845456957817,-0.0121966337502002,-0.0540215130448341,0.009980047121644,0.0050013451837003,0.0159574002027511
1783204077043445800,2.21244580078125,-0.0004573883786797,-0.0244245394214987,-0.0382780004680156,0.0102986935526132,5.86807727813e-05,0.0144693152979016
1783204077053384000,2.222384033203125,-0.0184153621345758,-0.0314767960205674,-0.04386486068964,0.010097624734044,0.0019497913308441,0.0111837740987539
1783204077063320800,2.23232080078125,-0.0387654917240142,-0.039912908193469,-0.0166144501924514,0.0069682709872722,-0.0026096450164914,0.0070980419404804
1783204077073258000,2.242258056640625,-0.0479822328805923,-0.0500780361160635,-0.0167003749102354,0.0009801527485251,-0.0074850935488939,0.005878313910216
1783204077083196000,2.25219580078125,-0.0486859972357749,-0.0429743415907025,-0.0137649059802293,-0.002445793710649,-0.0047632427886128,0.0096173482015728
1783204077093133000,2.262133056640625,-0.057421676877141,-0.0601353197500109,-0.0352343949884176,-0.0037571340799331,-0.0011205705814063,0.0067294165492057
1783204077103070000,2.272070068359375,-0.0626668840542435,-0.0606315788343548,-0.0531318707287311,4.1976571083e-05,0.0064982646144926,0.002297737635672
1783204077113006800,2.2820068359375,-0.0642813335135579,-0.0597086187705397,-0.0399532402038574,0.0011887336149811,0.0074601983651518,-0.001401392975822
1783204077122944800,2.29194482421875,-0.0558399606436491,-0.0652186143636703,-0.0468728103339672,-0.0040267938748002,0.0051500028930604,-0.0034118103794753
1783204077132882000,2.3018818359375,-0.0627259207651019,-0.0616764117121696,-0.0421937126070261,-0.0067101949825882,0.0001302105374634,-0.0097096534445881
1783204077142818800,2.31181884765625,-0.0483025508761405,-0.0639940410047769,-0.032135844451189,-0.0114662563428282,-0.0039246091619133,-0.0123010454699397
1783204077152757000,2.321757080078125,-0.038944939944148,-0.059124389141798,-0.0378320102661848,-0.0113344294950366,-0.00550093408674,-0.0151823200285434
1783204077162694000,2.33169384765625,-0.0134255910232663,-0.0605693272531032,-0.0531412230789661,-0.010302267037332,-0.0070054628886282,-0.016265558078885
1783204077172631000,2.341631103515625,0.0025257190853357,-0.0377530998110771,-0.0760802001178264,-0.004597776569426,-0.0046056886203587,-0.0164844691753387
1783204077182569000,2.35156884765625,0.0074614219218492,-0.0165147892102599,-0.0952367360085248,0.0022099744528532,0.0071911956183612,-0.0125067727640271
1783204077192505900,2.361505859375,0.0198009712740778,-0.0176081374049186,-0.0538180994272232,0.0072065973654389,0.0082090552896261,-0.0134031930938363
1783204077202443000,2.371443115234375,0.026917525281012,0.0104921679198741,-0.0541816720426082,0.0017853137105703,0.0013512140139937,-0.0124627435579895
1783204077212381000,2.381380859375,0.0301084302768111,0.0123553314432501,-0.043277416190505,-0.0077951420098543,-0.0006032800301909,-0.0099247507750988
1783204077222317800,2.39131787109375,0.0308785378664731,0.0201703891083598,-0.0256534966945648,-0.0159373097121715,-0.0055758729577064,-0.00855522044003
1783204077232255000,2.4012548828125,0.0309369900554418,0.0295841141417622,-0.0397241076231002,-0.0144280986860394,-0.0109131149947643,-0.0053399857133626
1783204077242193000,2.41119287109375,0.0350283510223031,0.0382385452404618,-0.0651484717369079,-0.0105283446609973,-0.0050904401578009,-0.0072482740506529
1783204077252130000,2.421130126953125,0.0399509021162986,0.0336260830089449,-0.0945312180876731,-0.0069892704486846,0.0030018410179764,-0.0025214296765625
1783204077262067000,2.43106689453125,0.0418476756483316,0.0246785141825675,-0.0802630387604236,0.0010311380028724,0.0081164827570319,0.0042793070897459
1783204077272003800,2.44100390625,0.0488391419708728,0.0030891981869935,-0.0701531481564044,0.0075897043570876,0.008731672540307,0.0061738807708024
1783204077281942000,2.45094189453125,0.0574208000943064,0.0037345103532075,-0.0574281066179275,0.0067595657892525,0.0054434272460639,0.008561847731471
1783204077291879000,2.46087890625,0.0430196420371532,0.013275076636672,-0.0524637622088193,0.0005826298147439,-0.0006616031751036,0.0111062321811914
1783204077301816800,2.47081689453125,0.0289537072837352,0.0090349548488855,-0.0370639485031366,0.0037830732762813,0.000512127764523,0.0136231444776058
1783204077311754000,2.48075390625,0.0113292032659053,0.015466449201107,-0.025201661273837,-0.0002950252965092,0.0036152431275695,0.0127717312425374
1783204077321691100,2.490691162109375,-0.0004927519530057,-0.0031625556841492,-0.0200946935236453,-0.0011627441272139,0.0009526195935904,0.0129221528768539
1783204077331627800,2.500627685546875,0.0091901454105973,-0.0205555890336632,-0.0270382290512323,-0.0060887932777404,-0.0065319282002747,0.0104573983699083
1783204077341566000,2.51056591796875,-0.0001467149943113,-0.0264765035152435,-0.0526823733955621,-0.0035543506965041,-0.0056136953644454,0.005752126686275
1783204077351502800,2.5205029296875,-0.0124856798246502,-0.033254911608994,-0.0470914215207099,-0.0055053820833563,-0.005302105564624,0.0071564111858606
1783204077361440000,2.53043994140625,-0.0137815648540854,-0.0330637729510664,-0.0506312860846519,-0.003317124210298,-0.0042279521003365,0.0038575106300413
1783204077371378000,2.5403779296875,-0.019207681556046,-0.0222273216381669,-0.0677384882301092,-0.0032556047663092,-0.0010513341985642,0.0040031857788562
1783204077381315000,2.550315185546875,-0.0382552041143178,-0.0204132579535245,-0.0533621723532676,-0.0021330825984477,-0.001461727079004,0.0048450110480189
1783204077391252000,2.560251953125,-0.0467968224883079,-0.0188984694764018,-0.0434469275385141,-0.0042500300332903,0.0031636510975658,0.0016846377402544
1783204077401190100,2.570190185546875,-0.0558151184633374,-0.0148892338350415,-0.0386345588207244,-0.0057091126218438,0.0001316270790994,0.0032177281100302
1783204077411126800,2.580126708984375,-0.0536918426990509,-0.0182207163453102,-0.0370820686817169,-0.0093137016519904,0.0008339029736816,0.0026312998961657
1783204077421064000,2.59006396484375,-0.0444265862256288,-0.0314174670487642,-0.0348369201034307,-0.0150032797828316,0.0019691232591867,-0.0011635699775069
1783204077431001900,2.600001953125,-0.0338835649013519,-0.0328565599411726,-0.0485007037967443,-0.0112980240955948,-0.0023947325535118,-0.0034882433246821
1783204077440939000,2.60993896484375,-0.0179532975807786,-0.0461181925743818,-0.0845429080367088,-0.0069346521049737,-0.0059934686869382,-0.0066032949835062
1783204077450876000,2.6198759765625,-0.0187049927309155,-0.053378246705234,-0.0730938777834177,-0.0038038399070501,-0.0025819595903158,-0.0065966374240815
1783204077460814000,2.62981396484375,-0.0224137841209769,-0.0296887435600161,-0.0763256993114948,0.0007065311074256,-0.0039665903896093,-0.0083960499614477
1783204077470751000,2.6397509765625,-0.0153343472540378,-0.0222889886975288,-0.0977256302148103,0.0019353134557604,-0.00062245875597,-0.0076397126540541
1783204077480687900,2.64968798828125,0.0050765726119279,-0.0254418997704982,-0.084225512650609,0.0003969529643654,-0.0014706556685268,-0.0058321803808212
1783204077490625800,2.659625732421875,0.0096592242270708,-0.0213321263641119,-0.080715458703041,-0.0014813737943768,-0.0037974598817527,-0.007935544475913
1783204077500563000,2.66956298828125,0.0002285480588674,-0.0098126612231135,-0.0848585498571395,-0.002179816365242,-7.50860199332e-05,-0.0059946738183498
1783204077510499800,2.679499755859375,0.0033484336450695,-0.0047483635708689,-0.0791547852575779,-0.0031100595369935,0.0010945741087198,-0.0070855044759809
1783204077520438000,2.68943798828125,0.0021489947274327,-0.0055982583984732,-0.0905441942781209,0.0021018125116825,0.000653188675642,-0.0083688385784626
1783204077530375000,2.699375,0.0188505386814475,0.0028337621212005,-0.0952823287159204,0.0056938845664262,-0.0021098405122756,-0.0084817567840218
1783204077540311800,2.709311767578125,0.0220098794952034,0.014621522809565,-0.0905313347965478,0.0104497028514742,0.001841050107032,-0.000939599936828
1783204077550249700,2.719249755859375,0.0293032513737678,0.0081412208795547,-0.0885503901124,0.0140207353979349,0.0057140854187309,0.0015001220162957
1783204077560187000,2.729186767578125,0.0330263635501265,-0.0029141338810324,-0.0767833799511194,0.0220385380089283,0.0049487277865409,0.0071658659726381
1783204077570124000,2.7391240234375,0.0263818109691143,0.0009726444244384,-0.0703156452417373,0.0218622349202632,0.0040943855419754,0.0084521733224391
1783204077580062000,2.74906201171875,0.0164078217044472,0.0102998602181673,-0.0579009848266839,0.0157786309719085,0.0052264756523072,0.0102470992133021
1783204077589998800,2.758998779296875,-0.0013815174862742,-0.0086444942265748,-0.0188432321578264,0.0097159445285797,0.0058696288615465,0.008380489423871
1783204077599936000,2.76893603515625,-0.0150613755315542,-0.0135422031402587,-0.0031634324669837,0.0068319444544613,0.0024092176463454,0.0013140148948878
1783204077609873000,2.778872802734375,-0.0274798353388905,-0.0098822193279862,0.0101209965199232,0.0020084269344806,0.0007263659499585,-0.0033254781737923
1783204077619810800,2.788810791015625,-0.0314385098367929,-0.0138733347907662,-0.0035907179683446,-0.000708382576704,0.0006520836614072,0.0010171167086809
1783204077629748000,2.798748046875,-0.0274386265456676,-0.0190630123883485,-0.0158183313786983,0.0015363954007625,3.79588454961e-05,-0.0004188595339655
1783204077639686000,2.808685791015625,-0.0177855397984385,-0.017928163139522,-0.006976853275299,0.0023734318092465,0.0009174207225441,-0.0021870674099773
1783204077649623000,2.818623046875,-0.0232113642394542,-0.0176361944556236,-0.0008960720568895,-0.0010399417951703,-0.002178237773478,-0.0016427172813564
1783204077659560000,2.828559814453125,-0.0233268073126673,-0.0219835760101675,-0.0004565115958452,-0.0078944461420178,-0.0041733779944479,-2.91510950773e-05
1783204077669497000,2.8384970703125,-0.0232002583235502,-0.0228746796309947,6.95581048727e-05,-0.0179934203624725,-0.0035150446929037,-0.003094183281064
1783204077679435000,2.84843505859375,-0.0247401812419295,-0.0270490427061915,0.0090700261622667,-0.0233224313706159,-0.0113884527236223,-0.0052287960425019
1783204077689372000,2.858371826171875,-0.0396457816898822,-0.0201253809228539,-0.008797054439783,-0.0261320676654577,-0.0118755456060171,-0.009500240907073
1783204077699308800,2.868308837890625,-0.0241439689144492,-0.0195890820890665,-0.0339583837032318,-0.0276302769780159,-0.0176057498902082,-0.0120297092944383
1783204077709247000,2.8782470703125,-0.0039829321563243,-0.0230602653309702,-0.0731768798917532,-0.0256414264440536,-0.0134176630526781,-0.012373256497085
1783204077719184000,2.888183837890625,0.0028884149178862,-0.0318961904764175,-0.0883428848415613,-0.0181128848344087,-0.0018152552656829,-0.0076478319242596
1783204077729121000,2.89812109375,0.0396291228160262,-0.0221595170989632,-0.0830745890498161,-0.0046370234340429,-0.0066169342026114,-0.002948151435703
1783204077739059000,2.908058837890625,0.0766390030443668,-0.0376560691773891,-0.1401975752413272,-0.0028825057670474,-0.0216879900544881,-0.0008031520992517
1783204077748996000,2.91799609375,0.0076174892663955,-0.0094394439965486,-0.1232698213160038,0.0003937156870961,-0.0095437094569206,3.46784945577e-05
1783204077758932700,2.9279326171875,0.0001502221256494,0.0079892451882362,-0.0568552751660347,-0.0062859822064638,-0.0015968894585967,-0.0002728316467255
1783204077768871000,2.937870849609375,-0.0003071662530303,0.0004524199426174,-0.073865446677804,-0.00886738486588,-0.0039351447485387,-0.0024907123297452
1783204077778807800,2.947807861328125,0.022881693893671,-0.0139084061041474,-0.0853928028643131,-0.0082764457911252,-0.0007365951314568,-0.0039107054471969
1783204077788745000,2.957744873046875,0.0332429289102554,0.0054492053166031,-0.1255588090360164,-0.0008329097181558,0.0011393353343009,-0.0019604726694524
1783204077798683000,2.967682861328125,0.0313856106057763,0.0046411038041114,-0.1464239024102687,0.0130825648084282,0.0101122912019491,0.0002327701076865
1783204077808620000,2.9776201171875,0.0330117505028843,0.0092424601197242,-0.1213975977033376,0.0183990336954593,0.0140175502747297,0.0068254247307777
1783204077818557000,2.987556884765625,0.0454559292733669,0.0111313426062464,-0.0979670377552509,0.0230940598994493,0.0054618124850094,0.0070591643452644
1783204077828495000,2.9974951171875,0.035030396848917,0.0057458501756191,-0.0854758049726486,0.0258038267493248,0.0024447171017527,0.0129295699298381
1783204077838432000,3.007431884765625,0.0042070963010191,0.0027794015854597,-0.0249310276389122,0.0146735655143857,0.0051452689804136,0.009878828190267
1783204077848369200,3.017369140625,-0.0196858204618096,-0.0025037995144724,-0.0041986207336187,0.0098338034003973,0.0051338174380362,0.00510457996279
1783204077858307000,3.02730712890625,-0.0222258603334426,-0.0045864510074257,0.0081505732297897,0.0041136778891086,-0.0009738923981785,0.0024819946847856
1783204077868244200,3.037244140625,-0.0228472071021795,-0.0072691142201423,-0.0270955121964216,0.0050524426624178,0.0060446024872362,0.0028372602537274
1783204077878180900,3.047180908203125,-0.0071007719159126,-0.0064092825204133,-0.0303998144388198,0.0071696611121296,0.0081481030210852,0.0023290344979614
1783204077888119000,3.057119140625,-0.0053144730210304,-0.0046621465921401,-0.0254454069018363,0.0100674470886588,0.007603486534208,0.0026906917337328
1783204077898056000,3.067055908203125,-0.0011845336094498,-0.0056374213650822,-0.0257598796784877,0.0094195269048213,0.0011458937078714,0.0017392341978847
1783204077907993000,3.0769931640625,-0.0081552494049072,-0.0109048403739929,-0.0011883330017328,0.0039765583351254,-0.0023420485667884,0.0050338301807641
1783204077917931000,3.086930908203125,-0.0168783618256449,-0.013340250827372,0.0240127437502145,-0.003698312677443,-0.0047988737933337,0.0053825704380869
1783204077927868200,3.0968681640625,-0.0142266782730817,-0.0114852706104516,0.0184404965758323,-0.0115040382370352,-0.0102319903671741,0.0011966137681156
1783204077937805000,3.10680517578125,-0.0285687996193766,-0.0177376090034842,-0.0045224458605051,-0.0159059092402458,-0.0101802926510572,0.0023669439833611
1783204077947743200,3.1167431640625,-0.0388429408743977,-0.0135945178493857,-0.0317564897447824,-0.0151415830478072,-0.0006754701025784,-0.0028627051506191
1783204077957679900,3.126679931640625,-0.0295367678686976,-0.0248658534482121,-0.0403127211660146,-0.0071498742327094,0.0051274979487061,0.0001518588978797
1783204077967617000,3.136616943359375,-0.0198714061617851,-0.0324152459144592,-0.071420391613245,-0.0075999489054083,0.0039056397508829,-8.09014309197e-05
1783204077977555000,3.146554931640625,-0.0145163088694214,-0.0369423679500818,-0.0623795915454626,-0.0042587919160723,-0.0056094303727149,-0.0040577528998255
1783204077987492000,3.1564921875,-0.0140472300529479,-0.0405351317450404,-0.0440109911620616,-0.0052364384755492,-0.0088678076863288,-0.0060577867552638
1783204077997429200,3.16642919921875,-0.0107923199102282,-0.0378337638318538,-0.0469862075805664,-0.0060637714341282,-0.0115509126335382,-0.0039682742208242
1783204078007367200,3.1763671875,-0.0274672681182622,-0.0312099617779254,-0.0521060348123312,-0.0098912650719285,-0.0096795102581381,-0.0076828515157103
1783204078017304000,3.186303955078125,-0.0190334940329194,-0.0205249016344547,-0.0634036738961935,-0.009708915837109,-0.0068110530264675,-0.0124172894284129
1783204078027241000,3.196240966796875,0.005958616143465,-0.0118348147004842,-0.0920949308514594,-0.0039679380133748,0.0029156105592846,-0.0059018661268055
1783204078037179000,3.206178955078125,0.019291560447216,-0.0081646017551422,-0.0983674352496862,-0.0020477138459682,0.0120051000267267,-0.0062179821543395
1783204078047116000,3.216115966796875,0.0391875165283679,-0.0027808628901839,-0.0710673403918743,0.0025853868573904,0.0178944133222103,-0.0033191312104463
1783204078057053200,3.22605322265625,0.0477007855907082,0.0029284546673297,-0.0462310052990913,0.0029027834534645,0.0139585798606276,0.0032878208439797
1783204078066991000,3.2359912109375,0.0351569458380341,-0.0017407061874866,-0.0155143799960613,-0.0010826373472809,0.0077307778410613,0.0052351243793964
1783204078076928300,3.24592822265625,0.0340559988588094,0.0005266542226076,0.028234160837531,-0.0053037041798233,-0.0005081160925328,0.0046816729009151
1783204078086865200,3.255865234375,0.0156941204771399,0.0131134563341736,0.0386094243794679,-0.0125621492043137,-0.0090757720172405,-0.001005241414532
1783204078096803000,3.265802978515625,0.0055070729836821,0.0176855865553021,0.0372644395112991,-0.0207903869450092,-0.0169532485306262,-0.0036005405709147
1783204078106740000,3.275739990234375,0.0175438399970531,0.0188724582523107,0.0018979425758123,-0.021647922694683,-0.0191194638609886,-0.0046247923746705
1783204078116677000,3.285677001953125,0.0318441680282354,0.0308361600294709,-0.0534662172496318,-0.0203672144562006,-0.013226643204689,-0.0038330715615302
1783204078126615000,3.295614990234375,0.035451837131381,0.030179449686408,-0.0846481219768524,-0.0139151737093925,-0.0040893373079597,0.0031428127549588
1783204078136552200,3.30555224609375,0.0402744349822402,0.043654140548408,-0.0914899506956338,-0.0095076411962509,0.0080823739990592,0.007651544176042
1783204078146489000,3.315489013671875,0.0444680872797966,0.0466743651524186,-0.0946422772467136,-0.0035064741969108,0.0124116092920303,0.0173880606889724
1783204078156427300,3.32542724609375,0.0473085714027285,0.0327490079134702,-0.0882663124740123,-0.0047816215083003,0.0061669894494116,0.0218948386609554
1783204078166364200,3.3353642578125,0.0359197469040751,0.0058361588075757,-0.0864513720065355,-0.0043453956022858,-0.0035575428046286,0.0231124367564916
1783204078176301000,3.345301025390625,-0.0009793664261698,-0.0176215814083814,-0.0815735368371009,-0.0063213864341378,-0.0092901457101106,0.022331865504384
1783204078186239000,3.355239013671875,-0.0170382285624742,-0.042438042756915,-0.1007020156770944,-0.0041903248056769,-0.0080472473055124,0.017379717901349
1783204078196176100,3.365176025390625,-0.0374523632988333,-0.053598319196701,-0.1034995374411344,0.0002183439210057,-0.0011279713362455,0.0184753444045782
1783204078206113000,3.375113037109375,-0.0557949524581432,-0.0694981913790106,-0.0993669676810503,0.0062482729554176,0.0033296274486929,0.0142608918249607
1783204078216051200,3.38505126953125,-0.063122811128199,-0.0709919370681047,-0.1149888997048139,0.0092246457934379,0.0063803675584495,0.0088987471535801
1783204078225988000,3.394988037109375,-0.067766837541759,-0.0699471041902899,-0.0841384188890457,0.0093870991840958,0.005517503246665,0.0049056038260459
1783204078235925200,3.40492529296875,-0.0680003540366888,-0.0740586311623454,-0.0598351677596569,0.0082973092794418,0.0053805774077773,-0.0002634150441735
1783204078245863200,3.41486328125,-0.067597033932805,-0.0713888274312019,-0.0464817651897668,0.0058626476675271,0.0036021186970174,-0.0027031369972974
1783204078255800000,3.424800048828125,-0.0661553106918931,-0.0715127460718154,-0.0427975237190723,0.0062767667695879,0.0018064840696752,-0.0059815822169184
1783204078265737000,3.434737060546875,-0.0717199590817093,-0.0610875059083104,-0.0379722955197095,0.0048889936879277,0.0049133277498185,-0.0104559594765305
1783204078275675100,3.444675048828125,-0.0591021773099899,-0.0461743066757917,-0.0229179342508316,0.0034209406003355,0.0052887182682752,-0.0155986510217189
1783204078285612000,3.454612060546875,-0.0455050291121005,-0.0386556016087532,-0.0287760126292705,0.0036747399717569,0.0030335532501339,-0.0149586936458945
1783204078295549200,3.464549072265625,-0.0331169644430279,-0.0342643809124827,-0.033269816917181,0.0039525777101516,0.001511990558356,-0.0204524844884872
1783204078305487000,3.474487060546875,-0.0285915959730744,-0.0094204470351338,-0.004727613043785,-5.4414384067e-05,0.0041983211413025,-0.0230589210987091
1783204078315424300,3.48442431640625,-0.0255836463287472,0.012952420553565,0.00835515589118,-0.0068581132218241,-0.0012414315715432,-0.0209382008761167
1783204078325361000,3.49436083984375,-0.0025809564039111,0.0244143102884292,-0.004257657444477,-0.009207553230226,-0.0050574745982885,-0.0183520056307315
1783204078335299000,3.504299072265625,0.02003945620507,0.0268278011709451,-0.0165922383606433,-0.0151100391522049,-0.0059030093252658,-0.0148720080032944
1783204078345236000,3.514236083984375,0.0230552968949079,0.0244298001185059,-0.0329126740425825,-0.0141169456765055,-0.0031469035893678,-0.0192326679825782
1783204078355173000,3.524173095703125,0.0350149070188403,0.0289537072837352,-0.042486558073759,-0.0121333291754126,-0.0030915699899196,-0.0140383066609501
1783204078365111000,3.534111083984375,0.0546823150411248,0.0377118910178542,-0.0645779783725738,-0.0085481805726885,-0.0018590586259961,-0.0109261367470026
1783204078375048200,3.544048095703125,0.0715878571346402,0.0269818226888775,-0.077690557923913,-0.0022868178784847,-0.0006849197670817,-0.0044629517942667
1783204078384986000,3.553986083984375,0.0777940182983875,0.0338382644549012,-0.0662754299402236,-0.0001791920512914,-0.0009839925915002,-0.0027814321219921
1783204078394923300,3.56392333984375,0.0696519206359982,0.0407847225919365,-0.0636661242246627,-0.0034089321270585,-0.0016254791989922,0.0039125084877014
1783204078404860000,3.57385986328125,0.0755143829286098,0.0293657952159643,-0.0653004474282264,-0.0063024563714861,-0.004425527062267,0.0066936477087438
1783204078414798000,3.583798095703125,0.0637003187552094,0.027083529497683,-0.051289457732439,-0.0083219287917017,-0.0071254889480769,0.0055545726791024
1783204078424735000,3.59373486328125,0.0247565478548407,0.060109016264975,0.0082335753381252,-0.0167305916547775,-0.0028330055065453,0.0200980957597494
1783204078434672000,3.603672119140625,0.0512739679023623,0.0481587584912776,0.0057528644382953,-0.0189099609851837,-0.0107119595631957,0.0197743494063615
1783204078444610000,3.613610107421875,0.0521273698613047,-0.0344277547806501,-0.0803635765254497,-0.0119607094675302,-0.0157791562378406,0.0203839465975761
1783204078454547200,3.623547119140625,0.027605799806118,-0.0326753581553697,-0.0988496658086776,-0.0009664725512266,-0.0104771759361028,0.014406431466341
1783204078464484000,3.633484130859375,-0.0055260699450969,-0.0141693951278924,-0.0954313817977905,0.0051271067932248,5.90882264077e-05,0.0113757532089948
1783204078474422000,3.643422119140625,-0.0225622526809573,-0.0391658892184495,-0.0888490807980298,0.0048092929646372,0.0053561250679194,0.0096266828477382
1783204078484359000,3.65335888671875,-0.0369563964754343,-0.034580899515748,-0.0816764126896858,0.0050183506682515,0.0077537689357995,0.0126453759148716
1783204078494296000,3.663296142578125,-0.0449883117616176,-0.0302042918667197,-0.0574117400050163,0.0066971620544791,0.007533979602158,0.0095266345888376
1783204078504234000,3.67323388671875,-0.0498325369223952,-0.0392301866263151,-0.0437245754361152,0.0033325245603919,0.0038747962098568,0.0124356057494878
1783204078514171100,3.683171142578125,-0.0543707648739218,-0.05137158305794,-0.0385462960153818,-9.70782712101e-05,-0.0017922725528478,0.0079986844211816
1783204078524108300,3.6931083984375,-0.0574804213270545,-0.0626946488440036,-0.032976971450448,-0.0021005747839808,-0.0004369895905256,0.0046252589672803
1783204078534046200,3.703046142578125,-0.0697428137898445,-0.0685977354079484,-0.0308820449978113,-0.0039330190047621,0.0031381563749164,-0.0034651570022106
1783204078543983000,3.712983154296875,-0.0653559770077466,-0.0764125008121132,-0.039599604460597,-0.0024147499352693,-0.0010731001384556,-0.0049221720546483
1783204078553920000,3.722919921875,-0.073831836669147,-0.0817383720099926,-0.0450561163008213,-0.0014618281275033,-0.0015707174316048,-0.0131564456969499
1783204078563858000,3.73285791015625,-0.0524421348989009,-0.0693847941324114,-0.0384814140856266,-0.0011406512930989,-0.0011866898275911,-0.0174428038299083
1783204078573795000,3.742795166015625,0.0029091654449701,-0.0457028897717595,-0.0519967292189598,-0.0002972912043333,-0.0118693765252828,-0.0201856773346662
1783204078583732200,3.752732177734375,-0.008977963964641,-0.0099187519460916,-0.092815646341443,0.0042055808007717,-0.0090408343821764,-0.0213691871613264
1783204078593670100,3.762670166015625,0.005632160668075,0.0258189163893461,-0.0608259323626756,0.0070160976611077,0.0005748812109231,-0.0157868824899196
1783204078603607300,3.772607177734375,0.0377127678006887,0.0393000369921326,-0.0600794979095458,0.006097839679569,0.0001024366356432,-0.0080810263752937
1783204078613544000,3.7825439453125,0.0564358807101845,0.0340673970356583,-0.0608633417636156,0.0071015744470059,0.0055928705260157,-0.0002686521038413
1783204078623482000,3.792482177734375,0.0620773937284946,0.0385033336564898,-0.0566132831037044,0.0063455030322074,0.0071966261602938,0.0023713395930826
1783204078633419000,3.8024189453125,0.0381350848659872,0.0284787832483649,-0.0346487040549516,0.0035010501742362,0.00353042059578,0.005370101891458
1783204078643356200,3.812356201171875,0.0298676072582602,0.0124795423448085,-0.0429483303666114,-0.0001285718753933,0.0005498104728758,0.0015282256063073
1783204078653294000,3.822294189453125,0.0036363106757402,0.0094379826918244,-0.0444569813638925,0.0026409924030303,0.0013358951546251,0.002944191917777
1783204078663231200,3.832231201171875,-0.0041848844692111,0.0074389178290963,-0.0255365923166275,0.0056437063030898,0.0017931601032614,0.0003337613306939
1783204078673168100,3.842168212890625,0.0044812370672822,0.0116261403858661,-0.0353086292684078,0.0044350195676088,0.001782753970474,-0.0032732686959207
1783204078683106300,3.852106201171875,0.025695874531567,-6.57587125897e-05,-0.0316793328553438,0.0056845750659704,0.0007979171350598,-0.0036732754670083
1783204078693043000,3.86204296875,0.0475809586033225,-0.0132119482725858,-0.043171033206582,0.0073631876148283,0.0012909080833196,-0.0007469048723578
1783204078702980000,3.87197998046875,0.0405035675629973,-0.0024865561187267,-0.0243161106109619,0.0079195220023393,0.0031037216540426,0.0020526102744042
1783204078712918000,3.88191796875,0.0322965879708528,0.0008837970972061,-0.01076104798913,0.0028002308681607,0.0002629188820719,0.0053910547867417
1783204078722855200,3.891855224609375,0.0305927066624164,0.0013286182552576,-0.0240823018550872,0.0017943549901247,-0.0021112891845405,0.0077072056010365
1783204078732792000,3.9017919921875,0.0223822199389338,-0.0076484689265489,-0.0032703999727964,-0.0020398963242769,0.0002457173541188,0.0080256294459104
1783204078742730200,3.911730224609375,-0.0016293547675013,0.000949263548851,-0.0096142160415649,0.0002610748633742,-0.0008736094459891,0.0044817607849836
1783204078752667100,3.921667236328125,-0.0264902397796511,0.0075263038516044,-0.013754384586215,-0.0026270495727658,-0.0011304863728582,0.0030204858630895
1783204078762604000,3.93160400390625,-0.0304994754210114,0.0035720132678747,-0.017473112848401,-0.0058785015717148,-0.0062048728577792,-0.001989718992263
1783204078772542000,3.9415419921875,-0.0229591430440545,-0.0077870006144046,-0.0220505037665367,-0.0095944693312048,-0.0083435717970132,-0.0032712256070226
1783204078782479000,3.95147900390625,-0.0138981769710779,-0.0163818104803562,-0.028476737421751,-0.0096232304349541,-0.0034358981065452,-0.0013542822562158
1783204078792417000,3.9614169921875,0.0055821840465068,-0.0152153970494866,-0.0524567479461431,-0.0091508086770772,-0.0036862734705209,-0.000325592700392
1783204078802354200,3.971354248046875,0.0173006788909435,-0.0135533090561628,-0.0599836363196372,-0.0056695230305194,-0.0007472094148397,0.0002315405290573
1783204078812291000,3.981291015625,0.0169444127991795,-0.0108627547979354,-0.0539274050205945,-0.0028888126835227,-0.002690793480724,0.0032996747177094
1783204078822229200,3.991229248046875,0.0171253223240375,-0.0064390931367874,-0.0644072979807853,-0.0007606819272041,-0.001575727481395,0.0079455589875578
1783204078832166100,4.001166259765625,0.0061491702795028,-0.0224520703047513,-0.0753565620183944,0.0038238763809204,0.0030633807182312,0.009244380518794
1783204078842102800,4.011102783203125,-0.0065118661120533,-0.0300169526010751,-0.0460866283923387,0.0020709838718175,0.0006574811413884,0.0114982137456536
1783204078852040700,4.021040771484375,-0.0231979202359914,-0.0323655615538358,-0.0510726001113653,-0.0008666133508086,-0.0055656083859503,0.0069423085078597
1783204078861977600,4.0309775390625,-0.0420741778805851,-0.0344105113849043,-0.0474357049137353,-0.0044733323156833,-0.0068852049298584,0.0009155748412013
1783204078871914800,4.040914794921875,-0.059790159574151,-0.0437207760438323,-0.0465238507658243,-0.0050814179703593,-0.0025701909326016,-0.0008698599413037
1783204078881852700,4.050852783203125,-0.0686722619488835,-0.0507084429740905,-0.053501288563013,-0.0042140269652009,0.0010077659972012,-0.0052994955331087
1783204078891789600,4.06078955078125,-0.0572366756990551,-0.0500125696644186,-0.0670031596928835,0.0010685613378882,0.0029282579198479,-0.0087120635434985
1783204078901726700,4.070726806640625,-0.0310606164351105,-0.0371107102543115,-0.0582628038763999,0.0025876285508275,0.0036680840421468,-0.0135401077568531
1783204078911664600,4.08066455078125,-0.0120773912847042,-0.0238861947610974,-0.0547866521984338,0.0041075041517615,0.0006318651139736,-0.0113474875688552
1783204078921601800,4.090601806640625,0.0143298463866114,-0.027327859647572,-0.0590787964344024,0.0074668154120445,-3.6973506212234497e-07,-0.0090345321223139
1783204078931538700,4.10053857421875,0.0066185413569211,-0.0104272859901189,-0.0330816008687019,0.0053144479170441,0.0004353732801973,-0.0047843526117503
1783204078941476600,4.1104765625,0.0012929624199867,0.0063759647727012,0.0003255786925554,0.0010714996606111,0.0033640516921877,-0.0031347908079624
1783204078951413500,4.12041357421875,-0.0019838672935962,0.0099584994345903,0.0062333414316177,-0.0033075828105211,0.0007014982402324,-0.0056743249297142
1783204078961350700,4.1303505859375,0.0007584171518683,0.0018669629156589,0.0147439801454544,-0.0097172800451517,-0.0012998674064874,-0.0041768299415707
1783204078971288600,4.14028857421875,0.0016086042404174,-0.0006628478229045,0.0043348143339157,-0.0097332829609513,-0.0062618455849587,-0.0103131178766489
1783204078981225700,4.150225830078125,0.0135673375815153,0.0065808396950364,0.0060860419154167,-0.0144369574263691,-0.0108462106436491,-0.0138889448717236
1783204078991163000,4.160162841796875,0.0302583601415157,0.0036000703185796,-0.0227519300341606,-0.01664924249053,-0.0086406432092189,-0.012100888416171
1783204079001100800,4.170100830078125,0.0413753819614648,0.0174348266646265,-0.0318780702978372,-0.0160654783248901,-0.0078637991100549,-0.0126558914780616
1783204079011037700,4.18003759765625,0.0569043750047683,0.0338584304600954,-0.0313081614553928,-0.0100569566711783,-0.0052614537999033,-0.0110311973839998
1783204079020974600,4.189974609375,0.0572366756990551,0.0485971499085426,-0.0520201100945472,-0.0146764768287539,-0.0034161489456892,-4.43265307694e-05
1783204079030912500,4.19991259765625,0.0572527500510215,0.0578267505466938,-0.0497960043042898,-0.0122048901394009,-0.0023940186947584,0.0048501244746148
1783204079040849700,4.209849609375,0.0582186724737286,0.0427647904932498,-0.0625473493278026,-0.0093555739149451,0.0005799331702291,0.011973014101386
1783204079050786800,4.219786865234375,0.0517044682741165,0.0380757558941841,-0.0640717824161052,-0.0104079833254218,-0.0030756196938455,0.0149451456964015
1783204079060724700,4.229724853515625,0.0357727396488189,0.0297930807173252,-0.0615589228123426,-0.0089389821514487,-0.0072376080788671,0.0174871329218149
1783204079070662000,4.239661865234375,0.030379063911736,0.0026861703440546,-0.0706798023790121,-0.0085441097617149,-0.0137566123157739,0.0158671289682388
1783204079080598500,4.2495986328125,0.0231774619698524,-0.0189209735691547,-0.0986503438442945,-0.006468441337347,-0.0103496313095092,0.0154167897999286
1783204079090536700,4.25953662109375,2.10427880287e-05,-0.0399161230638623,-0.109522450992465,-0.0009589660912752,-0.0048540984280407,0.0136364232748746
1783204079100473600,4.2694736328125,-0.0112111298441886,-0.0409489732429385,-0.1144920560985803,0.0053657754324376,0.0010946043767035,0.0110089480876922
1783204079110411500,4.27941162109375,-0.0286336815491318,-0.0299894800722599,-0.110246089091897,0.0083360616117715,0.0093922819942235,0.0113726984709501
1783204079120348700,4.2893486328125,-0.0363327116191387,-0.0323962489530444,-0.0923947905808687,0.01425919868052,0.0050113825127482,0.0084093986079096
1783204079130285800,4.299285888671875,-0.0409463428944349,-0.0452829107940197,-0.081086630102992,0.0141864782199263,0.0084213055670261,0.0100932661443948
1783204079140223700,4.3092236328125,-0.0522802223354578,-0.0376695131808519,-0.045754035437107,0.010206650942564,0.0020116097293794,0.0063110454939305
1783204079150161000,4.319160888671875,-0.0621317542642354,-0.0452303038239479,-0.0332908597052097,0.0035811169072985,-0.0052569359540939,0.0016444325447082
1783204079160097500,4.32909765625,-0.0617751959115266,-0.0451513933688402,-0.0122995096027851,0.0030833724886178,-0.0052902260795235,-0.0025092996656894
1783204079170035700,4.33903564453125,-0.0594897153228521,-0.0545239096090197,-0.0272281986653804,-0.000194695778191,-0.0009384830482304,-0.0017847485141828
1783204079179972600,4.34897265625,-0.0599576250955462,-0.0414756274655461,-0.0439858567208051,0.0061534806154668,0.0019704876467585,-0.0067424895241856
1783204079189909800,4.35890966796875,-0.0560766920089721,-0.0271302912488579,-0.0390197587460279,0.0041206739842891,0.0063129006884992,-0.0102569684386253
1783204079199847700,4.36884765625,-0.0482192565068602,-0.0145028648659586,-0.0276367794662714,0.0041118850931525,0.0084088081493973,-0.0081392228603363
1783204079209784800,4.378784912109375,-0.0246118786871433,-0.0286518017277121,-0.0350350730240344,0.0050401119515299,0.0081991478800773,-0.0089736757799983
1783204079219721700,4.3887216796875,-0.0247694073364138,-0.0126131055966019,-0.0148673142641782,0.0029236981645226,0.0065431939437985,-0.0110354945063591
1783204079229660000,4.398659912109375,-0.0090659345090389,-0.0059033788248896,-0.0012836100697517,-0.0037971558049321,0.0001354063861072,-0.0122587671503424
1783204079239596500,4.408596435546875,-0.0043166941553354,-0.0057511108726263,0.0104851536571979,-0.0116585409268736,-0.0076181204058229,-0.0095447394996881
1783204079249533700,4.41853369140625,0.0076458385780453,-0.0031301147192716,-0.0131949971377849,-0.014213784597814,-0.0082352478057146,-0.0126684177666902
1783204079259471600,4.4284716796875,0.0184726452797651,-3.03951382637e-05,-0.0246358440846204,-0.0114592770114541,-0.0064567890949547,-0.0097836814820766
1783204079269408800,4.43840869140625,0.0213975928157567,0.0081534958392381,-0.0492003764986991,-0.0084787914529442,-0.002954130526632,-0.0119551382958889
1783204079279345700,4.448345703125,0.0375584540218114,0.0119908820450305,-0.0705535456508398,-0.0038954922929406,-0.0046044909395277,-0.0124371703714132
1783204079289283800,4.458283935546875,0.0568473841205239,0.0193199097588658,-0.0904419029474258,-0.0002315510064363,-0.0039604627527296,-0.0072460807859897
1783204079299220500,4.468220458984375,0.0584744008004665,0.0267483061939477,-0.0733382079333066,-0.0006097201257944,-0.0009159366600215,-0.0016806065104901
1783204079309157600,4.47815771484375,0.0467734416127204,0.0452118913844227,-0.0638034868687391,0.0013295300304889,0.0040054679848253,0.0036608930677175
1783204079319095600,4.488095458984375,0.0417372010111808,0.0449976641118526,-0.05225742598176,-0.0003543868660926,3.73581424355e-05,0.0106144063174724
1783204079329032700,4.49803271484375,0.0282595875397324,0.036097149297595,-0.0368821621954441,-0.0031781364232301,0.0003058044239878,0.0112479720264673
1783204079338970600,4.507970703125,0.0188572606831789,0.0213099145323038,-0.0377075071036815,-0.005307599902153,-0.0025562942028045,0.0133832953870296
1783204079348907800,4.51790771484375,0.0146522102087736,-0.0037082068681716,-0.0474561631798744,-0.0088415844365954,-0.0048206914216279,0.0104251857846975
1783204079358844700,4.5278447265625,0.0003451601758599,-0.0261579390853643,-0.0634223785966634,-0.0057682963088154,-0.0020304974168539,0.0094885509461164
1783204079368782800,4.537782958984375,-0.0093538115397095,-0.024519231967628,-0.088188571062684,0.001346212811768,0.0003149271942675,0.0028918301686644
1783204079378719500,4.547719482421875,-0.0175359489515423,-0.0282896904170513,-0.0906657748311758,0.0009081233292818,0.0020955165382474,0.002480904571712
1783204079388656600,4.55765673828125,-0.0164601364135742,-0.0408633407860994,-0.0815589237898588,0.0057967980392277,0.0011879848316311,0.0003443346358835
1783204079398594600,4.567594482421875,-0.0190039756774902,-0.0386830741375684,-0.0788040721237659,0.0071622002869844,-0.0006882124580442,0.0007688424084335
1783204079408531700,4.57753173828125,-0.0085661682933568,-0.0308066416740417,-0.0739952105373144,0.0076287840493023,0.0013321386650204,-0.0002821001689881
1783204079418468600,4.587468505859375,0.0035053777724504,-0.0198661454647779,-0.0589870264977216,0.0078010908327996,-0.0003411252982914,0.0024724071845412
1783204079428406800,4.59740673828125,0.0101867552325129,-0.0243278010487556,-0.0589981324136257,0.0059719951823353,-0.0033088265918195,0.0059737609699368
1783204079438343700,4.60734375,0.0041685178562998,-0.0112163905411958,-0.0559001663982868,0.005374648142606,-0.0004864078946411,2.18625646084e-05
1783204079448280600,4.617280517578125,-0.0015577508360147,-0.0087663670405745,-0.0473497801959514,0.0071343421004712,-0.001670163590461,-0.0006260396912693
1783204079458218500,4.627218505859375,-0.0124959089577198,0.0023141221612691,-0.0422170934826135,0.0064389905892312,-0.0011005136184394,-0.0024963775649666
1783204079468155600,4.63715576171875,-0.0221522105753421,0.0137485393673181,-0.0301432093292474,0.0093138730153441,0.0020990082994103,-0.0010923591908067
1783204079478092500,4.647092529296875,-0.0191086050957441,0.0115180038362741,-0.0265957459807395,0.0082728434354066,-0.0007564332336187,-0.0010438896715641
1783204079488030700,4.65703076171875,-0.0103840313702821,0.0174468093633651,-0.0224000478565692,0.0062916534952819,-0.0016580303199589,-0.0049254493787884
1783204079497967600,4.666967529296875,0.0022653145834803,0.0239095756366848,-0.0153495448231697,0.0083915563300251,0.0015723840333521,-0.0004412184935063
1783204079507904800,4.67690478515625,0.0083636314585804,0.0197705761358141,-0.0188788879930973,0.0017071440815925,-0.0016961330547928,0.0004687388427555
1783204079517842700,4.6868427734375,0.0299552855417132,0.014903262360394,-0.0048129532396793,-0.0026849415153265,-0.0006127590313553,0.0021955324336886
1783204079527779600,4.696779541015625,0.0242760708615183,0.0043693011254072,-0.0095271222800016,-0.0069355852901935,-0.0017258706502616,0.0039975568652153
1783204079537717500,4.706717529296875,0.0041164954081177,0.0073953709483146,-0.0078524670660495,-0.004918772727251,-0.0015777987428009,0.0070623229257762
1783204079547654700,4.716654541015625,0.001577624580264,0.0067296005159616,-0.0197486565649509,-0.0062190257012844,-0.0047716689296066,0.0055479174479842
1783204079557591600,4.726591552734375,-0.0029649872854351,0.0034910569861531,-0.0399286902844905,-0.0053188763558864,-0.0029079890809953,0.0045239320024847
1783204079567529700,4.73652978515625,-0.0029041970089077,0.0027583587974309,-0.0372252765446901,-0.0039611868560314,-0.0025482079945504,0.0042669866234064
1783204079577466600,4.746466552734375,-0.005372925209999,-0.0088625208914279,-0.0375415028870105,-0.0029795449227094,-0.0092449933290481,0.0050017517060041
1783204079587403800,4.75640380859375,-0.0018669629156589,-0.0194195707410573,-0.0497276152431964,-0.0033295191824436,-0.0058036837726831,0.0047848322428762
1783204079597341700,4.766341796875,-0.0001692190870642,-0.0125423784479498,-0.0579758036285638,-0.0033995602279901,-0.0057440288364887,0.0020289928652346
1783204079607278600,4.776278564453125,-0.0099804190054535,-0.0185670455649495,-0.0618669658482074,-0.0058456808328628,0.0007508378475904,1.16082374006e-05
1783204079617215700,4.7862158203125,-0.0067594111323356,-0.0218774852871894,-0.0740074854969978,-0.0036254040896892,0.0041074859909713,0.0006720721721649
1783204079627153700,4.796153564453125,-0.0016579963400959,-0.0050733577415347,-0.0771732560515403,-0.0014624241739511,0.002323406515643,0.0023635735269635
1783204079637090600,4.806090576171875,0.0022954174607992,-0.0077180270314216,-0.0928466260015964,0.0041158329695463,0.0033087760675698,0.0040964921936392
1783204079647027700,4.81602783203125,0.0080833532124757,-0.0104024438098073,-0.0793617060065269,0.0060483049601316,0.0023932876065373,0.0023907891009002
1783204079656965600,4.825965576171875,0.0044400282740592,-0.0086629066661,-0.0689075320094823,0.0071274177171289,-0.0019063861109316,0.008247080259025
1783204079666902800,4.83590283203125,0.007838438540697,-0.0085927640393376,-0.0569487986683845,0.0060743214562535,-0.0010705259628593,0.0080507537350058
1783204079676839700,4.845839599609375,-0.0006800912186503,-0.0232151636317372,-0.0600759907782077,0.0048226360231637,-0.0020266002975404,0.0060627041384577
1783204079686777600,4.855777587890625,-0.0107695235565304,-0.0143520582184195,-0.0591185439229011,0.006866774521768,0.0036571265663951,0.0004666978493332
1783204079696714800,4.86571484375,-0.0207376676023006,-0.0137006085723638,-0.0515969162464141,0.0038627283647656,0.0064055086113512,0.0030017606914043
1783204079706651600,4.875651611328125,-0.0211485864907503,-0.0181675248533487,-0.047913843819499,0.0025645019486546,0.0063590202480554,0.0036148228682577
1783204079716589600,4.885589599609375,-0.0238823953688144,-0.0115244335770606,-0.0483633411526679,0.002395924180746,0.0032399259507656,0.0041700918227434
1783204079726526700,4.895526611328125,-0.0261655378699302,-0.0130441904902458,-0.0432803387999534,0.0041319569572806,0.0003950311802327,0.0022222043480724
1783204079736464000,4.9054638671875,-0.0245393979728221,-0.0218535198897123,-0.0460866283923387,0.0056355777196586,-0.0024670683778822,-0.0005666578654199
1783204079746401800,4.91540185546875,-0.024110651166737,-0.0305702025696635,-0.0464835187554359,0.0015590945258736,-0.0059976316988468,-0.000710685737431
1783204079756338700,4.925338623046875,-0.017603753490746,-0.0208650933742523,-0.0478296726673841,0.0046203983947634,-0.0028521716594696,-8.00492707639e-05
1783204079766276600,4.935276611328125,-0.0266764100015163,-0.0291881005614995,-0.0244347685545682,0.001124981790781,-0.0040791425853967,-0.0045195785351097
1783204079776213800,4.9452138671875,-0.0279839854687452,-0.0243970668926835,-0.0126771107435226,0.0039410088211297,0.0062685701996088,-0.0045400848612189
1783204079786150700,4.955150634765625,-0.0210433725506067,-0.0196221075758337,-0.0234276373386383,0.0005307886749505,0.0078253764659166,-0.0035841893404722
1783204079796088600,4.965088623046875,-0.0025467618733644,-0.0163870711773633,-0.0191033443987369,-0.0004194267094135,0.0063310768455266,-0.004635605495423
1783204079806025700,4.975025634765625,0.0142050509631633,-0.0106181323871016,-0.0116588736116886,-0.0010794224217534,0.0005878526717424,-0.0054422793909907
1783204079815963000,4.984962890625,0.0137663672849535,-0.0029427754536271,-0.0075116908043622,-0.0052267629653215,0.0020075836218893,-0.0059051369316875
1783204079825900800,4.99490087890625,0.0060895490467548,0.0041752398580312,-0.0019634090274572,-0.0092584788799285,-0.0046102930791676,-0.0086317677050828
1783204079835838000,5.004837890625,0.0097410572916269,0.0134416653752326,-0.0095271222800016,-0.0107730198651552,-0.0038472977466881,-0.0109183583408594
1783204079845775000,5.014775146484375,0.0143348148226737,0.0177308870017528,-0.0267085587054491,-0.0121283903717994,-0.0036285421811044,-0.0093138953670859
1783204079855713000,5.024713134765625,0.0218090962260961,0.0368742711499333,-0.0311187763631343,-0.0137470588088035,-0.0022298502735793,-0.0075088050216436
1783204079865650200,5.034650146484375,0.0470133878484368,0.049763855600357,-0.0552326424002647,-0.0101308291777968,-0.004919811617583,-0.0033441963605582
1783204079875587000,5.044587158203125,0.0571323385417461,0.0408750312238931,-0.063096799904108,-0.0074996268376708,-0.0022513237781822,0.002794123487547
1783204079885525000,5.05452490234375,0.0581242721885442,0.0389022698462009,-0.0684241324067115,-0.0062165539711713,-0.00331721175462,0.0053176060318946
1783204079895462100,5.064462158203125,0.0383799995377659,0.0469379845246672,-0.0947866541534662,-0.0032774899154901,0.0072366292588412,0.0117712439969182
1783204079905399000,5.07439892578125,0.0403951387524604,0.0350122766703367,-0.0557429300099611,0.0013607526198029,0.0021898415870964,0.0191831290721893
1783204079915337000,5.0843369140625,0.0783902306258678,-0.0004734627306461,-0.1364683255851268,0.0041046077385544,-0.0126149374991655,0.0230971779674291
1783204079925274000,5.094274169921875,-0.0052212417796254,0.0135693834081292,-0.1136556052744388,0.0111300386488437,0.0085460590198636,0.0163120161741971
1783204079935212000,5.1042119140625,-0.0350385801553726,0.0081049805223941,-0.0292453837066888,0.0058623063378036,0.0092597864568233,0.012434453703463
1783204079945149200,5.114149169921875,-0.0383858447566628,-0.0190869777858257,-0.0931914939165115,0.0045784190297126,0.000510542653501,0.0140156606212258
1783204079955086000,5.124086181640625,-0.0220095872342586,-0.057399172784388,-0.082739073485136,0.0087313521653413,0.0057905255816876,0.0092249009758234
1783204079965024000,5.13402392578125,-0.0327075068593025,-0.0573415973782539,-0.0616799188435077,0.010517394170165,0.0029819866176694,0.0076661482453346
1783204079974961200,5.143961181640625,-0.0319108035236597,-0.0428171052023768,-0.0753308430552482,0.0139728458598256,0.0044943960383534,0.0062421560287475
1783204079984898000,5.15389794921875,-0.0441565371125936,-0.0339461087435483,-0.0630447774559259,0.015855848789215,0.0048522814176976,0.0053633674979209
1783204079994836000,5.1638359375,-0.0489233131229877,-0.026326281389594,-0.0447229388236999,0.0149138877168297,0.0026365316007286,0.0041020940989255
1783204080004773000,5.173773193359375,-0.0502422867670655,-0.0209244223460555,-0.0509001661539077,0.0121045392006635,0.0042882626876235,-0.0027525261975824
1783204080014710300,5.183710205078125,-0.0412555549740791,-0.0237877028226852,-0.03545359069705,0.0112912105396389,0.0027116714045405,-0.0023003215901553
1783204080024648200,5.193648193359375,-0.0274330735877156,-0.0250426713198423,-0.0501250901281833,0.0105733834207057,0.0025713944341987,-0.0011598714627325
1783204080034585000,5.203585205078125,-0.0235199917972087,-0.0225122760593891,-0.0355173035830259,0.0086124977096915,0.0064769200980663,-0.0049000149592757
1783204080044522000,5.21352197265625,-0.0391600439995527,-0.0119435357719659,-0.0410749377101659,0.0150422975420951,0.0079315695911645,-0.0057237353175878
1783204080054460200,5.223460205078125,-0.0204898303210735,0.0045808980494737,-0.0239227273792028,0.0132377389818429,0.0058018397539854,-0.0031838784925639
1783204080064397000,5.23339697265625,-0.0052180269092321,0.003465045762062,-0.0173988785684108,0.011601629666984,0.0028741958085447,-0.0025337962433695
1783204080074334200,5.243334228515625,0.0118280926987528,0.0045423196047544,-0.0089461075216531,0.0088260835036635,0.0012701740488409,-0.006141846999526
1783204080084272000,5.253272216796875,0.024237492416799,0.0090229721501469,-0.0043184477210044,0.0073691899888217,-0.0001101619563996,-0.0068449666723608
1783204080094209300,5.263209228515625,0.0354012759879231,0.0090460607647895,-0.0128384387850761,0.0048349257558584,0.0027466109022498,-9.25215426832e-05
1783204080104146000,5.27314599609375,0.0385769834145903,0.0066676411956548,-0.0300602072209119,0.0015533789992332,0.0076484251767396,-0.0009159708861261
1783204080114084000,5.283083984375,0.0280015211254358,0.0089665657877922,-0.0481283633530139,0.0063800918869674,0.0130969863384962,0.0024776952341198
1783204080124021000,5.29302099609375,0.0236582312241196,0.0083095631837844,-0.0534656327277421,0.007583430968225,0.0142266806215047,0.0041421260684728
1783204080133959200,5.302959228515625,0.0088303721874952,0.0056584641531109,-0.0273807588785886,0.0104239583015441,0.0088300500065088,0.0029974994249641
1783204080143896000,5.31289599609375,0.0053404842451214,0.0202852476596832,-0.0164800101578235,0.0092142112553119,0.0069711310788989,0.0045037888921797
1783204080153833200,5.322833251953125,-0.0044569794088602,0.0051075522720813,-0.0067734396576881,0.0041352966800332,0.0037939799949526,0.0051144515164196
1783204080163771100,5.332771240234375,0.0056976271197199,0.0105883217707276,0.0024514848053455,0.0033513214439153,0.0017088553868234,0.0036331538576632
1783204080173708300,5.342708251953125,0.0014440613284707,0.0048977089136838,0.00238718739748,-0.0011214576661586,-0.0033343727700412,0.0052574155852198
1783204080183645000,5.35264501953125,-0.001062953056395,-0.0055772156104445,-0.0170972652733325,-0.0011724568903446,-0.0035346108488738,0.005285907536745
1783204080193583000,5.3625830078125,-0.0095566406354308,-0.0098506551459431,-0.0340893166065216,-0.0040657157078385,0.0013608117587864,0.0008533417712897
1783204080203520000,5.37252001953125,-0.0114718266069889,-0.0165700265288352,-0.0203951377749443,-0.0005715144798159,0.0062016081064939,-5.90526033192e-05
1783204080213457200,5.38245703125,-0.0080281158939003,-0.0077238722503185,-0.03011982845366,-0.0023299995809793,0.0085411947220563,0.0055335853248834
1783204080223395000,5.39239501953125,-0.0094675010472536,-0.0081447280108928,-0.0321463658452033,-0.0003712233155965,0.0026700291782617,0.001579946372658
1783204080233332200,5.402332275390625,0.0050146132916212,-0.0049754503250122,-0.0245078337907791,-0.0012322235852479,-0.0030919858254492,0.0003471691161394
1783204080243269000,5.41226904296875,-0.0006137479841709,0.002506429862976,-0.0194353528320789,-0.0034158509224653,-0.0060104858130216,0.0031774449162185
1783204080253207300,5.422207275390625,-0.0144333067610859,-0.003149988463521,-0.0250029238313436,-0.0075980797410011,-0.0083769708871841,0.0023444080725312
1783204080263144000,5.43214404296875,-0.0111743049651384,-0.0140752871036529,-0.0344879605352878,-0.0039255432784557,-0.0036071590147912,0.0018888702616095
1783204080273081000,5.4420810546875,-0.020871230854094,-0.0156184248924255,-0.058458618709445,-0.0059535391628742,-0.002832977566868,-0.0032142789568752
1783204080283019000,5.45201904296875,-0.00617313567698,-0.0127206576243042,-0.0702589466184377,-0.0037457756698131,2.85753048956e-05,-0.0042395461350679
1783204080292956200,5.4619560546875,-0.0074082304298877,-0.0283303146883845,-0.0825228003859519,0.0025544641539454,0.0078420229256153,-0.0057588797062635
1783204080302894000,5.47189404296875,-0.015678922908008,-0.0101914314076304,-0.0808557439565658,0.0022638728842139,0.0115115158259868,-0.0079239420592784
1783204080312831200,5.481831298828125,-0.0140691496238112,0.0014157120168209,-0.0613584318041801,0.005512130446732,0.0103525081649422,-0.0040900553576648
1783204080322768100,5.49176806640625,-0.0050906011372804,0.0141682260841131,-0.0442331094801425,0.0050872731953859,0.0102178491652011,-0.0011526308953762
1783204080332706300,5.501706298828125,-0.0023725743502378,0.0219739313989877,-0.0271644857794046,0.003218000754714,0.00867001991719,0.0052112583070993
1783204080342643000,5.511642822265625,0.0062803954437375,0.0062593526557087,-0.0254997674375772,0.0002685477957129,0.0061371009796857,0.0058711403980851
1783204080352580000,5.521580078125,-0.0002548515439033,-0.010872983931005,-0.0291688113391399,0.0023367591202259,0.0063988892361521,0.0100389877334237
1783204080362518000,5.53151806640625,-0.0029252397969365,-0.0143900521412491,-0.0124509007722139,-0.0008738478645682,-0.0006593451835215,0.0027527105994522
1783204080372455200,5.541455078125,-0.001741875231266,-0.0192331082582473,-0.0595902530878782,0.0017102174460887,-0.0021848040632903,0.0023513720370829
1783204080382392000,5.55139208984375,-0.0177925540611147,-0.0159489720210433,-0.0383960738897323,0.0016635665670037,0.0019933516159653,-0.0038331993855535
1783204080392330200,5.561330322265625,-0.0088926237687468,-0.0176604521140456,-0.0347042336344718,0.0007572928443551,0.0014143805019557,-0.0026001557707786
1783204080402267000,5.571266845703125,-0.0003922141879796,-0.0036444939821958,-0.0572106644749641,-0.0002275975421071,0.0005127573385834,-0.0057580354623496
1783204080412204000,5.5812041015625,0.0109331896856427,0.0062368485629558,-0.0604325491309165,0.0008491184562444,-0.0023866258561611,-0.0037279077805578
1783204080422142000,5.591141845703125,0.017016308991611,0.018554770605266,-0.0536029953718185,0.0026102652773261,-0.0066511328332126,-8.74164979904e-05
1783204080432079000,5.6010791015625,0.0097638536453247,0.0353472077131271,-0.0579150133520364,0.0037804581224918,-0.0071728457696735,0.0024372602347284
1783204080442016000,5.61101611328125,-0.0011140987217426,0.0328667890742421,-0.0455184731155633,0.0030902968719601,-0.0068090269342064,0.0076016574166715
1783204080451954200,5.6209541015625,0.0064037295624613,0.025278233641386,-0.0591886865496635,0.0041385171934962,-0.0085347546264529,0.0098602846264839
1783204080461891000,5.63089111328125,-0.0065925301328301,0.0285059635162353,-0.0560077184259891,0.005545291583985,-0.0049806092865765,0.010560255497694
1783204080471829200,5.640829345703125,-0.0145958038464188,0.0102551442936062,-0.0348141237497329,0.0056102727539837,-0.002932904753834,0.0106220412999391
1783204080481766000,5.650765869140625,-0.0256087807700037,0.0089794252693653,-0.0181283618867397,0.0015124715864658,-0.0044612432830035,0.0057000257074832
1783204080491703000,5.660703125,-0.0282289001405239,-0.0167728556245565,-0.0109217915087938,0.0019612144678831,-0.0024276529438793,0.0074081774801015
1783204080501641000,5.670640869140625,-0.0192734402686357,-0.0063756725117564,0.0038227731585502,-0.0027725351974368,-0.0097279343754053,-0.0006419264245778
1783204080511578000,5.680578125,-0.017771511273086,-0.008696516674757,0.0013783026158809,-0.0030971737578511,-0.0098688155412673,-0.0037069586105644
1783204080521515000,5.690514892578125,-0.0106239776059985,-0.016465981632471,0.017862988948822,-0.0115174129605293,-0.0120584471151232,-0.0063287960365414
1783204080531453200,5.700453125,-0.0005310381367802,-0.0113122521311044,0.0233949041128158,-0.01345219835639,-0.0131625933572649,-0.0056475596502423
1783204080541390000,5.71039013671875,0.0111371878251433,-0.0048752048209309,0.0109685532599687,-0.0144548751413822,-0.0142152775079011,-0.0069357398897409
1783204080551327000,5.720326904296875,0.0299874342456459,0.0065238488107919,0.0134352356344461,-0.0142884273082017,-0.0108000393956899,-0.0019500359194353
1783204080561265000,5.730264892578125,0.031587562918663,0.0166918993428349,0.004061842611432,-0.019080527126789,-0.0153618194162845,-0.0016597918001934
1783204080571202000,5.7402021484375,0.0196051564410328,0.0201762343272566,-0.0148708213955163,-0.0174847599118948,-0.0196271371096372,4.75607812404e-05
1783204080581139200,5.75013916015625,0.0276391175538301,0.0262616917207837,-0.0276361949443817,-0.0247589852660894,-0.0233482234179973,0.0014023089315742
1783204080591077000,5.7600771484375,0.0175344876468181,0.0299953252911567,-0.036343233013153,-0.0243821498006582,-0.0224597938358783,0.0044023599475622
1783204080601014000,5.770013916015625,0.0221203541323542,0.0297480725318193,-0.062557870721817,-0.0238871872425079,-0.0220197699964046,0.0066964915022253
1783204080610951200,5.779951171875,0.0067731473967432,0.0267599966317415,-0.0952250455707311,-0.0185464844107627,-0.016347236931324,0.0089327478781342
1783204080620889000,5.78988916015625,0.0083373279735445,0.0156774616032838,-0.1108954929113388,-0.0148348733782768,-0.016653373837471,0.0087714567780494
1783204080630826000,5.799825927734375,-0.0017483049720525,0.0285620776176452,-0.1286491762667894,-0.0100281331688165,-0.0033780490048229,0.0109129045158624
1783204080640763100,5.80976318359375,0.0343371538877487,0.0103740944981575,-0.1075964513659477,-0.0027490239590406,-0.0135134365409612,0.0176806151866912
1783204080650701000,5.819701171875,0.058857554899156,-0.0345873292565345,-0.2033808843851089,0.0049041016027331,-0.0185769032686948,0.0194454919546842
1783204080660638200,5.82963818359375,-0.0378358096584677,-0.0163648593455553,-0.1511702201545238,0.0058465707115828,0.0152388103306293,0.0255184732377529
1783204080670576000,5.839576171875,-0.0523784220129251,-0.0189648127108812,-0.0625906039476394,0.0062497733160853,0.015746409073472,0.0234100483357906
1783204080680513000,5.849512939453125,-0.0434960273772478,-0.0538563856109976,-0.1265875675618648,0.0095995478332042,0.0024640215560793,0.0191907566040754
1783204080690450200,5.8594501953125,-0.0334013343423604,-0.0896887464925646,-0.1057452705413103,0.0154499802738428,0.0008408245630562,0.0122630763798952
1783204080700388000,5.86938818359375,-0.0578852027356624,-0.0745113433659076,-0.0561135168880224,0.0136232143267989,1.405365765e-06,0.0035048318095505
1783204080710325000,5.879324951171875,-0.0753022014826536,-0.0718003308415412,-0.0433726932585239,0.0159343052655458,-0.0009781052358448,0.0004752199165523
1783204080720262100,5.88926220703125,-0.0744458769142627,-0.0693219580292701,-0.0295329684764146,0.014105780981481,0.0001318864524364,-0.0007457896135747
1783204080730200000,5.899199951171875,-0.0762085026726126,-0.0493891770690679,-0.0080640639901161,0.0137803433462977,0.0026866567786782,-0.0043413233943283
1783204080740137200,5.90913720703125,-0.0668278031259775,-0.0359644628286361,-0.0003495440900325,0.0129324430599808,0.0056751323863863,-0.0113979978486895
1783204080750074000,5.91907421875,-0.0496507506147027,-0.0387041169255971,0.0227729728221893,0.0085627287626266,0.0060572964139282,-0.0107404636219143
1783204080760012000,5.929011962890625,-0.0270461200967431,-0.0254755097791552,0.0516524458259344,-0.0014838306233286,0.0039583160541951,-0.0128003228455781
1783204080769949200,5.93894921875,-0.0173623459503054,-0.0105675712436437,0.0707189653456211,-0.013551945798099,-0.0073617165908217,-0.0147114060819149
1783204080779886000,5.948885986328125,-0.0291115281939506,0.0192988669708371,0.0812877056330442,-0.0217101536691188,-0.0147617487236857,-0.0148744052276015
1783204080789824000,5.958823974609375,-0.0243599497526884,0.0297042333900928,0.07141103926301,-0.0310400053858757,-0.0212428160011768,-0.0186768677085638
1783204080799761200,5.96876123046875,-0.0345560573354363,0.0429214423596858,0.0529483308553695,-0.0393225364387035,-0.010765716433525,-0.0092590767890214
1783204080809698000,5.978697998046875,-0.0359188701212406,0.011490239046514,0.066138651818037,-0.0376798994839191,0.0101691260933876,-0.0006549363024532
1783204080819636200,5.98863623046875,-0.0309314370974898,-0.0361918418437242,0.0426326885461807,-0.0356262773275375,0.0107202641665935,-0.0059581357054412
1783204080829573000,5.998572998046875,-0.0292959448501467,-0.0269315538063645,-0.0089449384778738,-0.0341335758566856,-0.0050874608568847,-0.0222918335348367
1783204080839510800,6.0085107421875,-0.0140711954504251,-0.0173939101323485,-0.0129874918669462,-0.0358317121863365,-0.0201031044125556,-0.0309427119791507
1783204080849447700,6.01844775390625,0.015647358725965,-0.017628011149168,-0.0053577276408672,-0.0457160323858261,-0.0292068552225828,-0.031372282654047
1783204080859384800,6.028384765625,0.0371130483418703,-0.0010296353086829,-0.0271685774326324,-0.0492765009403228,-0.0340169444680213,-0.0290341172367334
1783204080869322800,6.03832275390625,0.033543957683444,0.0423959571808576,-0.0385907196789979,-0.0568231046199798,-0.0267891269177198,-0.0226563792675733
1783204080879259600,6.048259765625,0.0498585481464862,0.093626962724328,-0.0307622180104255,-0.0618438199162483,-0.0177825130522251,-0.0156870670616626
1783204080889196500,6.058196533203125,0.0992977018371224,0.0888861979380249,-0.0854530086189508,-0.0573912784457206,-0.0245711766183376,0.0014210790395736
1783204080899134700,6.068134765625,0.1408820503741502,0.0339481545701622,-0.1615373003900051,-0.0430593006312847,-0.0262010488659143,0.0113386176526546
1783204080909071600,6.078071533203125,0.1232268589571118,0.00802870041579,-0.2050496943801641,-0.0244107842445373,-0.0193085204809904,0.0160992853343486
1783204080919008800,6.0880087890625,0.0734203332588076,0.0311269596695899,-0.1890869860947132,-0.0081377420574426,-0.0124318292364478,0.0180337075144052
1783204080928946700,6.09794677734375,0.0509413749471306,0.0317930223628878,-0.1496113002747297,-0.000895008444786,-0.0067662196233868,0.0187554247677326
1783204080938883800,6.1078837890625,0.0227864168256521,0.0007014262676239,-0.1355178929924964,0.0009877309203147,-0.005662003532052,0.016320314258337
1783204080948820500,6.117820556640625,0.0056689855471253,-0.0188230661526322,-0.1037023665368556,0.0007728142663836,-0.0062977001070976,0.0116310194134712
1783204080958758700,6.127758544921875,-0.0079600190937519,-0.0031856442987918,-0.0916997940540313,-0.0034648375585675,-0.0084336455911397,0.005027316045016
1783204080968695600,6.137695556640625,-0.0063537529408931,-0.00475567009449,-0.0869108062118291,-0.0067967185750603,-0.0035984092392027,0.0081405509263277
1783204080978632700,6.1476328125,-0.00354337169528,-0.0088286186218261,-0.0774888978719711,-0.0006401007995009,-0.0027871127240359,0.0107272379100322
1783204080988570600,6.157570556640625,-0.0065264791592955,-0.0169321378394961,-0.0716746586352586,0.0018467586487531,0.0013477108441293,0.0142897479236125
1783204080998507800,6.1675078125,-0.0053632805988192,-0.0186968094244599,-0.0691705668598413,0.0085758008062839,0.0046080430038273,0.0137364724650979
1783204081008444700,6.177444580078125,-0.0226198280870914,-0.0226461315721273,-0.046194180420041,0.0114059429615736,0.0026540819089859,0.0129585629329085
1783204081018382800,6.1873828125,-0.0334866745382547,-0.0341159123525023,-0.0070984338283538,0.0076170926913619,-0.0007653902284801,0.0101346867159008
1783204081028319500,6.197319580078125,-0.0607104892894625,-0.0262765970289707,0.019927520263195,-0.0010046251118183,-0.0040703732520341,0.0052986526861786
1783204081038257700,6.207257568359375,-0.0774172939404845,-0.0124792500838637,0.0264051918447017,-0.0074567170813679,-0.0049953549169003,0.0013462926726788
1783204081048194600,6.217194580078125,-0.0801163237661123,-0.0148091543361544,0.0319692557126283,-0.0148083744570612,-0.0068854005075991,-0.00464928150177
1783204081058131700,6.227131591796875,-0.0707733258813619,-0.0161596921622753,0.0264168822824955,-0.0188286583870649,-0.0131714865565299,-0.0105017544701695
1783204081068069600,6.237069580078125,-0.0493242951393127,-0.0142407067984342,-0.003806406545639,-0.021569849923253,-0.0123648140579462,-0.0131153808906674
1783204081078006800,6.2470068359375,-0.0227431622058153,-0.0135991940245032,-0.0196668235003948,-0.0229490809142589,-0.008631557226181,-0.0127405850216746
1783204081087943700,6.256943603515625,-0.0085422028958797,-0.0189659817546606,-0.0364566302597522,-0.0170051697641611,-0.0113213490694761,-0.0097381370142102
1783204081097881900,6.2668818359375,0.0035369419544935,-0.0165454766094684,-0.0556932456493377,-0.0154116339981555,-0.0081619825214147,-0.008085511624813
1783204081107818500,6.276818603515625,0.0021507482931017,-0.0159209149703383,-0.0450251366406679,-0.0165839567780494,-0.0091798426583409,-0.0071297027170658
1783204081117755600,6.286755615234375,-0.0153188574239611,0.0005716624081134,-0.0392827935963869,-0.02086160518229,-0.0064691794104874,-0.0046183844096958
1783204081127693600,6.296693603515625,-0.0286070858031511,0.009060089290142,-0.0418716410458087,-0.0239929500967264,-0.008152563124895,-0.0071228211745619
1783204081137630700,6.306630615234375,-0.0193725167289376,-0.0048056467160582,-0.0597030658125877,-0.0229957085102796,-0.0115067437291145,-0.0124511886388063
1783204081147567900,6.31656787109375,-0.0130494511872529,-0.0128539286151528,-0.0660351914435625,-0.0189208034425973,-0.0130814705044031,-0.0117494454607367
1783204081157505800,6.326505859375,0.0006382979035377,-0.0068102645367383,-0.0923357538700103,-0.0167369376868009,-0.0095249181613326,-0.0110362088307738
1783204081167442700,6.336442626953125,0.0154950907737016,-0.0013344634741544,-0.1042681837260723,-0.0093594491481781,-0.0027570268139243,-0.0096854530274868
1783204081177380600,6.346380615234375,0.0164797178968787,-0.0094824063554406,-0.1058382095217704,-0.0037016831338405,0.0024186293594539,-0.0045678378082811
1783204081187317500,6.3563173828125,0.0240869780302047,-0.0035778584867715,-0.1107265660852193,0.001118903979659,0.0018130266107618,-0.0011733726132661
1783204081197254700,6.366254638671875,0.021570611295104,0.0014180501043796,-0.0899701937824487,0.0030275443568825,0.0001563490368425,-0.0029674882534891
1783204081207192600,6.376192626953125,0.0149666829854249,0.0019552257210016,-0.0666974547445774,0.0023292638361454,-0.0005776179023087,-0.0049957516603171
1783204081217129700,6.386129638671875,0.0069566872701048,0.0092494743824005,-0.0402186131417751,9.49939712882e-05,-0.0040709059685468,-0.0047377361916005
1783204081227067000,6.39606689453125,-0.0065413844674825,0.0084258830398321,-0.0339186362147331,0.0001493226736783,-0.0027939202263951,-0.0027400990948081
1783204081237004800,6.4060048828125,0.0029290391892194,0.0114823480010032,-0.0229758019179105,-0.0049488730728626,0.0012363130226731,-0.0038542812690138
1783204081246941400,6.41594140625,0.0105737087234854,0.0016369535520672,-0.0423965417027473,-0.0072959158569574,0.0037218413781374,-0.0003706002607941
1783204081256878600,6.425878662109375,0.0114627665176987,-0.0022606384083628,-0.0288233589023351,-0.0004272311925888,0.0029833137523382,0.0015194504521787
1783204081266816500,6.43581640625,0.0170578100457787,-0.0061316346228122,-0.0296083718001842,-0.0008791694417595,0.0003723506815731,-0.0012366550508886
1783204081276753700,6.445753662109375,0.009332476490736,-0.0159840433344244,-0.0284843362063169,-0.0002270117402076,-0.003354808781296,-0.0019213160267099
1783204081286690800,6.45569091796875,-0.0013020225092768,-0.0052276715204119,-0.0233557411462068,-0.003069669008255,-0.0045359204523265,-0.002093356102705
1783204081296628700,6.465628662109375,-0.0154150112748146,0.0045128012493252,0.006260813960433,-0.0049051959067583,-0.0058652721345424,-0.0030436147935688
1783204081306566000,6.47556591796875,-0.0216851775854825,0.0110816582456231,0.0239303261637687,-0.0082272235304117,-0.0091108670458197,-0.0028856894932687
1783204081316502500,6.48550244140625,-0.0295727159649133,0.0008563245683908,0.0268599498748779,-0.0177752263844013,-0.0044190008193254,-0.0022442634217441
1783204081326440400,6.4954404296875,-0.0184662155389785,0.0053968906074762,0.0105699093312025,-0.0215499922633171,-0.0038520134985446,0.0005667032673954
1783204081336377600,6.505377685546875,-0.0209895965367555,-0.0116325701266527,0.000236731365323,-0.019725602120161,-0.0046701561659574,-0.0010141939856112
1783204081346315500,6.5153154296875,-0.0312885799720883,-0.0129401455938816,-0.0145206927835941,-0.0223493501543998,-0.0019263010472059,-0.0057458323426544
1783204081356252700,6.525252685546875,-0.0303033683270215,-0.0275771582335233,-0.0225549461573362,-0.0217430107295513,-0.0026673101820051,-0.0046225134283304
1783204081366189800,6.53518994140625,-0.0285565246596932,-0.0319388605743646,-0.0228197345733642,-0.0227129347622394,-0.0074021439068019,-0.0109994523227214
1783204081376127700,6.545127685546875,-0.0196539640188217,-0.0385264222711324,-0.0272919115513563,-0.0266564600169658,-0.0111525170505046,-0.0137283019721508
1783204081386064600,6.555064697265625,-0.0086354341372847,-0.0307040580824017,-0.0451303505808114,-0.0269171819090843,-0.0132191311568021,-0.0114568918943405
1783204081396001500,6.56500146484375,-0.0069020344734191,-0.0152291333138942,-0.0559843375504016,-0.0256081782281398,-0.0130184795707464,-0.0134401451796293
1783204081405939500,6.574939453125,-0.0035123920351266,-0.0084048402518033,-0.0562035332590341,-0.0244289301335811,-0.0127351190894842,-0.0101410206407308
1783204081415876600,6.584876708984375,0.0040747020930051,0.0080196403264999,-0.0546405217260122,-0.0228846669197082,-0.0089858621358871,-0.0076015628874301
1783204081425813800,6.594813720703125,0.0062707508325576,0.0104082890287041,-0.0539373418927192,-0.0259204059839248,-0.0047703441232442,-0.0038819252513349
1783204081435751700,6.604751708984375,0.0184688458874821,0.0009852116450667,-0.0500572855889797,-0.0263920836150646,-0.0055804913863539,0.0034013646654784
1783204081445688800,6.614688720703125,0.0202250419050455,0.0071907882869243,-0.0624234306871891,-0.0268362984061241,-0.0040339929983019,0.0048216287977993
1783204081455625700,6.624625732421875,0.0158066409409046,0.0081885671526193,-0.0592576601326465,-0.0223161429166793,-0.0041115805506706,0.0047053848393261
1783204081465563600,6.634563720703125,-0.0024932781204581,0.0184463417947292,-0.0847398919135332,-0.0188662856817245,-0.0038029206916689,0.0028574173338711
1783204081475500500,6.64450048828125,-0.0019201544076204,0.0157084412634372,-0.0744739339649677,-0.0135184712707996,-0.0055953967384994,-0.0037605802062898
1783204081485437700,6.654437744140625,-0.0131435592114925,0.0079930445805191,-0.0568868393480777,-0.0163158569484949,-0.0048936535604298,-0.0005389542784541
1783204081495375600,6.664375732421875,-0.017855390164256,0.0079214406490325,-0.0257750772476196,-0.0223124977201223,-0.0003457735292613,-0.0010353673715144
1783204081505312800,6.674312744140625,-0.0031073183655738,0.0048655602097511,-0.0166810856878757,-0.0254757981747388,-0.0069168568588793,-0.0014534837100654
1783204081515249700,6.684249755859375,0.0227992763072252,-0.0073532853722572,-0.0462929646193981,-0.0207782480865716,-0.0137776918709278,-0.0012976888101547
1783204081525187800,6.694187744140625,0.0255778011098504,-0.0240787947237491,-0.0711953506857156,-0.0152910724282264,-0.0092772170901298,-0.0016116754850372
1783204081535124700,6.704124755859375,0.0177767719700932,-0.0121630237415432,-0.0713917500406503,-0.010647295974195,-0.0013191197067499,-1.10261607915e-05
1783204081545062700,6.714062744140625,0.0052718029230833,0.0078302552342414,-0.0849655173629522,-0.0045332117006182,0.0037659199442714,-0.0014363499358296
1783204081554999600,6.72399951171875,0.0046545478075742,0.0119201548963785,-0.0930763431042432,-0.0017816973850131,0.0076510882936418,0.0030750422738492
1783204081564936700,6.733936767578125,0.0158256379023194,0.0083034257039427,-0.0796270789444446,-0.0026301816105842,0.0112708564847707,0.008186712861061
1783204081574874600,6.74387451171875,0.0100263039737939,0.0048760816037654,-0.0864800135791301,-0.0023774681612849,0.0065927091054618,0.0077661112882196
1783204081584811800,6.753811767578125,0.0022363807499408,0.0001525602132081,-0.1045487542331218,-0.0015841126441955,0.0012895562686026,0.0053570154123008
1783204081594748700,6.763748779296875,-0.0132607558503746,-0.0034320202752947,-0.0919201588064432,0.0014481842517852,0.0029546036384999,0.0089417193084955
1783204081604686800,6.773686767578125,-0.0234214998587965,-0.0100847561627626,-0.0922457374989986,0.0042178714647889,0.0071155265904963,0.0068468772806227
1783204081614623700,6.783623779296875,-0.0328825711652636,-0.0135015788689255,-0.1082727431923151,0.0068052979186177,0.0101704970002174,0.0072395615279674
1783204081624560600,6.793560546875,-0.0279351778909564,-0.0355550052449107,-0.1078179851621389,0.0085853543132543,0.0106386812403798,0.0055750859901309
1783204081634498600,6.80349853515625,-0.020237024603784,-0.0443801167353987,-0.1168897648900747,0.0079278536140918,0.0145706627517938,0.0054801413789391
1783204081644435700,6.813435791015625,-0.0232215933725237,-0.0489735820055007,-0.1249514907926321,0.0139476638287305,0.0205385405570268,0.0054122302681207
1783204081654372600,6.82337255859375,-0.0418289709478616,-0.0574661005407571,-0.1144786120951175,0.020073615014553,0.0247673671692609,0.0018783600535243
1783204081664310800,6.833310791015625,-0.0528641597032547,-0.0429436541914939,-0.106969259378314,0.0244459919631481,0.0250374116003513,-0.0007704198360443
1783204081674247700,6.84324755859375,-0.0661345601648092,-0.0414659828543663,-0.0904571005165576,0.0254599414765834,0.0211507100611925,-0.0051414743065834
1783204081684185900,6.853185791015625,-0.0616957009345293,-0.0379278718560934,-0.0674000500559806,0.0278280265629291,0.0201658736914396,-0.0090922731906175
1783204081694122800,6.863122802734375,-0.0572860677987337,-0.0303705883443355,-0.0507329928934574,0.0266319774091243,0.0153543017804622,-0.0116780260577797
1783204081704059600,6.8730595703125,-0.0576870498150587,-0.0129202718496322,-0.0169885442018508,0.0210316181182861,0.0189791303128004,-0.0178214069455862
1783204081713997600,6.88299755859375,-0.0466913162872195,-0.0044727614998817,-0.0054378071397542,0.0158360991626977,0.0159866139292716,-0.0142033230513334
1783204081723934700,6.892934814453125,-0.0333715237259864,-0.0013239420801401,-0.0248912801504135,0.0152688454836606,0.0217819176614284,-0.015384966507554
1783204081733871600,6.90287158203125,-0.0167784085825085,-0.0049970776349306,0.001292377898097,0.0108830071985721,0.0257987454533576,-0.0155788902193307
1783204081743809800,6.912809814453125,-0.00566021771878,-0.0080205171093344,0.0058458034187555,0.0136202042922377,0.0209632441401481,-0.0136883119121193
1783204081753746700,6.92274658203125,-0.0125268886178731,0.0122886959478259,0.002691138780117,0.0123995346948504,0.0132475141435861,-0.0209971368312835
1783204081763683800,6.932683837890625,0.0067085577279329,0.0344014512956142,-0.0018739771783351,0.0119603788480162,0.009712167084217,-0.0149834519252181
1783204081773621800,6.942621826171875,0.0160080087319016,0.0388639836624264,0.0097936642616987,0.0129963289946317,0.0114085488021373,-0.011245478875935
1783204081783558700,6.95255859375,0.0259489725098013,0.0364940396606922,0.017471359282732,0.0152443032711744,0.0084383245557546,-0.0062339422293007
1783204081793495600,6.96249560546875,0.0298249371603131,0.0501236288234591,0.0366997913658618,0.0094132283702492,0.0054343752562999,-0.0057207932695746
1783204081803433700,6.972433837890625,0.0229278711229562,0.0442792867094278,0.0543985296636819,0.0070888209156692,0.002838326152414,-0.0013079352211207
1783204081813370600,6.98237060546875,0.0295417363047599,0.0404436540693044,0.0607230565100908,4.86345961689e-05,-0.0009225560352206,-0.0022211386822164
1783204081823307800,6.992307861328125,0.0354565133064985,0.0306800926849246,0.0734533587455749,-0.010434366762638,-0.0041766725480556,-0.0033172958064824
1783204081833245700,7.00224560546875,0.0224140763819217,0.030649405285716,0.0615215134114026,-0.0158162675797939,-0.0074162525124847,-0.0015635120216757
1783204081843183900,7.012183837890625,0.0267044670522212,0.0204091663002967,0.0327601138293743,-0.0171145573258399,-0.0109388157725334,-0.0035552901681512
1783204081853121800,7.022121826171875,0.0345844066470861,0.0227899239569902,0.0231833071887493,-0.0187500454485416,-0.0130901951342821,-0.0063414024189114
1783204081863058700,7.03205859375,0.0408124873816967,0.0292383694440126,0.0039841012001037,-0.0180584229528903,-0.0088994447141885,-0.0022095078602433
1783204081872995600,7.04199560546875,0.0462049940750002,0.0279699569433927,-0.0144154788434505,-0.0174795128405094,-0.010355245321989,-0.0013114924076944
1783204081882933500,7.05193359375,0.0705994306191802,0.0304456994071602,-0.0142360306233167,-0.0199615806341171,-0.0171311255544424,0.0016717808321118
1783204081892870700,7.06187060546875,0.0759963212266564,0.0179722945421934,-0.041819034075737,-0.0160158611834049,-0.0159519165754318,0.006002789363265
1783204081902807800,7.071807861328125,0.0583931522578001,0.014860300001502,-0.032822073149681,-0.0152427460998296,-0.0148416459560394,0.0060954680666327
1783204081912745700,7.081745849609375,0.05495236415416,0.032988077366352,-0.0242570739001035,-0.0146289300173521,-0.0155011219903826,0.0098948199301958
1783204081922683000,7.091682861328125,0.0338575536772608,0.018896131388843,-0.0417804556310176,-0.0160814188420772,-0.0098379096016287,0.0111174769699573
1783204081932619500,7.10161962890625,0.0440396327346563,0.0086865798026323,-0.0573018498897552,-0.0160839296877384,-0.0057831769809126,0.0070011145435273
1783204081942557700,7.1115576171875,0.0284229614078998,0.0162792268887162,-0.0700438425630331,-0.0128617715090513,-0.0038686301559209,0.0066780732013285
1783204081952494600,7.12149462890625,0.0226733118399977,0.0113362175285816,-0.0747697020411491,-0.0124122146517038,-0.0006177215836942,0.009450739249587
1783204081962431700,7.131431640625,0.0332739085704088,-0.0041939445585012,-0.0753863726347684,-0.0120415035635232,-0.0025373282842338,0.0092603238299489
1783204081972369700,7.14136962890625,0.0146060329794883,-0.009684943190217,-0.082670099902153,-0.0081341359764337,-0.0047645685262978,0.0134888011962175
1783204081982306800,7.151306884765625,-0.009265256473422,0.0107879359960556,-0.095437811538577,-0.0008450644090771,-0.0067488900385797,0.0145300980657339
1783204081992244700,7.16124462890625,-0.0235068400546908,0.020656711320579,-0.0979559318393468,0.0019046925008296,-0.0038094804622232,0.0148818138986825
1783204082002182000,7.171181884765625,-0.0371685779213905,0.0028378537744283,-0.1018804118067026,0.0064957160502672,-0.0032052095048129,0.0151731632649898
1783204082012118500,7.181118408203125,-0.0549830515533685,-0.0121580553054809,-0.0931990927010774,0.0068739266134798,0.0019334373064339,0.0153744118288159
1783204082022056700,7.191056640625,-0.0493555670604109,-0.0242874690383672,-0.0826870510369539,0.0067397034727036,0.0012822947464883,0.0140337767079472
1783204082031993600,7.20099365234375,-0.0545332619592547,-0.028791794720292,-0.0940139162153005,0.0093404650688171,0.0074745072051882,0.0112624485045671
1783204082041930800,7.2109306640625,-0.0548053568989038,-0.0506324551284313,-0.0638654461890459,0.0106957480311393,0.0130972396582365,0.0099609605967998
1783204082051868700,7.22086865234375,-0.0453825717762112,-0.0484179939493536,-0.0560626634836196,0.016609214246273,0.0126054640859365,0.0037293387576937
1783204082061805800,7.230805908203125,-0.040666356909275,-0.0522448587611317,-0.0422732075840234,0.0176196172833442,0.002744045574218,0.0024555488489568
1783204082071742700,7.24074267578125,-0.0390416783168911,-0.0319926365882158,-0.0210708450794219,0.01476417388767,-0.0015734857879579,0.0026201822329312
1783204082081681000,7.250680908203125,-0.0376379489988088,-0.0099131989881396,0.0108680154949426,0.0092458380386233,0.0020934208296239,0.0049509815871715
1783204082091617500,7.260617431640625,-0.0480579284653067,-0.0128644500091671,0.0232873520851135,0.0018195817247033,0.000859881285578,0.0064920037984848
1783204082101554700,7.2705546875,-0.053579614496231,-0.0119204471573233,0.0240974994242191,-0.006732627749443,-0.0020472253672778,0.0016053696162998
1783204082111492600,7.28049267578125,-0.0416626744702458,-0.0115127431392669,0.0148614690452814,-0.0126141421496868,0.0006223828531801,-0.0023206514306366
1783204082121429800,7.2904296875,-0.0318202026307582,-0.0145008190393447,-0.0118640407949686,-0.0121805798262357,0.0026759463362395,-0.0077266017906367
1783204082131366700,7.30036669921875,-0.0175938166186213,-0.0117915600806474,-0.0148100311189889,-0.0095678372308611,0.0043708924204111,-0.0115837501361966
1783204082141304800,7.310304931640625,-0.0055994274422526,-0.0010281740039587,-0.0254722949087619,-0.0078516965731978,0.0077730808407068,-0.0089586721733212
1783204082151241700,7.32024169921875,0.0062786418780684,0.0126584060430526,-0.0258867209285497,-0.008167915046215,0.0056135817430913,-0.0056596803478896
1783204082161180000,7.330179931640625,0.0136748896092176,0.0221335058748722,-0.0337345118194818,-0.0061207432299852,0.0060993423685431,-0.0007717146072536
1783204082171116500,7.340116455078125,0.0227948923930525,0.032003450243175,-0.0018429975181818,-0.0063857715576887,0.0012208856642246,0.0013684886507689
1783204082181053700,7.3500537109375,0.0229237794697284,0.0268546891778707,0.0045838206589221,-0.0123997218906879,-0.0033421744592487,0.0039072800427675
1783204082190991600,7.35999169921875,0.0252355635434389,0.0300455941736698,-0.0052075055152177,-0.0202667601406574,-0.0115421917289495,0.0038559788372367
1783204082200928800,7.3699287109375,0.0259755682557821,0.0220452430695295,-0.0298480257749557,-0.0195429138839244,-0.0149576961994171,0.0031576978508383
1783204082210865700,7.37986572265625,0.0265700270175933,0.0220689162060618,-0.0611076719135045,-0.0221515670418739,-0.0122339837253093,0.0057430528104305
1783204082220803800,7.389803955078125,0.0157671857133507,0.0148480250418186,-0.1053489647001028,-0.0150025775656104,-0.0061428025364875,0.0104672340676188
1783204082230740700,7.39974072265625,0.0004433598533272,0.0099985391840338,-0.1345645377904176,-0.0075102774426341,0.0020667118951678,0.0114971175789833
1783204082240677600,7.409677734375,-0.0080725395575165,-0.0025239655196666,-0.1319002870172262,0.0014826850965619,0.0108815087005496,0.0131450816988945
1783204082250615600,7.419615478515625,-0.0159641695901751,-0.0199064774751663,-0.1187929681628942,0.0121151879429817,0.0078172301873564,0.0109909325838088
1783204082260552700,7.429552734375,-0.0240247264489531,-0.0283747383520007,-0.1108423014193773,0.0121844299137592,0.0095355017110705,0.0138706099241971
1783204082270489600,7.439489501953125,-0.0305918298795819,-0.0463175145387649,-0.0814122087955474,0.0141248134896159,0.0069650057703256,0.0127049945294857
1783204082280427800,7.449427734375,-0.0347661929547786,-0.0580766336545348,-0.0780927089840173,0.0115199759602546,0.0023747815284878,0.0047051240690052
1783204082290364700,7.45936474609375,-0.0468017909243702,-0.0657104895338416,-0.0687228230923414,0.0154797853901982,0.0028511288110166,-0.0030258956830948
1783204082300302800,7.469302734375,-0.0498188006579875,-0.0493231260955333,-0.0494260019481182,0.0105809001252055,0.0040410291403532,-0.0098957857117056
1783204082310239700,7.47923974609375,-0.0525987867653369,-0.0334884281039237,-0.0544669187247753,0.0105095282196998,0.0040484862402081,-0.008034236729145
1783204082320176600,7.4891767578125,-0.0336170229196548,-0.0336795667618513,-0.054284547895193,0.0122664151713252,0.0075436187908053,-0.0133901201188564
1783204082330114600,7.499114501953125,-0.0229591430440545,-0.0228074596136808,-0.0421609793812036,0.0184416491538286,0.0022301652934402,-0.0107940360903739
1783204082340051700,7.5090517578125,-0.0024929858595132,-0.0095011110559105,-0.0466997918546199,0.0166573300957679,0.0010682279244065,-0.0093388836830854
1783204082349988600,7.518988525390625,-0.0043462125107645,0.0032014263898134,-0.0381505746960639,0.0166314989328384,0.0025848983787,-0.0105615416541695
1783204082359926800,7.5289267578125,0.0062377253457903,0.0167296010047197,-0.026208792489767,0.015435473062098,0.0027960869483649,-0.0093942787498235
1783204082369863700,7.53886376953125,0.0221156779572367,0.0353890010282397,-0.0317108970373868,0.0183843336999416,0.0084325382485985,-0.0089476192370057
1783204082379800800,7.54880078125,0.0270905437603592,0.0517155741900205,-0.0224187525570392,0.0157813597470521,0.007829331792891,-0.0105063673108816
1783204082389738800,7.55873876953125,0.0350204599767923,0.0627665450364351,-0.0177729725778102,0.0168275311589241,0.0102343214675784,-0.0055695734918117
1783204082399675600,7.568675537109375,0.0450406264707446,0.0560384058251976,0.0034580314993858,0.0111179808154702,0.0060827196575701,-0.0014789579436182
1783204082409612500,7.578612548828125,0.0454150127410888,0.0491229273483157,0.0012906243324279,0.0093557862564921,-0.0040422999300062,0.0035571192856878
1783204082419550700,7.58855078125,0.0308840908244252,0.0435930580109357,-0.0101326869577169,0.0108996201306581,-0.0125945098698139,0.0080125881358981
1783204082429487600,7.598487548828125,0.0353112596169114,0.0310346052110195,0.0012128829210996,0.0103287827223539,-0.0126943569630384,0.0075511066243052
1783204082439424800,7.6084248046875,0.0195198162451386,0.0238455704897642,0.0070820672154426,0.0065438984893262,-0.0087289102375507,0.0078709525987505
1783204082449362700,7.61836279296875,0.0140463532701134,0.012542086187005,0.0091898531496524,-0.0002452973276376,-0.0017245449125766,0.0054065128788352
1783204082459299600,7.628299560546875,0.0113189741328358,0.003019347821176,-0.0101350250452756,-0.0044661415740847,0.0050838263705372,0.0052720233798027
1783204082469237500,7.638237548828125,0.0093488431036472,0.01012684173882,-0.0443769018650054,0.0003531146794557,0.0111292023211717,0.0062576597556471
1783204082479174700,7.648174560546875,0.0038826866522431,0.0094485040858387,-0.0426017088860273,0.0094547346234321,0.0103952344506978,0.0055015878751873
1783204082489111600,7.658111572265625,-7.24807143211e-05,0.0102303021132946,-0.0266805016547441,0.007751986850053,0.0054006585851311,0.0076512838713824
1783204082499049700,7.6680498046875,-0.0061447863653302,-0.0051049219235777,-0.0341699806272983,0.0092811733484268,-0.002262853551656,0.0114561431109905
1783204082508986600,7.677986572265625,-0.0102431615948677,-0.0082347443819046,-0.0072685296982526,0.0044238399714231,-0.008612641133368,0.0117677813395857
1783204082518923800,7.687923828125,-0.029498773945868,-0.0056298225805163,0.006301730492711,-0.0012697326019406,-0.0116395903751254,0.0084508145228028
1783204082528861700,7.69786181640625,-0.0371492886990308,-0.0167827924966812,-0.0111766430526971,-0.0036581605672836,-0.0057779015041887,0.0061315526254475
1783204082538798600,7.707798583984375,-0.0386009488120675,-0.0211412799671292,-0.0220242002815008,-0.0021606655791401,0.0009942506439983,0.0081014931201934
1783204082548735700,7.71773583984375,-0.0363067003950476,-0.0328995223000645,-0.040118075376749,-0.0050063151866197,0.0045464970171451,0.0030980433803051
1783204082558673700,7.727673583984375,-0.0324488559231162,-0.0477244587272405,-0.0444324314445257,-0.0018398165702819,0.004838912282139,0.0003877442795783
1783204082568610600,7.737610595703125,-0.0302940159767866,-0.0436985642120242,-0.0397878205090761,-0.0006614662706851,0.0058374041691422,-0.0027557669673115
1783204082578547700,7.747547607421875,-0.0370054963141679,-0.0387643226802349,-0.0261836580485105,0.0018339157104492,0.0024045896716415,-0.0061038928106427
1783204082588485600,7.757485595703125,-0.037786709819734,-0.029148060812056,-0.0051747722893953,-0.0008202344179153,0.0013706581667065,-0.0062755299732089
1783204082598422800,7.7674228515625,-0.0206356685325503,-0.0146633161246776,-0.0008054711639881,-0.0049326876178383,-0.0003404230810701,-0.0051785735413432
1783204082608359700,7.777359619140625,-0.0143991122305393,-0.0116764092683792,-0.0080313307642936,-0.0073170755058526,-0.0038652326911687,-0.0057064155116677
1783204082618297600,7.787297607421875,0.0004950900405645,-0.0106985041469335,-0.0089361706495285,-0.0112686734646558,-0.0020934315398335,-0.0045583266764879
1783204082628234800,7.79723486328125,0.0221498724877834,-0.0142108961820602,-0.0248158768266439,-0.0123719237744808,-0.0048842034302651,-0.0055489400401711
1783204082638172700,7.807172607421875,0.0219774385303258,-0.0142395377546548,-0.0224877261400222,-0.0136624909937381,-0.0057473336346447,-0.0057449485175311
1783204082648109600,7.817109619140625,0.016689853516221,-0.0114613052129745,-0.0194189862191677,-0.0122043238952755,-0.0078569334000349,-0.0061882729642093
1783204082658046700,7.827046630859375,0.0153384389072656,0.0046463645011186,-0.0359445890843868,-0.0092948200181126,-0.0051476997323334,-0.0101204300299286
