time,seconds_elapsed,ax,ay,az,gx,gy,gz
1783197238772811000,0.09781103515625,0.0817034468270838,0.1399814482726156,-0.0883171658784151,0.1485678106546402,-0.0432588756084442,0.0963572561740875
1783197238782747100,0.1077470703125,0.0978444342888891,0.107868984697014,-0.104622988513112,0.1548670381307602,-0.0446164533495903,0.0979407504200935
1783197238792683800,0.117683837890625,0.1019096379011869,0.0844435393154621,-0.1620832438349723,0.1646762639284134,-0.0327904187142849,0.1002643555402755
1783197238802621000,0.127620849609375,0.0575819820053875,0.0879476019136607,-0.1348971307456493,0.1639008671045303,-0.0370161086320877,0.1056911498308181
1783197238812557800,0.137557861328125,-0.0115025870714336,0.0718354021549224,-0.1000309845477342,0.1591151654720306,-0.0431264676153659,0.1091729700565338
1783197238822495000,0.147494873046875,-0.0090856621228158,0.0298496332101523,-0.0870101749330759,0.1598035097122192,-0.0424233525991439,0.1074051484465599
1783197238832431900,0.157431884765625,-0.0149864836644381,-0.0123319505676627,-0.127825584924221,0.1655764430761337,-0.0289325807243585,0.0985860899090766
1783197238842368800,0.16736865234375,-0.0707507487233728,-0.0008081015124917,-0.1414753400921821,0.1658129841089248,-0.0094630336388945,0.0819760635495185
1783197238852306000,0.177305908203125,-0.1273776219610125,0.0057293374322354,-0.1023164651364088,0.1538356840610504,0.0057076634839177,0.0675033852458
1783197238862242000,0.187241943359375,-0.1383782508596777,-0.0238562380142509,-0.0858423001974821,0.1396364867687225,0.0137886386364698,0.0589632391929626
1783197238872178700,0.1971787109375,-0.1275444298952817,-0.0553739505670964,-0.0149754508137702,0.1149902641773223,0.0165761690586805,0.0549871399998664
1783197238882115800,0.20711572265625,-0.1248367053065448,-0.0722537736974656,0.0354267026901245,0.0989547967910766,-0.0008978745900094,0.0554740130901336
1783197238892053000,0.217052978515625,-0.0953443611014634,-0.0872685336083173,-0.0116653033524751,0.1013399288058281,-0.0167151875793933,0.0563997253775596
1783197238901990000,0.226989990234375,-0.0675898735396564,-0.0879258284732699,-0.0065577510803937,0.1057657897472381,-0.0281630307435989,0.0610973238945007
1783197238911927000,0.236927001953125,-0.0724628133382648,-0.0524471033349633,-0.0144786072075366,0.1246771588921547,-0.0353386513888835,0.061773769557476
1783197238921863700,0.24686376953125,-0.0772268128696829,-0.0187957397542893,-0.0294973126411437,0.1411143541336059,-0.0404812917113304,0.06290153414011
1783197238931800800,0.25680078125,-0.0808545749127864,-0.0025099369943141,-0.0416869321286678,0.1606374531984329,-0.0319104418158531,0.0620796792209148
1783197238941737000,0.266737060546875,-0.0868810686606913,-0.0045084173351526,-0.056034021911025,0.1601555794477462,-0.0217961054295301,0.0542449951171875
1783197238951674000,0.276674072265625,-0.1014887821406125,-0.0150631290972232,-0.0615308657616376,0.1525751650333404,-0.0075218295678496,0.0474065281450748
1783197238961610800,0.28661083984375,-0.1025683940708637,-0.0204226103037595,-0.07379822666049,0.1311367452144622,0.0040539857000112,0.0423166193068027
1783197238971548000,0.2965478515625,-0.1066582206677645,-0.0407046430930495,-0.0536737225204706,0.1070670932531356,0.0175202600657939,0.0423555001616478
1783197238981484800,0.30648486328125,-0.0882638282559812,-0.0733893535986542,-0.0597106645971536,0.091920368373394,0.0310158338397741,0.0412179045379161
1783197238991422000,0.316421875,-0.0713688806217163,-0.073393445251882,-0.0636076720356941,0.0769044011831283,0.0256801899522542,0.0404834039509296
1783197239001359000,0.326359130859375,-0.0553539306923747,-0.0725812520861625,-0.0973199720233678,0.0846951007843017,0.0200155600905418,0.0378460399806499
1783197239011295700,0.336295654296875,-0.0493151619847863,-0.0798731626600027,-0.1826730273991823,0.1062201038002967,0.0381170660257339,0.0365269742906093
1783197239021233000,0.34623291015625,-0.0507601731613278,-0.0476180757433176,-0.1994318544983863,0.132665678858757,0.0485299713909626,0.0259708017110824
1783197239031169000,0.3561689453125,-0.0433897905237972,0.0037713352322578,-0.1927308955550193,0.1554721891880035,0.0480886884033679,0.0237340126186609
1783197239041106000,0.36610595703125,-0.005850479593873,0.0104760935679078,-0.1529489202648401,0.1643327325582504,0.0482073649764061,0.0292090661823749
1783197239051042800,0.376042724609375,0.0435251804064959,0.0265925311103463,-0.0606225187450647,0.1557677388191223,0.0433526895940303,0.0366643220186233
1783197239060980000,0.38597998046875,0.0497859943669289,0.0344642873987555,0.0582101969063282,0.1290580034255981,0.0331463068723678,0.0461487062275409
1783197239070916900,0.395916748046875,0.0474715068794786,0.0272398891031742,0.1462058757454157,0.0988092795014381,0.0260404609143733,0.0469127669930458
1783197239080854000,0.40585400390625,0.0269645062278956,-0.0191115277051925,0.195911279156804,0.0739713385701179,0.0316645130515098,0.0426365882158279
1783197239090791000,0.415791015625,-0.0108818248245865,-0.0453890015169978,0.2007733322352171,0.0544722042977809,0.0368297100067138,0.0291559305042028
1783197239100727800,0.425727783203125,-0.0716864952035248,-0.0481236871778964,0.1972562640249729,0.045760978013277,0.0453246645629406,0.0120291374623775
1783197239110665000,0.4356650390625,-0.1016471145074814,-0.0725002958044409,0.1647533398270607,0.0436309836804866,0.0571845173835754,0.0008164308965206
1783197239120600800,0.445600830078125,-0.1159630054339766,-0.0845335556864738,0.1457020178765058,0.0367660708725452,0.0618749298155307,-0.0091491732746362
1783197239130538000,0.4555380859375,-0.1346646371640265,-0.0881242736548185,0.1462830326348543,0.0308517217636108,0.0664150863885879,-0.0186571907252073
1783197239140475000,0.465474853515625,-0.11630867706649,-0.0858455150678753,0.1438911690622568,0.020033199340105,0.0672347918152809,-0.016680009663105
1783197239150411800,0.475411865234375,-0.1018487745594233,-0.0831821410775184,0.1410159058868885,0.0115105509757995,0.0663524866104126,-0.0040555605664849
1783197239160348000,0.485347900390625,-0.0438492247290909,-0.0916013021156191,0.1267190849870443,0.0073822438716888,0.0685997307300567,0.0153402304276824
1783197239170285000,0.49528515625,-0.0063568947460502,-0.0818041307225823,0.0881798032343387,0.0264195837080478,0.0486236289143562,0.0098202964290976
1783197239180221700,0.5052216796875,0.014404226797074,-0.0068012044474482,-0.0275093536943197,0.0522358790040016,0.0535775683820247,0.0067712548188865
1783197239190158800,0.515158935546875,0.0124777157139033,-0.0301952317774295,-0.003064063745737,0.0675322711467742,0.0326810739934444,0.0066586029715836
1783197239200096000,0.525095947265625,0.0086824150841683,-0.0207531574323773,-0.0147363813608884,0.0830466300249099,0.0035308562219142,0.0160030629485845
1783197239210033000,0.535032958984375,-0.0047943946696817,-0.0216124046102166,-0.1051730236113071,0.095863364636898,0.0389903150498867,0.0109185539186
1783197239219968800,0.54496875,0.0056320145376026,-0.0963201473310589,-0.0428974769622087,0.0856029093265533,0.0718392580747604,-0.0013835821300745
1783197239229906000,0.554906005859375,-0.0174766199797391,-0.040793198159337,0.0288221898585557,0.0605550780892372,0.0700469464063644,0.0025120896752923
1783197239239842800,0.5648427734375,-0.019401085236296,-0.0213753809839487,0.033750878432393,0.0381247103214263,0.0643872767686843,0.0130393896251916
1783197239249780000,0.574780029296875,0.0566262156505137,-0.1041498180434107,0.0673474430859088,0.0235351156443357,0.0562111027538776,0.013392524793744
1783197239259716900,0.584716796875,0.0631207653015852,-0.1205593933135271,0.0246481190443038,0.0215719435364007,0.0771970227360725,-0.0051749087870121
1783197239269653800,0.59465380859375,-0.0144224931061267,-0.0466957002013921,0.0005465279668569,0.0167923681437969,0.1129731312394142,-0.0300440397113561
1783197239279591000,0.6045908203125,-0.0858573516361415,-0.0185182379871606,-0.0217898070037364,0.014943148009479,0.1642417311668396,-0.0381548255681991
1783197239289527800,0.61452783203125,-0.1183295153696089,-0.0431818468615412,-0.0298234758555889,0.0103926043957471,0.1913356781005859,-0.0387729443609714
1783197239299465000,0.62446484375,-0.0796953949403017,-0.0225900174707174,0.0175374102562665,0.0187968723475933,0.1784957200288772,-0.0345722213387489
1783197239309402000,0.634402099609375,0.0147564012356102,0.0164651048496365,0.0019873744249343,0.0266081895679235,0.150662750005722,-0.0263571683317422
1783197239319338800,0.6443388671875,0.0738590169370174,0.0273030174672603,0.0433078113287687,0.0271450597792863,0.1210806369781494,-0.0111231468617916
1783197239329275000,0.65427490234375,0.101141320409812,0.0149552848085761,0.1366413440644741,0.0159664414823055,0.099854439496994,0.0059426552616059
1783197239339212000,0.6642119140625,0.1111968139454722,0.0110869189426302,0.2339467030405998,-0.0027912724763154,0.0730428025126457,0.0244824178516864
1783197239349149000,0.67414892578125,0.1025962684584781,0.0291822553426027,0.3049702042907476,-0.0219234228134155,0.0293112955987453,0.0383010283112525
1783197239359085800,0.6840859375,0.1075312771752476,0.0162269121795892,0.3245154472380876,-0.0341240055859088,0.0058924509212374,0.0432630404829978
1783197239369022700,0.694022705078125,0.1034164988001808,-0.0095835286423563,0.2600286542803049,-0.0299340523779392,0.0116075947880744,0.0375723987817764
1783197239378960000,0.7039599609375,0.0411692649301141,0.0110161917939782,0.1618944432646036,-0.0162205006927251,0.034424290060997,0.0257766060531139
1783197239388897000,0.71389697265625,-0.0414964145252481,0.0480541290730237,0.1108767882108688,-0.0086209047585725,0.0618340745568275,0.0150701664388179
1783197239398834000,0.723833984375,-0.0898548237744718,0.0320110490277409,0.0968090998917818,-0.0126542039215564,0.082201100885868,0.0051158121787011
1783197239408770800,0.733770751953125,-0.0965835840402171,-0.0263368027836084,0.1193371580421924,-0.0373169407248497,0.0890222564339637,0.0012582233175635
1783197239418708000,0.7437080078125,-0.0838385226270183,-0.094190149565041,0.1368780754297971,-0.0665531530976295,0.0790089070796966,-0.0078030433505773
1783197239428644900,0.753644775390625,-0.0603019815538078,-0.1381824360266327,0.1363087511092424,-0.0814492776989936,0.0585997737944126,-0.0143690668046474
1783197239438581000,0.7635810546875,-0.0171602109743282,-0.140543027678132,0.0871779327154159,-0.079481691122055,0.0504915006458759,-0.0193650014698505
1783197239448518000,0.773517822265625,0.0057531201666221,-0.1118342350661754,0.0439174676597118,-0.0708735585212707,0.050183106213808,-0.0234952978789806
1783197239458454800,0.783454833984375,0.0315433584507554,-0.0758484371885657,0.0262467864125967,-0.0613386407494545,0.0491420701146125,-0.0138074550777673
1783197239468392000,0.793391845703125,0.0186666700145229,-0.0787593561992049,-0.0141729022592306,-0.0477900728583335,0.0387344360351562,0.0074600167572498
1783197239478328800,0.803328857421875,0.0332945129670202,-0.0723144178435206,-0.0199719439268112,-0.0308755673468112,0.0127229681238532,0.0217178985476493
1783197239488266000,0.813265869140625,0.0687859879890456,-0.0521349686458706,-0.0618885931581258,-0.0141815422102808,-0.0100571792572736,0.0324341915547847
1783197239498203000,0.823202880859375,0.0587186944177374,-0.0601218757465481,-0.1004927568405866,-0.0097357705235481,-0.0107052130624651,0.0267610978335142
1783197239508139800,0.833139892578125,-0.0202962074451148,-0.091010350485146,-0.1104150159180164,-0.0144482348114252,0.0122802648693323,0.0126263704150915
1783197239518077000,0.843076904296875,-0.13587609531302,-0.1015428504154086,-0.0648322453945875,-0.0261624995619058,0.0332219377160072,0.0030590931419283
1783197239528013800,0.853013916015625,-0.1858193260682746,-0.0684749858111143,0.0253425310492515,-0.0449050292372703,0.0469763651490211,0.0033919883426278
1783197239537951000,0.862950927734375,-0.15240823751688,-0.0559466358885169,0.0599865589290857,-0.0376912802457809,0.0770074799656868,-0.014050168916583
1783197239547886800,0.872886962890625,-0.036412535389699,-0.0544587354183197,0.2787935605049133,-0.0551056899130344,-0.0364642217755317,-0.0312544554471969
1783197239557824000,0.882823974609375,0.1579235303396359,-0.0209235455632209,0.2424520810574293,-0.0717482715845108,-0.1124070733785629,-0.0093609541654586
1783197239567761000,0.892760986328125,0.2188759751588106,-0.1044806574329733,-0.0206371298372745,-0.0913765728473663,-0.1159583926200866,0.0130093339830636
1783197239577698000,0.902697998046875,0.062827152649872,-0.0895768105506897,0.0330465295553207,-0.0883802101016044,-0.0840682536363601,0.0219875685870647
1783197239587634700,0.912634765625,-0.0596096519080922,0.0717559071779251,-0.0289677358090877,-0.0701218470931053,-0.0586401335895061,0.0220589414238929
1783197239597571800,0.92257177734375,-0.0487867907291278,0.0636368981301784,-0.0816699829488992,-0.0523479878902435,-0.0380333662033081,0.0226146951317787
1783197239607509000,0.932509033203125,-0.0434490829629823,-0.0127180272758007,-0.1595446652680635,-0.0417363569140434,-0.0242344625294208,0.0115085151046514
1783197239617446000,0.94244580078125,-0.0689287939932197,-0.0532137037932872,-0.1775228050291538,-0.0337399914860725,-0.0078979320824146,-0.007134985178709
1783197239627383000,0.952383056640625,-0.0990410236623138,-0.0465343721598386,-0.1388023214906454,-0.0342198982834816,-0.0088569363579154,-0.0275957845151424
1783197239637319700,0.962319580078125,-0.092852032829076,-0.0526139843344688,-0.0369686714351177,-0.0482427328824996,-0.0097756385803222,-0.0508631877601146
1783197239647256800,0.9722568359375,-0.0687846362821757,-0.0647913288623094,0.0585018733292818,-0.0639553815126419,-0.0167262218892574,-0.0678387135267257
1783197239657194000,0.982194091796875,-0.0576384979655966,-0.0387970559060573,0.1641694024592637,-0.0782528221607208,-0.0369447953999042,-0.0763121843338012
1783197239667131000,0.992130859375,-0.0048187253933399,-0.0516679356560111,0.1243693069905042,-0.0879813507199287,-0.0621574744582176,-0.062070395797491
1783197239677068000,1.002068115234375,0.0669108782995492,-0.0695309246048331,0.1262315937310457,-0.0929295048117637,-0.0940795913338661,-0.0456746108829975
1783197239687004000,1.01200390625,0.0917157222755253,-0.0411354357257485,0.1127478427797555,-0.0921622440218925,-0.1100779995322227,-0.0330163426697254
1783197239696940800,1.02194091796875,0.1088783078700304,-0.0266693957388401,0.1006675288856029,-0.0914864689111709,-0.107667900621891,-0.0143642434850335
1783197239706878000,1.0318779296875,0.0964577291708439,-0.0067459671288728,0.1139081187307834,-0.092767983675003,-0.1058668047189712,-0.0064083156175911
1783197239716815000,1.041815185546875,0.0515928976584225,0.0073433485001325,0.1187584813714027,-0.0997205227613449,-0.1200829893350601,0.001553036738187
1783197239726751700,1.051751708984375,0.0421948816508054,0.0121735451355576,0.1227443361371755,-0.0996086671948432,-0.1338099837303161,0.0059725525788962
1783197239736689000,1.06168896484375,0.0459087876074016,-0.0023933248773217,0.0373918652832508,-0.1020698770880699,-0.1171729788184166,0.0059782527387142
1783197239746625800,1.071625732421875,0.0269428789179772,0.0037090836510062,0.0548854363977909,-0.1087131276726722,-0.1075142249464988,0.0009946790523827
1783197239756563000,1.08156298828125,-0.0099359222766011,0.0532636804148554,0.0188175131946802,-0.1249403059482574,-0.0987313985824585,-0.0014175518881529
1783197239766500000,1.0915,-0.0042068771053105,0.0407508203223347,-0.0029062428355216,-0.1421461850404739,-0.0881708934903144,0.0008498637471348
1783197239776436700,1.101436767578125,0.0227467424023896,-0.007635317184031,-0.0205465289443731,-0.1573751121759414,-0.0779124423861503,-0.0025148729328066
1783197239786374000,1.111373779296875,-0.0044106560491025,-0.012663374479115,-0.0731055682212114,-0.1735961586236953,-0.0807673558592796,-0.0029034281615167
1783197239796310800,1.121310791015625,-0.0496508967451751,0.0189507841855287,-0.0377174439758062,-0.1862930059432983,-0.0855626836419105,-0.0019819024018943
1783197239806248000,1.131248046875,-0.0033509909283369,0.0205750243864953,0.0019955577313899,-0.1880461722612381,-0.0894788578152656,-0.0084200939163565
1783197239816183800,1.141183837890625,0.0449279598765075,-0.0954699602425098,-0.1250543666452169,-0.1763924360275268,-0.0516296103596687,-0.0234536696225404
1783197239826121000,1.151120849609375,-0.0423980030074715,-0.1083367483392357,-0.245878548374772,-0.1611354649066925,0.0038962319958955,-0.0443573519587516
1783197239836057900,1.161057861328125,-0.1300007370062172,-0.0066977440729737,-0.1957487820714712,-0.1521141529083252,0.0247191488742828,-0.0567304864525795
1783197239845995000,1.1709951171875,-0.1185674888439476,0.0200642983853816,-0.1979097594976425,-0.1512209326028823,0.0274092108011245,-0.0511253327131271
1783197239855932000,1.180931884765625,0.0031495500721037,-0.0661645169116556,-0.1651028839170932,-0.1509438008069992,0.0080361254513263,-0.0504115745425224
1783197239865868800,1.190868896484375,0.0687144205901771,-0.0987421137809753,-0.1624526616692543,-0.1402554661035537,-0.0066568003967404,-0.0453920513391494
1783197239875806000,1.200805908203125,0.060885334399715,-0.0610401596352458,-0.1743067655920982,-0.1279541999101638,-0.0028271190822124,-0.0458632223308086
1783197239885742800,1.210742919921875,0.0358256388798356,-0.0374497329503297,-0.1833311990469694,-0.1070433259010315,0.0267763137817382,-0.0429987274110317
1783197239895680000,1.220679931640625,0.0104949443988502,-0.029026772519946,-0.1778957299947738,-0.0917787104845047,0.0436810441315174,-0.0380209721624851
1783197239905617000,1.230616943359375,0.0260731834113597,-0.0501369266964495,-0.1603448757350444,-0.0732774585485458,0.0406905822455883,-0.0280578210949897
1783197239915553800,1.2405537109375,0.0550869503192603,-0.0586342675372958,-0.1036123501658439,-0.0644029229879379,0.0162704084068536,-0.0129446871578693
1783197239925491000,1.250490966796875,0.0744927847959101,-0.0622979046113789,-0.0460112250685691,-0.0598766170442104,-0.016205508261919,-0.0114186955615878
1783197239935427800,1.260427734375,0.0428501306891441,-0.0478308417111635,0.0485486345916986,-0.0617700070142746,-0.04852756857872,-0.0098810736089944
1783197239945365000,1.270364990234375,-0.0119147480688989,-0.0145586867064237,0.0848848533421754,-0.0616645440459251,-0.0647147893905639,-0.022049056366086
1783197239955302000,1.280302001953125,-0.0509808301746845,0.0051905543804168,0.0927548560649156,-0.0692386701703071,-0.0492918491363525,-0.0419299900531768
1783197239965238800,1.29023876953125,-0.1183546498108655,-0.0092858608700335,0.0415957467138767,-0.0742374211549758,-0.0142273409292101,-0.0712636411190033
1783197239975175000,1.3001748046875,-0.1789694236408919,0.0130545657537877,0.0131382985144853,-0.0965045243501663,0.0159824211150407,-0.0991235896944999
1783197239985112000,1.310112060546875,-0.1966764183104038,0.0505950457274913,0.0264151287168264,-0.1316164433956146,0.0287898294627666,-0.1124753430485725
1783197239995049000,1.320049072265625,-0.1300927992038428,0.0232417593777179,0.0447702850967645,-0.1740965694189071,0.0357777550816535,-0.1108140870928764
1783197240004985900,1.32998583984375,-0.0924523659870028,-0.0546866989552974,0.0358855523735284,-0.2027844190597534,0.0473121702671051,-0.1086808964610099
1783197240014922800,1.3399228515625,-0.1027721730146557,-0.0949481283254921,-0.0344604880064725,-0.1980285197496414,0.0475554168224334,-0.1247730106115341
1783197240024860000,1.34985986328125,-0.1230360856253653,-0.0785090346999466,-0.1554185252487659,-0.1644505858421325,0.053781621158123,-0.1421402841806411
1783197240034797000,1.359797119140625,-0.1349172967508435,-0.0403726346597075,-0.2920937715828418,-0.1193931773304939,0.065096914768219,-0.1607778370380401
1783197240044734000,1.36973388671875,-0.1081594920761883,-0.0119691086046397,-0.3267243554592132,-0.0859627798199653,0.0655208826065063,-0.1557652354240417
1783197240054670800,1.3796708984375,-0.0668441697388887,0.0010091770425438,-0.3326040611475706,-0.0650672391057014,0.0613709427416324,-0.1391583681106567
1783197240064607700,1.389607666015625,0.0047212563682347,-0.0030418519139289,-0.2913818239212036,-0.0558042377233505,0.0486354380846023,-0.1115621477365493
1783197240074545000,1.399544921875,0.0618037644188851,-0.0100046766638755,-0.2542079853028058,-0.0534733049571514,0.0441938862204551,-0.094700202345848
1783197240084482000,1.40948193359375,0.0584423251617699,0.0200051155440509,-0.1771545562386512,-0.0528748966753482,0.0240545272827148,-0.0844259858131408
1783197240094419000,1.4194189453125,0.0839848357625305,0.0794897163003683,-0.1146358484834432,-0.0593994297087192,0.0099374335259199,-0.070500873029232
1783197240104355800,1.42935595703125,0.124220546169579,0.062503802447021,-0.0373912807613611,-0.0722571685910224,-0.0080082779750227,-0.0513966903090477
1783197240114292700,1.439292724609375,0.1205491641804575,0.0372094944536685,0.0115361240148544,-0.0815851688385009,-0.0251541119068861,-0.0415759868919849
1783197240124230000,1.44922998046875,0.066738225146383,0.0368783628031611,-0.0313373875498771,-0.0790844559669494,-0.0287307370454072,-0.0433264821767807
1783197240134167000,1.4591669921875,0.0150325147632509,0.0446834835961461,-0.0748456898868084,-0.0594324208796024,-0.0128992013633251,-0.0575634911656379
1783197240144104000,1.46910400390625,-0.054112625394389,0.0627038550637662,-0.1708779601871967,-0.0414044223725795,0.0088092889636754,-0.0767829865217208
1783197240154039800,1.479039794921875,-0.0947423035550862,0.0763210231363773,-0.2076940714091062,-0.0286912992596626,0.0329187512397766,-0.0870819389820098
1783197240163977500,1.4889775390625,-0.079855261677131,0.087721391942352,-0.2629208685904741,-0.0125538734719157,0.0702027380466461,-0.085730917751789
1783197240173914000,1.4989140625,-0.0581824686491861,0.076875442148745,-0.3127624656021595,0.0086920466274023,0.1177039220929145,-0.0765105113387107
1783197240183851300,1.508851318359375,-0.0526693677835166,0.1057911555096507,-0.2757932096451521,0.0305054653435945,0.147850900888443,-0.0588998235762119
1783197240193788400,1.518788330078125,-0.0349102045353502,0.1319169458910822,-0.2284562889307737,0.0606468841433525,0.1949755400419235,-0.043928924947977
1783197240203725300,1.528725341796875,0.0635236470140516,0.1986550249069929,0.091290044209361,0.0661620199680328,0.0303615629673004,-0.0476459003984928
1783197240213662500,1.538662353515625,0.4242407268375158,0.242045107691735,0.5127157136261463,0.04165680706501,-0.2211867272853851,-0.0088869035243988
1783197240223599000,1.54859912109375,0.7328923961199819,0.0829842804178595,0.1464063667535781,-0.006091539748013,-0.3698209226131439,0.0657447278499603
1783197240233536300,1.558536376953125,0.5931799740470945,0.0791270204678177,0.2624853997826576,-0.0368314571678638,-0.413307636976242,0.1293903589248657
1783197240243473400,1.568473388671875,0.3464932510945945,0.2777472663223743,0.2436865912884473,-0.0326004959642887,-0.3544853329658508,0.1467570960521698
1783197240253410300,1.578410400390625,0.1078594862163066,0.3114415922619402,-0.0882242268979549,-0.0084776738658547,-0.214915931224823,0.1109336912631988
1783197240263347500,1.588347412109375,-0.0794720345132052,0.2099460881195962,-0.3129904291391372,0.0048218863084912,-0.0591404438018798,0.031471624970436
1783197240273284000,1.5982841796875,-0.2841497537758201,0.1791083206549286,-0.4965782332956791,-0.0020366106182336,0.0966940447688102,-0.0407652109861373
1783197240283221200,1.60822119140625,-0.3825072521533816,0.0922542130663991,-0.542561985835433,-0.0282279998064041,0.1646222174167633,-0.084386721253395
1783197240293158400,1.618158447265625,-0.2585977446943521,-0.0294127030976116,-0.4872118545353412,-0.0576573349535465,0.1489980071783065,-0.0915414541959762
1783197240303095300,1.62809521484375,-0.0333979002762585,-0.0699307375773787,-0.396436774110794,-0.0651991367340087,0.0891993939876556,-0.0813993364572525
1783197240313032400,1.638032470703125,0.1674229974277317,-0.0664776745140552,-0.3053057198554277,-0.0420811958611011,0.0198790002614259,-0.0667456984519958
1783197240322969000,1.647968994140625,0.2778068875551223,-0.0162058693915605,-0.2647884160280228,0.0122174602001905,-0.0536756440997123,-0.0321035608649253
1783197240332906200,1.65790625,0.3420967697013169,0.0338825419880449,-0.3408411436170339,0.0761074498295784,-0.0919332653284072,0.0082649504765868
1783197240342843400,1.667843505859375,0.3440869936704635,0.0496351146541535,-0.4084989678263664,0.1331140100955963,-0.092812642455101,0.0476243384182453
1783197240352780300,1.6777802734375,0.2206407928742468,0.0940218072608113,-0.4015390656858682,0.1664014756679535,-0.0634823590517044,0.0735794380307197
1783197240362716200,1.687716064453125,0.0638653000585734,0.142852912055701,-0.3614958091109991,0.1873283237218856,-0.0293132048100233,0.0773467496037483
1783197240372653300,1.6976533203125,-0.0691901483431458,0.1402060508087277,-0.272936066648364,0.1921003013849258,-0.0061708018183708,0.0678910762071609
1783197240382590200,1.707590087890625,-0.1061876074813306,0.1028159390911459,-0.1882224782198667,0.1822572499513626,-0.0001161051914095,0.0477911345660686
1783197240392527400,1.71752734375,-0.1105672838702797,0.069102177798748,-0.1230132162064313,0.1686386317014694,-0.0018792524933815,0.0254773385822772
1783197240402464500,1.727464599609375,-0.1043583462275564,0.0614528320893645,-0.0706698655068874,0.1413721144199371,0.0111318873241543,0.0053313244134187
1783197240412401200,1.737401123046875,-0.0496937860388308,0.0634767391324043,0.0055348377734422,0.1113209053874015,0.0241931639611721,-0.0003019741270691
1783197240422338300,1.74733837890625,-0.0316876622922718,0.0973575275547802,0.0103384386628866,0.0786835998296737,0.0499882772564888,0.0040051564574241
1783197240432275200,1.757275146484375,-0.0062158057749271,0.1164291616410017,0.0100438396304845,0.059645302593708,0.0594661273062229,0.0214098915457725
1783197240442212400,1.76721240234375,0.0468267061699181,0.1234327567927539,0.0179407303601503,0.052701111882925,0.0407345183193683,0.0376274771988391
1783197240452149500,1.7771494140625,0.1314266781561076,0.1382474640868604,0.0103220720499753,0.0589106902480125,0.0140088088810443,0.0535802096128463
1783197240462086100,1.787086181640625,0.1562825947321951,0.1313236561730504,-0.0356231020450592,0.0740009546279907,0.0010461388155817,0.064505822956562
1783197240472023300,1.797023193359375,0.1488761909332126,0.1287659345142543,-0.0891436798304319,0.0949829891324043,-1.304782927e-06,0.0705844461917877
1783197240481960200,1.806960205078125,0.1057265658408403,0.1266425126194953,-0.1123860237300395,0.1080745533108711,0.0009427857585251,0.0756444483995437
1783197240491897300,1.8168974609375,0.0751157389998436,0.0949685865916311,-0.1094622452378273,0.1085666790604591,-0.0066140424460172,0.0807958245277404
1783197240501834500,1.82683447265625,0.0709432756207883,0.0369165028564631,-0.1109685581475496,0.1084236651659011,-0.0135569032281637,0.0801934152841568
1783197240511771100,1.836771240234375,0.0400930870659649,-0.0011623217776417,-0.1651519837558269,0.1153876632452011,0.0040566669777035,0.0758947059512138
1783197240521708300,1.846708251953125,0.0124316115498542,-0.0158545717358589,-0.1784153699547052,0.1174625307321548,0.0125380363315343,0.0650186240673065
1783197240531645200,1.856645263671875,-0.0129116501517593,-0.003923895445466,-0.1637257503449916,0.1141814813017845,0.0174789950251579,0.0583570525050163
1783197240541582300,1.866582275390625,-0.0240666658945381,-0.0006610942572355,-0.1709475182920694,0.1097760796546936,0.0152432713657617,0.0566073581576347
1783197240551519500,1.87651953125,0.0147451491892337,-0.0193986740835011,-0.1526332784444093,0.109220877289772,0.0124204335734248,0.0603530146181583
1783197240561456000,1.8864560546875,0.038962621731311,-0.0070258069835603,-0.1322007312685251,0.1154950186610221,0.0108318580314517,0.066321961581707
1783197240571393300,1.896393310546875,0.0422788336072117,0.0382191098876297,-0.1274742872685194,0.1286012530326843,0.009495859965682,0.0682716369628906
1783197240581330200,1.906330078125,0.0470461941394954,0.0650523178860545,-0.1590916608035564,0.1384120732545852,0.0209919270128011,0.0660644099116325
1783197240591267300,1.916267333984375,0.047133360966295,0.056079760748893,-0.1747206070899963,0.1590479612350464,0.0356287509202957,0.0736660063266754
1783197240601204500,1.92620458984375,0.0189328101374208,0.0820437846973538,-0.1815314561486244,0.1661157310009002,0.0473629049956798,0.08932726085186
1783197240611141000,1.93614111328125,0.001714841093868,0.1162469369418919,-0.1499175897449255,0.1729790121316909,0.0433952808380126,0.09959077835083
1783197240621078300,1.946078369140625,0.0175148330982774,0.0883930075936019,-0.1008347021460533,0.1755614876747131,0.0244679301977157,0.1121265441179275
1783197240631014400,1.956014404296875,0.0164998839020729,0.0508694787546992,-0.0552098460465669,0.1692505478858947,0.0055096824653446,0.1122448518872261
1783197240640951300,1.965951416015625,-0.0299497325837612,0.0182531573101878,0.0081587565362453,0.1633037030696869,-0.0086847003549337,0.1012513190507888
1783197240650888200,1.97588818359375,-0.0942836000021547,-0.003166647337377,0.0393675492703914,0.1601024866104126,-0.0016909046098589,0.0864844471216201
1783197240660825300,1.985825439453125,-0.1553473597086966,-0.0345911286488175,0.0415343719154596,0.1574883162975311,0.0215731374919414,0.0691504627466201
1783197240670762200,1.99576220703125,-0.1819903058320283,-0.0321039880082011,0.0689005177468061,0.1554637849330902,0.0343888029456138,0.0548514202237129
1783197240680699400,2.005699462890625,-0.1503365458093583,-0.0119029115006327,0.1059077676266431,0.1482436954975128,0.0357161238789558,0.0532529912889003
1783197240690636300,2.01563623046875,-0.0799003429278731,-0.0114893622636795,0.1356675305962562,0.1316823959350586,0.019456148147583,0.0583781413733959
1783197240700573200,2.0255732421875,0.0100292265832424,-0.0277057530492544,0.158551562577486,0.1118484959006309,-0.0076649514958262,0.0799319073557853
1783197240710510300,2.03551025390625,0.063084671074897,-0.0419040820106864,0.1709504409015178,0.1006425693631172,-0.0232875198125839,0.0917429104447364
1783197240720447200,2.045447265625,0.0245677472844719,-0.0553153522476553,0.1372118374288082,0.0958161279559135,-0.0259552113711833,0.0860171094536781
1783197240730384400,2.05538427734375,-0.0497738655377179,-0.0754983085766434,0.1018792427629232,0.0996291190385818,-0.0246873684227466,0.0632964819669723
1783197240740321300,2.0653212890625,-0.1090261188428848,-0.105831487520039,0.0480249029785394,0.1078367158770561,-0.0191961973905563,0.0377200171351432
1783197240750258200,2.075258056640625,-0.1132460746254771,-0.1463856162264943,0.0039653964996337,0.1077388972043991,-0.0112067777663469,0.0130706513300538
1783197240760195300,2.0851953125,-0.1101871254462748,-0.1623565078184008,0.0090419691115617,0.0960659980773925,-0.0044783009216189,0.0014440885279327
1783197240770132200,2.09513232421875,-0.0826789407957345,-0.1137140574634075,0.0353185661405324,0.0783363431692123,-0.0060452166944742,0.0065149459987878
1783197240780069400,2.1050693359375,-0.016834376553446,-0.0744274644747376,0.0371311685204505,0.066343069076538,-0.0102013451978564,0.0205263681709766
1783197240790006300,2.11500634765625,0.0512705338362604,-0.0636123482108116,0.0790367118358612,0.0518289618194103,-0.0182941183447837,0.0303064584732055
1783197240799943200,2.124943115234375,0.087013682064414,-0.0262897487714886,0.0832633896201849,0.0446602627635002,-0.0260476451367139,0.0313032791018486
1783197240809880300,2.13488037109375,0.0628973318092525,-0.0094335987776517,0.0473112017512321,0.0387759394943714,-0.0288530439138412,0.0345604047179222
1783197240819817200,2.144817138671875,0.0200594030145555,-0.0126090139433741,0.0292296016156673,0.0343428403139114,-0.0201186724007129,0.0282444506883621
1783197240829754400,2.15475439453125,-0.0449292019855231,-0.023351649492979,0.0007452654093503,0.0354182422161102,-0.001397693529725,0.0225356854498386
1783197240839691500,2.16469140625,-0.0869804373819381,-0.0200447169020772,-0.0717927320569753,0.0461507774889469,0.0324998199939727,0.0101929986849427
1783197240849628200,2.174628173828125,-0.0938422129102051,-0.0267445068016648,-0.0656458998650312,0.0478694662451744,0.0445508249104023,0.0056660082191228
1783197240859565300,2.1845654296875,-0.0772402568731457,-0.0042012510821223,-0.0400549470126628,0.0465914160013198,0.0319878943264484,0.0052332440391182
1783197240869502200,2.194502197265625,-0.0361097165182232,-0.0084314359977841,-0.0072720368295907,0.0515959113836288,0.0139681035652756,0.010366590693593
1783197240879439400,2.204439453125,0.007522358328849,-0.0402948932483792,0.0050251346856355,0.0576844289898872,0.0075051439926028,0.0078730722889304
1783197240889376500,2.21437646484375,0.0151515380330383,-0.0037768881902098,0.0182213008671998,0.0513830743730068,0.0055442810989916,0.0054373950697481
1783197240899313200,2.224313232421875,0.0267694951124489,0.0455310403361916,0.0425403340876102,0.0401083156466484,0.007123801857233,0.0055212848819792
1783197240909250300,2.234250244140625,0.0441534683726728,0.0762409436374902,0.0431634344220161,0.0305505134165287,0.0181834660470485,0.0160599425435066
1783197240919187200,2.244187255859375,0.0567950694113969,0.103737145589292,0.065023384052515,0.0206563379615545,0.0113854799419641,0.0271482802927494
1783197240929124400,2.254124267578125,0.1079528635881841,0.1229442426234483,0.0463251133233308,0.0152595192193984,-0.0017792135477066,0.0403990224003791
1783197240939061500,2.2640615234375,0.1295607381537556,0.0874345378249883,0.0260918881118297,0.0085014821961522,-0.0062682377174496,0.0503232926130294
1783197240948998100,2.273998046875,0.1036127885572612,0.0415782110571861,0.0083744451135396,0.0090448912233114,0.006834871135652,0.0543964654207229
1783197240958935300,2.283935302734375,0.0286290784392505,0.0096086630836129,-0.016740122398734,0.009533048607409,0.0354979410767555,0.0450612865388393
1783197240968872200,2.2938720703125,-0.0592108983814716,-0.0039525370180606,0.0032815058887004,0.0079947803169488,0.0532413832843303,0.0310504268854856
1783197240978809300,2.303809326171875,-0.0810669755544513,-0.0031888591691851,0.0451449636280536,0.0097372867166996,0.0545846819877624,0.0166991855949163
1783197240988746500,2.31374658203125,-0.0507235674779862,-0.029832535944879,0.0665560004472732,0.0073220585472881,0.0480335503816604,0.012435745447874
1783197240998683100,2.32368310546875,-8.49748697131e-05,-0.0315489844739437,0.1248690732061862,0.0019057216122746,0.0335241146385669,0.0132711790502071
1783197241008620300,2.333620361328125,0.050939767511934,-0.0016007131949067,0.1752197887837886,-0.0050065768882632,0.0169664435088634,0.02231933362782
1783197241018557200,2.34355712890625,0.0803600693941116,0.0231698631852865,0.2058516584128141,-0.0156815908849239,-0.0017119012773036,0.0310297366231679
1783197241028494300,2.353494384765625,0.1060733334518969,0.0025423779591917,0.2403156535506248,-0.0267080701887607,-0.0119261443614959,0.038944024592638
1783197241038430200,2.36343017578125,0.0984067443467676,-0.0098316581845283,0.2645885095417499,-0.037646472454071,-0.0190410446375608,0.0391501523554325
1783197241048367400,2.373367431640625,0.0726405810579657,-0.0231347918719053,0.277561388361454,-0.0527129806578159,-0.0234434735029935,0.033520720899105
1783197241058304300,2.38330419921875,0.0511207501020282,-0.0424894806832075,0.2569873868882656,-0.0624090172350406,-0.0229649040848016,0.0358517915010452
1783197241068241400,2.393241455078125,0.0285444688957184,-0.0675195847824215,0.2344049682021141,-0.0665769949555397,-0.0304769724607467,0.0298717934638261
1783197241078178300,2.40317822265625,0.014701236982271,-0.0802764827638864,0.2061339824855327,-0.0685748979449272,-0.0451051816344261,0.0262791886925697
1783197241088115200,2.413115234375,0.0095806060329079,-0.0991968718111515,0.1466150410681962,-0.0633244514465332,-0.0618344992399215,0.0205893106758594
1783197241098052400,2.42305224609375,-0.0006217851601541,-0.1036354387804865,0.0958212578982114,-0.0537138916552066,-0.0635975077748298,0.0182643719017505
1783197241107989200,2.4329892578125,-0.0145474346600472,-0.0968880103468894,0.0496603952258825,-0.0445500276982784,-0.0600614547729492,0.0144230956211686
1783197241117926400,2.442926513671875,-0.0658324354130774,-0.065644438560307,0.0246381821721792,-0.0442280508577823,-0.0452665239572525,0.0094248754903674
1783197241127863300,2.45286328125,-0.0755211049303412,-0.0767033004522323,0.0277355636656284,-0.0504786819219589,-0.0419406592845916,0.009062604047358
1783197241137800200,2.46280029296875,-0.0575901653118431,-0.0967962404102086,0.0275917712807655,-0.0614991039037704,-0.0450427085161209,0.0118506671860814
1783197241147737300,2.4727373046875,-0.0335205768078565,-0.1121139287903904,0.0303115516334772,-0.0690283849835395,-0.0481065884232521,0.0152746904641389
1783197241157674200,2.48267431640625,-0.0329568054452538,-0.1188841535776853,0.0464566307485103,-0.0736790671944618,-0.0539258606731891,0.0149764157831668
1783197241167612000,2.49261181640625,-0.0558548659518361,-0.1109022149130702,0.042563130441308,-0.0751494616270065,-0.0557113327085971,0.0174255259335041
1783197241177548800,2.502548828125,-0.0751882197141647,-0.1174257714629173,0.0509042578071355,-0.0737230703234672,-0.0558548793196678,0.0058706034906208
1783197241187486000,2.51248583984375,-0.0862510271288454,-0.1219599077612161,0.0699164167910814,-0.0792260468006134,-0.0608239099383354,-0.0062514911405742
1783197241197423000,2.522423095703125,-0.1033480001412332,-0.1227834991037845,0.1054798976033925,-0.0960897132754325,-0.06416005641222,-0.0169049352407455
1783197241207359700,2.53235986328125,-0.1114818414319306,-0.1291410514369607,0.1335375328302383,-0.1134184002876281,-0.0704972743988037,-0.0267484746873378
1783197241217297000,2.542296875,-0.0898673909951001,-0.133258423627913,0.1225146190345287,-0.124204471707344,-0.0666119828820228,-0.0326774716377258
1783197241227233800,2.55223388671875,-0.0855331611830741,-0.1362280870884656,0.0497375521153211,-0.1244770884513855,-0.0419204421341419,-0.0389248169958591
1783197241237171000,2.5621708984375,-0.0821092511489987,-0.107131464202702,0.0306464826762676,-0.1257918775081634,-0.0354596115648746,-0.0424130223691463
1783197241247108000,2.572108154296875,-0.0781512342382222,-0.0726347358390688,-0.0283265152961015,-0.1170449554920196,-0.0270978398621082,-0.0477596372365951
1783197241257044700,2.582044677734375,-0.0465343721598386,-0.0780719584569334,-0.0504711270868778,-0.1161219030618667,-0.0394426584243774,-0.0403480604290962
1783197241266982000,2.59198193359375,-0.003763078860566,-0.0747898680463433,-0.0322580095261335,-0.1178164109587669,-0.0520415641367435,-0.0403614230453968
1783197241276918800,2.601918701171875,0.0250238204888999,-0.0559086419656872,-0.0377525152891874,-0.1206750497221946,-0.057584136724472,-0.0386516749858856
1783197241286856000,2.61185595703125,0.0436402581535279,-0.0430085361212492,-0.0144371061533689,-0.1260645091533661,-0.0548611618578434,-0.036367729306221
1783197241296793000,2.62179296875,0.0168043467413634,-0.0376332728236913,-0.0347498263418674,-0.1303748339414596,-0.0409850291907787,-0.030660044401884
1783197241306729700,2.631729736328125,-0.0030821839243173,-0.0218538121506571,-0.0673147098600864,-0.1353344172239303,-0.0283234491944313,-0.0319990999996662
1783197241316667000,2.6416669921875,0.006928337958455,-0.0015691490128636,-0.1023667340189218,-0.1349687725305557,-0.0284179933369159,-0.0304139852523803
1783197241326603800,2.651603759765625,0.0225839530561119,0.0101363402195274,-0.1444575707733631,-0.136261835694313,-0.016958363354206,-0.0303121525794267
1783197241336541000,2.661541015625,0.0011877484798431,-0.0084939798399806,-0.2021118873625993,-0.1252043843269348,-0.0038966247811913,-0.0290237143635749
1783197241346478000,2.67147802734375,-0.0193318924576044,-0.0160484868727624,-0.2275555406987666,-0.1197337359189987,0.0113543877378106,-0.0346038192510604
1783197241356414700,2.681414794921875,-0.0427730468649417,0.0085778587311506,-0.2336871753215789,-0.1169163733720779,0.0201132595539093,-0.0400771498680114
1783197241366352000,2.691351806640625,-0.0530731262788176,0.0090685648575425,-0.2007061122179031,-0.1279132813215255,0.0268685258924961,-0.0436938405036926
1783197241376288800,2.701288818359375,-0.029578853444755,-0.001467734465003,-0.1473579683899879,-0.1437878459692001,0.0277239326387643,-0.0451551154255867
1783197241386226000,2.711225830078125,-0.0066330082736909,-0.0041745092056691,-0.1031698670953512,-0.155719056725502,0.0340637005865573,-0.0408338867127895
1783197241396163000,2.7211630859375,-0.0118779962550848,0.0032424890525639,-0.0873550428479909,-0.1649602353572845,0.0403719320893287,-0.040088202804327
1783197241406099700,2.731099609375,-0.0095496263727545,0.0215308638066053,-0.0693307258576154,-0.1643571853637695,0.0350098758935928,-0.0375556349754333
1783197241416036900,2.741036865234375,-0.0143958242949098,0.0395600031025707,-0.1125923599570989,-0.1498320400714874,0.0394613519310951,-0.0327286571264267
1783197241425974000,2.75097412109375,-0.0422545028835535,0.0239648129552602,-0.1286626202702522,-0.1361005008220672,0.0415112972259521,-0.0331582427024841
1783197241435911000,2.760910888671875,-0.0385251070968806,0.0110512631073594,-0.1164987197458744,-0.1222073137760162,0.0389003343880176,-0.0356445685029029
1783197241445848000,2.77084814453125,-0.0497508499883115,0.01645867510885,-0.0918044234722852,-0.1222278475761413,0.0451015457510948,-0.038473080843687
1783197241455784700,2.78078466796875,-0.0489892910312861,0.0079608958765864,-0.048687750801444,-0.1226022988557815,0.0458102114498615,-0.0378626845777034
1783197241465721900,2.790721923828125,-0.0329297713078558,-0.0149167063638567,-0.0203407772392034,-0.1297932416200637,0.0438082888722419,-0.0380367003381252
1783197241475659000,2.800658935546875,-0.0443326243318617,-0.0262606688074767,0.0135462947934865,-0.1318936794996261,0.0475758649408817,-0.035369012504816
1783197241485596000,2.810595947265625,-0.0827882463891059,-0.0276800340861082,0.0122960024714469,-0.1345302611589431,0.0464506782591342,-0.045054867863655
1783197241495532800,2.82053271484375,-0.0894374020799994,-0.0453676664680242,0.0414876101642847,-0.1282023340463638,0.0208459850400686,-0.0504656061530113
1783197241505469700,2.8304697265625,-0.0808800016149878,-0.0448893814317882,0.0108130704373121,-0.1064156964421272,0.0491876825690269,-0.0661560073494911
1783197241515406800,2.84040673828125,-0.1308894294742494,-0.0564383649282157,-0.0468447532832622,-0.1129036918282508,0.0415649116039276,-0.0802712962031364
1783197241525344000,2.850343994140625,-0.1081030857138335,-0.033423692304641,0.1197930851161479,-0.134602889418602,0.0086365668103098,-0.081687793135643
1783197241535281000,2.860281005859375,-0.0477039273958653,-0.0603520312406122,0.0577776507079601,-0.1599234342575073,0.0007578711956739,-0.0745129659771919
1783197241545217800,2.8702177734375,0.0181797267477959,-0.0945716962285339,0.1271124682188034,-0.1870680749416351,-0.0117540536448359,-0.0731211006641388
1783197241555154700,2.88015478515625,-0.0107977267377078,-0.0469071509949862,0.0872194337695837,-0.1947512924671173,0.0033481994178146,-0.0738209784030914
1783197241565091800,2.890091796875,-0.0731159434847533,0.0039430385373532,0.0355535439401865,-0.191927433013916,0.024056002497673,-0.0809157416224479
1783197241575029000,2.900029052734375,-0.09751410635598,-0.0021961948700249,-0.0365776262909173,-0.1786806136369705,0.0408456362783908,-0.0914386883378028
1783197241584966000,2.9099658203125,-0.0786935974866151,-0.007252016954869,-0.1263736325502395,-0.1606480181217193,0.0385320633649826,-0.0984154418110847
1783197241594902800,2.91990283203125,-0.0316148162517696,-0.003162117292732,-0.1408522397577762,-0.143354520201683,0.0161902736872434,-0.0930097550153732
1783197241604839700,2.929839599609375,0.0254690069731324,0.0073341422803699,-0.1509346578329801,-0.130626305937767,-0.0053738690912723,-0.0786613821983337
1783197241614776800,2.93977685546875,0.0700345632780343,0.013081015369296,-0.1216764146447181,-0.124876007437706,-0.0255534388124942,-0.062310367822647
1783197241624714000,2.9497138671875,0.0966316974982619,0.0187456170022487,-0.0888204392254352,-0.120397925376892,-0.046110451221466,-0.0484887808561325
1783197241634651000,2.95965087890625,0.1074387765862047,0.0258297300443053,-0.0799462278962135,-0.1089740246534347,-0.0473970249295234,-0.0417176932096481
1783197241644587800,2.969587890625,0.0672471975818276,0.031104455576837,-0.0906757117033004,-0.0937612056732177,-0.0422560796141624,-0.0417688712477684
1783197241654525000,2.97952490234375,0.0292796513024717,0.0510552105851471,-0.1060188267856836,-0.0744684636592865,-0.0429293289780616,-0.0409595370292663
1783197241664461800,2.9894619140625,0.0261024095058441,0.072446958182007,-0.1425508603692054,-0.0466394200921058,-0.0608494244515895,-0.032211422920227
1783197241674399000,2.99939892578125,0.0555002072952687,0.0607170651607215,-0.215728909304738,-0.010450255125761,-0.0733500346541404,-0.0215182974934577
1783197241684335900,3.0093359375,0.0962005395393818,0.0617610212557017,-0.2469675126552581,0.0221500322222709,-0.0848511606454849,-0.0168135575950145
1783197241694272800,3.019272705078125,0.1097801520805805,0.1163477669678628,-0.2326601703613996,0.0417647436261177,-0.0889313891530036,-0.0112249134108424
1783197241704210000,3.0292099609375,0.0977457962200045,0.1246291269704699,-0.2075181303203105,0.043519027531147,-0.0912322700023651,-0.0003062861505895
1783197241714146800,3.039146728515625,0.1081017705395817,0.0943026700288057,-0.1383428872853517,0.0346704088151454,-0.1039933413267135,0.0116108264774084
1783197241724084000,3.049083984375,0.1175624034546315,0.0697813922345638,-0.1077753150641918,0.0292012896388769,-0.0996907129883766,0.0176637098193168
1783197241734020900,3.059020751953125,0.0906562032852321,0.0554606059372425,-0.0768926855444908,0.0193718280643224,-0.1000856608152389,0.0200688112527132
1783197241743957800,3.068957763671875,0.039375732576847,0.0456593428909778,-0.087004329714179,0.0189401172101497,-0.0972400307655334,0.011214897967875
1783197241753895000,3.07889501953125,-0.0012472966473549,0.0343979441642761,-0.0999339539140462,0.0238922648131847,-0.092171236872673,0.0023345875088125
1783197241763831800,3.088831787109375,-0.031046587909758,0.0169606332816183,-0.1026835448831319,0.0261830128729343,-0.085441917181015,-0.0118604935705661
1783197241773769000,3.09876904296875,-0.0432973629999905,0.0189649588413536,-0.1244505555331706,0.0294565707445144,-0.0642673894762992,-0.023466283455491
1783197241783705900,3.108705810546875,-0.0629783611562103,0.0326820801571011,-0.1198708265274763,0.0182511489838361,-0.0323223993182182,-0.0402011387050151
1783197241793642800,3.118642822265625,-0.0732368664506822,0.0469984825402498,-0.0537912114202976,-0.004739386960864,-0.0166299901902675,-0.0583439245820045
1783197241803580000,3.128579833984375,-0.0633632688205689,0.070654814068228,0.0257902748167514,-0.0381442457437515,-0.0182786583900451,-0.0592198371887207
1783197241813516800,3.138516845703125,-0.0189436968576163,0.0523566485725343,0.1180178921371698,-0.0703104436397552,-0.0442063957452774,-0.0568136684596538
1783197241823454000,3.148453857421875,0.0548397706251591,0.0209961724080145,0.1096761802494525,-0.092447929084301,-0.0597745291888713,-0.0538591593503952
1783197241833390800,3.158390869140625,0.0781356713429093,0.0374066244609653,0.034189269849658,-0.095282070338726,-0.0477713979780674,-0.0450369082391262
1783197241843329000,3.1683291015625,0.0393879344712942,0.0840937029644846,-0.0383154098689556,-0.0870572850108146,-0.0382313355803489,-0.0397514626383781
1783197241853265700,3.178265625,0.0023452479518949,0.119268038328737,-0.1274362933456897,-0.0653354749083519,-0.0361000075936317,-0.0312317442148923
1783197241863202800,3.188202880859375,0.0265033915221691,0.1141885431073606,-0.2263216149896383,-0.0430740937590599,-0.0426375791430473,-0.0283443797379732
1783197241873140000,3.198139892578125,0.0665554889906197,0.0759755706995725,-0.2655979788452386,-0.0215512253344059,-0.0495993457734584,-0.0272998865693807
1783197241883076900,3.208076904296875,0.0755059073612093,0.0684575962848961,-0.2563251235872507,-0.0044308081269264,-0.0474648997187614,-0.0173391979187726
1783197241893014000,3.218013916015625,0.0686415745496749,0.0721247404903173,-0.247021873190999,-0.0008717589080333,-0.052142210304737,-0.0112386960536241
1783197241902950700,3.22795068359375,0.0729930477574467,0.079483724950999,-0.2129506767630577,0.0035986946895718,-0.0549114495515823,-0.0082466509193182
1783197241912887800,3.2378876953125,0.0610139292154461,0.0699513419739902,-0.2177063468575477,0.008476274088025,-0.0351617112755775,-0.0020430828444659
1783197241922825000,3.247824951171875,0.0465425554662942,0.0702558778785169,-0.2222644485533237,0.008550644852221,-0.0160549245774745,0.000255674123764
1783197241932761900,3.257761962890625,0.0345779769062995,0.0701416038490831,-0.1787432867348194,0.0055761602707207,-0.0170115325599908,-0.0010687159374356
1783197241942699000,3.267698974609375,0.0083682345684617,0.0516692508302628,-0.178633981141448,0.0018243649974465,-0.0195602402091026,-0.0029031843878328
1783197241952635600,3.2776357421875,0.0256247089914977,0.0216695416249334,-0.130125094038248,-0.0030819764360785,-0.0136416302993893,-0.0043538082391023
1783197241962572800,3.28757275390625,0.0077010028313845,0.0088942312039434,-0.1067202530533075,-0.0031249364838004,-0.0019992515444755,-0.0082957027480006
1783197241972510000,3.297510009765625,-0.007202113398537,0.0070405661612749,-0.0770540135860443,0.0016090981662273,-0.0044831819832324,-0.0143115175887942
1783197241982446800,3.30744677734375,-0.0073542352203279,0.0107002577126026,-0.0551309355914592,0.0035021035000681,-0.0066864965483546,-0.0150524750351905
1783197241992384000,3.317384033203125,0.0255737825218588,0.0231691325329244,-0.0534913516908884,0.0050475355237722,-0.0154283223673701,-0.0077865729108452
1783197242002320600,3.327320556640625,0.0587627892877906,0.0476814963683486,-0.040479894426465,0.0077963005751371,-0.0277390219271183,-0.000500313937664
1783197242012257800,3.3372578125,0.0670356737229973,0.0721858230277895,-0.0522188475370407,0.0056830821558833,-0.0270559228956699,0.0075112739577889
1783197242022195000,3.34719482421875,0.0444903721768408,0.0885629573330283,-0.0611059183478355,0.0043656332418322,-0.024488003924489,0.0041658608242869
1783197242032131800,3.3571318359375,0.0255902952652424,0.078668609175831,-0.0709305622696876,-0.001803046092391,-0.0093793589621782,-0.0037463908083736
1783197242042069000,3.367069091796875,0.0066720251098275,0.0903906111516058,-0.0800286454826593,-0.0114330537617206,0.0078529082238674,-0.0133127979934215
1783197242052006000,3.377005859375,-0.0134841893427073,0.1104652848005294,-0.0615758739471435,-0.0283734202384948,-0.0004835845902562,-0.0177602767944335
1783197242061942800,3.38694287109375,-0.0117528355054557,0.1220705285288393,-0.0336181919634342,-0.0399483293294906,-0.0006576771847903,-0.0197035185992717
1783197242071880000,3.3968798828125,0.0721058165941387,0.1163257012665271,-0.026608020940423,-0.0394899994134902,0.00026191258803,-0.0118471942842006
1783197242081816800,3.40681689453125,0.162056794219464,0.0860683640383183,-0.0771808548361063,-0.0371740236878395,-0.0039115315303206,0.0062401304021477
1783197242091754000,3.41675390625,0.1424254073586315,0.1481233998045325,-0.1400765792101621,-0.0295358132570981,0.0048633175902068,0.0279824435710906
1783197242101691000,3.42669091796875,0.1135159776080399,0.1883921356983482,-0.1925175450652837,-0.0145987039431929,0.0081488015130162,0.0516113266348838
1783197242111627800,3.436627685546875,0.0800845403883606,0.1430949041180312,-0.2381763034343719,0.0050831222906708,0.0025210096500813,0.055718183517456
1783197242121565000,3.44656494140625,0.0573429125525057,0.1134941311024129,-0.2603396199256181,0.0153280319646,0.00712416972965,0.0505500696599483
1783197242131501800,3.456501708984375,0.0301237009111791,0.1021161202587187,-0.2568763277292251,0.0249745342880487,0.0201478265225887,0.0384342856705188
1783197242141439000,3.46643896484375,-0.0035552082635462,0.081945438889414,-0.2315121693700552,0.0284693520516157,0.037824161350727,0.0329205095767974
1783197242151376000,3.4763759765625,-0.0210258368939161,0.1074507592849433,-0.2184101112127304,0.0278224702924489,0.0539120510220527,0.0351114906370639
1783197242161312300,3.486312255859375,-0.0055040042437613,0.0800000039100646,-0.207727973678708,0.0292014591395854,0.0568414516746997,0.0463390462100505
1783197242171249400,3.49624951171875,0.0580480651471763,0.0115939916819334,-0.2230927160710096,0.0269542820751667,0.0400600768625736,0.0500240623950958
1783197242181186600,3.5061865234375,0.1020307069975882,0.0455912460908293,-0.236126385167241,0.0393045805394649,0.0335917994379997,0.0554602928459644
1783197242191123500,3.51612353515625,0.1045694316949695,0.0611187778294086,-0.2536772394269704,0.0511151701211929,0.040260087698698,0.0705702677369117
1783197242201060400,3.526060302734375,0.0952824017811566,0.0597622486539185,-0.2616261526048183,0.0644584074616432,0.0476993583142757,0.0758140310645103
1783197242210997200,3.535997314453125,0.0626883652336895,0.0610578414224088,-0.2793891883105039,0.0685743167996406,0.0614657737314701,0.0798689648509025
1783197242220934400,3.545934326171875,0.041402123837918,0.0574120322659611,-0.2315337966799736,0.065851405262947,0.0731168463826179,0.0816323012113571
1783197242230871600,3.55587158203125,0.0169434629511088,0.0579676203221082,-0.1966167970776557,0.0654042586684227,0.0770988017320633,0.0793073624372482
1783197242240808400,3.565808349609375,-0.0088488576922565,0.069001347772777,-0.1494429579704999,0.0664767548441886,0.0785626471042633,0.0704968273639679
1783197242250745300,3.575745361328125,-0.0242636497713625,0.0665533700987696,-0.1466109494149685,0.0742241591215133,0.0940816849470138,0.0641790106892585
1783197242260682200,3.58568212890625,-0.0464001513209193,0.0776006876833736,-0.1212479600995779,0.0848328173160553,0.107850857079029,0.0624716617166996
1783197242270619400,3.595619384765625,-0.0471858948711305,0.1161065055578947,-0.0811152716755867,0.083964355289936,0.0957190915942192,0.0701894983649253
1783197242280556500,3.605556640625,-0.0022793431088328,0.1368769063860178,-0.0195867440015077,0.0846666321158409,0.074941374361515,0.0755174160003662
1783197242290493400,3.615493408203125,0.0918841376449912,0.1674509083479642,-0.004069441395998,0.0865481570363044,0.0480732768774032,0.0861287862062454
1783197242300430300,3.625430419921875,0.1216310411330312,0.1659653459653258,-0.0025502690047025,0.0903419628739357,0.0403600148856639,0.0931570902466774
1783197242310368300,3.6353681640625,0.1039946274816989,0.1505145327247679,-0.0288765503942966,0.0917691513895988,0.0484357848763465,0.1067690327763557
1783197242320305400,3.645305419921875,0.0339762116208672,0.1900641605637967,-0.0202209502518177,0.0911583006381988,0.064395010471344,0.1095313653349876
1783197242330242300,3.6552421875,5.28261657804e-05,0.1968783706232905,-0.0177390703082084,0.0894522815942764,0.0685295686125755,0.11528991907835
1783197242340179500,3.665179443359375,0.0243533008161932,0.1761200986243784,-0.0119803606510162,0.0900823771953582,0.0553742796182632,0.1188186556100845
1783197242350116400,3.675116455078125,0.0602216828592121,0.1636008087910711,0.0053776013851165,0.0869068205356597,0.0356192141771316,0.1364285498857498
1783197242360053200,3.68505322265625,0.0677351272292435,0.1212710487142205,0.0384773224323987,0.081184022128582,0.0242519844323396,0.1454911977052688
1783197242369990400,3.694990478515625,0.0197932263590395,0.0824197784028947,0.0348690688073635,0.0805501863360405,0.0181839726865291,0.1477463543415069
1783197242379927300,3.70492724609375,-0.0370508698258549,0.0494056898124515,0.0369920523107051,0.0715599879622459,0.0137246157974004,0.1374278664588928
1783197242389864400,3.714864501953125,-0.0833128547850996,-0.0128457453086972,0.0180260705560445,0.0624557062983512,0.0222901403903961,0.1220470368862152
1783197242399801300,3.72480126953125,-0.1376682759594172,-0.0651740445695817,-0.0221358439624309,0.0538828894495964,0.0418512932956218,0.1102106571197509
1783197242409738200,3.73473828125,-0.1815121669262647,-0.0909025061964988,-0.0308177475899457,0.0535268224775791,0.0576382465660572,0.0983057916164398
1783197242419675400,3.74467529296875,-0.1840402240991592,-0.0947941068075597,-0.0284036721855402,0.0581703633069992,0.0621076561510562,0.0959040895104408
1783197242429612300,3.7546123046875,-0.1220747663125395,-0.1078230997286737,-0.0541255579411983,0.0611325949430465,0.0537075139582157,0.0909889563918113
1783197242439549400,3.764549560546875,-0.0821576203353703,-0.1271082304351031,-0.0523626399219036,0.0712068080902099,0.0337473079562187,0.0959608554840087
1783197242449486300,3.774486328125,-0.0585189705945551,-0.1378594876825809,-0.0524567479461431,0.0884787365794181,0.0217202082276344,0.0971270576119422
1783197242459423200,3.78442333984375,-0.0658073740370571,-0.170822284477204,-0.068467971548438,0.1025556698441505,0.0126865003257989,0.1027700304985046
1783197242469360400,3.7943603515625,-0.08815876044631,-0.2116252733781933,-0.0878670840233564,0.11776764690876,0.0046229809522628,0.0980272069573402
1783197242479297300,3.80429736328125,-0.1268694532431662,-0.2403008943729102,-0.1259060150384902,0.1288647204637527,0.0116458749398589,0.0913016945123672
1783197242489234400,3.814234375,-0.1708150510188192,-0.2494666359946131,-0.0954448258012533,0.1341114193201065,0.0154768321663141,0.0742215067148208
1783197242499171300,3.82417138671875,-0.1949802819170057,-0.2483256492659449,-0.0585381136864423,0.1274976134300232,0.0105800088495016,0.0528010241687297
1783197242509108200,3.834108154296875,-0.2012451875306665,-0.2244192884996533,-0.0244523042112588,0.1193510070443153,0.0205373018980026,0.0362854339182376
1783197242519045400,3.84404541015625,-0.1976483320824801,-0.2269737952880561,0.0314805954128503,0.1086944192647934,0.0189140811562538,0.0207421071827411
1783197242528982500,3.853982421875,-0.1992817785032093,-0.2075897342517972,0.0815571702241897,0.1031593084335327,0.0193566977977752,0.0018730787560343
1783197242538919400,3.86391943359375,-0.1772744562912732,-0.1641717405468225,0.0984089363038539,0.0927416086196899,0.0195842627435922,-0.0067175133153796
1783197242548856300,3.873856201171875,-0.1358843882173299,-0.1474307413652539,0.127004916191101,0.0836056321859359,0.0148624777793884,-0.0118017541244626
1783197242558793200,3.883793212890625,-0.1290911478806287,-0.1319656073383986,0.1161900921881198,0.0783394947648048,0.0142339719459414,-0.0152055406942963
1783197242568730400,3.89373046875,-0.1214936054237186,-0.1099465216234326,0.1187087970107793,0.0745650008320808,0.0079244105145335,-0.0199398417025804
1783197242578667500,3.90366748046875,-0.1156096619516611,-0.1137985208764672,0.083816931849718,0.0788596123456955,-0.0012571779079735,-0.0354895703494548
1783197242588604400,3.9136044921875,-0.1598682711992412,-0.1360150288596749,0.0199158298254013,0.0969856232404708,-0.001481682062149,-0.0504330992698669
1783197242598541300,3.923541259765625,-0.150833754741773,-0.1093298510298132,0.0151315181583166,0.1032621562480926,-0.0265071038156747,-0.0647222623229026
1783197242608478200,3.933478271484375,-0.1329363520666956,-0.0671197718098759,-0.0059521864026784,0.1102324426174163,-0.0373802557587623,-0.0645853728055954
1783197242618415400,3.943415283203125,-0.0921028218969702,-0.0623015578731894,-0.0361883347123861,0.1107475012540817,-0.0310317762196064,-0.055222999304533
1783197242628352500,3.9533525390625,-0.0760229900378733,-0.0139284259788691,-0.0205512051194906,0.109684906899929,-0.0228521432727575,-0.0461978130042552
1783197242638289400,3.963289306640625,-0.078198653576523,0.0323164617151021,-0.0061088382691144,0.1075533032417297,-0.0207167826592922,-0.0384614095091819
1783197242648226300,3.973226318359375,-0.034640520748496,0.0305621653936803,0.0184510179698467,0.1028919667005539,-0.0285105220973491,-0.0285789519548416
1783197242658164200,3.983164306640625,-0.0120030839394778,0.0177072138652205,0.0255547124952077,0.096930481493473,-0.0415632091462612,-0.0283058620989322
1783197242668101400,3.993101318359375,-0.0111872375119477,0.0044241000525653,0.0615653525531291,0.084683671593666,-0.055232148617506,-0.0283697787672281
1783197242678038300,4.003038330078125,-0.018577274698019,-0.012744476891309,0.0704109223097562,0.0767631754279136,-0.0603645555675029,-0.0339238829910755
1783197242687975400,4.012975341796875,-0.0390132559400051,-0.0285768367953598,0.0879307969093322,0.066432237625122,-0.053930889815092,-0.0407546237111091
1783197242697912600,4.02291259765625,-0.0779149412643164,-0.0169635558910667,0.0975444284290075,0.0625509917736053,-0.0350866913795471,-0.0528257489204406
1783197242707849200,4.03284912109375,-0.0859022867564111,0.0107528646826744,0.0942617534965276,0.0529281944036483,-0.0170669425278902,-0.0591883063316345
1783197242717786400,4.042786376953125,-0.0610752309486269,0.0195528417319059,0.1043506013125181,0.0384053885936737,0.0013664169237017,-0.0484570488333702
1783197242727723300,4.05272314453125,0.0150558956388384,0.0361351432204246,0.1304933428287506,0.025041114538908,-0.0129294311627745,-0.0499662682414054
1783197242737660400,4.062660400390625,0.1170141219221055,0.0203089207962155,0.1717816310286521,0.0167003329843282,-0.0484158582985401,-0.0476621612906456
1783197242747597600,4.07259765625,0.1700163749217987,-0.0051442310206592,0.1343044255495071,0.0151988435536623,-0.0628083795309066,-0.0422804430127143
1783197242757534200,4.0825341796875,0.1727818941123783,0.0069775839276611,0.1218248832046985,0.0169964041560888,-0.0739941075444221,-0.0315061137080192
1783197242767471400,4.092471435546875,0.1235630321089178,0.0408265159070491,0.0820616126149892,0.0200656969100236,-0.0759153142571449,-0.0244215745478868
1783197242777408300,4.102408203125,0.1146826832998543,0.0236817582301795,0.0219359374761581,0.0288631748408079,-0.071539431810379,-0.0293477047234773
1783197242787345400,4.112345458984375,0.1194967325180769,-0.0009822890356183,-0.031442016968131,0.0322222188115119,-0.0584638454020023,-0.029994586482644
1783197242797282600,4.122282470703125,0.1068463636510074,0.0077856854401528,-0.0472866518318653,0.0314892716705799,-0.0460197478532791,-0.0357620976865291
1783197242807219200,4.13221923828125,0.1014700043749064,0.0286922798685729,-0.0542699348479509,0.0260316580533981,-0.0413506962358951,-0.0242817420512437
1783197242817156400,4.14215625,0.101771398474276,0.009690496148169,-0.0602677139580249,0.0190770775079727,-0.0327682793140411,-0.0223858542740345
1783197242827093200,4.15209326171875,0.1038817416917532,0.0192021285980939,-0.0637304216325283,0.0114244828000664,-0.0158689245581626,-0.0194880682975053
1783197242837030400,4.162030517578125,0.1009548213943839,0.0129480366393923,-0.055095864278078,-0.0040525393560528,-0.0006782659329473,-0.0178270377218723
1783197242846967600,4.171967529296875,0.0736744541503489,0.0254343009859323,-0.0582680645734071,-0.0124249840155243,0.0156911201775074,-0.0231453701853752
1783197242856904200,4.181904296875,0.0454993300236761,0.0376655676580965,-0.0666501084715127,-0.0071094688028097,0.0371001102030277,-0.0184604208916425
1783197242866841300,4.19184130859375,0.0542476499509066,0.0634980741813778,-0.0882581291675567,-0.0062860194593667,0.0277518816292285,-0.0188258066773414
1783197242876778200,4.2017783203125,0.0635201398827135,0.0554467235423624,-0.1000157869786024,-0.0019265795126557,0.0170365311205387,-0.0131458677351474
1783197242886715400,4.21171533203125,0.0818292651638388,0.0284149242319166,-0.0590899023503065,-0.0028094165027141,0.0154165299609303,-0.0014987993054091
1783197242896652500,4.221652587890625,0.0626363427855074,0.0359878437042236,-0.0304763868063688,-0.0053262105211615,0.0185002498328685,-0.0006856361869722
1783197242906589200,4.231589111328125,0.0456106083784252,0.0563115236781537,0.0276548996448516,-0.0163503661751747,0.015177690424025,-0.0001751084346324
1783197242916526300,4.2415263671875,0.0458180405840277,0.0483303156659007,0.0864531255722045,-0.0275051239877939,0.0150196589529514,0.000579715007916
1783197242926463500,4.25146337890625,0.0393506712008267,0.020789105528593,0.0858072288841009,-0.0367984920740127,0.0135650392621755,-0.0035077044740319
1783197242936400400,4.261400390625,0.0066049512229859,0.0046660921148955,0.1266951195895671,-0.048438049852848,0.0170730836689472,-0.0103366151452064
1783197242946338300,4.27133837890625,-0.0325832228925079,0.0160644150942564,0.1561667132675647,-0.0526919141411781,0.0112562077119946,-0.0103438068181276
1783197242956275500,4.281275390625,-0.037315365980938,0.0106587566584348,0.153142981532216,-0.0520149022340774,-0.0003865812905132,-0.008576663210988
1783197242966212400,4.29121240234375,0.0010134148262441,-0.0003900222308933,0.105650577995181,-0.050458550453186,-0.0056809457018971,-0.0119889713823795
1783197242976149200,4.301149169921875,0.0204117235835641,0.0098972707666456,0.064946811684966,-0.048688493669033,-0.0050182091072201,-0.0023366622626781
1783197242986086400,4.31108642578125,0.0270722774513065,0.0239596983887255,0.0470756394296884,-0.0491859726607799,-0.0099011156708002,0.0044900849461555
1783197242996023300,4.321023193359375,0.0297792713876813,0.0099405253864824,0.0248521171838045,-0.0539777427911758,-0.0141376946121454,0.0100874658674001
1783197243005960400,4.33096044921875,0.0194383485067635,-0.0190093825049698,0.0055617257803678,-0.0629219710826873,-0.0133214350789785,0.0068368120118975
1783197243015897300,4.3408974609375,-0.0055289194893091,-0.0367472837693989,-0.0251274269938468,-0.0657206326723098,0.0011988943442702,-0.0017383501399308
1783197243025834200,4.350834228515625,-0.0608590309146791,-0.0571340921074152,-0.0489817653119564,-0.0752883031964302,0.0152460038661956,-0.0140805039554834
1783197243035771400,4.360771484375,-0.1053699344228953,-0.0687196082219481,-0.0531920764833688,-0.0865174233913421,0.0321244671940803,-0.0311206392943859
1783197243045708500,4.37070849609375,-0.1017091468930244,-0.1023944988086819,-0.0686661244690418,-0.0910501256585121,0.0369916595518589,-0.0369348526000976
1783197243055645400,4.3806455078125,-0.0715915834616869,-0.0998828082486987,-0.1002373207747936,-0.0877213776111602,0.0336644724011421,-0.0361745208501815
1783197243065582300,4.390582275390625,-0.0132370827138423,-0.0661867287434637,-0.1138707093298435,-0.076282300055027,0.0297059491276741,-0.0286201983690261
1783197243075519200,4.400519287109375,0.0087660017143934,-0.053406303755939,-0.1371650756776332,-0.0593934245407581,0.0271633453667163,-0.0158778168261051
1783197243085456400,4.410456298828125,0.0127031219676136,-0.0569185496605932,-0.1609738212883472,-0.0392932146787643,0.0182223133742809,-0.0115219512954354
1783197243095393500,4.4203935546875,0.0068936319712549,-0.0453872479513287,-0.1782195551216602,-0.0122854290530085,0.0132036115974187,-0.0082942359149456
1783197243105330400,4.430330322265625,-0.0037729426674544,-0.0498861668057739,-0.1693926900655031,0.012603142298758,0.0050218482501804,-0.0057471888139843
1783197243115267300,4.440267333984375,-0.0085677757285535,-0.0799951816044747,-0.133234165969491,0.0221439059823751,-0.0056683821603655,-0.0078204916790127
1783197243125204200,4.450204345703125,-0.0571470977194607,-0.0781317258201539,-0.0920639511913061,0.0271157622337341,-0.0033437088131904,-0.0158536508679389
1783197243135141400,4.460141357421875,-0.0849498814024031,-0.085559829994291,-0.0505886159867048,0.018226571381092,0.0112849241122603,-0.027696531265974
1783197243145078500,4.47007861328125,-0.1011184875234961,-0.1181603693477809,0.0207698163062334,-0.0033112112432718,0.0114447139203548,-0.0410506837069988
1783197243155015400,4.480015380859375,-0.1085193383645266,-0.1198183656878769,0.1043482632249593,-0.0320114642381668,0.0131610017269849,-0.0538422763347625
1783197243164952300,4.489952392578125,-0.1300275519479066,-0.116172118140012,0.1329968500822782,-0.0512357614934444,0.0161088537424802,-0.062517262995243
1783197243174889200,4.49988916015625,-0.1170358953624963,-0.1050401910118758,0.1515261939853429,-0.0593562126159668,0.0186729244887828,-0.0707930848002433
1783197243184826400,4.509826416015625,-0.1133011658135801,-0.0607069821581244,0.1218587854743003,-0.0567460507154464,0.0118917161598801,-0.07498649507761
1783197243194763300,4.51976318359375,-0.1030356462564319,-0.0081786302804946,0.081163202470541,-0.0361183770000934,0.0094695026054978,-0.0698067992925643
1783197243204700200,4.5297001953125,-0.0550860004711896,0.0162730894088745,0.0452805727064609,-0.019602783024311,-0.0070937611162662,-0.0631598159670829
1783197243214637300,4.53963720703125,-0.0303526873614639,0.0228537829734385,0.0807025992214679,-0.0129413623362779,-0.0364479459822177,-0.0608517043292522
1783197243224575200,4.5495751953125,-0.0346869902387261,0.02462736851722,0.1357616386204957,-0.016494020819664,-0.0694181472063064,-0.0654187574982643
1783197243234512400,4.559512451171875,-0.0511983453828841,0.0092724168665707,0.1654354768723249,-0.0189361497759819,-0.0745319798588752,-0.0780243277549743
1783197243244449300,4.56944921875,-0.1008560371950268,0.0069208853043615,0.1362707571864128,-0.0322436988353729,-0.0403513759374618,-0.1004121899604797
1783197243254386200,4.57938623046875,-0.1366771460302174,0.0425533396996557,0.1729004059255123,-0.060931421816349,-0.0242278091609478,-0.1201327070593833
1783197243264323300,4.5893232421875,-0.1035704837854951,0.0642230274550616,0.1912204909920692,-0.0852402225136756,-0.0099780336022377,-0.1204892992973327
1783197243274260200,4.59926025390625,-0.0154522745452821,0.0434510191917419,0.1675561222881078,-0.1108776628971099,0.0010833917185664,-0.1148536801338195
1783197243284197400,4.609197265625,0.0453208316516131,0.0589507861405611,0.1711532699972391,-0.1264012157917022,0.0005723312497138,-0.1049872040748596
1783197243294134300,4.61913427734375,0.094191172478348,0.1074361462377011,0.145423785457015,-0.1328538358211517,-0.016673557460308,-0.0928130000829696
1783197243304071200,4.6290712890625,0.1659877039276063,0.0781689890906214,0.1065893201500177,-0.1298021227121353,-0.04529694840312,-0.0785853266716003
1783197243314008300,4.63900830078125,0.2226216644931584,0.0445640950001776,0.037535073146224,-0.1163117066025734,-0.063164010643959,-0.0607806295156478
1783197243323945200,4.6489453125,0.2092437120039016,-0.0024488544568419,-0.0310574015647172,-0.0996791943907737,-0.0568523183465004,-0.0520997904241085
1783197243333882400,4.65888232421875,0.1295150723811239,0.0130095575682818,-0.0830295808643102,-0.0870453640818595,-0.0425105020403862,-0.0503466315567493
1783197243343819300,4.6688193359375,0.0588781592957675,0.0507521359853446,-0.1144458788692951,-0.0638391077518463,-0.0226800739765167,-0.0545813255012035
1783197243353756200,4.678756103515625,0.0674168550603091,0.0230482826322317,-0.0849585031002759,-0.0579881556332111,-0.0173227787017822,-0.0575515963137149
1783197243363693300,4.688693359375,0.0766000592734664,-0.0071760291092097,-0.0131447282552719,-0.0581215806305408,-0.0278888717293739,-0.0575784966349601
1783197243373630200,4.698630126953125,0.0274917449723929,-0.0116164957746863,0.0089794252693653,-0.0669836699962616,-0.016212934628129,-0.0639712288975715
1783197243383567400,4.7085673828125,-0.001805295856297,-0.0145789988420903,0.0686409900277853,-0.0882130563259124,-0.0084261186420917,-0.0694368332624435
1783197243393504300,4.718504150390625,0.0093527886264026,0.0004902677349746,0.1091162082791328,-0.1048917472362518,-0.0082403356209397,-0.0744530782103538
1783197243403441200,4.728441162109375,0.0287918677855283,0.0163322722502052,0.0888292070537805,-0.1193889379501342,-0.0106779271736741,-0.0729928687214851
1783197243413378300,4.73837841796875,0.0919025500845164,0.030335078639537,0.087974051529169,-0.1302549988031387,-0.0302269645035266,-0.0608000345528125
1783197243423315200,4.748315185546875,0.1433561854027211,0.069848027729988,0.0221375975281,-0.1330768913030624,-0.0516132116317749,-0.0407874472439289
1783197243433252400,4.75825244140625,0.164231873236224,0.0883252030543983,-0.0272398891031742,-0.1252452284097671,-0.0727636292576789,-0.0262471716850996
1783197243443189500,4.768189453125,0.143077149265632,0.1096934236451983,-0.0912941358625888,-0.1085059121251106,-0.077913649380207,-0.0131044723093509
1783197243453126100,4.778126220703125,0.1113236551955342,0.0990127474159002,-0.1797960106581449,-0.0850967913866043,-0.0694517344236373,-0.0097571266815066
1783197243463063300,4.788063232421875,0.0924942323673516,0.1046558678694069,-0.2442237669050693,-0.0636375695466995,-0.0591367781162261,-0.0013074490707367
1783197243473000200,4.798000244140625,0.0571706977907568,0.1083450777761638,-0.279959681674838,-0.0491241961717605,-0.0356953479349613,0.0049848519265651
1783197243482937300,4.807937255859375,0.0444794123914092,0.1046773490488529,-0.2748889542818069,-0.0507921352982521,-0.0218407846987247,0.0118595361709594
1783197243492875300,4.817875244140625,0.0399788861017674,0.0979876421518623,-0.2295855852216482,-0.0624564141035079,-0.0201131254434585,0.0186334364116191
1783197243502812400,4.8278125,0.0678014704637229,0.102658264311403,-0.204732883515954,-0.0749740675091743,-0.0285920985043048,0.0242543034255504
1783197243512749300,4.837749267578125,0.0645247868806123,0.0774298611611127,-0.1755710864394903,-0.0790241360664367,-0.0222559683024883,0.0334816575050354
1783197243522686200,4.847686279296875,0.0450648110639303,0.0415811336666345,-0.2010503956109285,-0.075194776058197,-0.0085926204919815,0.0364212542772293
1783197243532623400,4.857623291015625,-0.0036257892817258,0.03583133796826,-0.2250835976272821,-0.0638237670063972,0.0105290580540895,0.0355998016893863
1783197243542560300,4.867560302734375,-0.0292295285504311,0.0380114584863185,-0.2506067459404468,-0.0508304722607135,0.0222938396036624,0.0380248762667179
1783197243552497400,4.877497314453125,-0.020057137992233,0.0293567351266741,-0.2662035435229539,-0.0388638265430927,0.0276365224272012,0.0445472076535224
1783197243562434300,4.887434326171875,-0.0123255938921123,0.001274696110934,-0.2448462827175855,-0.035274151712656,0.0237943790853023,0.048175498843193
1783197243572371200,4.89737109375,2.44768541306e-05,-0.0125472007535398,-0.2338572711914777,-0.0299523528665304,0.0160389095544815,0.0503705255687236
1783197243582308400,4.907308349609375,0.0150802263624966,-0.0259182851105928,-0.2058446441501379,-0.0242406744509935,0.0082643441855907,0.0462309084832668
1783197243592245200,4.917245361328125,0.0160565240487456,-0.0401722897820174,-0.170582776632905,-0.0221724659204483,-0.0068105170503258,0.0443528108298778
1783197243602182400,4.927182373046875,-0.0060172144629061,-0.0585198473773896,-0.1781190173566341,-0.0195473879575729,-0.0052813300862908,0.0456383191049099
1783197243612119300,4.937119384765625,-0.0650149084851145,-0.0848274240665137,-0.2022925046265125,-0.0143044749274849,0.0051947701722383,0.0339098088443279
1783197243622056200,4.94705615234375,-0.104333942438662,-0.1005639223806559,-0.2218184583514928,-0.0087368702515959,0.0183662325143814,0.0162418652325868
1783197243631993300,4.956993408203125,-0.1409470784343779,-0.0779088768497109,-0.2012193224370479,-0.0093871122226119,0.0239875502884387,0.0075361263006925
1783197243641930200,4.96693017578125,-0.1138373185168951,-0.058113458533585,-0.1765530832141637,-0.0098307942971587,0.0273892059922218,0.0066082803532481
1783197243651867400,4.976867431640625,-0.0812622789308428,-0.0570287320367991,-0.1891512835025787,-0.0035929270088672,0.0368567667901515,0.0040881815366446
1783197243661804300,4.98680419921875,-0.0681937577169388,-0.0316679346784949,-0.1341810914307832,-0.0026783980429172,0.0255367346107959,0.0031851036474108
1783197243671741200,4.9967412109375,-0.0446169942311942,0.0144338912829756,-0.0811480049014091,-0.0030534910038113,0.0125873908400535,0.0012498523574322
1783197243681678300,5.00667822265625,-0.0319182561777532,0.013483020298928,-0.1172667815089225,0.0073344353586435,0.0244248770177364,0.0026546695735305
1783197243691615200,5.016615234375,-0.0393141385827213,0.0023585458248853,-0.1160422081500291,0.0119008710607886,0.0357723385095596,0.0020268766675144
1783197243701552400,5.026552490234375,-0.0619688918527215,0.0358908130705356,-0.0945394013941288,0.0100134890526533,0.0272563509643077,0.0035520691890269
1783197243711489300,5.0364892578125,-0.0463568236358463,0.0617376403801143,-0.0679687898546457,0.0049590226262807,0.0126353520900011,0.0157046560198068
1783197243721426200,5.04642626953125,-0.0143623604167252,-0.0050926469638943,-0.0865852275192737,0.0051374547183513,0.0118467900902032,0.0208770465105772
1783197243731363300,5.05636328125,-0.0100268154304474,-0.0357666021689772,-0.1123784249454736,0.013066747225821,0.0047349347732961,0.0163949318230152
1783197243741300200,5.06630029296875,-0.0485544067453592,0.0160908647097647,-0.130348965921998,0.0229550637304782,0.0058294939808547,0.0123661002144217
1783197243751237400,5.0762373046875,-0.0662424775186926,0.0327744346156716,-0.1332972943335771,0.0261891558766365,0.0075854137539863,0.0041959043592214
1783197243761175300,5.08617529296875,-0.0536962996784597,0.0033224224209785,-0.1444786135613918,0.0285567063838243,0.019904663786292,0.0081363171339035
1783197243771112200,5.0961123046875,-0.0560562337428331,0.0115497141487896,-0.1563297948747873,0.0317383334040641,0.0370911285281181,0.0073462082073092
1783197243781049300,5.10604931640625,-0.0423401353403925,0.0419159185789525,-0.1216892741262912,0.0302719958126544,0.0398339182138443,0.0048497607931494
1783197243790986200,5.115986328125,-0.0124624450795352,0.0545399839609861,-0.0842997469305992,0.025504246354103,0.0338263921439647,0.00865313783288
1783197243800923400,5.12592333984375,0.0251912129450589,0.0285635389223694,-0.073436407610774,0.0204884484410285,0.0299949012696743,0.0106419865041971
1783197243810860300,5.1358603515625,0.0288866333968937,0.005991203238815,-0.08935235414505,0.0233500152826309,0.0335754081606864,0.0131357870995998
1783197243820797200,5.145797119140625,0.0026101824983954,0.0160524323955178,-0.0827706376671791,0.0241084843873977,0.0344534516334533,0.0090614166110754
1783197243830734300,5.155734375,-0.024787162188813,0.0261835119180381,-0.0782546215474605,0.0199649222195148,0.0275491476058959,0.0085534695535898
1783197243840671200,5.165671142578125,-0.0053093584544956,0.0047772974044084,-0.0770166041851043,0.0239452831447124,0.0398529507219791,0.0045699132606387
1783197243850608400,5.1756083984375,-0.0059664341237396,0.0072556702166795,-0.1095826567471027,0.031030036509037,0.0614071525633335,0.0061622830107808
1783197243860545300,5.185545166015625,-0.0059054246515035,0.0452614296145737,-0.1068394955188035,0.0402653478085994,0.0720880329608917,0.0127235129475593
1783197243870482200,5.195482177734375,0.02580225751549,0.0807300717502832,-0.0802308900564909,0.0415625721216201,0.0606077872216701,0.0195446498692035
1783197243880419300,5.20541943359375,0.0957058148249983,0.0656317252092063,-0.0499427192986011,0.0443407818675041,0.0336768366396427,0.0334633961319923
1783197243890356200,5.215356201171875,0.1551546136155724,0.0400372652254998,-0.0020195231288671,0.0421646051108837,0.0202341973781585,0.0465830452740192
1783197243900293400,5.22529345703125,0.1441232242524623,0.0565951629251241,0.0030424364358186,0.0433787405490875,0.0270343124866485,0.0533946119248867
1783197243910230300,5.235230224609375,0.0930175986543297,0.0787481041528284,0.0280143806070089,0.0451632216572761,0.0293140225112438,0.0521227866411209
1783197243920167200,5.245167236328125,0.0498503648400306,0.0901687850944697,0.0602232902944087,0.0323739200830459,0.0211738049983978,0.0403329730033874
1783197243930104300,5.255104248046875,0.0191013716373592,0.0708443452909588,0.085450670531392,0.0114374794065952,0.0193029344081878,0.0323496125638484
1783197243940041200,5.265041259765625,0.0254221721567213,0.0324868498459458,0.0871282483547925,-0.0069705564528703,0.0369290672242641,0.0267825424671173
1783197243949978400,5.274978271484375,0.015243600230664,0.0113220428727567,0.0555038605570793,-0.017633656039834,0.0574962310492992,0.0239729080349206
1783197243959915500,5.28491552734375,-4.3693011254e-05,0.0646751551367342,0.0281739550828933,-0.0223466511815786,0.0613631419837474,0.0259321946650743
1783197243969852200,5.29485205078125,0.0221982416741549,0.0772863610371947,0.0123158762156963,-0.0233739763498306,0.0494377203285694,0.0349941477179527
1783197243979789300,5.304789306640625,0.0672146835517138,0.0364938935302197,-0.0257242238432168,-0.0143173644319176,0.0337021648883819,0.0458973944187164
1783197243989726200,5.314726318359375,0.0857087369456887,-0.0031453122884035,-0.0616413403987884,-0.0012994240969419,0.0355483219027519,0.0546000599861145
1783197243999663400,5.324663330078125,0.0361701414685696,0.0224207983836531,-0.0920756416290998,0.0184258110821247,0.0477932691574096,0.0607357136905193
1783197244009600500,5.3346005859375,-0.0099812957882881,0.0475356581568717,-0.0838204389810562,0.02943791821599,0.0387644916772842,0.0568225011229515
1783197244019537200,5.344537109375,-0.0111615916140377,0.0152981068968772,-0.0871042829573154,0.0240143928676843,0.0260042212903499,0.0530301593244075
1783197244029475300,5.354475341796875,-0.0165983027752488,-0.0454193966552615,-0.0955710825294256,0.0170723777264356,0.0284411050379276,0.0508790612220764
1783197244039412200,5.364412109375,-0.0297896466512233,-0.0749780840948224,-0.0898041895657777,0.018422333523631,0.0352042056620121,0.0473354533314704
1783197244049349400,5.374349365234375,-0.0616832067791372,-0.0474416962631046,-0.0972697031408548,0.0250712111592292,0.0537570714950561,0.0461602844297885
1783197244059286300,5.384286376953125,-0.088367069434747,-0.0258574948340654,-0.1190127483934164,0.0346439443528652,0.068749338388443,0.0431386604905128
1783197244069223400,5.394223388671875,-0.0999671255312859,-0.0217035900250077,-0.1052326448440551,0.0384940765798091,0.0739060193300247,0.0418078787624836
1783197244079160300,5.404160400390625,-0.0791854726567864,-0.0390621365830302,-0.0734106886476278,0.036270871758461,0.0569001361727714,0.0405250340700149
1783197244089097200,5.41409716796875,-0.0430431690432131,-0.0474142237342894,-0.0209381586104631,0.0286769662052392,0.0351494811475276,0.0365464054048061
1783197244099034400,5.424034423828125,-0.0185091048326343,-0.0601771130651235,0.0378740958422422,0.0193399228155612,0.0118742538616061,0.0352409221231937
1783197244108971300,5.43397119140625,-0.0379155968964099,-0.0683292937301099,0.0560404516518115,0.0064195431768894,0.010957883670926,0.025939617305994
1783197244118908400,5.443908447265625,-0.0615975743222981,-0.0674266458019614,0.051904959282279,0.0088834995403885,0.0333313643932342,0.0208897329866886
1783197244128845300,5.45384521484375,-0.1055107311330735,-0.0434286612294614,0.0150911861479282,0.0145839527249336,0.0444630570709705,0.0140670780092477
1783197244138782200,5.4637822265625,-0.1081272703070193,-0.0331257322713732,-0.016033435434103,0.0269372910261154,0.047062836587429,0.010697646997869
1783197244148719400,5.47371923828125,-0.0825534877851605,-0.0124649292975664,-0.0510883822023868,0.0336361899971962,0.0494090095162391,0.0100408466532826
1783197244158656300,5.48365625,-0.0491431664187461,-0.0095094404928386,-0.0034381577551364,0.0355651155114173,0.034355491399765,0.017556820064783
1783197244168593000,5.493593017578125,-0.012928162895143,-0.0101850016668438,0.0399549937695264,0.0288073569536209,0.0161933004856109,0.0195342488586902
1783197244178530000,5.503530029296875,0.0080812343206256,-0.0214591137446463,0.068212535482645,0.0246720016002655,0.0051007010042667,0.0223564002662897
1783197244188467000,5.513467041015625,-0.0034592736084014,-0.0159762984193861,0.0674900664269924,0.0212700143456459,0.0120494086295366,0.0207377504557371
1783197244198404000,5.523404052734375,-0.0201548992782831,-0.0003650339201092,0.0404068291902542,0.0196457505226135,0.0254139509052038,0.0133424177765846
1783197244208341200,5.53334130859375,-0.0253500567685812,0.0072791972227394,0.0494844541370868,0.0185412429273128,0.0235940255224704,0.0118826050311326
1783197244218278000,5.54327783203125,0.0079844228826463,0.0129655722960829,0.0564028552234172,0.0096848998218774,0.0135358003899455,0.0118045741692185
1783197244228215000,5.553215087890625,0.0427116720665246,0.0009038169719278,0.0598801759451627,0.0057022050023078,0.010165087878704,0.0172930974513292
1783197244238152000,5.56315185546875,0.0553054884407669,0.0332838454425334,0.0652969402968883,-0.0019775526598095,0.0036890795454382,0.025202153250575
1783197244248089000,5.573089111328125,0.0447584485284984,0.0535083028256893,0.0587912116646766,-0.0056194942444562,-4.14121896028e-05,0.0364036448299884
1783197244258026200,5.583026123046875,0.0473745493110269,0.0252934312105178,0.0199655141860246,-0.007901556789875,-0.0034055169671773,0.0394324585795402
1783197244267963000,5.592962890625,0.0472780301339924,0.0002633271113038,0.0209796596646308,-0.011123651638627,-0.0074732163920998,0.0335918627679348
1783197244277900000,5.602900146484375,0.0318555662050843,0.0030680092684924,0.0174473938852548,-0.0169165600091218,-0.0094482162967324,0.0322802551090717
1783197244287837000,5.6128369140625,0.0187440095670521,0.011538754363358,0.0034229601860046,-0.0215590968728065,-0.0008859927766025,0.0294406078755855
1783197244297775000,5.622775146484375,0.0231941208437085,0.0089621818736195,-0.0146685768216848,-0.0203119367361068,0.0099884923547506,0.03574750572443
1783197244307712000,5.6327119140625,0.0150846833419054,0.024963906995207,-0.0464881949305534,-0.0168117098510265,0.0258759036660194,0.0371357165277004
1783197244317649200,5.642649169921875,0.0130683020181953,0.0603778963342308,-0.0132873515963554,-0.0158777385950088,0.0243589673191308,0.0386446639895439
1783197244327586000,5.6525859375,0.0193868375152349,0.0559589108482003,0.0182540340930223,-0.0201523564755916,0.0057881320826709,0.0373858325183391
1783197244337523000,5.66252294921875,0.0328447964381426,0.0151597213394939,0.0050777416557073,-0.0167935788631439,0.0005459655076265,0.0390015728771686
1783197244347460000,5.672460205078125,0.0022538433413952,-0.0041666181601583,-0.0060199909418821,-0.0112319430336356,-0.0020969090983271,0.0334993153810501
1783197244357397000,5.68239697265625,-0.0422955655463039,-0.0125004390023648,0.0058908116042613,-0.0140820583328604,0.0050515481270849,0.0267117172479629
1783197244367334100,5.692334228515625,-0.0700454499982297,-0.0163850253507494,0.0073375032812356,-0.0205762237310409,0.000776283442974,0.0217346027493476
1783197244377271000,5.70227099609375,-0.0537043368544429,-0.0537833203747868,0.018773089531064,-0.0267097502946853,0.0001041018404066,0.0162088107317686
1783197244387208000,5.7122080078125,-0.0337667335886508,-0.0669416387639939,-0.0056909051179885,-0.029238311573863,0.0084745222702622,0.0102807953953742
1783197244397145000,5.72214501953125,-0.0356054202578961,-0.0678470631711185,0.0076174892663955,-0.0264113638550043,0.0177822709083557,0.0051123993471264
1783197244407082000,5.73208203125,-0.0407376685798168,-0.0459719159714877,0.0101326869577169,-0.0262462180107831,0.0123533215373754,0.0051263999193906
1783197244417019100,5.74201904296875,-0.0371936392974108,-0.0577938711903989,0.0173106157630681,-0.025339676067233,0.0044732941314578,0.0048510283231735
1783197244426956000,5.7519560546875,-0.0245329682320356,-0.0786499044753611,0.009255904123187,-0.0222746804356575,-0.0047482242807745,0.0016766390763223
1783197244436893000,5.761892822265625,-0.0150607179444283,-0.0785424985781312,0.0219862063586711,-0.0217883884906768,-0.0054443748667836,-0.0034717840608209
1783197244446830000,5.771830078125,-0.0156667210135608,-0.0572526039205491,0.0312923793643713,-0.0249586626887321,-0.0082393027842044,-0.0057681454345583
1783197244456767000,5.78176708984375,-0.0307858911469578,-0.0480970914319157,0.0215349554598331,-0.0346469767391681,-0.0044080791994929,-0.0049127382226288
1783197244466704100,5.7917041015625,-0.0325320772271603,-0.0412822968505322,0.0135486328810453,-0.0379325710237026,-0.0113261127844452,-0.0121519267559051
1783197244476641000,5.80164111328125,-0.0243723708428442,-0.0423030182003974,0.0213140061855316,-0.0451630540192127,-0.0215949937701225,-0.0145564936101436
1783197244486578000,5.811577880859375,-0.0237356803745031,-0.0454547602295875,-0.0124140758931636,-0.0470567755401134,-0.0211692918092012,-0.0122281266376376
1783197244496515000,5.82151513671875,-0.0425405532833188,-0.0539879030361771,-0.0774620098650455,-0.0427568368613719,-0.0090212831273674,-0.0194793809205293
1783197244506452000,5.831451904296875,-0.0469229330860078,-0.0508430291391909,-0.1296042850345373,-0.0309057310223579,-0.0044587738811969,-0.0268184170126914
1783197244516389000,5.84138916015625,-0.0688412618402391,-0.0314702201493084,-0.1702577824622392,-0.0225969366729259,0.0048337937332689,-0.0314041152596473
1783197244526326000,5.851325927734375,-0.0465443090319633,-0.0212296889029443,-0.1918687257677316,-0.012436743825674,0.0108991246670484,-0.0265229418873786
1783197244536263000,5.861262939453125,-0.0405728334069252,-0.0163376790776848,-0.2135609176158905,-0.0021446924656629,0.0216588266193866,-0.0234336741268634
1783197244546200000,5.871199951171875,-0.0238671247344464,-0.0057772682271897,-0.1897463267862796,0.0032886816188693,0.0219995230436325,-0.0185058116912841
1783197244556137000,5.881136962890625,0.0028295243375003,0.0236374806970357,-0.147516373822093,0.0063310768455266,0.0087726674973964,-0.0194839891046285
1783197244566074000,5.89107421875,0.0180787505913525,0.0278492531731724,-0.0919207433283329,0.0047897472977638,-0.0054465271532535,-0.0173378475010395
1783197244576011000,5.901010986328125,0.0097188454598188,0.0261361656449735,-0.0853793588608503,0.0066449050791561,0.0020888866856694,-0.02100795134902
1783197244585948000,5.910947998046875,-0.0120960229199379,0.0330519363828003,-0.0718242962390184,0.0040885936468839,0.0146463522687554,-0.0232232008129358
1783197244595886000,5.920885986328125,-0.0189111097622662,0.0522195781894028,-0.0418920993119478,0.0012746974825859,0.0123104937374591,-0.0255494732409715
1783197244605823000,5.930822998046875,-0.0103854926750063,0.0540340802654623,-0.026257307806611,-0.0030924631282687,-0.0045681949704885,-0.0264005362987518
1783197244615760100,5.940760009765625,0.0340181510664522,0.0349015097722411,-0.0237789349943399,-0.0043084630742669,-0.0082055404782295,-0.022055322304368
1783197244625697000,5.950697021484375,0.0518799709714949,0.032141397409141,-0.0411468339025974,-0.0048749651759862,0.0007821936160326,-0.0129349455237388
1783197244635634000,5.960634033203125,0.0238460088811814,0.0498925965465605,-0.0485457119822502,-0.0042477902024984,0.0086582265794277,-0.0098225092515349
1783197244645571000,5.970571044921875,0.0083249068833887,0.0696874303407967,-0.0635503888905048,-0.0041500553488731,0.0111041506752371,-0.0113850347697734
1783197244655508000,5.980508056640625,0.0129345926359295,0.0429068293124437,-0.0458142411917448,-0.0064054876565933,-0.001638542395085,-0.0108617236837744
1783197244665445000,5.990445068359375,0.013523936831206,0.0052577743977308,-0.0460813676953315,-0.0043233726173639,0.0008380594663321,-0.0166064612567424
1783197244675382000,6.000382080078125,-0.0034177725542336,0.0027916765451431,-0.0645411534935235,-0.0055617410689592,0.0131482556462287,-0.0206480752676725
1783197244685319000,6.01031884765625,-0.0296806333187967,0.0080443363763391,-0.0413420642137527,-0.0100642414763569,0.0109395356848835,-0.0307018589228391
1783197244695256000,6.020256103515625,-0.0219586607646197,0.0170166012525558,-0.0652741439431905,-0.0250000469386577,0.0088468231260776,-0.0322699286043643
1783197244705193000,6.03019287109375,0.0088338062535971,-0.0008729834422469,-0.0774549956023693,-0.0420560501515865,0.010946711525321,-0.0367504134774208
1783197244715130000,6.040130126953125,0.0090717066626995,0.0049158290922641,-0.0990150855034589,-0.0476561449468135,0.0374984294176101,-0.0224998369812965
1783197244725067300,6.0500673828125,0.0241578513093292,-0.0037049919977784,-0.1357598850548267,-0.0457505583763122,0.0588189288973808,-0.018857579678297
1783197244735004000,6.06000390625,0.0093833298951387,-0.0073019935764372,-0.1765302868604659,-0.0323106497526168,0.0636749342083931,-0.0184567738324403
1783197244744941000,6.069941162109375,0.0207399326246231,0.0083196461863815,-0.1863619450449943,-0.0186453182250261,0.06035678088665,-0.0115184932947158
1783197244754878000,6.0798779296875,0.0356540817052125,-0.0327063378155231,-0.1497656140536069,0.0039201769977808,0.0484473891556263,-0.0035575055517256
1783197244764815000,6.089815185546875,0.0422355059221386,-0.0492659890808165,-0.1412549753397703,0.0253907404839992,0.0424293726682662,-0.0002404220867902
1783197244774752300,6.099752197265625,0.0290686389002949,-0.0559280773185193,-0.1032569608569145,0.0408727601170539,0.029570035636425,2.6426743716e-05
1783197244784689000,6.10968896484375,0.0108118283282965,-0.0459381598323583,-0.0441273110181093,0.0466924868524074,0.0276016108691692,-0.003415489103645
1783197244794626000,6.1196259765625,-0.0208711577888578,-0.0513087469547986,0.0185451259940862,0.0353303775191307,0.0260215550661087,-0.0072168852202594
1783197244804563000,6.12956298828125,-0.0542833057861775,-0.0663536097429692,0.0856681126743555,0.0211709551513195,0.022399554029107,-0.0163957383483648
1783197244814500000,6.1395,-0.061507777146995,-0.042936055406928,0.0970288801223039,0.0019815480336546,0.0227891746908426,-0.0223668105900287
1783197244824437200,6.149437255859375,-0.0683510671705007,-0.0267994518592953,0.1561591144829988,-0.0210882388055324,0.026569940149784,-0.0342821106314659
1783197244834374000,6.159373779296875,-0.0893316036179661,-0.0292903918921947,0.1669523111760616,-0.0424380004405975,0.0330928191542625,-0.0393301323056221
1783197244844311000,6.16931103515625,-0.0758957834616303,-0.0479423392616212,0.1488946764379739,-0.0569442361593246,0.0295941866934299,-0.0377610325813293
1783197244854248000,6.179248046875,-0.0647189942784607,-0.0236291512601077,0.1212105506986379,-0.0631121173501014,0.0277131982147693,-0.0400846377015113
1783197244864186000,6.18918603515625,-0.0432468749217689,0.023233137679845,0.0854044933021068,-0.059077713638544,0.020495843142271,-0.034139446914196
1783197244874123000,6.199123046875,-0.0232087338909506,0.0454157433934509,0.0425391650438308,-0.0532397963106632,0.0208942517638206,-0.030445110052824
1783197244884060200,6.20906005859375,-0.0004553425520658,0.0565657907001674,-0.0114636433005332,-0.0461440235376358,0.0220474936068058,-0.0270139593631029
1783197244893997000,6.2189970703125,0.014515797412768,0.0541815259121358,-0.0265448925763368,-0.0377436131238937,0.0211880914866924,-0.023306306451559
1783197244903934000,6.228933837890625,0.0283389363862574,0.0702886111043393,-0.0562900424987077,-0.0314320176839828,0.0233460180461406,-0.0151856476441025
1783197244913871000,6.23887109375,0.0510951772693544,0.0735851684316992,-0.0535486348360776,-0.0254526864737272,0.0189280994236469,-0.0105168595910072
1783197244923808000,6.24880810546875,0.0764565591495484,0.0633992899820208,-0.0647112493634223,-0.0204950496554374,0.0189634505659341,-0.0028795970138162
1783197244933745200,6.2587451171875,0.0983970997355878,0.0627697599068284,-0.0653524698764085,-0.0225049369037151,0.0112802311778068,0.0072473394684493
1783197244943682000,6.26868212890625,0.1054798976033925,0.0592429009549319,-0.0458726933807134,-0.0219869557768106,0.0089732492342591,0.0171926319599151
1783197244953619000,6.278618896484375,0.0969575684517621,0.0475436953328549,-0.0550800821870565,-0.0217691082507371,0.0080738998949527,0.022537862882018
1783197244963556000,6.28855615234375,0.0860404531180858,0.0125274731397628,-0.0561912582993507,-0.0226149745285511,0.0049870894290506,0.0226628482341766
1783197244973493000,6.298492919921875,0.0608043781179934,-0.0010632453173398,-0.0569745176315307,-0.0225414708256721,0.0124207707121968,0.0172353256493806
1783197244983430100,6.30843017578125,0.0467409275826066,-0.0155607033558189,-0.0220475811570882,-0.0247370898723602,0.0114258602261543,0.018467403948307
1783197244993367000,6.318366943359375,0.0575445726044476,-0.027770781109482,-0.0075093527168035,-0.0235256180167198,-0.0028127301484346,0.0283634439110755
1783197245003304000,6.328303955078125,0.0599791062749922,-0.0135293436586856,-0.0409317298471927,-0.0182957351207733,-0.0012166537344455,0.0366955921053886
1783197245013241000,6.338240966796875,0.0524109360430389,-0.0091894147582352,-0.0344546427875757,-0.0050435783341526,-0.0089760404080152,0.0301884282380342
1783197245023178000,6.348177978515625,-0.0404652083139866,-0.0368222487017512,-0.0896317556083202,0.0112500395625829,-0.0029872497543692,0.0152815980836749
1783197245033115100,6.358115234375,-0.0805392253533005,-0.0466048070475459,-0.0617108985036611,0.020513579249382,-0.0013936143368482,-0.0018955252598971
1783197245043052000,6.368052001953125,-0.1116680116537958,-0.0364260889910161,-0.0397737919837236,0.0201316885650157,-0.0003136661835014,-0.0131611973047256
1783197245052989000,6.377989013671875,-0.1073863157466053,-0.042275837932527,-0.0074105685174465,0.0064789932221174,-0.0001157936640083,-0.0213285777717828
1783197245062926000,6.387926025390625,-0.0632145079996436,-0.0393864001013338,0.0494663339585065,-0.0119905676692724,0.0002998895943164,-0.0225038640201091
1783197245072863000,6.397863037109375,-0.0529186663694679,-0.0247213304109871,0.1094260048806667,-0.0276470258831977,0.0018394631333649,-0.0230439528822898
1783197245082800000,6.407800048828125,-0.0481751251041889,-0.0001962532244622,0.1115811370879411,-0.046317271888256,0.0138480272144079,-0.024006238207221
1783197245092737000,6.417737060546875,-0.0520540488967671,0.0193923904731869,0.103496614831686,-0.0521756932139396,0.0028643526602536,-0.0271727368235588
1783197245102674000,6.427673828125,-0.0310514832805842,0.0215638892933726,0.0889221460342407,-0.0564801096916198,-0.0117419278249144,-0.0293291639536619
1783197245112611000,6.437611083984375,0.0030026889473199,0.0109125852890312,0.059105684441328,-0.055253729224205,-0.031937476247549,-0.0310679413378238
1783197245122548200,6.44754833984375,0.0051811289649456,0.0195436355121433,0.0044429508835077,-0.0516803413629531,-0.0426644757390022,-0.0372596941888332
1783197245132485000,6.457485107421875,-0.0064419426809996,0.0374928414396941,-0.0240706114172935,-0.0578112080693244,-0.0504009649157524,-0.0392314977943897
1783197245142423000,6.467423095703125,-0.0075082567382603,0.046693215983361,-0.0946773485600948,-0.0658469945192337,-0.0401102192699909,-0.0418172888457775
1783197245152360000,6.47735986328125,0.0214492499377578,0.0358585182361304,-0.1789256575644016,-0.0637292489409446,-0.0223080553114414,-0.0416865274310112
1783197245162297000,6.487297119140625,0.0523262534342706,0.0446935665987432,-0.2467927406102418,-0.0514444410800933,0.0111808953806757,-0.0370673947036266
1783197245172233500,6.4972333984375,0.0654318187229335,0.0774278153344988,-0.3174666977703571,-0.0408099070191383,0.0422799587249755,-0.0302968416363
1783197245182170600,6.507170654296875,0.0654477469444274,0.1052548566758632,-0.3015221096634864,-0.0262259058654308,0.0386490039527416,-0.0262533631175756
1783197245192107800,6.517107666015625,0.0967646762281656,0.1091369588062167,-0.2948901243031024,-0.0211448594927787,0.0301695019006729,-0.0226264037191867
1783197245202044700,6.527044677734375,0.1493523570775985,0.0719299485705792,-0.2634709036886692,-0.0238713547587394,0.023248303681612,-0.0122963339090347
1783197245211981600,6.536981689453125,0.1674073249345645,0.051292234211415,-0.2337801143020391,-0.0265214666724205,0.0265471599996089,-0.0068206088617444
1783197245221918500,6.54691845703125,0.1220871874026954,0.0745765175566077,-0.2408943302214145,-0.0263416934758424,0.0499522760510444,0.0004629187751561
1783197245231855600,6.556855712890625,0.0897340834716334,0.0675176850862801,-0.236409878283739,-0.0215650480240583,0.0675895884633064,0.0069628953933715
1783197245241792800,6.566792724609375,0.0775237134570255,0.0424940107278525,-0.2458399699300527,-0.0116522926837205,0.0864318162202835,0.013061536476016
1783197245251729700,6.576729736328125,0.0648072936164215,0.0002775017671287,-0.2249491575926542,0.0048736864700913,0.0979553163051605,0.01517129316926
1783197245261666600,6.58666650390625,0.0273120044913142,-0.0157914433717727,-0.2121615722119808,0.0297710001468658,0.0958743840456008,0.0149034615606069
1783197245271603700,6.596603759765625,-0.0055369931979104,-0.0410644163161516,-0.1443295604795217,0.0448050759732723,0.0769246667623519,0.0079901609569787
1783197245281540600,6.60654052734375,-0.0411391985854133,-0.0616948241516947,-0.0680740037947893,0.0555327534675598,0.0605396628379821,0.0046590808779001
1783197245291477800,6.616477783203125,-0.0547638193121179,-0.099482995276153,0.0346826063245534,0.0487976185977458,0.040174476802349,-0.0048049944452941
1783197245301414700,6.62641455078125,-0.0801232649635523,-0.1089011042237281,0.1091553712457418,0.0356074683368206,0.0404558777809143,-0.0068145496770739
1783197245311351600,6.6363515625,-0.1083176052473485,-0.1193082242086529,0.1463455764770507,0.0212200060486793,0.0421595014631748,-0.0118109062314033
1783197245321288700,6.646288818359375,-0.1397134449861943,-0.1063524426542222,0.2158031435847282,0.0012514619156718,0.0401787124574184,-0.0180564019829034
1783197245331225600,6.6562255859375,-0.1701873110419139,-0.1081017705395817,0.2349070725053548,-0.009804118424654,0.0321530103683471,-0.0216719098389148
1783197245341162800,6.666162841796875,-0.1732600330181419,-0.1160378242358565,0.2346709256619215,-0.0139363203197717,0.0344462022185325,-0.0316517390310764
1783197245351099600,6.676099609375,-0.203746904685907,-0.1015704690746963,0.2370376547932624,-0.0143730789422988,0.0282570160925388,-0.0427051894366741
1783197245361036500,6.68603662109375,-0.2356217966459691,-0.0757704035162925,0.2717430574715137,-0.014926535077393,0.0175781808793544,-0.0558843091130256
1783197245370973700,6.6959736328125,-0.2123349560175091,-0.0679388331077992,0.3211211286246776,-0.0274513810873031,0.0061955628916621,-0.060790117830038
1783197245380910600,6.70591064453125,-0.1610781584456563,-0.0844072989583015,0.3597136018693447,-0.0238807778805494,-0.0261115934699773,-0.0673698559403419
1783197245390847700,6.71584765625,-0.128859421483986,-0.1187979365989565,0.3039882075160741,-0.0251236762851476,0.0040553649887442,-0.0768557712435722
1783197245400785700,6.72578564453125,-0.1605725470110774,-0.1346186060652136,0.3048848640948534,-0.0492344833910465,-0.0411692783236503,-0.0913026034832
1783197245410722800,6.735722900390625,-0.1109422181298956,-0.1479587107621133,0.3458376367300748,-0.0707067474722862,-0.0815436020493507,-0.0872649848461151
1783197245420659500,6.745659423828125,-0.0598474061867222,-0.2162850818827748,0.234315536352992,-0.0739152356982231,-0.0975940525531768,-0.0930646955966949
1783197245430596600,6.7555966796875,-0.0517992704181,-0.1826069764256477,0.1774094077825546,-0.0763387084007263,-0.1047848537564277,-0.1056726351380348
1783197245440533800,6.76553369140625,-0.1031660677030682,-0.1566005746401846,-0.0178542211204767,-0.0753566771745681,-0.0807564705610275,-0.1183309555053711
1783197245450470700,6.775470703125,-0.1034743299346417,-0.1711971091389656,-0.0956798036009073,-0.0797722041606903,-0.0701861083507537,-0.1338497251272201
1783197245460407800,6.78540771484375,-0.1002878453856334,-0.1248980070397257,-0.181403445854783,-0.0787615627050399,-0.0624722056090831,-0.1365378499031067
1783197245470344400,6.795344482421875,-0.0606273410506546,-0.1213378303401172,-0.26052257527709,-0.0733175277709961,-0.0584782622754573,-0.1331433802843094
1783197245480281600,6.805281494140625,-0.0118283849596977,-0.0980108768969774,-0.3073258275061845,-0.0674645230174064,-0.0561443045735359,-0.1290944218635559
1783197245490218800,6.81521875,-0.0146926883496344,-0.0564455253213644,-0.3743295717209577,-0.0473257042467594,-0.0561858490109443,-0.1304827332496643
1783197245500155600,6.82515576171875,-0.0298580357123166,-0.0273018484234809,-0.4123346004664898,-0.0237376056611537,-0.0427309684455394,-0.131405159831047
1783197245510092800,6.8350927734375,-0.040770657533966,-0.0016183949820697,-0.4637742803245782,0.0145187061280012,-0.0202690679579973,-0.127150222659111
1783197245520029400,6.845029541015625,-0.0528074976125732,0.0436009490564465,-0.5064350259214639,0.0492919087409973,0.0107440315186977,-0.1205147951841354
1783197245529966600,6.854966552734375,-0.0654075975971296,0.0713297907203435,-0.4915443307816982,0.0799267813563346,0.0244103092700243,-0.1112235635519027
1783197245539903700,6.86490380859375,-0.0542686927389353,0.0731505764067173,-0.3844780407696962,0.1018869578838348,0.015999587252736,-0.1021535694599151
1783197245549840600,6.874840576171875,-0.0307381430150941,0.0506853543594479,-0.2530529700487852,0.109835959970951,-0.0033730454742908,-0.0998624563217163
1783197245559777800,6.88477783203125,-0.042239451444894,0.0073819269448518,-0.0835638338714837,0.1069396063685417,-0.0186134837567806,-0.1062744259834289
1783197245569714400,6.89471435546875,-0.0919886209327727,-0.0216112355664372,0.0987292542994022,0.0933886393904686,-0.0298456363379955,-0.1243956387042999
1783197245579651600,6.904651611328125,-0.1548540597664192,-0.0225819802947342,0.2677642169684172,0.066761128604412,-0.0361166596412658,-0.1431295126676559
1783197245589588700,6.914588623046875,-0.1843845074921846,-0.0222144621565937,0.4016021940499544,0.0348870828747749,-0.0513624586164951,-0.1640366613864898
1783197245599525600,6.924525634765625,-0.160711407492496,-0.0451040470957756,0.4744055644541978,0.0019072806462645,-0.0578587427735328,-0.178882211446762
1783197245609462800,6.934462890625,-0.1219445640616118,-0.0453670819461345,0.4851017305135726,-0.0286439694464206,-0.0636612400412559,-0.1871385425329208
1783197245619399400,6.9443994140625,-0.0695380849979817,-0.0263080150805413,0.4379951114237308,-0.049259528517723,-0.0671088397502899,-0.1856422275304794
1783197245629336600,6.954336669921875,-0.0222680189747363,-0.0144639941602945,0.3836263923764229,-0.0622094199061393,-0.0829413309693336,-0.1772716492414474
1783197245639273700,6.964273681640625,0.0360474649369716,-0.0163072839394211,0.3141413527399301,-0.0664611309766769,-0.1118009611964225,-0.1756534129381179
1783197245649210600,6.974210693359375,0.080018854741007,-0.0064976914562284,0.2374234392404556,-0.065256580710411,-0.1410528421401977,-0.1735356748104095
1783197245659148800,6.984148681640625,0.0935375674078241,-0.0113961310222744,0.1254389820486307,-0.0582021065056324,-0.148118257522583,-0.1720117330551147
1783197245669085400,6.99408544921875,0.1059969072148203,-0.0130392220541834,0.0350625455528497,-0.0474847480654716,-0.1434129923582077,-0.1641466170549392
1783197245679022600,7.004022705078125,0.0671224021583795,-0.0111642219625413,-0.0763864895880222,-0.0321575105190277,-0.1261660754680633,-0.1603680849075317
1783197245688959500,7.01395947265625,0.0177662505760788,-0.0247815361656248,-0.1572276204973459,-0.0214105900377035,-0.1198852732777595,-0.1658525913953781
1783197245698896600,7.023896728515625,-0.0234074713334441,-0.0564886338107287,-0.2079921775728464,-0.0119260717183351,-0.1225439086556434,-0.1702233403921127
1783197245708833800,7.033833740234375,-0.0612995412237942,-0.0696055972762405,-0.2537742700606584,-0.0053515248000621,-0.1200743690133094,-0.1794115155935287
1783197245718770400,7.0437705078125,-0.0962128144990652,-0.0762647629044949,-0.2814782695442438,0.0004468290135264,-0.1113331913948059,-0.1907715499401092
1783197245728707600,7.05370751953125,-0.1183054038416594,-0.0530145279593765,-0.2924082443594932,0.0038745831698179,-0.0931296944618225,-0.1936959624290466
1783197245738644500,7.06364453125,-0.1409437904987484,-0.0251505156084895,-0.3211211286246776,0.0144458934664726,-0.0683113783597946,-0.1970450729131698
1783197245748581600,7.07358154296875,-0.1302766313381493,-0.0068875675566494,-0.321338570767641,0.0194718111306428,-0.0456438884139061,-0.1986059546470642
1783197245758518800,7.083518798828125,-0.1338646458927541,0.0333519422426819,-0.2722229499429464,0.0199860408902168,-0.0285056009888649,-0.1975058615207672
1783197245768455400,7.093455322265625,-0.1291494539391249,0.0481545207075774,-0.2079793180912733,0.0197626017034053,-0.0296148099005222,-0.1929100453853607
1783197245778392600,7.103392578125,-0.1042722753793001,0.031856150726974,-0.1425327401906251,0.020587783306837,-0.0296371150761842,-0.1868628114461898
1783197245788329700,7.113329833984375,-0.0842714706841856,0.0005522270552814,-0.0591378331452608,0.0138393342494964,-0.0358867570757865,-0.1862247288227081
1783197245798266600,7.1232666015625,-0.083727865326777,-0.0115403617985546,0.0163642748236656,0.0094694839790463,-0.0359451435506343,-0.1889664381742477
1783197245808203800,7.133203857421875,-0.0992309202112257,-0.0312970555394887,0.0760375300198793,-0.0036170231178402,-0.0392786227166652,-0.1952072829008102
1783197245818140400,7.143140380859375,-0.1111485178243368,-0.0604230506502091,0.1578939754515886,-0.0241509322077035,-0.0419933050870895,-0.2121226787567138
1783197245828077600,7.15307763671875,-0.1169162875708192,-0.0667002312235534,0.210622526076436,-0.0521370321512222,-0.0373287796974182,-0.2272632867097854
1783197245838014700,7.1630146484375,-0.1026473775912076,-0.0644216187670826,0.2527472651004791,-0.0776831358671188,-0.0333940759301185,-0.2348055988550186
1783197245847951600,7.17295166015625,-0.0574674887802451,-0.0628054157420992,0.2770662983208894,-0.0994004160165786,-0.0415707789361476,-0.2398637533187866
1783197245857888800,7.182888671875,-0.0141924837425351,-0.0675808134503662,0.2782347575783729,-0.1120833083987236,-0.0559338815510273,-0.2373946756124496
1783197245867825400,7.192825439453125,0.0262758663766086,-0.09202858761698,0.2372247017979621,-0.1188389435410499,-0.0651385635137558,-0.2360231578350067
1783197245877762600,7.202762451171875,0.0521587879128754,-0.1189461128979921,0.1925292355030775,-0.1186251267790794,-0.0774978175759315,-0.243306279182434
1783197245887699700,7.21269970703125,0.0407612686511129,-0.1242803135327994,0.1310568219304084,-0.1159830018877983,-0.0733376964926719,-0.2513729929924011
1783197245897636600,7.22263671875,0.0493689379986375,-0.1172263033680617,0.0803431182593107,-0.1105764210224151,-0.0608171895146369,-0.2514892220497131
1783197245907573800,7.23257373046875,0.0766778006847947,-0.1321302963808178,0.0510696775019168,-0.1014758720993995,-0.0450422205030918,-0.2555039525032043
1783197245917510400,7.242510498046875,0.1071752302791923,-0.1404645556144416,0.0595575198620557,-0.0987382605671882,-0.0423932820558548,-0.2623244822025299
1783197245927448600,7.252448486328125,0.1029302131205797,-0.1039620403863489,0.0959480991482734,-0.1027596369385719,-0.0477696694433689,-0.2732682228088379
1783197245937385500,7.262385498046875,0.098819635996595,-0.0598037497080862,0.141843004360795,-0.1177240312099456,-0.0521226413547992,-0.2788132727146148
1783197245947322600,7.272322509765625,0.1139116258621215,-0.0305580737404525,0.2000403417855501,-0.1374545842409134,-0.0570116676390171,-0.2803515195846557
1783197245957259800,7.282259765625,0.12243746214509,0.0258764917954802,0.232056943771243,-0.1597673892974853,-0.0579742267727851,-0.2800236344337463
1783197245967196700,7.29219677734375,0.131491633151099,0.0980243209004402,0.2171393606245517,-0.1766102910041809,-0.0569086968898773,-0.2720511853694916
1783197245977133600,7.302133544921875,0.1531366248566657,0.1481472190715372,0.2158884837806224,-0.1883277297019958,-0.0577872917056083,-0.2657165825366974
1783197245987070500,7.312070556640625,0.1749916060511022,0.1932100573740899,0.1934820061832666,-0.2093603163957595,-0.0667996928095817,-0.2662881016731262
1783197245997007600,7.322007568359375,0.1738145981609821,0.2488425127469003,0.1551975759744644,-0.2361907213926315,-0.0809859186410904,-0.2685431838035583
1783197246006944800,7.33194482421875,0.1895722853936255,0.277663971953094,0.0855991390913724,-0.2588211894035339,-0.0692368522286415,-0.2645042240619659
1783197246016881700,7.341881591796875,0.2424302345518022,0.2554880882412195,-0.0527595302850008,-0.2663352787494659,-0.0397364161908626,-0.2488112300634384
1783197246026818600,7.351818603515625,0.3236806769143789,0.245906605425477,-0.2166010159641504,-0.2539553046226501,-0.0027299290522933,-0.2222073078155517
1783197246036755500,7.36175537109375,0.3812450501978397,0.2830105936780572,-0.3601280278891324,-0.2171608358621597,0.0321137309074401,-0.1859103590250015
1783197246046692600,7.371692626953125,0.454093428787589,0.2856739676684141,-0.4251256929785013,-0.1656446456909179,0.048402689397335,-0.1454894244670868
1783197246056629800,7.381629638671875,0.5059590059075504,0.2151224678441882,-0.4273801939070225,-0.1178692653775215,0.0367471128702163,-0.112079732120037
1783197246066566700,7.391566650390625,0.5346610034525394,0.1486851253405213,-0.352025385454297,-0.0724639669060707,0.010197527706623,-0.0960038304328918
1783197246076503600,7.401503662109375,0.5115807182468474,0.0835787391796708,-0.2452566170841455,-0.0344700887799263,-0.0213902443647384,-0.089302472770214
1783197246086440400,7.4114404296875,0.4341245536006987,0.0459887209758162,-0.1097509990513324,-0.0054765213280916,-0.0499401316046714,-0.0919323489069938
1783197246096377600,7.421377685546875,0.3387240053325891,0.0586575022824108,-0.0332014278560876,0.0379001833498477,-0.0538746193051338,-0.1096106991171836
1783197246106314800,7.431314697265625,0.2112965528804808,0.1022150505885481,-0.0697971743255853,0.0509265027940273,0.0140985725447535,-0.1240066811442375
1783197246116251600,7.441251708984375,0.1630834338534623,0.167208916285634,0.2279845797657966,0.064777173101902,0.0223728157579898,-0.1088904291391372
1783197246126188500,7.4511884765625,0.1761648876141756,0.1644862133234739,0.2400473580032587,0.0607110597193241,-0.0375224761664867,-0.087577149271965
1783197246136125400,7.46112548828125,0.257130667816475,0.2125764366231858,0.2011269679784774,0.0394562073051929,-0.1491589099168777,-0.0688605830073356
1783197246146062600,7.4710625,0.3150513802569359,0.2012764594517648,0.0594593201845884,0.0244887098670005,-0.162079781293869,-0.0354219265282154
1783197246155999700,7.480999755859375,0.3112326256863773,0.0911466902159154,0.2285720242649316,0.011938720010221,-0.1907782256603241,-0.0191757436841726
1783197246165938000,7.49093798828125,0.1906546738028526,0.154108173302561,0.1386678814560175,0.0144279766827821,-0.1852090209722519,-0.0087859537452459
1783197246175875800,7.500875732421875,0.0819778798542916,0.2622051215365529,-0.0213017312258481,0.0346188955008983,-0.172717809677124,0.0012593397404998
1783197246185813000,7.51081298828125,0.0419043742716312,0.2656220903731882,-0.079874331703782,0.0771839320659637,-0.1848974972963333,-0.012554476968944
1783197246195750000,7.52075,0.0194047384981066,0.2707924787484109,-0.1863292118191719,0.1284935772418975,-0.2268502861261367,0.0147037077695131
1783197246205686800,7.530686767578125,-0.0336214068338274,0.260550632327795,-0.2733569224089384,0.1870564818382263,-0.2772426009178161,0.0642185285687446
1783197246215624000,7.5406240234375,0.0063936465598642,0.3365424235098064,-0.2681201907992362,0.2525935173034668,-0.3433802723884582,0.1077179834246635
1783197246225560800,7.550560791015625,0.0731540835380554,0.3415815867207944,-0.3091664869368076,0.323896199464798,-0.3902519047260284,0.1393302381038665
1783197246235498000,7.560498046875,0.0983966613441705,0.3537657993808388,-0.3926981721043586,0.3824134171009063,-0.3997408151626587,0.1641068309545517
1783197246245435000,7.570434814453125,0.0335632469058036,0.3391562592700123,-0.3925988033831119,0.4155434072017669,-0.3794871866703033,0.1840938478708267
1783197246255371800,7.580371826171875,-0.0486018991488963,0.3399485786914825,-0.3379413305222988,0.4193356931209564,-0.3553514182567596,0.194959282875061
1783197246265309000,7.590308837890625,-0.071370488056913,0.3392275709405541,-0.2380319265276193,0.3879229128360748,-0.3279685080051422,0.2003708332777023
1783197246275245800,7.600245849609375,-0.0186278358414769,0.2773695190511643,-0.106676413911581,0.3378961086273193,-0.3082841038703918,0.1984633207321167
1783197246285183000,7.610182861328125,-0.0393995518438518,0.1602098511785268,-0.0256815537452697,0.2760519087314605,-0.2780233919620514,0.1857970505952835
1783197246295120100,7.6201201171875,-0.0441981842972338,0.1056733743488788,0.0833586666882038,0.2149959504604339,-0.2473665326833725,0.1613173186779022
1783197246305056800,7.630056884765625,-0.0502799884289503,0.0583132188893854,0.1219347733199596,0.1557006686925888,-0.2151068747043609,0.1401049792766571
1783197246314994000,7.639993896484375,-0.062463251240924,-0.0066653031080961,0.0718172819763422,0.1088594198226928,-0.1766964644193649,0.1195251792669296
1783197246324930800,7.649930908203125,-0.1200847615391016,-0.0723044809713959,0.0597206014692783,0.0608641989529132,-0.1091134175658226,0.096303217113018
1783197246334868000,7.659867919921875,-0.176571203392744,-0.1359878485918045,0.0566050997972488,0.0058860438875854,-0.0864672139286995,0.0673105120658874
1783197246344805000,7.66980517578125,-0.1718169946029782,-0.2004571058928966,0.0678770199179649,-0.0469036661088466,-0.0784090235829353,0.0391526445746421
1783197246354741800,7.67974169921875,-0.2108464710254222,-0.2613077343054115,0.0340384632021188,-0.0904261022806167,-0.061300192028284,0.0052048126235604
1783197246364679000,7.689678955078125,-0.2467617609500884,-0.26726474301368,0.0677700524121522,-0.1259057968854904,-0.0440429113805294,-0.0335151515901088
1783197246374615800,7.69961572265625,-0.2992739654105156,-0.2227007941439747,0.0685842914044857,-0.1530084162950515,-0.0327689982950687,-0.0710298717021942
1783197246384553000,7.709552978515625,-0.3167305655155331,-0.1833779607981443,0.0690635993540287,-0.1780354678630828,-0.0288434997200965,-0.0992239564657211
1783197246394490000,7.719489990234375,-0.2880151239670813,-0.1578098042994737,0.0751473031818866,-0.1935541033744812,-0.0315786674618721,-0.1185847893357276
1783197246404426800,7.7294267578125,-0.2233706562295556,-0.1139573646999895,0.0145370593965053,-0.2012865841388702,-0.0328444689512252,-0.1241156458854675
1783197246414364000,7.739364013671875,-0.1561794996839016,-0.0547454434052109,-0.0116442605644464,-0.200199156999588,-0.0427096411585807,-0.1165608391165733
1783197246424301800,7.7493017578125,-0.0667515230193734,0.0114595516473054,-0.049724692633748,-0.1905750334262848,-0.0550765618681907,-0.1001392528414726
1783197246434239000,7.759239013671875,0.0153046097029,0.0582503827862441,-0.1207148761361837,-0.1788330525159835,-0.0670846849679946,-0.0850360542535781
1783197246444176000,7.76917578125,0.0401467900145798,0.0829803348951041,-0.1641647262841463,-0.1666038036346435,-0.0752012059092521,-0.0615738667547702
1783197246454113000,7.779113037109375,0.0331557620834559,0.1072889928519725,-0.2002332340091466,-0.152712270617485,-0.0728146582841873,-0.0479883290827274
1783197246464050000,7.7890498046875,0.0260484873615205,0.0738918962933123,-0.2424006431311368,-0.1406295001506805,-0.0612102001905441,-0.0435349941253662
1783197246473986800,7.79898681640625,0.0213858293127268,0.0245199626199901,-0.2762953139483928,-0.1314896494150161,-0.0472508035600185,-0.0429951921105384
1783197246483924000,7.808924072265625,0.0041352731738239,0.0115671036750078,-0.2865454898059368,-0.1304712444543838,-0.0303296111524105,-0.0524563379585742
1783197246493860900,7.81886083984375,0.0065299862906336,-0.0046919572085142,-0.2656950094789266,-0.1301938146352768,-0.0225520953536033,-0.0554326362907886
1783197246503798000,7.828798095703125,0.0386795670062303,-0.0297097863480448,-0.2546241648882627,-0.139723390340805,-0.020528357475996,-0.0562153384089469
1783197246513735000,7.83873486328125,0.0782820210110396,-0.0273944951429963,-0.213175717690587,-0.1459101289510727,-0.0222907438874244,-0.0603435710072517
1783197246523671800,7.848671875,0.0856570067584514,-0.0132175012305378,-0.2122971812903881,-0.1485027223825454,-0.0114852348342537,-0.0647905170917511
