time,seconds_elapsed,ax,ay,az,gx,gy,gz
1783205235030516200,0.09951611328125,-0.2418937895875424,0.1797974719628691,-0.2153454629451036,-0.0499623976647853,0.0133178848773241,-0.0105096576735377
1783205235040452900,0.109452880859375,-0.1867570818424224,0.153055303248763,-0.1701502304345369,-0.0469731204211711,-0.0032775355502963,-0.0214164555072784
1783205235050391000,0.11939111328125,-0.1243679918162524,0.102431615948677,-0.1134925236672163,-0.0472567491233348,-0.0076134279370307,-0.0286799613386392
1783205235060328000,0.129327880859375,-0.0823142722018063,0.0678840341806411,-0.0609843377947807,-0.0421619229018688,0.0017761751078069,-0.0294333156198263
1783205235070265000,0.13926513671875,-0.0385153163552284,0.0311263751477003,-0.0639274055093526,-0.0337319560348987,0.0001899963244795,-0.0227618291974067
1783205235080202000,0.149201904296875,-0.0085926179088652,0.0265159587427973,-0.0850485194712877,-0.0194283705204725,0.0049404110759496,-0.0261359680444002
1783205235090139100,0.15913916015625,-0.0187569421138614,0.0132587100237607,-0.0836368991076946,-0.0101938601583242,0.0072179464623332,-0.0234046317636966
1783205235100076000,0.169075927734375,-0.0178485950972884,-0.0122384270653128,-0.0953559784740209,-0.0007697809487581,0.0083004347980022,-0.0228119287639856
1783205235110013000,0.179012939453125,-0.0280628228586167,-0.0216398771390318,-0.119940384632349,0.0066668302752077,0.0018776897341012,-0.0231653302907943
1783205235119950000,0.1889501953125,-0.0165375855639576,-0.0195443661645054,-0.1389513745725154,0.009454820305109,-0.0009234524331986,-0.0237358305603265
1783205235129887200,0.19888720703125,0.0004600917924195,-0.0221083714336156,-0.1423211432665586,0.0146386632695794,-5.28651289641e-05,-0.0235432833433151
1783205235139824000,0.20882421875,-0.0024367986928671,-0.021106208653748,-0.1636141066640615,0.0203580930829048,-0.0045794644393026,-0.027160819619894
1783205235149761000,0.218760986328125,0.0095712536826729,-0.0383250544801354,-0.186371881917119,0.0333471298217773,-0.0062633813358843,-0.0263027492910623
1783205235159698000,0.228697998046875,0.0230352770201861,-0.0505243185788393,-0.1983832222282886,0.0459708124399185,-0.0076608723029494,-0.0261862576007843
1783205235169635000,0.238635009765625,-0.0064079673461616,-0.0485708464235067,-0.2281967612117529,0.0683661326766014,-0.0063886810094118,-0.0251130033284425
1783205235179572200,0.248572265625,-0.050638592608273,-0.038875966361165,-0.3577414250135421,0.0991475060582161,-0.0176939293742179,-0.0340033248066902
1783205235189509000,0.258509033203125,-0.0614905337512493,-0.0160404496967792,-0.4799228665709495,0.1335251927375793,-0.0316717959940433,-0.0403040945529937
1783205235199446000,0.268446044921875,-0.0537548249326646,0.0002577741533517,-0.4878711952269077,0.1604592949151992,-0.041048340499401,-0.0419793426990509
1783205235209383000,0.2783828125,-0.0326222397286444,0.024466917258501,-0.4316606477051973,0.1765900552272796,-0.0527465417981147,-0.0416296683251857
1783205235219320000,0.288320068359375,-0.0151109868269413,0.0254378081172704,-0.3496341064035892,0.1857394427061081,-0.0802696123719215,-0.0350421033799648
1783205235229257200,0.29825732421875,-0.0471366489019244,-0.081204119002819,-0.3494897294968366,0.1864869892597198,-0.1159588992595672,-0.0223537422716617
1783205235239194000,0.308194091796875,-0.0097624654058367,-0.0671267860725522,-0.267408243137598,0.1805967092514038,-0.1389485001564026,-0.0243891272693872
1783205235249131000,0.318131103515625,0.0076399933591485,0.0073781275525689,-0.13105389932096,0.1810995191335678,-0.1390507668256759,-0.0271351132541894
1783205235259068000,0.32806787109375,0.0533330923892557,0.0116214642107486,-0.0207259771645069,0.1866403520107269,-0.1263821423053741,-0.0295783765614032
1783205235269005000,0.338005126953125,0.1013750195678323,0.0001280102938413,0.0852086784690618,0.1840080767869949,-0.1056462377309799,-0.0301046185195446
1783205235278943000,0.34794287109375,0.1228890053048729,-0.0128109662562608,0.2320505140304565,0.1746037602424621,-0.0822167694568634,-0.0235813036561012
1783205235288880000,0.357880126953125,0.1408374075148254,-0.0292825008466839,0.3405506362378597,0.1490813493728637,-0.062221486121416,-0.0114434147253632
1783205235298817300,0.3678173828125,0.1592507968880236,-0.0431824313834309,0.385852836254239,0.1161543726921081,-0.0563731379806995,0.0068715382367372
1783205235308754000,0.37775390625,0.1721194116156548,-0.0298737447381019,0.4103776211798191,0.0778242945671081,-0.0544383525848388,0.0219213273376226
1783205235318691000,0.387691162109375,0.1552883229978382,-0.000856032307446,0.4494979176908731,0.0362147465348243,-0.0398666933178901,0.0317469388246536
1783205235328628000,0.3976279296875,0.1181606616087257,0.0217509362980723,0.4948574008524417,0.0013017682358622,-0.016833808273077,0.0331299193203449
1783205235338565000,0.407565185546875,0.0810586461175233,0.0390484003186225,0.4838695583701133,-0.0276424493640661,0.0020058811642229,0.0340539999306201
1783205235348502300,0.417502197265625,0.0470360380716621,0.0522843139886856,0.4366922121316194,-0.052801065146923,0.0219614785164594,0.0318036302924156
1783205235358439000,0.42743896484375,0.0334205504994839,0.0585188244640827,0.3383136709660291,-0.0742415115237236,0.0289532989263534,0.0337010510265827
1783205235368376000,0.4373759765625,0.0318552008789032,0.0349824660539627,0.2122200244009494,-0.0920101255178451,0.0272800363600254,0.0399514883756637
1783205235378313000,0.44731298828125,0.02048931886442,0.0185243754670023,0.11428747343719,-0.1068174317479133,0.0176373049616813,0.0472712703049182
1783205235388250000,0.45725,0.0671688716486096,-0.0117073889285325,0.0202490073025226,-0.1219612210988998,0.0020386381074786,0.0719614326953888
1783205235398187300,0.467187255859375,0.1459955939956009,-0.0475225064143538,-0.0918155293881893,-0.1344049125909805,-0.0296355821192264,0.0923117026686668
1783205235408124000,0.4771240234375,0.1067908340714871,-0.0569309707507491,-0.0946808556914329,-0.1516281068325042,-0.0476675778627395,0.1036591604351997
1783205235418061000,0.48706103515625,0.0331328195992857,-0.0681347940713167,0.0057218847781419,-0.1651191711425781,-0.0448705032467842,0.0941677093505859
1783205235427998000,0.496998046875,0.0124929132830351,-0.1012052890241146,0.038562662628293,-0.1765326857566833,-0.0389521569013595,0.084622673690319
1783205235437936000,0.50693603515625,0.0258501152452081,-0.1267041796788573,0.0169254158377647,-0.1772586703300476,-0.0198516175150871,0.0848580300807952
1783205235447873000,0.516873046875,0.0251834680300205,-0.153406016382575,-0.091075524675846,-0.1595529168844223,-0.0073059978894889,0.0870149284601211
1783205235457810200,0.52681005859375,0.0201066762223839,-0.1522156375542283,-0.3014087124168872,-0.1360107064247131,-0.0480426587164402,0.0967948213219642
1783205235467747000,0.5367470703125,0.197538076641038,-0.1408700676754117,-0.5642664526432752,-0.119107075035572,-0.0920223668217659,0.1422611027956009
1783205235477684000,0.54668408203125,0.2057343887086957,-0.213531983782351,-0.4687830483973026,-0.1075885966420173,-0.0840803235769271,0.1663432866334915
1783205235487621000,0.55662109375,-0.0442232456732541,-0.0943447556048631,-0.3272258752405643,-0.078872799873352,-0.066136211156845,0.1477464288473129
1783205235497558000,0.56655810546875,-0.1649267966978251,-0.0090586279854178,-0.3792459853351116,-0.0278866551816463,-0.0475223064422607,0.1037348583340644
1783205235507495200,0.5764951171875,-0.1973526370715349,0.0626131080403924,-0.4424199421286582,0.0263134650886058,-0.0335186049342155,0.0762512981891632
1783205235517432000,0.58643212890625,-0.1494414966657757,0.0868874253362417,-0.4482832812041044,0.0674971640110015,-0.0249887704849243,0.0556564964354038
1783205235527369000,0.596368896484375,-0.2229441013805568,0.0839940419822931,-0.3348649918168783,0.0960004478693008,-0.018735934048891,0.0310408994555473
1783205235537306000,0.60630615234375,-0.2334288166463375,0.1047477839365601,-0.2450339142441749,0.1010362729430198,-0.0269726999104022,0.0090349931269884
1783205235547243000,0.616242919921875,-0.1657012882016599,0.123107031969726,-0.1588783103138208,0.0967981144785881,-0.0399731881916523,-0.0036685511004179
1783205235557180200,0.62618017578125,-0.1074164916891604,0.1227896365836262,-0.0677197835296392,0.0863459259271621,-0.0420187190175056,-0.0130582880228757
1783205235567118000,0.6361181640625,-0.0770993870977312,0.132018068177998,0.039023265877366,0.0742562413215637,-0.0351091474294662,-0.0127419047057628
1783205235577055000,0.646054931640625,-0.0674536799393594,0.1368164083704352,0.1402104347229003,0.069865733385086,-0.0205365642905235,-0.020259004086256
1783205235586992000,0.6559921875,-0.050149932308495,0.139289812746644,0.1829594431251287,0.0617468208074569,-0.0036838161759078,-0.0231264308094978
1783205235596929000,0.665928955078125,-0.0317586086366325,0.1653174034506082,0.2215782198548316,0.0539916157722473,0.009081557393074,-0.0276156850159168
1783205235606866200,0.6758662109375,-0.0464162256728857,0.1856570116460323,0.2822369789570569,0.0377186350524425,0.0223499592393636,-0.0314873866736888
1783205235616803000,0.685802978515625,-0.0537860237885266,0.1587824487239122,0.3384060254245996,0.0136610073968768,0.0316522344946861,-0.0370655879378318
1783205235626740000,0.695739990234375,-0.06269684080109,0.1431049871206283,0.3763964411228895,-0.0202287808060646,0.0430457703769207,-0.0404448732733726
1783205235636677000,0.705677001953125,-0.0724585755545645,0.1383645145952701,0.379082903727889,-0.0526744909584522,0.0479461848735809,-0.0481280647218227
1783205235646614000,0.715614013671875,-0.0578526156403124,0.1327127724438905,0.336040465337038,-0.082494705915451,0.0532538592815399,-0.0549175292253494
1783205235656551200,0.72555126953125,-0.045787645445764,0.115022217452526,0.2850619732499122,-0.1033185496926307,0.0595288351178169,-0.0599735490977764
1783205235666488000,0.735488037109375,-0.0178760676261037,0.0755044460564851,0.2112964798152446,-0.1197369322180748,0.0679889023303985,-0.0601631663739681
1783205235676425000,0.745425048828125,0.0015710487090051,0.0463616459414362,0.1519043796479701,-0.127733901143074,0.0756735876202583,-0.0612106993794441
1783205235686363000,0.75536279296875,0.0236568429846316,0.0186360191479325,0.0991337434470653,-0.1341475844383239,0.082314446568489,-0.0611166879534721
1783205235696300000,0.765300048828125,0.0415958197791129,-0.0004793079495429,0.0809545281559228,-0.1383356153964996,0.0954450070858001,-0.0614170841872692
1783205235706237200,0.7752373046875,0.0689388039305806,-0.0221381820499897,0.0597667786985635,-0.1428089141845703,0.1016065031290054,-0.0595787055790424
1783205235716174000,0.785174072265625,0.074355860543251,-0.0675973261937499,0.0520417374044656,-0.1485192626714706,0.1139053702354431,-0.0558845289051532
1783205235726111200,0.795111328125,0.0828016903925687,-0.0952104325234889,0.0479915852308273,-0.1566458940505981,0.1198934912681579,-0.052919365465641
1783205235736047900,0.8050478515625,0.0836479319583624,-0.1088318383798003,0.0514016859352588,-0.1644387245178222,0.1254390627145767,-0.0466282591223716
1783205235745985000,0.814985107421875,0.095323099117726,-0.1124216795653104,0.0616916092813015,-0.172916367650032,0.1336626261472702,-0.0418966189026832
1783205235755922200,0.824922119140625,0.1000586762722581,-0.1108434704631566,0.0655225657463073,-0.1796670705080032,0.1499881446361541,-0.038060363382101
1783205235765859000,0.834859130859375,0.093256814237684,-0.092649642124772,0.0837093798220157,-0.1863063275814056,0.1525410413742065,-0.0331510938704013
1783205235775796200,0.844796142578125,0.1450710995618253,-0.1122454462155699,0.0374205068558454,-0.1886893808841705,0.1521798223257064,-0.0192897785454988
1783205235785734100,0.854734130859375,0.1486659091833979,-0.1331757137805223,0.0394850381702184,-0.1994940936565399,0.1555391252040863,-0.0006793434731662
1783205235795671000,0.864671142578125,0.0919776611473411,-0.1124301551327109,0.0719733493208885,-0.2069041430950164,0.1641046851873397,0.0040584043599665
1783205235805608000,0.87460791015625,0.0474868505790829,-0.0752770670413971,0.0112637368142604,-0.2063613981008529,0.1603482961654663,0.0080760493874549
1783205235815545000,0.884545166015625,0.0607905687883496,-0.0539624763339757,-0.0936415757715702,-0.2044392824172973,0.1590703129768371,0.0166099015623331
1783205235825482200,0.894482177734375,0.0278225843619555,-0.0309808291971683,-0.1165647707194089,-0.2058566063642501,0.1561853140592575,0.024424148723483
1783205235835419100,0.904419189453125,-0.0111024818379431,-0.0160597389191389,-0.1502700564444065,-0.205802634358406,0.1447224467992782,0.0216431524604558
1783205235845356000,0.91435595703125,-0.0618130437038838,0.0133344056084752,-0.1995639564454555,-0.2033671736717224,0.132165640592575,0.0187022220343351
1783205235855293000,0.92429296875,-0.0920597134076058,0.0399696068167686,-0.2331049915194511,-0.1945970207452774,0.1236985549330711,0.0168138463050127
1783205235865231000,0.934231201171875,-0.1104153081789612,0.042108080150187,-0.2790203549981117,-0.1830450296401977,0.1124964952468872,0.0078909248113632
1783205235875168000,0.94416796875,-0.1186197304878383,0.0581450227156281,-0.3273796044975519,-0.165821224451065,0.1003615483641624,-0.0067696515470743
1783205235885105200,0.954105224609375,-0.1564990139618516,0.0482578349515795,-0.3374579309195279,-0.1447487026453018,0.0912812352180481,-0.0157564878463745
1783205235895042300,0.964042236328125,-0.1574699778858572,0.0382435136765241,-0.398540468391776,-0.1217350661754608,0.0739043653011322,-0.0272867698222398
1783205235904979000,0.97397900390625,-0.1108387942880392,0.0161012399733066,-0.4426736246287822,-0.0988111048936843,0.0578052885830402,-0.0338024608790874
1783205235914916000,0.983916015625,-0.0802615043904632,0.0098638068884611,-0.4360468999654054,-0.0779860839247703,0.042977038770914,-0.0323789119720459
1783205235924853000,0.99385302734375,-0.0490818646855652,-0.0103720486715435,-0.4195575374573469,-0.056104227900505,0.0283506941050291,-0.0302129611372947
1783205235934790100,1.0037900390625,-0.0008984832096844,-0.030634499977529,-0.400261885356903,-0.039014171808958,0.0140581335872411,-0.0294331889599561
1783205235944727300,1.013727294921875,0.0042229514572769,-0.0492354478120803,-0.3688666301399469,-0.0205978788435459,0.0062119280919432,-0.025071196258068
1783205235954665200,1.023665283203125,0.0151737498648464,-0.0654834027796983,-0.3271019565999508,-0.0069076353684067,0.0020206086337566,-0.0182956904172897
1783205235964602000,1.03360205078125,0.0160361388478428,-0.0772442754611373,-0.2825701564341783,0.0093038259074091,-0.0072029833681881,-0.0176930166780948
1783205235974539000,1.0435390625,0.0308539879471063,-0.0740466484636068,-0.2401379588961601,0.0181049518287181,-0.0105803441256284,-0.0176156964153051
1783205235984476200,1.05347607421875,0.0553210513360798,-0.0693014997631311,-0.190344292679429,0.0263045597821474,-0.0101598314940929,-0.0127746015787124
1783205235994413000,1.0634130859375,0.0585650747586041,-0.0730143828064203,-0.1065203465670347,0.0272588543593883,-0.0117344949394464,-0.0077987355180084
1783205236004350200,1.07335009765625,0.0679305767361074,-0.0653676674455404,-0.0380301631867885,0.0230569206178188,-0.0057082939893007,-0.0011584099847823
1783205236014287000,1.083287109375,0.0792263161238282,-0.0575470568224787,0.0116395843893289,0.0160032715648412,-0.0046912329271435,0.0055708652362227
1783205236024224300,1.093224365234375,0.0905905176378786,-0.0471036964803934,0.0294517199337482,0.010692661628127,-0.0023463191464543,0.0136500969529151
1783205236034162200,1.103162109375,0.0962874871704727,-0.030356559818983,0.0566740733802318,8.16397368907e-05,-0.0009378562681376,0.0211941543966531
1783205236044099300,1.113099365234375,0.0756773914705961,-0.024187223534286,0.0742313573807477,-0.0107446433976292,0.001598538365215,0.0266235414892435
1783205236054036200,1.1230361328125,0.0599406008955091,0.0012052841365337,0.0469891301900148,-0.013397236354649,0.001825091894716,0.0266969725489616
1783205236063973000,1.13297314453125,0.0292453837066888,0.0182975809738039,0.0156271927207708,-0.0147953974083065,0.0079357149079442,0.0276634339243173
1783205236073910300,1.14291015625,-0.0105050274014472,0.0411520945996046,0.0081955814152956,-0.017835933715105,0.0132757415995001,0.0237889066338539
1783205236083847200,1.15284716796875,-0.0434367714706808,0.0632370851576328,-0.0107809217333793,-0.0182652324438095,0.0136563070118427,0.0224163141101598
1783205236093784300,1.162784423828125,-0.065102075311914,0.0789952107816934,-0.0566138676255941,-0.0189698599278926,0.0091445352882146,0.0165209360420703
1783205236103722200,1.17272216796875,-0.0688897771570831,0.085336981023848,-0.0896662423998117,-0.0153801832348108,0.0051199663430452,0.0121426982805132
1783205236113659100,1.1826591796875,-0.0756126556713134,0.0885848769038915,-0.1083475619941949,-0.0148448636755347,0.0038263720925897,0.003088436089456
1783205236123596300,1.19259619140625,-0.076944415731728,0.0841536164581775,-0.0960913070112466,-0.0109976613894104,4.94769774377e-05,-0.0005901884287595
1783205236133533200,1.202533203125,-0.0803456024773418,0.0752311820730567,-0.1011520975321531,-0.0041912458837032,-0.0002098749391734,-0.0056253923103213
1783205236143470300,1.21247021484375,-0.0700364629741758,0.0795791481494903,-0.1176385374307632,0.000802980735898,-0.0016189534217119,-0.0119413454085588
1783205236153407200,1.2224072265625,-0.0640473786272108,0.0693415395125746,-0.1321644909113645,0.0096665881574153,-0.0015068985521793,-0.0181303564459085
1783205236163344100,1.23234423828125,-0.0535696776241064,0.0666650137796998,-0.1160194117963313,0.0139462882652878,-0.0026161046698689,-0.0190512780100107
1783205236173282000,1.242281982421875,-0.030051220196858,0.0457563735246658,-0.0839671539753675,0.0133987423032522,-0.0035490104928612,-0.0226734429597854
1783205236183219200,1.25221923828125,-0.0096100513231009,0.0344227863445878,-0.0665665218412876,0.0197586379945278,-0.0079821087419986,-0.0224896855652332
1783205236193156400,1.26215625,0.0215078482571989,0.0147393039703369,-0.0827303056567907,0.0164085570722818,-0.0069664837792515,-0.0210800394415855
1783205236203093200,1.27209326171875,0.0232672591451555,0.0004682020336389,-0.0680921239733696,0.0179236307740211,0.0005484241992235,-0.0210579354315996
1783205236213030400,1.282030517578125,0.0080788231678307,0.0012982231169939,-0.0621311697423458,0.0247261803597211,0.001179008744657,-0.0212103649973869
1783205236222967000,1.291967041015625,-0.0093012776348739,-0.0025303952604532,-0.107519294476509,0.0324381627142429,-0.000262826681137,-0.0246530324220657
1783205236232904200,1.301904296875,0.0040288171246647,-0.0050172436401247,-0.1685375345408916,0.0418258570134639,-0.0047450363636016,-0.0213583745062351
1783205236242842000,1.311842041015625,0.0114354401193559,-0.0144277538031339,-0.183848500919342,0.0468493774533271,-0.0111012030392885,-0.0223109871149063
1783205236252779300,1.321779296875,0.0096827512331306,-0.0209071789503097,-0.1812421178132295,0.0553653314709663,-0.0138072911649942,-0.0218389239162206
1783205236262716400,1.33171630859375,0.0073369918245822,-0.0219447053045034,-0.1954950995713472,0.0618453323841095,-0.0209027510136365,-0.0239212494343519
1783205236272653300,1.3416533203125,-0.0042051235396414,-0.0191360776245594,-0.2157353390455245,0.0737062692642211,-0.0307483132928609,-0.024325992912054
1783205236282590200,1.351590087890625,-0.0252888281006366,-0.0203293790623545,-0.2385001285612583,0.0875171571969986,-0.0348820686340332,-0.023814134299755
1783205236292527000,1.361527099609375,-0.0238550689704716,-0.0135877958476543,-0.2691933729887008,0.1038474217057228,-0.0404634736478328,-0.0275026597082614
1783205236302465300,1.37146533203125,-0.0258924930822104,-0.0038140053302049,-0.2735428003698587,0.117655910551548,-0.0447024255990982,-0.0262206122279167
1783205236312402200,1.381402099609375,-0.0110934948138892,0.0140983757182955,-0.2685959916174412,0.1368218213319778,-0.0520507022738456,-0.0306619796901941
1783205236322339300,1.39133935546875,-0.0117416565243154,0.0177384857863187,-0.2538788994789123,0.1495533287525177,-0.0637827217578888,-0.0291434451937675
1783205236332276200,1.401276123046875,-0.0050123482692986,-0.0060118076354265,-0.2071276696979999,0.1564764082431793,-0.0706488192081451,-0.0251797698438167
1783205236342213000,1.411213134765625,0.019210458035022,-0.0136851187422871,-0.1623304965943098,0.153917908668518,-0.0790463015437126,-0.0239629708230495
1783205236352150300,1.421150390625,0.0485861170578747,0.0163286189883947,-0.055778585845232,0.1465528458356857,-0.0814160779118537,-0.0257616899907588
1783205236362088200,1.431088134765625,0.0495068120993673,0.0186065007925033,0.0750543642014265,0.1355811506509781,-0.0739083588123321,-0.0272706374526023
1783205236372025300,1.441025390625,0.0568599513411521,-0.0064107438251376,0.17292320227921,0.1232625246047973,-0.0495825633406639,-0.0381830818951129
1783205236381962200,1.450962158203125,-0.001531155090034,0.0093134795293211,0.2661509365528822,0.1225333511829376,-0.0217767655849456,-0.0490027070045471
1783205236391899400,1.4608994140625,0.0832399356793612,-0.0285360663935542,0.2705477102071046,0.1112954691052436,-0.0043583703227341,-0.0456835851073265
1783205236401836000,1.4708359375,0.2044640034466981,-0.0389499083802103,0.3081371438890695,0.0783399119973182,-0.0043687564320862,-0.0192676894366741
1783205236411773200,1.480773193359375,0.2202949020460247,-0.0527791117683053,0.391612130433321,0.0310558471828699,-0.0052506974898278,0.002444282406941
1783205236421711000,1.490711181640625,0.2259315196935087,-0.0815337893486023,0.433375050407648,-0.019941821694374,0.0065481709316372,0.024465162307024
1783205236431648300,1.500648193359375,0.2335266509976238,-0.0700789138764143,0.4139771069765091,-0.0598762035369873,0.0120437201112508,0.0464312843978405
1783205236441585400,1.51058544921875,0.1805326543696224,-0.0576852962493896,0.3503203351020812,-0.0789769291877746,0.0193189438432455,0.0613630972802639
1783205236451522300,1.520522216796875,0.076589172553271,-0.0550482257440686,0.2447001522451639,-0.0868677794933319,0.0323859713971614,0.0594328008592128
1783205236461459200,1.530459228515625,0.0198998285386711,-0.0210945182159543,0.1490694484829902,-0.0863745659589767,0.0434822998940944,0.0574434176087379
1783205236471396000,1.54039599609375,-0.0128841045577079,0.0205523741632699,0.0483399602770805,-0.0837612971663475,0.0462767928838729,0.05176692456007
1783205236481334300,1.550334228515625,-0.042455359217897,0.0515182980522513,-0.050946343383193,-0.0797521770000457,0.0515559762716293,0.0446629449725151
1783205236491271200,1.560271240234375,-0.0475230178710073,0.0704591453656554,-0.1357441029638051,-0.0744914263486862,0.0444647558033466,0.0429243184626102
1783205236501208300,1.570208251953125,-0.0455818206753581,0.1045920088529586,-0.2264443645864725,-0.0665634647011756,0.0341929420828819,0.0410459898412227
1783205236511145500,1.5801455078125,-0.0791141609862446,0.1056648987814784,-0.283784792920947,-0.0551659055054187,0.0180679187178611,0.0357491262257099
1783205236521082000,1.59008203125,-0.1179967032186686,0.1102636247485876,-0.3155401136219501,-0.0344779342412948,0.0095785614103078,0.0251761116087436
1783205236531019300,1.600019287109375,-0.1477523014698177,0.1149567510008812,-0.3351853098124265,-0.0141666671261191,0.003170192008838,0.0163381714373826
1783205236540957200,1.609957275390625,-0.1631813412699848,0.1163058275222778,-0.3229997819781303,0.0037630656734108,-0.0023899553343653,0.0084898369386792
1783205236550894300,1.619894287109375,-0.1618614908430725,0.1149471063897013,-0.2763531816154718,0.0179984644055366,-0.0120298145338892,-0.007360712159425
1783205236560831200,1.629831298828125,-0.1427348386339843,0.1180462414488196,-0.1972527568936347,0.0252758171409368,-0.0096729164943099,-0.0205705221742391
1783205236570768400,1.639768310546875,-0.0957790992569178,0.1163335923120379,-0.1257639762192964,0.0268487744033336,-0.0147412028163671,-0.0264175813645124
1783205236580705300,1.649705322265625,-0.0362165378935635,0.0947922071114182,-0.0860965672194957,0.0323628485202789,-0.015582762658596,-0.0256194323301315
1783205236590642200,1.65964208984375,0.02333813242428,0.0659188715875148,-0.0384030881524085,0.0295649617910385,-0.0158535614609718,-0.021933875977993
1783205236600580000,1.669580078125,0.0256703747641295,0.0324757439300417,0.0507628035098314,0.0196137949824333,-0.0090963235124945,-0.0196590032428503
1783205236610517200,1.679517333984375,0.0170570063281804,1.1690437793e-06,0.1085012912511825,0.0103070875629782,-0.0003019166179001,-0.0147147439420223
1783205236620454400,1.689454345703125,0.0400613036882132,-0.0061550154983997,0.1289291622519493,-0.0008643409237265,0.0066215028055012,-0.0114446487277746
1783205236630391000,1.69939111328125,0.0481074666954576,-0.0069014499515295,0.1208680208712816,-0.0140103632584214,0.00702261691913,-0.0099687483161687
1783205236640328200,1.709328125,0.0495383762814104,-0.0150102298662066,0.1031599302232265,-0.023212119936943,0.0126346964389085,-0.0015206683892756
1783205236650266000,1.71926611328125,0.0380413421679288,-0.0231684018805623,0.0715717827826738,-0.0328420996665954,0.0130483973771333,-0.0017889554146677
1783205236660203300,1.729203369140625,0.0276734582148492,-0.0159004567041993,0.0195177704185247,-0.0346807464957237,0.0156902521848678,-0.0007220930419862
1783205236670140200,1.73914013671875,0.0258163591060787,-0.0179407303601503,-0.0433060577630996,-0.0325475297868251,0.0149114280939102,0.0025407096836715
1783205236680077300,1.749077392578125,0.0269591724656522,-0.0084197455599904,-0.0975824223518371,-0.0268483683466911,0.0077635045163333,0.0051572658121585
1783205236690014200,1.75901416015625,0.0186274705152958,-0.008043605723977,-0.1337795248925685,-0.0205966718494892,0.0115090534090995,0.0052846041508018
1783205236699952000,1.7689521484375,-0.0111440559573471,-0.0091264325246214,-0.1561579454392194,-0.0120971938595175,0.0103865312412381,0.0018581808544695
1783205236709889300,1.77888916015625,-0.0154860306844115,-0.0106195936918258,-0.1781353839695453,-0.0003611585125327,0.0034937772434204,0.0019910773262381
1783205236719826200,1.788826171875,-0.0163406747523695,-0.0062269116908311,-0.1822077479749917,0.0052434643730521,0.0011371462605893,-0.0029594730585813
1783205236729763300,1.798763427734375,-0.0093575378667563,-0.0071504562765359,-0.169711839017272,0.0133125334978103,0.0016767778433859,-0.0008954259101301
1783205236739700200,1.8087001953125,-0.0071011372420936,0.0129465753346681,-0.1618131947219371,0.0208040047436952,-0.0064115086570382,-0.0044680563732981
1783205236749637000,1.81863720703125,0.0016955518715083,0.0282543268427252,-0.1630155562490224,0.0251928810030221,-0.0104660186916589,-0.0028341016732156
1783205236759575000,1.828574951171875,0.0055238049227744,0.0304229030534625,-0.1214630641549825,0.0282826796174049,-0.0106681529432535,-0.0028487490490078
1783205236769512200,1.83851220703125,0.0044337446637451,0.0257955355137586,-0.0864683231413364,0.0284200869500637,-0.0084359291940927,-0.0080975778400897
1783205236779449300,1.848449462890625,0.0179519093412905,0.0252443313717842,-0.0606599281460046,0.0300107914954423,-0.0063781053759157,-0.0058996705338358
1783205236789386200,1.85838623046875,0.0197589587632566,0.0216083129569888,-0.0270791455835104,0.0278564188629388,-0.00117923412472,-0.0035727357026189
1783205236799323400,1.868323486328125,-0.0106897363185882,0.0156710318624973,0.0140139123052358,0.0202637463808059,-0.0004335492849349,-0.0049945972859859
1783205236809261300,1.87826123046875,-0.0071527212988585,0.0052951837986707,0.0411474184244871,0.0161595661193132,0.0005137757398188,-0.0048310752026736
1783205236819198200,1.8881982421875,0.0018033961601555,0.0207785841345787,0.0424953259021043,0.0095187071710824,-0.000904890242964,0.0001815266441553
1783205236829135000,1.898135009765625,0.0119208855487406,0.0387415263265371,0.0383551573574542,0.0007767565548419,0.0027186253573745,-0.0002572201192378
1783205236839072300,1.908072265625,0.0192804545313119,0.0497419360294938,0.0499514871269464,-0.0052582323551177,0.0069866073317825,0.0022741141729056
1783205236849009200,1.918009033203125,0.0198764476630836,0.0465051460653543,0.0345996042162179,-0.0059412093833088,0.0056861671619117,-0.0013391382526606
1783205236858947300,1.927947265625,-0.0059848465632647,0.0547018965244293,0.01372632753551,-0.0087053040042519,0.0117818769067525,-0.0017647114582359
1783205236868884200,1.93788427734375,-0.0257661632888019,0.0610603256404399,0.008688917890191,-0.0087652252987027,0.0135464873164892,-0.0013338120188564
1783205236878821000,1.947821044921875,-0.0421551341623067,0.0705067838996648,-0.0348719914168119,-0.0114659359678626,0.0132407564669847,-0.0070827780291438
1783205236888758300,1.95775830078125,-0.0426498588766902,0.0734767396211624,-0.0556733719050884,-0.0128635475412011,0.0090705845504999,-0.0111147975549101
1783205236898695200,1.967695068359375,-0.0427983274366706,0.0699129096597433,-0.0874912364482879,-0.012320795096457,0.0081560546532273,-0.0136144403368234
1783205236908633300,1.97763330078125,-0.0383363065265119,0.0715855190470814,-0.1072439846664667,-0.0094595281407237,0.0057250000536441,-0.0180801935493946
1783205236918570200,1.9875703125,-0.0109079091139137,0.0634270547717809,-0.1444604933828115,0.0005694041028618,0.0014982968568801,-0.0182730052620172
1783205236928507400,1.99750732421875,-0.0042814036462455,0.0584668020159006,-0.1624450628846883,0.0071339150890707,0.004643247462809,-0.020175602287054
1783205236938444000,2.007444091796875,-0.0290390474796295,0.049752749684453,-0.1268897653788328,0.0141662582755088,0.0057284859940409,-0.0221117194741964
1783205236948381200,2.017381103515625,-0.0238880213920027,0.0222448572948575,-0.1277367375969886,0.0171031057834625,0.0002958797849714,-0.023657651618123
1783205236958319000,2.027319091796875,-0.0044835020896047,0.0269248318046331,-0.1194675064235925,0.0178807489573955,-0.004571046680212,-0.0240794960409402
1783205236968256300,2.03725634765625,0.0051831747915595,0.0110655838936567,-0.0731938310265541,0.0163884107023477,-0.0050702285952866,-0.0189779829233884
1783205236978193400,2.047193359375,-0.003855287188664,-0.0087421093821525,-0.0314209741801023,0.0090804304927587,-0.0046166921965777,-0.0224123951047658
1783205236988130300,2.05713037109375,-0.0130419254679232,0.0049450551867485,-0.0044587329745292,0.0103010199964046,-0.0021613510325551,-0.0220535956323146
1783205236998067200,2.067067138671875,0.0262894565105438,0.0176928930789232,-0.0099088150739669,0.011430999264121,0.0002461466938257,-0.0214128382503986
1783205237008005000,2.077005126953125,0.0678355188637971,0.0185346046000719,-0.0102379008978605,0.0178301446139812,0.0047156936489045,-0.0176402386277914
1783205237017942300,2.0869423828125,0.0741559540569782,0.0111328039109706,0.0104904143542051,0.0116132609546184,0.0069580753333866,-0.0125179151073098
1783205237027879000,2.09687890625,0.0023492665398865,-0.0169160634875297,0.0390659359753131,0.0022684186697006,0.0122655443847179,-0.01622324436903
1783205237037816000,2.106816162109375,-0.0089061408374458,-0.0341562443628907,0.0453553915083408,-0.0056347781792283,0.0184768363833427,-0.0180829297751188
1783205237047754000,2.11675390625,0.0336219913557171,-0.0083007953554391,-0.0062450318694114,-0.0129064917564392,0.0098854359239339,-0.0135817509144544
1783205237057691000,2.12669091796875,0.0561915505602955,0.0223942026376724,-0.0674491498947143,-0.0178823415189981,0.0015595955774188,-0.0076298522762954
1783205237067628000,2.1366279296875,0.0298232566598802,0.0029132570981979,-0.0877647926926612,-0.0153139885514974,-0.0017485409043729,-0.0110342688858509
1783205237077565000,2.14656494140625,-0.0086105188917368,-0.0193701786413788,-0.0955015244245529,-0.0130934435874223,-0.001325364690274,-0.0131528135389089
1783205237087502000,2.156502197265625,-0.0275229438282549,-0.0273988790571689,-0.1067681838482618,-0.0017054602503776,-0.001283130608499,-0.0218760967254638
1783205237097440000,2.16643994140625,-0.0114325905751436,-0.0518587820529937,-0.1111532670646905,0.0022442741319537,0.0006929347291588,-0.0240867882966995
1783205237107377200,2.176377197265625,0.0377665438145399,-0.0849164175242185,-0.1152951891750097,0.0089862924069166,0.0063210953958332,-0.0199120827019214
1783205237117313800,2.186313720703125,0.0948615460205823,-0.0812839062407612,-0.1079495025873184,0.0110531719401478,-0.0008097845129668,-0.006839957088232
1783205237127251000,2.1962509765625,0.1230866467688232,-0.0810626647055149,-0.1129565170943737,0.0132989520207047,-0.0058499407023191,0.0013449995312839
1783205237137188900,2.20618896484375,0.1234994653534144,-0.0852028332501649,-0.1233218437641859,0.0136214606463909,-0.0113179432228207,0.0073616132140159
1783205237147126000,2.2161259765625,0.1158606410380452,-0.0844540607094764,-0.0874672710508108,0.019563527777791,-0.0058712707832455,0.0077997054904699
1783205237157063000,2.22606298828125,0.0794725459698587,-0.0981289503186941,-0.0553226587712764,0.0240496229380369,0.0043078633025288,0.0133358854800462
1783205237167000000,2.236,0.0577371725670993,-0.1205579320088028,-0.0500736522018909,0.0229162853211164,0.007979285903275,0.0141804404556751
1783205237176937000,2.24593701171875,0.0644295098125934,-0.1236976913392543,-0.0647644408553838,0.0256569441407918,0.0042165052145719,0.020132340490818
1783205237186875000,2.255875,0.0821289787627756,-0.1035527289330959,-0.0668003305971622,0.0255827978253364,0.0012439517304301,0.0263817459344863
1783205237196812000,2.26581201171875,0.0670686992097645,-0.1207996318101882,-0.0631353783488273,0.0220959205180406,0.0051564015448093,0.0347150452435016
1783205237206749000,2.2757490234375,0.0955373994555324,-0.0977969418853521,-0.0559592031091451,0.0221023857593536,0.0048757493495941,0.0443496294319629
1783205237216686000,2.28568603515625,0.0940910000395029,-0.0626671763151884,-0.0645902533322572,0.0229431465268135,0.0060230395756661,0.0515548102557659
1783205237226624000,2.2956240234375,0.0508785388439893,-0.0585343142941594,-0.0380336703181266,0.0212340019643306,0.0099453050643205,0.0558753833174705
1783205237236561200,2.30556103515625,-0.0049568917550146,-0.0510500960186123,-0.0253746797531843,0.0229352302849292,0.0111956587061285,0.0528628155589103
1783205237246497800,2.315497802734375,-0.0509939819172024,-0.0479173509508371,-0.0228758486747741,0.0197379030287265,0.0084639191627502,0.0547141507267952
1783205237256435000,2.32543505859375,-0.0474834895782172,-0.0195247846812009,-0.0332797537893056,0.0180470626801252,0.0057895728386938,0.0443728305399417
1783205237266371800,2.335371826171875,0.0003865881647914,0.0122895727306604,-0.0262836112916469,0.0148397348821163,0.0020475182682275,0.0437756851315498
1783205237276310000,2.34531005859375,0.036818010918051,0.0447667779654264,-0.0257674784630537,0.0122838988900184,0.0060401293449103,0.0471312627196311
1783205237286247000,2.355246826171875,0.0523592058558017,0.0563335893794894,-0.0212345112085342,0.0101371612399816,0.0093330740928649,0.0531031377613544
1783205237296184000,2.36518408203125,0.0485736229024827,0.0625128625363111,-0.0225730663359165,0.0109110763296484,0.0114132696762681,0.0574065409600734
1783205237306121000,2.375120849609375,-0.0009826543617993,0.0436053329706192,-0.037389527195692,0.0101041626185178,0.0053989705629646,0.0588549338281154
1783205237316059000,2.385058837890625,-0.0345159445207566,0.0422913277626037,-0.0305067819446325,0.0095329144969582,0.010000379756093,0.054749671369791
1783205237325996000,2.39499609375,-0.0548792258527129,0.0615901947334408,-0.0458908135592937,0.010909647680819,0.0074786958284676,0.0520726963877677
1783205237335933000,2.404932861328125,-0.0534688475981354,0.1112508822202682,-0.0494523054331541,0.0124500198289752,0.0085945604369044,0.0463543534278869
1783205237345870000,2.4148701171875,-0.0382470938730984,0.1433566237941384,-0.0565203441232442,0.0177664458751678,0.0167511906474828,0.0421805828809738
1783205237355806700,2.424806640625,-0.0679666709627956,0.1571174381211399,-0.0942757820218801,0.0240805335342884,0.0108869094401597,0.0363746285438537
1783205237365745000,2.434744873046875,-0.108118137152493,0.1536807416707277,-0.1538239495337009,0.0294673088937997,0.0061139925383031,0.0246886759996414
1783205237375681800,2.444681884765625,-0.1247225043423473,0.1543760304585099,-0.1933633482396602,0.0408089160919189,4.83766198158e-05,0.0168326161801815
1783205237385619000,2.454618896484375,-0.1512207082327455,0.1869417907595634,-0.2119996596485376,0.0513425655663013,-0.0081832343712449,0.0047790082171559
1783205237395556000,2.46455615234375,-0.1506492650203406,0.2097165171474218,-0.1941962919324636,0.0625693872570991,-0.0082317041233181,-0.0063277054578065
1783205237405494000,2.474493896484375,-0.1096964193198829,0.1935121090605855,-0.1516138722687959,0.0717254802584648,-0.0134940529242157,-0.0178703926503658
1783205237415431000,2.484430908203125,-0.07646057773754,0.1874643533289432,-0.0821867002993822,0.0668305903673172,-0.0045764576643705,-0.0228499732911586
1783205237425367800,2.494367919921875,-0.060073652690649,0.1480640708327293,-0.0117149877130985,0.0615641474723815,-0.0059169200249016,-0.0199247747659683
1783205237435305000,2.504304931640625,-0.0559035273991525,0.1143465101480483,0.0518260488271713,0.0495146736502647,-0.0106224603950977,-0.0234862193465232
1783205237445243000,2.514242919921875,-0.0492353747468441,0.0742573686048388,0.0841138689696788,0.036630168557167,-0.0163519848138093,-0.0262118894606828
1783205237455180000,2.524179931640625,-0.0304454071462154,0.0551858806490898,0.1165846444636583,0.0276686325669288,-0.0069891088642179,-0.0268843378871679
1783205237465117000,2.534116943359375,-0.0199804925594478,0.0520896681994199,0.1172977611690759,0.0206960868090391,0.0024775429628789,-0.0263715907931327
1783205237475054000,2.54405419921875,-0.0063146630395203,0.0635270080149173,0.0772135880619287,0.0186169575899839,0.0074232993647456,-0.0346822515130043
1783205237484992000,2.553991943359375,0.0101716307286173,0.0573851442590355,0.0233662625402212,0.019109496846795,0.0119142159819602,-0.0304304417222738
1783205237494929000,2.563928955078125,0.0053327393300831,0.0351031698241829,-0.0381587580025196,0.0195960570126771,0.0089847380295395,-0.0294538605958223
1783205237504865800,2.57386572265625,-0.0114217038549482,0.017609306448698,-0.1065302834391593,0.0270629078149795,0.0070288851857185,-0.0293274335563182
1783205237514803000,2.583802978515625,-0.0278605052195489,-0.0013102058157324,-0.1396603996247053,0.0288901012390851,-0.0023542302660644,-0.0328233651816844
1783205237524740900,2.593740966796875,-0.0125668553020805,0.0030073651224374,-0.1678080512225628,0.0367436595261096,-0.0065382868051528,-0.0322121381759643
1783205237534678000,2.603677978515625,0.0146516256868839,8.9431849122e-05,-0.1814110446393489,0.0432598814368248,-0.0125937815755605,-0.0349634438753128
1783205237544615000,2.613614990234375,0.0220090757776051,-0.0004217325434088,-0.1673947942465543,0.0495043843984603,-0.0123173082247376,-0.0307372864335775
1783205237554551800,2.6235517578125,0.0430969450570642,0.0005453589230775,-0.1289700787842273,0.0510357022285461,-0.0095217879861593,-0.0325354561209678
1783205237564489700,2.63348974609375,0.0411043099351227,-0.0200485162943601,-0.1046773490488529,0.0581758469343185,-0.0107978684827685,-0.0276428628712892
1783205237574427000,2.643427001953125,0.0430411232165992,-0.0158604169547557,-0.0975549498230218,0.0616187825798988,-0.0106069194152951,-0.0244803596287965
1783205237584364000,2.653364013671875,0.0474812976211309,-0.0156590491637587,-0.076125792825222,0.0636065676808357,-0.0123118748888373,-0.0230294689536094
1783205237594301000,2.663301025390625,0.0376640332881361,-0.0104927524417638,-0.024037878191471,0.065114714205265,-0.0101062459871172,-0.0227474402636289
1783205237604239000,2.673239013671875,0.0486987105868756,-0.0053624038159847,0.0043821606069803,0.0561803802847862,-0.0081247836351394,-0.0200932249426841
1783205237614176000,2.683176025390625,0.0602762625906616,-0.0019081717088818,0.0388438176572322,0.0467868782579898,-0.0055455113761126,-0.017408225685358
1783205237624113000,2.69311279296875,0.0717561994388699,0.0133893506661057,0.0840583393901586,0.0317046344280242,-0.0043497728183865,-0.0131109440699219
1783205237634049800,2.7030498046875,0.0659190177179872,0.0014762100324034,0.1247369712591171,0.0216472074389457,-0.0009949887171387,-0.0089159337803721
1783205237643988000,2.712988037109375,0.0526862458530813,-0.0085644147276878,0.1618862599581479,0.0027668988332152,0.0044018561020493,-0.0032085829880088
1783205237653924900,2.7229248046875,0.0286291515044867,-0.0069710080564022,0.1686959399729967,-0.01234414242208,0.0080615719780325,0.0006479404401034
1783205237663862000,2.732862060546875,0.0278667157646268,-0.0020399813950061,0.163070501306653,-0.0254790987819433,0.0101862428709864,0.0017981159035116
1783205237673799000,2.742798828125,0.0392777520950883,0.0103027828276157,0.1273737495034933,-0.0342494249343872,0.0137005504220724,0.005682336166501
1783205237683735800,2.75273583984375,0.0293838423293083,0.0367383698105812,0.1105851117879152,-0.0406968295574188,0.024346500635147,0.0083707645535469
1783205237693673700,2.762673828125,0.0023411562986671,0.0510056723549962,0.0795931766748428,-0.0473667159676551,0.0281138084828853,0.0077353348024189
1783205237703611000,2.77261083984375,-0.0189390206824988,0.0611643705368041,0.0377104297131299,-0.0485602430999279,0.0299924556165933,0.0025752654764801
1783205237713548000,2.782548095703125,-0.0562011221062392,0.0584065962612628,-0.0121586398273706,-0.0520777441561222,0.0270054545253515,0.0018996212165802
1783205237723485000,2.79248486328125,-0.0840166922055184,0.0476645452335476,-0.0566337413698434,-0.0569036677479743,0.0190203208476305,-0.0077262711711227
1783205237733423000,2.802423095703125,-0.0927620895233005,0.0340025151059031,-0.0850327373802661,-0.0575436279177665,0.0141302244737744,-0.0167048517614603
1783205237743360000,2.812360107421875,-0.0570822157897055,0.0483873065501451,-0.1171919627070426,-0.0579514354467392,0.0071432571858167,-0.0157409142702817
1783205237753297000,2.822296875,-0.0162361183993518,0.0298600084736943,-0.1246405251473188,-0.0508349388837814,0.0063128834590315,-0.0205588396638631
1783205237763233800,2.83223388671875,0.0178569975994527,0.0111541389599442,-0.1108773727327585,-0.0474592894315719,0.0103118736296892,-0.0192888583987951
1783205237773172000,2.842171875,0.0406884226106107,-0.0079758011847734,-0.0957160439580678,-0.0403390601277351,0.0107022933661937,-0.0166326221078634
1783205237783108900,2.85210888671875,0.0734818541876971,-0.035595337255299,-0.1129886657983064,-0.0302958488464355,0.0089547568932175,-0.0136522920802235
1783205237793046000,2.8620458984375,0.0660275926589965,-0.0529360558956861,-0.0978822820812463,-0.0269642360508441,0.0129020940512418,-0.0067672212608158
1783205237802984000,2.87198388671875,0.0414153486456722,-0.0784825850844383,-0.044717093604803,-0.0282135903835296,0.0183996800333261,-0.0032043596729636
1783205237812921000,2.881921142578125,0.0288127644430845,-0.0828328892484307,-0.0308738616913557,-0.0339103564620018,0.0164579693228006,-0.004596394021064
1783205237822858000,2.89185791015625,0.0348187999248504,-0.076933309815824,-0.0228933843314647,-0.0385827533900737,0.0182980857789516,-0.0042932415381073
1783205237832795000,2.901794921875,0.0350741629254072,-0.0324459333136677,-0.0048328269839286,-0.0452292039990425,0.0167510565370321,-0.0063228365033864
1783205237842732800,2.91173291015625,0.0568221035487949,-0.0175529000863432,-0.016591069316864,-0.052101120352745,0.0150047857314348,-0.0047942148521542
1783205237852670000,2.921669921875,0.0845651198685169,-0.0287988089829683,-0.0182189627796411,-0.0552463084459304,0.0168138705193996,0.0032051221933215
1783205237862607000,2.931607177734375,0.0926448198191821,-0.0289738732889294,-0.0121697457432746,-0.0577241741120815,0.0225713793188333,0.0128242326900362
1783205237872544000,2.9415439453125,0.0741162065684795,-0.0226700969696044,-0.0203290868014097,-0.0545347742736339,0.0261642485857009,0.0187755972146987
1783205237882482200,2.951482177734375,0.0484137561656534,0.0064659811437129,-0.0228296714454889,-0.049795676022768,0.0358509644865989,0.0160077773034572
1783205237892418800,2.961418701171875,0.0140828858882188,0.067278177241981,0.011465981388092,-0.0425012782216072,0.052423819899559,0.0056755095720291
1783205237902356000,2.97135595703125,-0.0352628904305398,0.0585255464658141,0.0111643680930137,-0.033733993768692,0.0567867346107959,0.0055773756466805
1783205237912292900,2.98129296875,-0.050919674571976,0.0267833775073289,-0.0599286912620067,-0.03806908801198,0.0483647547662258,0.0051994728855788
1783205237922231000,2.99123095703125,-0.0675001494295895,0.0736152713090181,-0.0554752189844846,-0.0468621514737606,0.0376777835190296,0.0007991180755198
1783205237932168000,3.00116796875,-0.0870936884980648,0.0727136462941765,-0.1043020859956741,-0.0527304261922836,0.0271202139556407,-0.0054004546254873
1783205237942105000,3.01110498046875,-0.0728089964274317,0.068066989532113,-0.187565475615859,-0.0510418303310871,0.0170482546091079,-0.0088054845109581
1783205237952042000,3.0210419921875,-0.0789842509962618,0.0954740518957376,-0.2295142735511064,-0.0335251577198505,0.0081226713955402,-0.0140583030879497
1783205237961980000,3.03097998046875,-0.0893119490694254,0.0670621964037418,-0.2801063966691494,-0.01118790730834,0.0021455509122461,-0.0213031135499477
1783205237971916800,3.040916748046875,-0.1035679265022277,0.0484451742172241,-0.3150912008106708,0.0074688675813376,0.0001796055585145,-0.02931709587574
1783205237981854000,3.05085400390625,-0.0836341956939548,0.0189037301734089,-0.2943342439860105,0.0281140357255935,-0.0073777372017502,-0.0326700620353221
1783205237991791000,3.060791015625,-0.0350515127021819,0.0025397476106882,-0.2496557288259267,0.0429078936576843,-0.0123131070286035,-0.0331821888685226
1783205238001729000,3.07072900390625,0.0162266199186444,0.0017731471523642,-0.2030015296787023,0.0485345609486103,-0.0188293177634477,-0.031302273273468
1783205238011666200,3.080666259765625,0.0439752622615546,-0.0238929167628288,-0.1219324352324008,0.0469233468174934,-0.020450385287404,-0.0261107049882411
1783205238021602800,3.090602783203125,0.0530641392547637,-0.0401905560910701,-0.0436795672506094,0.0421229936182498,-0.0200912170112133,-0.0240639057010412
1783205238031541000,3.100541015625,0.0745885733205825,-0.0418032519847154,-0.0159288060158491,0.0373793691396713,-0.0183535050600767,-0.0175141263753175
1783205238041478100,3.11047802734375,0.0965036872044205,-0.0621089579105377,0.0200011700212955,0.0336707755923271,-0.0115278465673327,-0.0092897349968552
1783205238051415000,3.1204150390625,0.0823092307005077,-0.0568801173463463,0.0420382297843694,0.0336835570633411,0.0005455943755805,-0.0074132718145847
1783205238061352000,3.13035205078125,0.0556378622002899,-0.0462970562726259,0.0004132569760084,0.0328545607626438,0.0051815109327435,-0.0015912156086415
1783205238071290000,3.1402900390625,0.0481616811007261,-0.0185161921605467,-0.0786556035637855,0.0392461493611335,-0.0003413525409996,-0.0027843117713928
1783205238081227000,3.15022705078125,0.0391517145626246,0.0035445407390594,-0.1091968722999095,0.0421041026711463,-0.0051246816292405,-0.0004284624010324
1783205238091164200,3.1601640625,0.0222726220846176,0.0250955705508589,-0.0995581063389778,0.0431555211544036,-0.0058551868423819,0.0035191411152482
1783205238101101000,3.17010107421875,0.0115380967762321,0.0390852251976728,-0.1023264020085334,0.0398261882364749,-0.0110205356031656,0.0021402449347078
1783205238111039200,3.180039306640625,-0.010685863861069,0.0471820224136114,-0.068242346099019,0.0353033430874347,-0.0160091686993837,-0.0009839092381298
1783205238120976000,3.189975830078125,-0.0220101717561483,0.0328697116836905,-0.0330652342557907,0.0341638103127479,-0.0153962261974811,-0.0045470991171896
1783205238130913000,3.1999130859375,-0.0060957595918327,0.0329641119688749,0.002944821280241,0.0350663587450981,-0.0126150865107774,-0.008088038302958
1783205238140850200,3.20985009765625,0.01284742580913,0.0335892581298947,0.0321942966401576,0.0324541218578815,-0.0073029841296374,-0.0037652915343642
1783205238150788000,3.2197880859375,0.0268993320371955,0.040655250993371,0.0813747993946075,0.0236822012811899,-0.0011742510832846,-0.0002749525010585
1783205238160725000,3.22972509765625,0.0385606898669153,0.0361149772152304,0.1290297000169754,0.0101590547710657,0.0034297062084078,0.0018277920316904
1783205238170662100,3.239662109375,0.0440126716624945,0.0368459218382835,0.1518418358057737,-0.0065149962902069,0.0075703891925513,0.0068164253607392
1783205238180600000,3.24960009765625,0.027894845880568,0.0401230438128113,0.1586860026121139,-0.0204674042761325,0.0108695477247238,0.0073650684207677
1783205238190537000,3.259536865234375,0.0125212625946849,0.039013913527131,0.1442342834115028,-0.0323365777730941,0.0117260199040174,0.0114865768700838
1783205238200474000,3.26947412109375,-0.0066740709364414,0.0491939467579126,0.111450788706541,-0.0439634323120117,0.0130386780947446,0.0068733980879187
1783205238210411000,3.279410888671875,-0.0108780254323035,0.0597141717284917,0.0657873541623353,-0.0470508337020874,0.015035250224173,0.0018924879841506
1783205238220349200,3.28934912109375,-0.0201450354713946,0.0563242370292544,0.0178518830329179,-0.0471617877483367,0.0198858045041561,0.0026319099124521
1783205238230286000,3.2992861328125,-0.0186997320339083,0.0523760839253664,-0.0218611186742782,-0.047264851629734,0.0219747871160507,0.000782344257459
1783205238240223200,3.30922314453125,-0.0265729496270418,0.0463815196856856,-0.0561053335815668,-0.0448195710778236,0.0232036896049976,-0.002056703902781
1783205238250161200,3.3191611328125,-0.0195865978710353,0.0313482012048363,-0.1011345618754625,-0.0431364551186561,0.0139244366437196,-0.0010058204643428
1783205238260098000,3.32909814453125,-0.0067142568163573,0.0288663212612271,-0.1279495035648346,-0.0348480939865112,0.0098078427836298,-0.0013897728640586
1783205238270035000,3.339034912109375,-0.0083665540680289,0.0252443313717842,-0.1535305195450782,-0.0271880459040403,0.0087042283266782,-0.0022121570073068
1783205238279972000,3.34897216796875,-0.0256648218061774,0.0232078571081161,-0.143320091176033,-0.0188356488943099,0.0110348127782344,-0.004439007025212
1783205238289910000,3.358909912109375,-0.0245054957032203,0.0242450912013649,-0.1438753869712352,-0.0127985281869769,0.0094920443370938,-0.0104582840576767
1783205238299847200,3.36884716796875,-0.0029651334159076,0.027292496073246,-0.1307674835950136,-0.0073607163503766,0.0033341008238494,-0.0100401248782873
1783205238309784000,3.3787841796875,0.0062483928702771,0.0144683780744671,-0.1089087030082941,-0.0027236202731728,0.005024941638112,-0.010556511580944
1783205238319721000,3.388720947265625,0.0150393828954547,-0.0006070259824395,-0.1017155766338109,-0.0002507660537958,-0.0013903807848691,-0.0108127398416399
1783205238329659000,3.398658935546875,0.0166004216670989,-0.0175806648761034,-0.0879068315118551,-0.0009458512067794,9.29995439946e-05,-0.0078180152922868
1783205238339596000,3.408595947265625,0.0115953799214214,-0.0255956290274858,-0.0503442858368158,-0.0028908196836709,0.0023983339779078,-0.0099122300744056
1783205238349533200,3.418533203125,-0.0017564152132719,-0.0356242710888385,-0.0350216290205717,-0.0060541220009326,0.0017695617862045,-0.0080094011500477
1783205238359471000,3.42847119140625,0.0064856356922537,-0.0574155393972992,-0.0216799168884754,-0.0066411318257451,-0.000985546503216,-0.007008914835751
1783205238369408300,3.438408203125,0.0333652401156723,-0.044181963814795,-0.017286650365591,-0.0109703661873936,-0.0016673156060278,-0.0061045056208968
1783205238379345200,3.44834521484375,0.0806029382392764,-0.0323269831091165,-0.0283364521682262,-0.0086700534448027,-0.005322833545506,-0.0003212606534361
1783205238389282000,3.458281982421875,0.0862194629468023,-0.021982699227333,-0.0262234055370092,-0.010160625912249,0.0073050772771239,0.0096594681963324
1783205238399220000,3.468219970703125,0.083456135713309,-0.0250280582726001,-0.002407645663619,-0.0146652981638908,0.0112765477970242,0.0138956634327769
1783205238409157000,3.4781572265625,0.0676107701972126,-0.0193111419305205,-0.0137421096265316,-0.013507355004549,0.0108115598559379,0.0156325753778219
1783205238419094000,3.488093994140625,0.0451263319928199,-0.0214577985703945,-0.0271989725708961,-0.0162504930049181,0.007874896749854,0.0199908278882503
1783205238429032200,3.4980322265625,0.0232362794850021,-0.0109498485594987,-0.0520581040173769,-0.0161367766559124,0.005521195475012,0.0225501265376806
1783205238438969000,3.507968994140625,-0.0040890959445387,0.0092334000304341,-0.0738537562400102,-0.0180307049304246,0.0049300766550004,0.0203618872910738
1783205238448906200,3.51790625,-0.0297865779113024,0.0340907779112458,-0.0861415754050016,-0.012203175574541,0.0040688100270926,0.017916040495038
1783205238458843000,3.5278427734375,-0.0570254441011697,0.0413186833381652,-0.0997854853540659,-0.0064282231032848,0.0053648678585886,0.012463403865695
1783205238468781000,3.537781005859375,-0.0605010112572461,0.0457473134353756,-0.1030874495089054,-0.0015186853706836,0.0037001257296651,0.0045905662700533
1783205238478718000,3.547718017578125,-0.0393167689312249,0.0425122770369052,-0.1032329954594373,0.0030811261385679,0.0023200756404548,-0.0023392452858388
1783205238488655000,3.557655029296875,-0.0276729467581957,0.0405628965348005,-0.0895201119273901,0.0039812754839658,-0.0012134062126278,-1.13761052489e-05
1783205238498593000,3.567593017578125,0.0010346037447452,0.0412386038392782,-0.0871603970587253,0.0002189530059695,-0.0067373742349445,-0.0006558806635439
1783205238508530200,3.5775302734375,0.0157466543819755,0.0298234758555889,-0.0776817900955677,0.0032269936054944,-0.010440232232213,0.0014746482484042
1783205238518467000,3.587467041015625,0.008349602933228,0.0144739310324192,-0.05701309607625,0.0016592647880315,-0.0033223638311028,0.0011694694403558
1783205238528404000,3.597404052734375,-0.0096414693746715,0.0218003283977508,-0.0274924025595188,0.0047820871695876,-0.0034829527139663,0.0006746540311723
1783205238538342000,3.607341796875,-0.0043755847357213,0.0342398309931159,-0.0237070388019084,0.0081999143585562,-0.003543444443494,-0.0025155660696327
1783205238548279000,3.617279052734375,0.0047231560643762,0.0414212669298052,-0.0072188453376293,0.0069524897262454,-0.0003614998422563,-0.0007930335123091
1783205238558216200,3.62721630859375,0.0098426179699599,0.0354728799194097,0.0151964000880718,-0.0004931222647428,0.0012387344613671,-0.001069025369361
1783205238568153000,3.637153076171875,0.012825944629684,0.0212397719055414,0.0271241537690162,-0.008483937010169,-0.0016713016666471,-0.00271219573915
1783205238578091300,3.64709130859375,0.000968333575502,0.0155325001746416,0.0210404499411582,-0.014731335453689,0.000924713909626,0.0047446237877011
1783205238588028000,3.65702783203125,-0.0007125321835279,0.0149742817699909,0.0098801735013723,-0.0213098786771297,-0.0006239144131541,0.0060634212568402
1783205238597965000,3.666965087890625,0.0105925595544278,0.0288064077675342,-0.0123135381281375,-0.0212542414665222,-0.001147324219346,0.0039197346195578
1783205238607903000,3.676903076171875,0.0171994104735553,0.050194648233056,-0.0233089793950319,-0.0195530131459236,0.0020511322654783,0.0021644448861479
1783205238617840000,3.686840087890625,0.017174349097535,0.0524450575083494,-0.0304448226243257,-0.0199669860303401,0.0077438065782189,0.0032705988269299
1783205238627777000,3.696777099609375,-0.0008976064268499,0.0437213605657219,-0.0352834948271513,-0.0183339342474937,0.0126386964693665,0.003485249588266
1783205238637715200,3.706715087890625,-0.0036892099067568,0.0245028653547167,-0.0672971742033958,-0.0162151828408241,0.009442999958992,0.0027367710135877
1783205238647652000,3.716652099609375,-0.0258641437705606,0.0230883223816752,-0.1074357078462839,-0.0116603793576359,0.0018785572610795,0.0012523252516984
1783205238657589000,3.726589111328125,-0.034131402182579,0.0396478275164961,-0.127599959474802,-0.0068884380161762,-0.0052287522703409,0.0003589615225791
1783205238667526000,3.73652587890625,-0.0441379054773598,0.0362117155879735,-0.1048696567505598,-0.0028020832687616,-0.0001716753467917,-0.0026693188119679
1783205238677464000,3.746464111328125,-0.050122898171097,0.0477341033384203,-0.0736462509691715,0.0012563038617372,0.0001570931635797,-0.0090839620679616
1783205238687401000,3.75640087890625,-0.0342359585355967,0.0479798947930336,-0.0697767160594463,-9.44510102272e-05,0.0045917890965938,-0.0119585786014795
1783205238697338000,3.766338134765625,-0.0136412796005606,0.0522246927559375,-0.0712380207836627,0.0047472640872001,0.0042315912432968,-0.0126787964254617
1783205238707276000,3.776276123046875,0.0041009325128048,0.0311170227974653,-0.0488373884052038,0.0035853274166584,-0.0014398768544197,-0.0097826085984706
1783205238717213200,3.786213134765625,-0.0051298371691256,0.011264613597095,-0.0261667069137096,-0.0041370624676346,-0.0003727092407643,-0.0087777934968471
1783205238727150000,3.796150146484375,0.0107962654329836,0.0015519056171178,0.0001963993549346,-0.0074135484173893,-0.0014731273986399,-0.0069005312398076
1783205238737087000,3.8060869140625,0.0262689251791685,0.0116509825661778,-0.0018301380366086,-0.0092194825410842,-0.000384896993637,-0.0048327632248401
1783205238747025000,3.81602490234375,0.0378579484250396,0.001159983690083,-0.0100479312837123,-0.0088703408837318,0.001905953977257,-0.0037677648942917
1783205238756962000,3.825962158203125,0.0476782084327191,0.0114496147751808,0.0028618191719055,-0.0093969600275158,0.0069821090437471,-0.0028456337749958
1783205238766899200,3.835899169921875,0.033051497991383,0.0150388714388012,0.00154781396389,-0.0155954668298363,0.0068036774173378,-0.0012645151000469
1783205238776837000,3.845837158203125,0.0189924313701689,0.0204039056032896,-0.0047018940806388,-0.0230003558099269,0.0075149396434426,-0.0021130908280611
1783205238786774300,3.855774169921875,0.005014905552566,0.0275067233458161,-0.0287771816730499,-0.0250768214464187,0.004867491312325,-0.0031077815219759
1783205238796711000,3.8657109375,0.0083273911014199,0.0318500132471323,-0.0686357293307781,-0.0212733075022697,0.003302386496216,-0.0080356486141681
1783205238806648000,3.87564794921875,0.003266454450041,0.044681730030477,-0.1031745432704687,-0.016200253739953,0.0011633355170488,-0.0131012462079525
1783205238816586000,3.8855859375,-0.0028320085555315,0.0198658532038331,-0.0945545989632606,-0.0166798345744609,0.0062694461084902,-0.0134085593745112
1783205238826523100,3.895523193359375,-0.0123163876723498,-0.0030319150418043,-0.0900292304933071,-0.0083436071872711,0.0024078623391687,-0.010168557986617
1783205238836460000,3.9054599609375,0.025448767902702,0.008478197748959,-0.1312824473798275,-0.0030810171738266,-0.0055585838854312,-0.0100115565583109
1783205238846398200,3.915398193359375,0.0374164152026176,-0.000775660547614,-0.1300771632432937,-0.0001536710187792,-0.0047290092334151,-0.0053630089387297
1783205238856335000,3.925335205078125,0.0149786656841635,-0.0209381586104631,-0.0756897394955158,0.004819749854505,0.0068920273333787,-0.0013074548915028
1783205238866272000,3.93527197265625,0.000826952343434,-0.0279924610361456,-0.0580471152991056,0.0043190754950046,0.0010751509107649,-0.0026116049848496
1783205238876210000,3.9452099609375,0.0097812431715428,-0.0107198391959071,-0.0756774645358324,0.0038703940808773,-0.0027038408443331,-0.0030289052519947
1783205238886147000,3.95514697265625,0.001672901648283,0.0026654198169708,-0.0660083034366369,0.0002964315935969,-0.0029738852754235,-0.0052356007508933
1783205238896084000,3.965083984375,-0.0048829497359693,-0.0048854339540004,-0.0395680402785539,0.00044706184417,-0.0022834283299744,-0.0084317401051521
1783205238906021000,3.975021240234375,0.0109187227688729,-0.0088897011592984,-0.0460457118600606,-0.0041540814563632,-0.0066251805983483,-0.0090650394558906
1783205238915959000,3.984958984375,0.0535981000009924,-0.0068587798535823,-0.0507785856008529,-0.0017270119860768,-0.0043514389544725,-0.0050037968903779
1783205238925896200,3.994896240234375,0.0621687252737581,-0.0334875513210892,-0.0114005149364471,-0.0054802037775516,-0.0017218333669006,0.0003536844160407
1783205238935833000,4.0048330078125,0.0602913870945572,-0.0473255225375294,-0.0118237087845802,-0.00610510725528,0.0011617364361882,0.0098834158852696
1783205238945771000,4.01477099609375,0.0429665966756641,-0.0490951625585556,-0.0251759423106908,-0.0103150336071848,0.0024485755711793,0.0134174302220344
1783205238955708000,4.0247080078125,0.0228292330540716,-0.02298603105098,-0.0240051449656486,-0.0048631941899657,-0.000406565144658,0.014350663870573
1783205238965645000,4.03464501953125,0.0173424722060561,0.0123486094415187,-0.039834582260251,-0.0044418824836611,-0.0002678143791854,0.0135314762592315
1783205238975583000,4.0445830078125,0.0182736155763268,0.0373848510205745,-0.0293850844383239,-0.0025165965780615,0.003075651358813,0.0133867254480719
1783205238985520000,4.05452001953125,0.0113893359553068,0.0590396334677934,-0.0351560690551996,-0.006107335910201,0.0025941517669707,0.011263120919466
1783205238995457300,4.064457275390625,-0.0088017306149005,0.0519321395501494,-0.0346066184788942,-0.0109348753467202,0.003927762620151,0.0103546073660254
1783205239005394000,4.074393798828125,-0.0332199864260852,0.0571855300337076,-0.0414706590294837,-0.0142987137660384,-0.001305881422013,0.010647022165358
1783205239015332000,4.08433203125,-0.0544866463385522,0.0663198536038398,-0.0625724837690591,-0.0109967030584812,-0.0042732413858175,0.0074144140817224
1783205239025268000,4.09426806640625,-0.0690896105781197,0.0734092273429036,-0.0804670368999242,-0.0089364815503358,-0.0035187676548957,0.0013565220870077
1783205239035205000,4.104205078125,-0.0787395555201917,0.0764493256911635,-0.0563467411220073,-0.0033537251874804,0.0017930725589394,-0.0037078543100506
1783205239045143000,4.11414306640625,-0.0582280978891998,0.084382164517045,-0.0422644397556781,-0.0035247011110186,0.00325488159433,-0.0121740438044071
1783205239055080200,4.124080078125,-0.0303644508644938,0.1017071010664105,-0.0481149193495512,-0.0020523015409708,-0.0019592577591538,-0.01594796217978
1783205239065017000,4.13401708984375,-0.0071891808517277,0.0856967542469501,-0.0611415741831064,-0.0037719048559665,-0.0066490843892097,-0.0158912371844053
1783205239074955000,4.143955078125,-0.0054863955218344,0.0670046209976077,-0.0376128145575523,-0.0094152335077524,-0.0029098368249833,-0.019897773861885
1783205239084892200,4.15389208984375,-0.014684943434596,0.0391641356527805,0.0058919806480407,-0.0108970161527395,-0.0015668044798076,-0.0216077901422977
1783205239094829000,4.1638291015625,0.0005740735609084,0.0116150344699621,-0.0166764095127582,-0.0178393274545669,-0.0045959553681313,-0.0231208279728889
1783205239104766200,4.17376611328125,0.0272742297641932,-0.0286789819955825,-0.019282208096981,-0.0180808752775192,-0.0029336106963455,-0.0188397951424121
1783205239114704100,4.1837041015625,0.0565272853206843,-0.0598126636669039,-0.0330295784205198,-0.0174289271235466,-0.0032076872885227,-0.0150245986878871
1783205239124641300,4.193641357421875,0.0695143387962132,-0.0504936311796307,-0.0334293913930654,-0.0133891804143786,0.0006767995655536,-0.0052827554754912
1783205239134578000,4.203577880859375,0.0835175835769623,-0.0615963322132825,-0.0495054969251155,-0.0100887892767786,0.0030558439902961,0.0012268892023712
1783205239144516000,4.21351611328125,0.068598977516964,-0.0626549013555049,-0.0497141712397336,-0.0137495705857872,0.0048004807904362,0.0071356445550918
1783205239154453000,4.223452880859375,0.0533468286536633,-0.0571563039392232,-0.0469780242741107,-0.014928107149899,0.0058986935764551,0.0100892456248402
1783205239164390100,4.23339013671875,0.0375822732888162,-0.0388482015714049,-0.0573760841697454,-0.0116295153275132,0.0037508541718125,0.0151449907571077
1783205239174328000,4.243328125,0.0361156348023563,-0.0136225749000906,-0.0965086556404829,-0.0093733314424753,-0.0003491109237074,0.0156954508274793
1783205239184265200,4.25326513671875,0.0089774525079876,-8.32943692803e-05,-0.0921112974643707,-0.008171446621418,-0.0006686900742352,0.0130503997206687
1783205239194202000,4.2632021484375,-0.0089054101850837,0.019330723413825,-0.091601594376564,0.0002010455355048,-0.0038716839626431,0.0112418131902813
1783205239204140300,4.273140380859375,-0.0143292618647217,0.0362736749082803,-0.0974865607619285,0.0039534391835331,-0.0040043098852038,0.0070622479543089
1783205239214077000,4.283076904296875,-0.0053458180073648,0.0432210098281502,-0.0891682297497987,0.006452883593738,-0.0022439830936491,0.0069839539937675
1783205239224014000,4.29301416015625,-0.0102275986995548,0.0390203432679176,-0.054107437762618,0.0100180571898818,-0.0017960392870008,0.0058654262684285
1783205239233952000,4.302951904296875,-0.0103569241676479,0.0357566652968525,-0.0406494057744741,0.0054409289732575,-0.0003513041883707,0.0036560674197971
1783205239243889200,4.31288916015625,-0.0065003948699682,0.0367351549401879,-0.0183820443868637,0.0024003982543945,-0.0004796688444912,0.0046502249315381
1783205239253826000,4.322825927734375,0.0069732730787247,0.0438633993849158,-0.0093903441578149,-0.000625105574727,-0.0018176538869738,0.0046219313517212
1783205239263763200,4.33276318359375,0.0031576603133231,0.0453700045555829,-0.0016799159109592,-0.0079397438094019,-0.0015164501965045,0.0037364305462688
1783205239273700900,4.342700927734375,0.0030022505559027,0.0459366985276341,0.0116512748271226,-0.0096261976286768,-0.0001468737609684,0.0037552940193563
1783205239283638000,4.352637939453125,-0.0013460077814757,0.0436380661964416,0.0112041155815124,-0.0101391235366463,0.002883271081373,0.0028042795602232
1783205239293575200,4.3625751953125,0.0028461101461201,0.0394943905204534,0.0033025486767292,-0.0125326057896018,0.0055863782763481,0.0018623038195073
1783205239303513000,4.37251318359375,0.0101573830075562,0.0434431281462311,-0.0247638543784618,-0.0115541601553559,0.0030715551692992,0.0033166562207043
1783205239313450000,4.382449951171875,-0.000626607465744,0.0314376330539584,-0.0347141705065965,-0.0143826566636562,0.0025709099136292,0.0032508906442672
1783205239323387100,4.39238720703125,0.0009478022441267,0.0327507614791393,-0.0460042108058929,-0.0137126054614782,0.0034950266126543,-0.0005664841737598
1783205239333325000,4.402324951171875,-0.0075450816173106,0.0205012284979224,-0.0595674567341804,-0.0113317389041185,-8.74577090144e-05,8.11966601759e-05
1783205239343262000,4.412261962890625,-0.0206079768080264,0.0157698160618543,-0.077759531506896,-0.0063143447041511,-0.0006464552134275,0.0008069078903645
1783205239353199000,4.42219921875,-0.0293669642597436,0.0140177116975188,-0.0820113437324762,-0.0019768541678786,-0.0037964419461786,-0.0040480345487594
1783205239363136000,4.432135986328125,-0.0234834591791033,0.0161184833690524,-0.083072835484147,-0.0005781613290309,-0.0001809345558285,-0.0043716086074709
1783205239373074200,4.44207421875,-0.0103990828089416,0.0291746565580368,-0.0915969182014465,0.0030643977224826,-0.0084217870607972,-0.0049223192036151
1783205239383011000,4.452010986328125,-0.0027929917193949,0.0219590260908007,-0.0777969409078359,0.0081379860639572,-0.0037846909835934,-0.0005059989634901
1783205239392948200,4.4619482421875,0.0040869039874523,0.0114218499854207,-0.0471978045046329,0.0048238346353173,-0.0033711465075612,-0.0009430900681763
1783205239402886100,4.47188623046875,0.0054146454598754,0.0187076230794191,-0.0477168599426746,0.003599845804274,-0.006531786173582,-0.0018453689990565
1783205239412823000,4.481822998046875,0.0048608840346336,0.0143467975214123,-0.0332382527351379,0.0059447921812534,-0.0084125977009534,0.0004246507305651
1783205239422760000,4.491760009765625,0.0168263393774628,0.026292671380937,-0.0148754975706338,0.0019838726148009,-0.0029632374644279,0.0017080281395465
1783205239432698000,4.501697998046875,0.0098646836712956,0.0340463542476296,-0.0036398178070783,-0.0020091906189918,-0.0002216477878391,0.000684434082359
1783205239442635000,4.511635009765625,0.0031350831553339,0.0344710094004869,-0.0006418050348758,-0.0023040026426315,0.0022937078028917,-0.0015512898098677
1783205239452572200,4.521572265625,0.0121519178256392,0.0414405561521649,0.00456920761168,-0.0075900694355368,0.0025573873426765,-0.0006372791249305
1783205239462510000,4.531510009765625,0.0075196549151092,0.0348658539369702,-0.0073030164897441,-0.0076212296262383,0.0004423046484589,-0.0014743106439709
1783205239472447200,4.541447265625,0.0168714206282049,0.0398614702671766,-0.0322159239500761,-0.0091815749183297,0.0006630807183682,-0.0045960680581629
1783205239482384000,4.5513837890625,0.0162131759151816,0.0251402864754199,-0.0464876104086637,-0.0080268280580639,0.0012915870174765,-0.0037688901647925
1783205239492322000,4.561322021484375,0.0166841544277966,0.0212806884378194,-0.0568523525565862,-0.0073204049840569,0.004391539376229,-0.002341138664633
1783205239502259000,4.571259033203125,0.0090985216043889,-0.0052373161315917,-0.0701022947520017,-0.0060998788103461,0.0018796459771692,-0.0021619079634547
1783205239512196000,4.581196044921875,0.0156656250350177,0.0014198036700487,-0.0910901377230882,-0.00075179990381,0.0018493421375751,-0.0001820700708776
1783205239522134000,4.591134033203125,0.0235499485440552,-0.0027934301108121,-0.1239443595767021,0.0014144154265522,-0.0053100339137017,0.0051019079983234
1783205239532071200,4.6010712890625,0.0308561068389564,-0.0037283728733658,-0.1091992103874683,0.0049685966223478,-0.0048771323636174,0.0041478397324681
1783205239542008000,4.611008056640625,0.0194647981222718,0.0024310265392065,-0.0895996069043874,0.0128124048933386,-0.0019873362034559,0.0035038872156292
1783205239551945000,4.620945068359375,0.0169233700111508,0.0090673958137631,-0.0747357997715473,0.0136660998687148,-0.003408633172512,-0.0003579317126423
1783205239561883000,4.6308828125,0.0032753684088587,0.0046416883260011,-0.065787938684225,0.0146213751286268,0.0018178205937147,0.0037571848370134
1783205239571820000,4.640820068359375,0.0068417556535452,0.0062286652565002,-0.0412649073243141,0.0141034685075283,-0.0010510333813726,0.0008598389104008
1783205239581757200,4.650757080078125,-0.0016887568045407,-2.33808755874e-05,-0.039081133544445,0.0081374552100896,-0.0069302273914217,0.0011794180609285
1783205239591695000,4.660695068359375,0.0204728791862726,0.0010875029757618,-0.0286222833722829,0.0044332649558782,-0.0069943713024258,-0.0010743660386651
1783205239601632000,4.670632080078125,0.0253450883325189,-0.0015244330883026,-0.0242845464289188,0.0031541483476758,-0.0064303129911422,0.0035528761800378
1783205239611569200,4.680569091796875,0.0114270376171916,-0.0023936171382665,0.0011848258703947,-0.0002203807234764,-0.0068021556362509,0.0050367275252938
1783205239621507000,4.690507080078125,0.020518764154613,-0.0008516483932733,-0.0035550621330738,-0.0034119123592972,-0.0055326269939541,0.0084908474236726
1783205239631444000,4.70044384765625,0.0284667274843901,0.0029322540596127,-0.0027197803527116,-0.0032596550881862,-0.0012011639773845,0.0111381225287914
1783205239641381000,4.710381103515625,0.015008987757191,0.0051668812438845,-0.0017395371437072,-0.0024551153182983,0.000251323916018,0.0130129884928464
1783205239651319000,4.720319091796875,0.0001565788011997,0.0098851419374346,-0.0040191725134849,-0.0055576618760824,0.004416533280164,0.0112574454396963
1783205239661256200,4.730256103515625,-0.0090304978694766,0.0250558230623602,-0.0124456400752067,-0.0048516578972339,0.0027027889154851,0.0129104685038328
1783205239671193000,4.740193115234375,-0.0082256112273782,0.0397802217245101,-0.0361076706916093,-0.0100834760814905,-0.0008318228647112,0.0097681432962417
1783205239681131000,4.750131103515625,-0.0187103995583951,0.0685819533169269,-0.0155307466089725,-0.0108864177018404,0.0034124571830034,0.0071862093172967
1783205239691068200,4.760068115234375,-0.024698095665872,0.0789449418991804,-0.0209071789503097,-0.0135907819494605,0.0028390197549015,0.0037304467987269
1783205239701005000,4.770005126953125,-0.0239073106143623,0.0735769851252436,-0.0199883105397224,-0.0168448984622955,0.0005934424698352,0.0018294823821634
1783205239710943000,4.77994287109375,-0.045544703535363,0.0666331573367118,-0.0347176776379346,-0.0140595734119415,0.0006228350102901,8.5062347352e-06
1783205239720880000,4.789880126953125,-0.038836803394556,0.0571659485504031,-0.0470206943720579,-0.014105113223195,0.0009109890088438,-0.0059026461094617
1783205239730817000,4.799817138671875,-0.0386158541202545,0.0412307127937674,-0.0434516037136316,-0.0152565548196434,0.0002472172491252,-0.0088801896199584
1783205239740755200,4.809755126953125,-0.0199896987792104,0.0478892939001321,-0.0567079756498336,-0.0104157282039523,-0.0002723657526075,-0.0065147699788212
1783205239750692000,4.819692138671875,-0.0013158318389207,0.0445423215597867,-0.04826631051898,-0.0080962600186467,0.0018334430642426,-0.0073775667697191
1783205239760629200,4.829629150390625,0.0179556356683373,0.0332727395266294,-0.061834232622385,-0.0046794256195425,-0.0020454516634345,-0.008708881214261
1783205239770566000,4.83956591796875,0.0362672451674938,0.0356473597034811,-0.0736667092353105,-0.0026961304247379,0.0028122197836637,-0.0040011489763855
1783205239780504000,4.849504150390625,0.0264207547400146,0.0260433727949857,-0.0805973852813243,-0.0014670826494693,0.0014545400626957,4.76546119898e-05
1783205239790441000,4.85944091796875,0.0050337563835084,0.0150140292584896,-0.0680453622221946,-0.0010956479236483,0.002925501903519,-0.0043454025872051
1783205239800378000,4.869378173828125,-0.0165684190936386,0.0105085345327854,-0.0700391663879156,0.0002010455355048,0.0011664838530123,-0.0034045076463371
1783205239810316000,4.87931591796875,-0.0063602557469159,0.024261750075221,-0.0801689307361841,7.58673995733e-05,-0.0019905087538063,-0.0041036866605281
1783205239820253200,4.889253173828125,0.0004914367787539,0.0258870131894946,-0.0718868400812149,0.0010676281526684,-0.0018949010409414,-0.0068707112222909
1783205239830190000,4.899190185546875,0.0172765673629939,0.0270464123576879,-0.0541957005679607,0.0017198370769619,-0.0022336547262966,-0.0052312691695988
1783205239840128300,4.909128173828125,0.0295028655990958,0.0133352823913097,-0.0450151997685432,0.0009626997634768,-0.0011787773109972,-0.0021348115988075
1783205239850065000,4.91906494140625,0.0236834387306123,0.0196267837509512,-0.0279512522429227,0.0028693359345197,-1.48057006299e-05,-0.0016989449504762
1783205239860002000,4.929001953125,0.0187811997722834,0.0131301152080297,-0.0222375507712364,-0.001262292265892,0.0018573966808617,-0.0018366303993389
1783205239869940000,4.93893994140625,0.0273443723909556,0.0148451024323701,-0.030748189485073,0.0002689464017748,-0.0007271049544215,-0.0004253285005688
1783205239879877000,4.948877197265625,0.0374934259615838,0.0240194657519459,-0.0491851789295673,0.0014836145564913,-0.0016956967301666,0.0024812454357743
1783205239889814000,4.95881396484375,0.0306092194058001,0.0291278948068618,-0.0510369442760944,0.0034900307655334,0.0019061863422393,0.002612488809973
1783205239899752200,4.968752197265625,0.0194387138329446,0.0314396788805723,-0.0353507148444652,0.0016828095540404,0.0040742657147347,-0.0008695942815393
1783205239909689000,4.978689208984375,-0.0040825931385159,0.0347299525976181,-0.048187984585762,0.0013886978849768,0.0023257497232407,-0.0028319465927779
1783205239919626000,4.9886259765625,0.0012199702490121,0.0315606749117374,-0.0546732549518346,0.0048281699419021,0.0021228168625384,-0.0019086285028606
1783205239929564000,4.99856396484375,-0.013972045924887,0.0205231480687856,-0.0709083504378795,0.0023170048370957,0.0006858226843178,-0.0018393759382888
1783205239939501000,5.0085009765625,-0.0100818335533142,0.0125336106196045,-0.0696831925570964,0.0050334287807345,-0.0036428794264793,-0.0023451102897524
1783205239949438200,5.018438232421875,-0.0081852792169898,0.0313838570401072,-0.0591460164517164,0.0064996113069355,-0.0009364783763885,-0.0013814284466207
1783205239959376100,5.028376220703125,-0.0032860359333455,0.0288689516097307,-0.0582528670042753,0.0032068789005279,-0.0007423339411616,-0.003965760115534
1783205239969313000,5.03831298828125,0.0026938421938568,0.0328036607101559,-0.0602577770859003,0.0079706478863954,-0.0041216448880732,-0.0024054700043052
1783205239979250000,5.04825,0.0160612732890993,0.0243660872325301,-0.0531733717828989,0.0098564326763153,-0.0011199954897165,-0.0022643224801868
1783205239989187800,5.058187744140625,0.0080372490484267,0.0177890469297766,-0.0343862537264823,0.0110616497695446,-0.0011663464829325,-0.002131185028702
1783205239999125000,5.068125,-0.0160877959698438,0.0144224931061267,-0.0269838685154914,0.0091513637453317,0.0010680458508431,-0.0014715199358761
1783205240009062100,5.078062255859375,-0.0112364834811538,0.013657353952527,-0.0280582197487354,0.0117858294397592,0.0012128469534218,-0.0031272599007934
1783205240019000000,5.088,0.0112590606391429,0.01843552813977,-0.0474678536176681,0.0118239130824804,0.0001494465395808,-0.0028066153172403
1783205240028938000,5.09793798828125,0.002203501393646,0.0160518478736281,-0.0327343948662281,0.0107865752652287,-0.0019015180878341,-4.7908630222e-05
1783205240038875000,5.107875,-0.0006884937208145,0.0202232883393764,-0.0163297880321741,0.0090193012729287,0.0014423471875488,-0.000980014912784
1783205240048812800,5.117812744140625,0.0050718233715742,0.0354223187759518,-0.0244599029958248,0.0059123584069311,-0.0020818286575376,-0.0012391908094286
1783205240058750000,5.12775,0.0115988870527595,0.0366010071665048,-0.0281295314192771,0.0045096715912222,-0.0012131058610975,-0.0011188159696757
1783205240068686800,5.137686767578125,0.0066075815714895,0.0274573312461376,-0.0127273796260356,0.0030225487425923,0.0003227218985557,-0.002677041105926
1783205240078624000,5.1476240234375,-0.010022504581511,0.026814941689372,0.0074678516626358,-0.0020840624347329,0.0034431479871273,-0.007444099523127
1783205240088562000,5.15756201171875,-0.0079369304791092,0.0214268189102411,0.0068979428201913,-0.0037278467789292,0.0036414479836821,-0.0075403228402137
1783205240098499000,5.1674990234375,0.0152352707937359,0.0182873518407344,-0.0085398648083209,-0.0086091542616486,0.0012749629095196,-0.0084484601393342
1783205240108436000,5.17743603515625,0.0364433323867619,0.015986673682928,-0.0303583133846521,-0.009094969369471,0.0029659215360879,-0.0073910816572606
1783205240118374000,5.187373779296875,0.0606974106121808,0.0062146367311477,-0.0506704490512609,-0.0074209058657288,0.001006900332868,-0.0028629088774323
1783205240128311000,5.19731103515625,0.0411558209266513,-0.0058148237586021,-0.0641460166960954,-0.0049696508795022,0.0062399161979556,-0.0003827991895377
1783205240138249000,5.2072490234375,0.00890066094473,-0.0237064542800188,-0.061101242172718,-0.0006891526281833,0.0055885072797536,0.0035943654365837
1783205240148185900,5.217185791015625,-0.0023453940823674,-0.0227075063705444,-0.0777343970656394,-0.00090167298913,0.0046702492982149,0.0060798935592174
1783205240158123000,5.227123046875,-0.0037790801472961,-0.009136661657691,-0.0948556277364492,0.0007881028577685,-0.001508817076683,0.00508120842278
1783205240168060200,5.23706005859375,-0.0097051822606474,0.0090203418016433,-0.0902688844680786,0.0024415533989667,-0.00059181638062,0.0040296074002981
1783205240177997800,5.246997802734375,-0.0087574530817568,0.0306137494504451,-0.0862169787287712,0.0058416109532117,-0.0024600238539278,0.0006441967561841
1783205240187935000,5.25693505859375,-0.0013639818295836,0.0532619268491864,-0.0800625477522611,0.007696711923927,-0.0046985605731606,-0.005101469811052
1783205240197871900,5.266871826171875,0.0052346857830882,0.055220951962471,-0.0544108046233654,0.0090868826955556,-0.0009943693876266,-0.0059930961579084
1783205240207810000,5.27681005859375,-0.0021099048260599,0.0356762935370206,-0.0347276145100593,0.0062367878854274,-0.0010984139516949,-0.0070894183591008
1783205240217747000,5.286746826171875,-0.0103878307625651,0.0188818106025457,-0.0072772975265979,0.0050447573885321,-0.0037282849662005,-0.0068095200695097
1783205240227684000,5.29668408203125,0.0011626140385866,0.0025713117927312,-0.0207049343764781,0.0027775289490818,-0.0041630836203694,-0.0043840864673256
1783205240237622000,5.3066220703125,0.0242548819430172,0.0069259998708963,-0.0137596452832221,0.0007407432422041,-0.0015462613664567,-0.0036392004694789
1783205240247559000,5.316558837890625,0.0330521555785089,0.0089534140452742,-0.0095551793307065,-0.004529227502644,-0.0006871167570352,-0.0016775259282439
1783205240257495800,5.326495849609375,0.0450759900450706,0.0159872582048177,-0.0031844752550125,-0.0062453681603074,0.0041153612546622,0.0002279658801853
1783205240267434000,5.33643408203125,0.0466667663678526,0.0137573071956634,-0.016387655699253,-0.0039095971733331,0.0032206589821726,0.0026137591339647
1783205240277371000,5.346370849609375,0.0340001770183444,0.0022717443242669,-0.0504535914301872,-0.0067493263632059,0.0041690105572342,0.0085094645619392
1783205240287308000,5.35630810546875,0.008247019341588,0.0030967969715595,-0.0693114366352558,-0.0015105186030268,0.0029252390377223,0.00659936433658
1783205240297246000,5.366245849609375,-0.0184806093905121,0.0071112933099269,-0.0724094026505947,-0.0013541905209422,-0.0001565711572766,0.0023614759556949
1783205240307183000,5.37618310546875,-0.0218105575308203,0.0263391408711671,-0.0720809013485908,0.0006319256499409,0.0028263085987418,-0.0024267446715384
1783205240317119700,5.38611962890625,-0.0078568509802222,0.0433820456087589,-0.0796639038234949,0.0020141061395406,0.0009381272830069,-0.0017700091702863
1783205240327058000,5.396057861328125,0.0069098524536937,0.0456967522919177,-0.0821130505412816,0.0019640587270259,-0.0002810480073094,-0.0048297047615051
1783205240336994800,5.405994873046875,0.0178883425857871,0.0295195244729518,-0.0742822107851505,-0.0002160053700208,-0.0005556200630962,-0.0016381725436076
1783205240346932000,5.415931884765625,0.0204384654600173,0.0243535200119018,-0.0625607933312654,0.0024444926530122,-0.0036342339590191,-0.0018775906646624
1783205240356870000,5.425869873046875,0.0021639731008559,0.0224494399562478,-0.0406949984818696,0.0031723342835903,-0.001065881922841,-0.0002083212602883
1783205240366807000,5.43580712890625,0.0066517129741609,-0.0061474167138338,-0.0402519308894872,0.001939351670444,-0.001435643993318,-0.0012358715757727
1783205240376744000,5.445743896484375,0.0160229140400886,0.0011345569878816,-0.0352566068202257,0.0045766802504658,-0.0004409532994031,0.0032014874741435
1783205240386682000,5.45568212890625,0.0315581906937062,0.0025797873601317,-0.0469499672234058,0.0050097331404685,-0.0029874476604163,0.0038001770153641
1783205240396618800,5.46561865234375,0.0261291513822972,0.0231812613621354,-0.0187912097096443,0.0029146242886781,0.0021764214616268,0.0036837966181337
1783205240406556000,5.475555908203125,0.0214238232355564,0.0242570739001035,-0.0189671507984399,-0.002206727862358,1.43190845847e-05,0.0024386346340179
1783205240416493800,5.485493896484375,0.0151185856115072,0.0288572611719369,-0.0333025501430034,-0.0041484385728836,0.0007727872580289,0.0027140057645738
1783205240426431000,5.495430908203125,-0.001843070583418,0.0247162158444523,-0.049500820749998,-0.0068805506452918,-0.0036299293860793,0.0052850320935249
1783205240436368000,5.505367919921875,-0.00621266396977,0.0222480721652507,-0.0560913050562143,-0.0027808798477053,-0.0027169976383447,0.0023057542275637
1783205240446306000,5.51530615234375,-0.0114764297168701,0.0267751942008733,-0.0651724371343851,-0.0014211684465408,-0.0032072346657514,-0.001653526793234
1783205240456243000,5.525242919921875,-0.0112182171721011,0.0257701088115572,-0.063479077219963,0.0019466653466224,-0.0038234898820519,-0.0010218250099569
1783205240466179800,5.535179931640625,0.0058610009878873,0.0165957454919815,-0.044276948621869,-0.0001473780721426,0.0021041738800704,-0.0022383569739758
1783205240476117800,5.54511767578125,0.0113837099321186,0.0115235567942261,-0.0414601376354694,0.0008502416312694,0.0025595743209123,0.0006959137972444
1783205240486055000,5.555054931640625,0.0182783648166805,0.0048866029977798,-0.0452566073089838,-0.0003798920661211,-0.0009483876638114,0.0033909811172634
1783205240495992000,5.564991943359375,0.0109295364238321,0.0001867547437548,-0.0365413859337568,-0.0039855455979704,-0.0041705458424985,0.0064432304352521
1783205240505930000,5.574929931640625,0.0101465693525969,0.010565233156085,-0.0143956050992012,-0.0060592014342546,-0.0058781332336366,0.0059460480697453
1783205240515867000,5.584866943359375,0.003766220665723,0.0101835403621196,-0.0186550161093473,-0.0078368615359067,-0.0019544982351362,0.0068629742600023
1783205240525804000,5.594803955078125,0.0035305852789431,0.0163707045644521,-0.0212380183398723,-0.0062190862372517,0.0012943693436682,0.0047959117218852
1783205240535742000,5.604741943359375,0.0020906156037002,0.0255202257037162,-0.0394961440861225,-0.0041455505415797,0.0047295810654759,0.0042555560357868
1783205240545678800,5.614678955078125,-0.0102644966438412,0.0323442265048623,-0.0451011244863271,1.31260603666e-05,0.0040443809702992,0.0030017704702913
1783205240555616000,5.624615966796875,-0.0161130034763365,0.0256149182498455,-0.059946811440587,-0.0016550775617361,0.0015756310895085,0.001081365160644
1783205240565554000,5.634553955078125,-0.0011615180600434,0.0333870135560631,-0.0720212801158428,0.0023623770102858,-0.0010255496017634,-5.55892474949e-05
1783205240575491000,5.644490966796875,-0.0226505885515362,0.0388119612142443,-0.0647474897205829,0.0016598356887698,0.0010043121874332,-0.003172819269821
1783205240585428000,5.654427978515625,-0.0280849616251885,0.0413286202102899,-0.0788286220431327,0.0050476500764489,-0.001162193249911,-0.0024133266415446
1783205240595366000,5.664365966796875,-0.0289797185078263,0.0552630375385284,-0.0997492449969053,0.0095473267138004,-0.001661003101617,-0.0064916918054223
1783205240605303000,5.674302978515625,-0.0140904116075485,0.0537187307059764,-0.0968453402489423,0.0166304484009742,-0.0031024529598653,-0.0095427418127655
1783205240615240000,5.684239990234375,0.0005657441239804,0.0643099750861525,-0.0967857190161943,0.0156301651149988,-0.0018592891283333,-0.0080084949731826
1783205240625177900,5.694177734375,0.0096679920554161,0.0713572632491588,-0.0789507871180772,0.0176456812769174,-0.0059394808486104,-0.0100045148283243
1783205240635115000,5.704114990234375,-0.0084901073824614,0.0547466124489903,-0.0660819531947374,0.0172808282077312,-0.0079717384651303,-0.0118173286318779
1783205240645053000,5.714052978515625,-0.0321826062023639,0.0272331671014428,-0.0461357282310724,0.0203977730125188,-0.0032337405718863,-0.0135907717049121
1783205240654990000,5.723989990234375,-0.0464144721072167,0.0329267025679349,-0.0609217939525842,0.0249033086001873,-0.003326419275254,-0.0195133760571479
1783205240664927000,5.733927001953125,-0.0402297921229153,0.0305167188167572,-0.0839390969246625,0.0344942361116409,-0.0034785661846399,-0.0233561061322689
1783205240674865000,5.743864990234375,-0.0044900779608637,0.0363359264895319,-0.0836368991076946,0.0375387631356716,-9.92808490991e-05,-0.0243550576269626
1783205240684802000,5.753802001953125,0.0232855985194444,0.0337818580925464,-0.0798573805689811,0.0387130826711654,-0.0053675598464906,-0.0231531970202922
1783205240694739000,5.763739013671875,0.0336235987909138,0.039271395419538,-0.0674935735583305,0.0380638055503368,-0.0041411737911403,-0.0171845182776451
1783205240704676900,5.7736767578125,0.0349321241062134,0.0228302559673786,-0.0453495462894439,0.0358006097376346,-0.0067357043735682,-0.019485855475068
1783205240714614000,5.783614013671875,0.0263232126496732,0.0049584991902112,-0.0294189867079257,0.0314868204295635,-0.0093610491603612,-0.0124963875859975
1783205240724551000,5.793551025390625,0.0335511180765926,-0.0196332134917378,-0.0186918409883975,0.031981486827135,-0.0134285390377044,-0.0121478177607059
1783205240734489000,5.803489013671875,0.0300093538165092,-0.0231748316213488,0.0058306058496236,0.0312086343765258,-0.0041125356219708,-0.0129129439592361
1783205240744426000,5.813426025390625,0.0358009428299963,-0.0143500123918056,0.0522515807628631,0.0273632407188415,0.0010954444296658,-0.0063232975080609
1783205240754363100,5.823363037109375,0.0498969804607331,-0.0095484573289752,0.0683136577695608,0.0213591456413269,0.0001399018801748,-0.0035544086713343
1783205240764301000,5.833301025390625,0.0652720981165766,-0.0081160864382982,0.0728776046842336,0.0120164202526211,0.0073523549363017,0.0009903311729431
1783205240774238000,5.843238037109375,0.0636919893182814,-0.0095312139332294,0.0747556735157966,0.0013366118073463,0.0036697359755635,0.00642477767542
1783205240784174800,5.8531748046875,0.0533493128716945,0.0010959785431623,0.0683078125506639,-0.0099207777529954,0.0084683299064636,0.0086097493767738
1783205240794113000,5.863113037109375,0.0417184232454746,0.0028483751684427,0.0575210455983877,-0.015107549726963,0.0105557162314653,0.0086526265367865
1783205240804050000,5.8730498046875,0.0257378870423883,0.0013797639206051,0.0415782110571861,-0.0184002351015806,0.0106330420821905,0.0104943076148629
1783205240813987000,5.882987060546875,0.0097909608479589,0.014121756593883,0.0226584065318107,-0.0192559082061052,0.0108801834285259,0.0100836483761668
1783205240823925000,5.892925048828125,-0.0035828269228339,0.0260775673255324,-0.0031394670695066,-0.0147461630403995,0.015946764498949,0.0097043439745903
1783205240833862000,5.90286181640625,-0.0132291916683316,0.0275035084754228,-0.0333867212951183,-0.0154798626899719,0.0128758735954761,0.0089400168508291
1783205240843798800,5.912798828125,-0.0175100107926875,0.0354594359159469,-0.0562286677002906,-0.0112440455704927,0.008617578074336,0.0084580639377236
1783205240853737000,5.922737060546875,-0.024511633183062,0.0431458987653255,-0.0590764583468437,-0.0129511319100856,0.009385366924107,0.0045288363471627
1783205240863673900,5.932673828125,-0.0272168004885315,0.0463520013302564,-0.0690437256097793,-0.0081253768876194,0.0032475318294018,0.0047652851790189
1783205240873611000,5.942611083984375,-0.0344197906699031,0.0565799653559923,-0.063421209552884,-0.006053970195353,0.0011841147206723,-0.0009264226537197
1783205240883549000,5.952548828125,-0.0246370131283998,0.0487298363775014,-0.0412859501123428,-0.0045026140287518,-0.0003491812385618,-0.0014437101781368
1783205240893486000,5.962486083984375,-0.0349101314701139,0.0355821855127811,-0.0340419703334569,-0.0034645134583115,-0.0009185653179883,-0.0057321982458233
1783205240903422700,5.972422607421875,-0.0322949805356562,0.0529974306941032,-0.0138292033880949,-0.0086611658334732,0.0005038082599639,-0.0059702964499592
1783205240913361000,5.98236083984375,-0.0170860132269561,0.0472694084361195,-0.000990180081129,-0.0091743562370538,0.0039808312430977,-0.0052906572818756
1783205240923297800,5.9922978515625,0.0108984106332063,0.0272492414534091,0.0296773453831672,-0.0111513677984476,0.0050718449056148,-0.0066548427566885
1783205240933235000,6.00223486328125,0.0312093772560358,0.0330941680893301,0.0317804551422596,-0.0169480051845312,0.0041218954138457,-0.0062945168465375
1783205240943172900,6.0121728515625,0.0374555781692266,0.023860768058896,0.0469978980183601,-0.0200379155576229,0.0058099310845136,-0.0032162712886929
1783205240953110000,6.022110107421875,0.0361084744092077,0.0072130001187324,0.0469698409676551,-0.0205321982502937,0.0099205207079648,-0.0022175859194248
1783205240963047000,6.032046875,0.0337917218994349,-0.0007660159364342,0.0139086983650922,-0.0250854045152664,0.0103462962433695,-0.0014488217420876
1783205240972985000,6.041985107421875,0.0194372525282204,-0.0101072602555155,0.0145838211476802,-0.0259549245238304,0.0099790459498763,0.0002838307991623
1783205240982921700,6.051921630859375,0.00562763062343,-0.0161178988471627,-0.0063467386782169,-0.023842629045248,0.0099143860861659,0.0022168245632201
1783205240992859000,6.06185888671875,0.0067974050551652,-0.0131911977455019,-0.0541097758501768,-0.0226463377475738,0.0065862336196005,0.0062328707426786
1783205241002796800,6.071796875,-0.0036198709975928,-0.0035877953588962,-0.0938759690493345,-0.0212548002600669,0.0038472365122288,0.0022714808583259
1783205241012734000,6.08173388671875,-0.0131654057171195,0.0101081370383501,-0.1193202069073915,-0.0103938970714807,-0.0003991737030446,-0.0005996730178594
1783205241022671000,6.091671142578125,-0.0121174310341477,0.0054991819381713,-0.153327690449357,0.0027408637106418,-0.0014557302929461,-0.0020226554479449
1783205241032608500,6.1016083984375,-0.0200693398866802,0.0050572833895683,-0.1551864700585603,0.010529545135796,-0.0058811050839722,-0.0050860894843935
1783205241042545700,6.111545654296875,-0.0307202785648405,0.020587737737596,-0.1669803682267665,0.0233365725725889,-0.0071111861616373,-0.0057300110347568
1783205241052482300,6.121482421875,-0.0325029241979122,0.0161491707682609,-0.1804389847368001,0.037988219410181,-0.0143086444586515,-0.0085521629080176
1783205241062420500,6.13142041015625,-0.0194466779436916,0.0353986456394195,-0.1808206775307655,0.0462434776127338,-0.0177687034010887,-0.0081605110317468
1783205241072357400,6.141357421875,-0.0116497404571622,0.0373123703062534,-0.1399088214278221,0.0569336712360382,-0.0209029801189899,-0.0122671052813529
1783205241082294500,6.15129443359375,0.0093707626745104,0.0450561163008213,-0.098861940768361,0.058457426726818,-0.0223093852400779,-0.0104630896821618
1783205241092232400,6.161232421875,0.0265049258921295,0.0439195134863257,-0.0596878682434558,0.0588949844241142,-0.0234481543302536,-0.0127779096364974
1783205241102169600,6.171169677734375,0.0257161866672337,0.033040392075479,0.0066296472728252,0.0553102940320968,-0.022403459995985,-0.0111030805855989
1783205241112106500,6.1811064453125,0.0270136060666292,0.0213511233255267,0.0617722733020782,0.0486902073025703,-0.0172848626971244,-0.0077999620698392
1783205241122044700,6.191044677734375,0.0383193553917109,-0.0053127194553613,0.1071112981975078,0.0393261462450027,-0.0159607492387294,-0.0082990573719143
1783205241131981300,6.200981201171875,0.0456378617115318,-0.0019517185896635,0.1625076067268848,0.0303403735160827,-0.0130882635712623,-0.002126648556441
1783205241141918500,6.21091845703125,0.0495214251466095,-0.0071042790472507,0.1921720926284789,0.0134652601554989,-0.0063008898869156,0.0033318162895739
1783205241151856400,6.2208564453125,0.0572887712124735,-0.0139081138432025,0.2052759043514728,0.0007095169275999,0.0008917753584682,0.0076722358353435
1783205241161793500,6.23079345703125,0.0653643795099109,-0.0102908001288771,0.1953478000551462,-0.0127352615818381,0.0067534889094531,0.0096108447760343
1783205241171730400,6.24073046875,0.0558336770333349,-0.0076344404011964,0.1732446893185377,-0.0194096788763999,0.0143208615481853,0.0133035834878683
1783205241181667300,6.250667236328125,0.0359284416671842,0.0132575409799814,0.1540367155015468,-0.030287392437458,0.0172553732991218,0.0128058260306715
1783205241191605200,6.260605224609375,0.0078333970393985,0.0160123926460742,0.1189046118438243,-0.0368922986090183,0.0154468212276697,0.0142252901569008
1783205241201542400,6.27054248046875,-0.0036436902645975,0.0354644043520092,0.0464829342335462,-0.0401897132396698,0.0146368816494941,0.0146784801036119
1783205241211479600,6.2804794921875,-0.0118326958086341,0.0543836243554949,0.0011216975063085,-0.036559022963047,0.0155609985813498,0.0126645974814891
1783205241221417500,6.29041748046875,-0.0337777664393186,0.0575239682078361,-0.0444201564848423,-0.0333405546844005,0.0126100545749068,0.0074965781532227
1783205241231354400,6.300354248046875,-0.0463568967010825,0.0635249621883034,-0.0888654474109411,-0.0291516706347465,0.0070696142502129,6.7041255533e-06
1783205241241291500,6.31029150390625,-0.0488511977348476,0.0532911529436707,-0.1148334168821573,-0.0217086300253868,0.0057764863595366,-0.0024883006699383
1783205241251229400,6.3202294921875,-0.0431351581756025,0.0508700632765889,-0.1120914246976375,-0.0132738659158349,-0.0037126224488019,-0.008015957660973
1783205241261166300,6.330166259765625,-0.0320100991796702,0.0422074488714337,-0.1238742169499397,-0.0026919608935713,-0.0048891655169427,-0.0111072901636362
1783205241271103500,6.340103515625,-0.0249479057084768,0.021878362070024,-0.0922761326372623,0.0018359469249844,-0.002681937534362,-0.009434025734663
1783205241281041400,6.35004150390625,-0.013569310342893,0.0126624976962804,-0.0508837995409965,0.0053685591556131,0.0011687283404171,-0.0110686449334025
1783205241290978300,6.359978271484375,0.0031910511262714,0.0044353520989418,-0.0286047477155923,0.0059259589761495,-0.0013279849663376,-0.0125738633796572
1783205241300915500,6.36991552734375,0.0274721634890884,-0.001560965706408,-0.0021212299376726,0.002684555016458,-0.0038451254367828,-0.0064227483235299
1783205241310853400,6.379853271484375,0.0326819340266287,-0.0191088973566889,0.028547464570403,0.0027487371116876,-0.0039354059845209,-0.0038900822401046
1783205241320790500,6.38979052734375,0.0478260194055736,-0.0272583015426993,0.0367477221608161,-0.0003305049613118,-0.0041060959920287,-0.000179432099685
1783205241330727400,6.3997275390625,0.0444173800058662,-0.0178998138278722,0.0433516504704952,-0.0014801919460296,-9.75052826106e-05,0.0023913173936307
1783205241340664300,6.409664306640625,0.0438366575084626,-0.0087722122594714,0.0731815560668706,-0.0053097046911716,0.0070381350815296,0.0043407198973
1783205241350602500,6.4196025390625,0.0404353246323764,-0.0108005032166838,0.0829746358066797,-0.0109002124518156,0.0102648213505744,0.0071950959973037
1783205241360539400,6.429539306640625,0.0230295048665255,-0.0104255324244499,0.0430804323136806,-0.0115880565717816,0.0063494718633592,0.0082912687212228
1783205241370476500,6.4394765625,0.0152954765483736,-0.0026969839990139,-0.0037444472253322,-0.013338285498321,0.0050107007846236,0.0081842094659805
1783205241380414500,6.44941455078125,0.0147554513875395,0.0083896426826715,-0.0362391881167888,-0.0088928500190377,-0.0016793962568044,0.0075965523719787
1783205241390351600,6.4593515625,-0.0003802314892411,0.0119216162011027,-0.0550742369681596,-0.0041332496330142,0.0002798913046717,0.0073962826281785
1783205241400288300,6.469288330078125,-0.0208947578601539,0.0331152108773589,-0.0462181458175182,0.0017505306750535,0.0079900473356246,0.0063981059938669
1783205241410226400,6.479226318359375,-0.025865678140521,0.041722003442049,-0.0851718535900115,0.0064392923377454,-0.0006780088879168,-0.000215854961425
1783205241420163300,6.489163330078125,-0.0261010212663561,0.0487877040445804,-0.0947568435370922,0.0114515060558915,-0.0057440772652626,-0.0034895595163106
1783205241430100500,6.4991005859375,-0.0285850201018154,0.0424859735518693,-0.1043967785418033,0.0149881839752197,-0.0105801112949848,-0.0047716051340103
1783205241440037400,6.509037353515625,-0.0240712690044194,0.0370040350094437,-0.1092675994485616,0.0269666407257318,-0.0152967004105448,-0.0088035045191645
1783205241449975600,6.5189755859375,-0.0226793762546032,0.0459431282684206,-0.0927934345096349,0.0335121601819992,-0.01459043007344,-0.0110522778704762
1783205241459912400,6.528912353515625,-0.0277554374098777,0.0426660062938928,-0.0445762238293886,0.0363606549799442,-0.011829363182187,-0.0113791562616825
1783205241469849300,6.538849365234375,-0.007079071540758,0.0378723422765731,-0.0018377368211746,0.038001962006092,-0.0140645541250705,-0.0142585653811693
1783205241479787300,6.548787353515625,0.0158276106636971,0.0287692906275391,0.0383159943908453,0.0309801809489727,-0.0114462692290544,-0.0115204295143485
1783205241489724400,6.558724365234375,0.0276140561778098,0.0138414783477783,0.0763052410453558,0.0217693727463483,-0.0079266354441642,-0.0103819286450743
1783205241499661600,6.56866162109375,0.0210932030417025,-0.0015466449201107,0.103740944981575,0.0163746066391468,-0.0069053131155669,-0.0085709793493151
1783205241509599500,6.578599609375,0.0164197313379496,-0.0064487377479672,0.0743237118393182,0.01617700047791,-0.0078749693930149,-0.0090183904394507
1783205241519536400,6.588536376953125,0.0224229903407394,0.0064902388021349,0.0346533802300691,0.0173318292945623,-0.0050293868407607,-0.0048958039842545
1783205241529473500,6.5984736328125,0.0295497734807431,0.0029667408511042,0.0162894560217857,0.0209049917757511,-0.0035300273448228,-0.0054809004068374
1783205241539410400,6.608410400390625,0.0259149241097271,0.006283025792241,0.0143196172535419,0.016437666490674,-0.0003267144784331,-0.0020940829999744
1783205241549348400,6.618348388671875,0.0202657392416149,0.0156464819431304,0.0063683659881353,0.0168592445552349,-0.0007562823593616,-0.002459202427417
1783205241559285500,6.628285400390625,0.0210842890828847,0.006644844841957,0.0021124621093273,0.015810364857316,-0.0059950491413474,0.0017589027993381
1783205241569222400,6.638222412109375,0.0178537096638232,-0.0015361235260963,0.0102057521939277,0.0085673667490482,-0.00821612495929,0.0031165825203061
1783205241579160600,6.64816064453125,0.0025915508631616,0.0026274258941411,0.029064181920886,0.0081085674464702,-0.0120759457349777,0.0065354532562196
1783205241589097500,6.658097412109375,0.0006450929705053,0.0087912092208862,0.0119663321256637,0.0131169082596898,-0.0098609942942857,0.0010418845340609
1783205241599034600,6.66803466796875,-0.0027536826223134,0.0165159582540392,-0.0033335283368825,0.015698567032814,-0.0071741808205842,-0.000201289076358
1783205241608971300,6.67797119140625,-0.0013419891934841,0.0154296243220567,-0.0036760581642389,0.0194187369197607,-0.0052742818370461,-0.0023677707649767
1783205241618909400,6.687909423828125,0.0065443801421672,0.0162467859238386,-0.0072545011729001,0.0250734277069568,-0.0016182945109903,-9.07678622752e-05
1783205241628846300,6.697846435546875,-0.0016273820061236,0.0203024910554289,-0.0082522800385951,0.0254582539200782,-0.0034132655709981,-0.0008154141250997
1783205241638783500,6.707783447265625,-0.0053927258890122,0.0262464941516518,-0.0236181914746761,0.0235685743391513,-0.0067980047315359,0.0006909978110343
1783205241648720400,6.717720458984375,-0.0035398645639419,0.024377485409379,-0.0207031808108091,0.0233952030539512,-0.0111765088513493,-0.0001968999858945
1783205241658658600,6.727658447265625,0.0061408408425748,0.0229290401667356,-0.0079553429186344,0.0238834880292415,-0.014115996658802,0.001658875728026
1783205241668595500,6.737595458984375,-0.0103276980731636,0.012137304778397,-0.006672901892662,0.0235692355781793,-0.013911198824644,-0.0013893786817789
1783205241678532400,6.747532470703125,-0.0120092944845557,0.0183610015988349,-0.0020557634860277,0.0252386778593063,-0.010808752849698,-0.0008536784444004
1783205241688470300,6.75747021484375,0.0102028295844793,0.0108460959240794,-0.0092535660356283,0.0321631617844104,-0.0109797269105911,-0.0040904842317104
1783205241698407400,6.767407470703125,0.017956220190227,0.0090212185844779,0.0239922854840755,0.0294597782194614,-0.0116966078057885,-0.0023319048341363
1783205241708344600,6.777344482421875,0.0186813195943832,0.0141509826883673,0.0477770656973123,0.0230482183396816,-0.0112225664779543,0.0001245948951691
1783205241718281500,6.787281494140625,0.0244010124154388,0.0096399350047111,0.0615975012570619,0.0171522796154022,-0.0097206607460975,0.0003055424895137
1783205241728219400,6.797219482421875,0.0330273864634335,0.0073503627628088,0.0830640676558017,0.0099763916805386,-0.0044726361520588,0.0027798856608569
1783205241738156500,6.807156494140625,0.0234727185893803,3.09796601533e-05,0.0968371569424867,0.0013399068266153,-0.0021110051311552,0.0019334584940224
1783205241748093400,6.817093505859375,0.0160935681235045,-0.0003606500059366,0.0935825390607118,-0.0043424805626273,-0.000430816784501,0.0045854346826672
1783205241758030300,6.8270302734375,0.0255761936746537,0.0061570613250136,0.0851145704448223,-0.0051332022994756,-0.0009936885908246,0.0041070124134421
1783205241767968500,6.836968505859375,0.021372019983083,0.0085591540306806,0.0661813219159841,-0.0059641078114509,0.0035928071010857,0.003009790321812
1783205241777905400,6.846905517578125,0.0243981628712266,0.0212763045236468,0.0374094009399414,-0.0064196251332759,0.007174699101597,0.0067591811530292
1783205241787842600,6.856842529296875,0.0009576660510152,0.0192655492231249,0.0415016386896371,-0.01161864772439,0.0124243218451738,0.005488587077707
1783205241797780500,6.866780517578125,-0.0163609138227999,0.0202148127719759,0.0023164602488279,-0.0086853262037038,0.0085028773173689,0.0044404407963156
1783205241807717600,6.876717529296875,-0.0400987130891531,0.0166983290836215,-0.045871524336934,-0.0051142927259206,0.0037272968329489,0.0018925943877547
1783205241817654300,6.886654296875,-0.0363018780894577,0.0389291578531265,-0.0828039554148912,0.0014496687799692,-0.0049087149091064,-0.0005024913698434
1783205241827591400,6.89659130859375,-0.0373588397964835,0.0488660299777984,-0.09192600402534,0.0087696332484483,-0.0088770911097526,-0.0033105283509939
1783205241837529300,6.906529296875,-0.0443573934469372,0.0463745054230093,-0.0805652365773916,0.0153307504951953,-0.0089820828288793,-0.0116498041898012
1783205241847466500,6.916466552734375,-0.0364821300271898,0.0562780597999691,-0.0647889907747507,0.0183694176375865,-0.0105658657848835,-0.0114897489547729
1783205241857403400,6.9264033203125,-0.0257410288475453,0.0494844541370868,-0.046291211053729,0.0248416494578123,-0.0085775200277566,-0.0163118466734886
1783205241867340500,6.936340576171875,-0.0132731769405305,0.0270271231353282,-0.0350824192970991,0.0257236883044242,-0.0129336519166827,-0.0198567807674407
1783205241877278200,6.9462783203125,0.0040949411634355,0.0140858084976673,-0.0064800096690654,0.0249540898948907,-0.0091296136379241,-0.0143025312572717
1783205241887215400,6.95621533203125,0.0122990712113678,0.0065717796057462,0.0329085823893547,0.0246853772550821,-0.0069221188314259,-0.0137438001111149
1783205241897152500,6.966152587890625,0.0320641674544662,0.0104594346940517,0.0562216534376144,0.0198187008500099,-0.0073033929802477,-0.0127356452867388
1783205241907089400,6.97608935546875,0.0490126719068735,-0.002980184854567,0.0776098939031362,0.0128955468535423,-0.003753665369004,-0.0100045725703239
1783205241917027600,6.986027587890625,0.0456256598170846,-0.0049304421395063,0.0820616126149892,0.0092055415734648,-0.0012455210089683,-0.0062964716926217
1783205241926964500,6.995964599609375,0.0496888906680047,-0.0088072835728526,0.0904629457354545,0.0049231778830289,0.0028653342742472,-0.0045555629767477
1783205241936901400,7.0059013671875,0.0383813147120177,-0.0100835871189832,0.0805430247455835,-8.92160460352e-05,0.0049392473883926,0.0009445403702557
1783205241946838300,7.01583837890625,0.021604221303761,-0.0144230776280164,0.0661783993065357,-0.0018959045410156,0.0041602728888392,0.0010420121252536
1783205241956776400,7.0257763671875,0.016035188999772,-0.0029646950244903,0.0276607448637485,-0.0058745546266436,0.004540357273072,-8.90067312866e-05
1783205241966713300,7.03571337890625,0.0071696724336594,0.0007835515931248,0.0227104289799928,-0.0044380454346537,0.0028921270277351,0.0010601470712572
1783205241976650500,7.045650390625,0.0102359281364828,9.41080242395e-05,-0.0047504093974828,-0.0018317187204957,0.0030424545984715,0.0006416351534426
1783205241986587600,7.055587646484375,-0.0049938627645373,0.0121121703371405,-0.0094932200103998,0.0020948462188243,0.0035676299594342,-0.0005269600078463
1783205241996525600,7.065525634765625,-0.0108903734572231,0.018791794231534,-0.0192301856487989,0.0064322887919843,0.0015124636702239,0.0001026976387947
1783205242006462200,7.075462158203125,-0.0088042148329317,0.0243558580994606,-0.020464695879817,0.0058799493126571,0.0005124467425048,-0.0012280838564038
1783205242016399400,7.0853994140625,-0.0076156626354902,0.0233002115666866,-0.0266214649438858,0.0066410927101969,-0.0028469506651163,-0.002136590424925
1783205242026338000,7.095338134765625,-0.0089566289156675,0.0270075416520237,-0.0169113873124122,0.0046543749049305,-0.0027665235102176,-0.0048721898347139
1783205242036276200,7.105276123046875,-0.0121918114446103,0.026246201890707,0.0061158525317907,0.0032914727926254,-0.000638959929347,-0.003735851496458
1783205242046213000,7.115213134765625,-0.0046281712573021,0.0214782568365335,0.0076280106604099,0.0070939343422651,-0.0016059535555541,-0.0028727210592478
1783205242056150000,7.12514990234375,-0.0180556619767099,0.0260299287915229,-0.0006400514692068,0.0063954447396099,0.0003155888989567,-0.0046769473701715
1783205242066087000,7.1350869140625,-0.0166665457058697,0.0353925081595778,0.0078618194162845,0.0092575438320636,-0.0013851057738065,-0.0085390638560056
1783205242076025000,7.145025146484375,-0.0011933014377951,0.0255929986789822,-0.0035270050823688,0.012172813527286,-0.0040488508529961,-0.0080997124314308
1783205242085962000,7.1549619140625,0.0017211247041821,0.030356559818983,0.0176455468058586,0.008345584385097,0.0008894489146769,-0.0054362844675779
1783205242095899100,7.164899169921875,-0.0132175012305378,0.0296092485830187,0.0431511594623327,0.0075402334332466,0.0055782971903681,-0.0118789011612534
1783205242105836000,7.1748359375,-0.0127427233256399,0.0260626620173454,0.047180853369832,0.00345547683537,0.0062086675316095,-0.007175225764513
1783205242115774200,7.184774169921875,-0.0112642482709139,0.0180249015122652,0.0300070157289505,-0.0010930756106972,0.0032936583738774,-0.0084682805463671
1783205242125710800,7.1947109375,0.0022456600349396,0.0257785843789577,0.0235977332085371,-0.0001955907791852,0.000136480666697,-0.007566001266241
1783205242135648000,7.20464794921875,0.0007446808874607,0.0078676646351814,0.0274240134984254,-0.0036382200196385,0.0037989583797752,-0.0095172356814146
1783205242145585200,7.214585205078125,-0.002889730092138,0.0126969844877719,0.0371329220861196,-0.0043452894315123,0.0063159116543829,-0.0100301606580615
1783205242155523000,7.224523193359375,0.0154815006397664,0.0125046767860651,0.0180424371689558,-0.0033338041976094,0.006841268390417,-0.0115999290719628
1783205242165460200,7.234460205078125,0.0155571231592446,0.0059895958036184,0.0034042554855346,-0.0051420899108052,0.0067017185501754,-0.0077732326462864
1783205242175397000,7.244397216796875,0.0176337833028286,0.0033653847798705,-0.0139051912337541,-0.0017540520057082,0.0048730955459177,-0.006609228439629
1783205242185334000,7.254333984375,0.0165313750188797,-0.0126332716017961,-0.018392565780878,-0.0006006369367241,0.0041202194988727,-0.0071844714693725
1783205242195271000,7.26427099609375,0.0101854400582611,-0.0073392568469047,-0.0272013106584548,0.0018027834594249,0.0046997340396046,-0.0056709619238972
1783205242205209000,7.274208984375,0.0087353143151849,-0.0083425886705517,-0.0286883343458175,0.0043554231524467,0.0033449842594563,-0.0075096078217029
1783205242215146000,7.28414599609375,0.0144141636691987,-0.01036941832304,-0.0387859499901533,0.0093118324875831,0.0028722730930894,-0.0088222799822688
1783205242225083100,7.294083251953125,0.0222794902168214,-0.0065790861293673,-0.0368447527945041,0.0098047833889722,0.0029519016388803,-0.0082883164286613
1783205242235020300,7.304020263671875,0.0136475632108747,-0.0113750882342457,-0.0205675717324018,0.0097119621932506,0.001394897699356,-0.0052513820119202
1783205242244958200,7.313958251953125,0.0032458500534296,-0.0108203769609332,-0.0168903445243835,0.0131948450580239,0.0002201772294938,-0.0075156018137931
1783205242254894800,7.323894775390625,0.0124370183773338,-0.0181990890353918,-0.0036234511941671,0.0102312583476305,-0.0020298436284065,-0.0069903251715004
1783205242264832000,7.33383203125,0.0261317817308008,-0.0200341955080628,-0.0067459671288728,0.0093388324603438,-0.0001911972649395,-0.0049175866879522
1783205242274769200,7.34376904296875,0.0351410906817764,-0.0319002821296453,0.0186076698362827,0.008331318385899,0.00487877195701,0.0003108303062617
1783205242284706000,7.3537060546875,0.033393224101141,-0.0296790989488363,0.041848844692111,0.0018206890672445,0.0063301944173872,0.0027153983246535
1783205242294644200,7.363644287109375,0.0429641855228692,-0.031936230225861,0.0425777434885501,0.0013444423675537,0.0002168891951441,0.005378860514611
1783205242304581000,7.3735810546875,0.044126507300511,-0.0087643212139606,0.0435655854821205,-0.0051419530063867,0.0006589740514755,0.0090439021587371
1783205242314518000,7.38351806640625,0.0098494861021637,0.0212955937460064,0.0720598585605621,-0.0127018578350543,0.0030030342750251,0.0071159396320581
1783205242324455000,7.393454833984375,0.0026147125430405,0.0180658180445432,0.0836117646664381,-0.0154345259070396,0.0072683533653616,0.0037390512879937
1783205242334393000,7.40339306640625,0.0144502578958868,0.0060433718174695,0.0610223317176103,-0.012130482122302,0.0089082336053252,0.0041536735370755
1783205242344330000,7.413330078125,0.0207770497646182,0.0217623344749212,0.0383469740509986,-0.0140586104243993,0.0112057421356439,0.0051451683975756
1783205242354267100,7.42326708984375,0.0100800069224089,0.0217591196045279,0.0520166029632091,-0.0135072721168398,0.0130447298288345,0.0047787837684154
1783205242364204300,7.433204345703125,0.0048893794767558,0.0018099720314145,0.0359025035083293,-0.0201467983424663,0.0111094107851386,0.0050432356074452
1783205242374141000,7.443140869140625,-0.0080430212020874,0.0013990531429648,0.0300403334766626,-0.02577356249094,0.0077645909041166,0.0035125503782182
1783205242384079000,7.4530791015625,-0.0148553315654397,0.0040647652208805,0.0150666362285614,-0.0261828899383544,0.0068207662552595,0.0044233510270714
1783205242394016000,7.46301611328125,-0.0131963123120367,0.01434182908535,-0.0064431847900152,-0.0262488294392824,0.0071530612185597,0.0028885384090244
1783205242403953200,7.472953125,-0.0123354576990008,0.0101432083517313,0.0191799167662858,-0.0240953955799341,0.0142850065603852,0.0038560647517442
1783205242413890000,7.48289013671875,0.0026435002461075,0.0067933134019374,0.0175695589601993,-0.0272191558033227,0.0157672055065631,0.0012010266073048
1783205242423828200,7.492828125,0.0010827537354081,-0.0159025025308132,0.0104623573035001,-0.0262492317706346,0.0117090800777077,0.0014420426450669
1783205242433765000,7.50276513671875,-0.0119703507136553,-0.0152986914187669,-0.0135907184571027,-0.0295771546661853,0.0074292244389653,0.0040943850763142
1783205242443702000,7.512701904296875,-0.0040350276697427,-0.0116901455327868,-0.0509223779857158,-0.0245565623044967,0.0039226403459906,0.0021742456592619
1783205242453639000,7.522638916015625,0.0095491879813373,0.000177110132575,-0.0676478873372078,-0.0197225864976644,0.0013020681217312,0.0016304915770888
1783205242463576000,7.532576171875,-0.0041935061670839,0.0087663670405745,-0.0737193162053823,-0.0147571228444576,0.0071841916069388,-0.0016507891705259
1783205242473514000,7.542513916015625,-0.0240405816052109,0.0077764792203903,-0.0903629924923181,-0.0006250236183404,0.0054488303139805,-0.0065082255750894
1783205242483451100,7.552451171875,-0.0191121852923184,0.0001250876843929,-0.1197024842232465,0.0090161524713039,0.0021840608678758,-0.0090771112591028
1783205242493388300,7.56238818359375,-0.0230260708004236,-0.0108078097403049,-0.1500876856148242,0.0208971761167049,-0.0038379961624741,-0.0095781842246651
1783205242503325000,7.572324951171875,-0.0185470256902277,-0.0142830846354365,-0.1484627147614955,0.0268546678125858,-0.0130607895553112,-0.0099089490249753
1783205242513262000,7.582261962890625,-0.0061095689214766,-0.0217176185503602,-0.1124707794040441,0.0278401747345924,-0.018254667520523,-0.0116976629942655
1783205242523200000,7.592199951171875,0.0079570234190672,-0.0265413854449987,-0.0654968467831611,0.0276910364627838,-0.0180535987019538,-0.0104062957689166
1783205242533137200,7.60213720703125,0.0295942702095955,-0.0448316598951816,-0.0127256260603666,0.0253495033830404,-0.0143631361424922,-0.0052827135659754
1783205242543074000,7.612073974609375,0.0421828258868306,-0.0474786672726273,0.0331909064620733,0.0256136879324913,-0.0131735019385814,-0.0055468990467488
1783205242553011200,7.62201123046875,0.0571286122146993,-0.0491872247561812,0.0598848521202802,0.0223075915127992,-0.0113976765424013,-0.0015623369254171
1783205242562948000,7.631947998046875,0.0720184305716306,-0.0560477581754326,0.0830880330532789,0.0172915272414684,-0.0092317275702953,0.0049144709482789
1783205242572886000,7.641885986328125,0.0647230128664523,-0.062270578213036,0.113425888171792,0.0085335057228803,-0.0020436197519302,0.0157456062734127
1783205242582823000,7.651822998046875,0.0498832441963255,-0.0552139376997947,0.1079635311126708,0.0026684254407882,-0.0003373324871063,0.0185848027467727
1783205242592760000,7.661760009765625,0.0494241753172129,-0.0268403683915734,0.0806897397398948,-0.0029305638745427,-0.0045225666835904,0.0214073900133371
1783205242602697200,7.671697265625,0.036107889887318,-0.0079588500499725,0.0749023885101079,-0.0083634117618203,-0.0047827577218413,0.0220936853438615
1783205242612634000,7.681634033203125,0.01635126921162,0.016898820091784,0.0835293470799923,-0.0121178375557065,0.0012412746436893,0.0190461967140436
1783205242622572300,7.691572265625,-0.0022309739224612,0.0192968211442232,0.0588987636923789,-0.0159985944628715,0.005509256850928,0.0182376615703105
1783205242632509000,7.701509033203125,-0.00138005618155,0.0334486806154251,0.0283177474677562,-0.0152486627921462,0.0008865040726959,0.0169428288936615
1783205242642446000,7.711446044921875,-0.0173103235021233,0.0228451612755656,0.0139957921266555,-0.0196258313953876,-0.0001326878555119,0.0143209462985396
1783205242652383000,7.721383056640625,-0.0238962046984583,0.026844752305746,0.0162444478362798,-0.0214203707873821,-0.0051638931035995,0.0112282522022724
1783205242662320000,7.731320068359375,-0.0163026077643036,0.0436073787972331,0.0001350245565176,-0.0179079286754131,-0.0051569687202572,0.0067203189246356
1783205242672258000,7.741258056640625,0.0011756196506321,0.0559866756379604,-0.0176087219268083,-0.0157713871449232,-0.0052078356966376,0.0027431834023445
1783205242682195200,7.7511953125,0.0246999222967773,0.047788756135106,-0.0085953943878412,-0.0188955403864383,-0.0007257359102368,0.0008968135807663
1783205242692132000,7.761132080078125,0.0158517952568829,0.0247451496779918,0.0171586400717496,-0.0200009644031524,-0.0014333762228488,0.0043481779284775
1783205242702069000,7.771069091796875,0.0184191615268588,0.0050341947749257,-0.0149748662918806,-0.0216883420944213,-0.0021742675453424,0.0065362309105694
1783205242712006100,7.781006103515625,0.0088659549575299,-0.0158557407796382,-0.0421469508558511,-0.0187781900167465,-0.0080993473529815,0.0137685965746641
1783205242721944000,7.790944091796875,-0.0175512195859104,-0.0325844650015234,-0.0592868862271308,-0.018978726118803,-0.0101973861455917,0.0156027153134346
1783205242731881200,7.800881103515625,-0.0430786787480115,-0.0099947397917509,-0.0394008670181035,-0.0149882500991225,-0.0103351827710866,0.0120602855458855
1783205242741818000,7.810818115234375,-0.0452684438772499,0.0179962599396705,-0.0327110139906406,-0.0068482989445328,-0.0080203618854284,0.0109619982540607
1783205242751755000,7.820755126953125,-0.0341280411817133,0.0363064081341028,-0.027363223221898,0.002523343078792,-0.0089305629953742,0.0052728410810232
1783205242761692200,7.830692138671875,-0.021232026990503,0.0472337526008486,-0.0013736264407634,0.0020439736545085,-0.0071371905505657,-0.000113402493298
1783205242771630000,7.840630126953125,-0.0018771920487284,0.0409267614111304,0.0262023627489805,-0.0016862889751791,-0.0073363524861633,-0.0021376651711761
1783205242781567000,7.85056689453125,-0.0097159228503704,0.0291106514111161,0.0521814381361007,-0.0128305526450276,-0.0045307124964892,-0.001481462502852
1783205242791504100,7.860504150390625,-0.0044165743332356,-0.0037526305317878,0.0905155527055263,-0.0250969342887401,-0.0109768509864807,0.0008152234368026
