time,seconds_elapsed,ax,ay,az,gx,gy,gz
1783204464507329000,0.0943291015625,0.2415612696975469,-0.1648545351792126,0.9747013569682836,-0.1207235902547836,0.3318641483783722,0.0259428657591342
1783204464517267000,0.104266845703125,0.2718687296777963,-0.1358383571185171,1.0864449911415577,-0.1755612641572952,0.4310151636600494,0.044250339269638
1783204464527204000,0.1142041015625,0.2471919690608978,-0.1754216680314392,1.0743138238430023,-0.2076552957296371,0.5322582125663757,0.0592966675758361
1783204464537142000,0.12414208984375,0.2003244194239377,-0.1529636794425547,0.945524362322688,-0.2144027650356292,0.6245186924934387,0.06674525141716
1783204464547079000,0.134078857421875,0.2048299141496419,-0.0653694210112094,0.8732149129152298,-0.204294741153717,0.7227925658226013,0.0652655959129333
1783204464557016800,0.144016845703125,0.2417360417425632,-0.0165189539287239,0.8996972616493701,-0.1782467514276504,0.8382667303085327,0.0691819265484809
1783204464566954000,0.1539541015625,0.3185907333642244,-0.0338509778060019,0.9838064544439316,-0.1682947874069214,0.9901273250579834,0.0827789679169654
1783204464576892000,0.163891845703125,0.4226858986109495,-0.0172779556024819,1.151812658587098,-0.1734774708747863,1.1240079402923584,0.1076211929321289
1783204464586829000,0.1738291015625,0.5047182851314544,-0.1176869066171348,1.2671394119441508,-0.1983870863914489,1.246722936630249,0.1596215516328811
1783204464596767000,0.18376708984375,0.5991963117271661,-0.2913987750560045,1.4071335735678672,-0.2576958537101745,1.3870620727539062,0.2402289360761642
1783204464606703900,0.193703857421875,0.6824696382194757,-0.4303877051599323,1.6677204462528228,-0.361298143863678,1.5568695068359375,0.3427135050296783
1783204464616642000,0.20364208984375,0.8090186273366212,-0.4734905685011297,1.9089456158638,-0.4789278507232666,1.7451133728027344,0.4445960223674774
1783204464626580000,0.213580078125,0.9500596676647662,-0.4623465856090187,2.049669260805845,-0.5995022058486938,1.9627413749694824,0.5624797940254211
1783204464636517000,0.22351708984375,1.0944722302526235,-0.4446016700819134,2.221695806506276,-0.7104997038841248,2.2295403480529785,0.6822368502616882
1783204464646455000,0.233455078125,1.2927636825442312,-0.4499995836026966,2.369591535034776,-0.8120385408401489,2.51786470413208,0.8251498341560364
1783204464656392000,0.243391845703125,1.4660656550079585,-0.5051536078087985,2.379777998006344,-0.919001042842865,2.789448499679565,0.9660738110542296
1783204464666329900,0.253329833984375,1.4834160182595253,-0.445016388362646,2.344129761520028,-1.0308862924575806,3.023722887039185,1.1062657833099363
1783204464676267000,0.26326708984375,1.5426643260419368,-0.4038083257921039,2.175767583546042,-1.13008713722229,3.188516855239868,1.2250720262527466
1783204464686205000,0.273204833984375,1.543244171756506,-0.3704623748987913,1.6990806301563977,-1.2038049697875977,3.246420383453369,1.325731873512268
1783204464696142000,0.28314208984375,1.423538764923811,-0.3561018411129713,0.9907184257894752,-1.2622100114822388,3.1747500896453857,1.4126596450805664
1783204464706080000,0.293080078125,1.122618128284812,-0.3597216390453279,0.2444903088867664,-1.3049547672271729,2.983364582061768,1.463851809501648
1783204464716017000,0.303016845703125,0.8138789268493651,-0.3455541436135769,-0.4782148936092853,-1.3246681690216064,2.684635639190674,1.4788963794708252
1783204464725955000,0.312955078125,0.4583972634613513,-0.2586094351321458,-1.0290198071330785,-1.3342962265014648,2.34777307510376,1.4671993255615234
1783204464735893000,0.32289306640625,0.1505646554768085,-0.1704793893236666,-1.36277829901278,-1.3173906803131104,2.030287027359009,1.428139090538025
1783204464745830100,0.332830078125,-0.1211336860701441,-0.1531080563493073,-1.6644833640277386,-1.2582772970199585,1.7391860485076904,1.3743301630020142
1783204464755768000,0.34276806640625,-0.3958119202107191,-0.1298091599568724,-1.9651590859949588,-1.162502646446228,1.4656203985214231,1.3087657690048218
1783204464765705000,0.352705078125,-0.6458434966117144,-0.095303663764894,-2.1882295902341604,-1.0392205715179443,1.2130764722824097,1.232084035873413
1783204464775643000,0.362642822265625,-0.8566682672619819,-0.0483715244591236,-2.3494699535042045,-0.9048028588294984,0.9751408100128174,1.136019587516785
1783204464785580000,0.372580078125,-1.0043658428698778,0.0582261251278221,-2.453559273532033,-0.7697670459747314,0.7590218186378479,1.0134236812591553
1783204464795518000,0.38251806640625,-1.1220654628381133,0.2375650396682322,-2.443333063071966,-0.6411844491958618,0.5683145523071289,0.8516530990600586
1783204464805454800,0.392454833984375,-1.1827528635129332,0.4503216551639139,-2.3395202218979594,-0.5392668843269348,0.4138799905776977,0.6631268262863159
1783204464815393000,0.40239306640625,-1.1575593855455515,0.6278644800677895,-2.1656074240595102,-0.4584715664386749,0.2964002192020416,0.4753674566745758
1783204464825331000,0.4123310546875,-1.0671700895681977,0.7565943203553557,-1.9598849449843168,-0.3927900195121765,0.2134020030498504,0.2968826591968536
1783204464835268000,0.42226806640625,-0.8936649957478046,0.8129621042653917,-1.7349375409573315,-0.3505577445030212,0.1480542570352554,0.1405951678752899
1783204464845206000,0.4322060546875,-0.6669137571692466,0.8368196574538945,-1.5355477720350026,-0.3237668871879577,0.0996712744235992,0.0268363766372203
1783204464855143200,0.44214306640625,-0.3848836989611387,0.8216410852834581,-1.3867133013516664,-0.3004093766212463,0.0554537437856197,-0.0501414984464645
1783204464865081000,0.4520810546875,-0.0844739344537258,0.775002229835838,-1.2630962740331888,-0.2849552929401397,0.0137414503842592,-0.0899962335824966
1783204464875018000,0.46201806640625,0.1487719268411398,0.7343249131411314,-1.1523486651599406,-0.2741315364837646,-0.0168127808719873,-0.1003549471497535
1783204464884956000,0.471955810546875,0.3408300377011299,0.7146002219736576,-1.0541507412582636,-0.2570306062698364,-0.0467855930328369,-0.0848585441708564
1783204464894893000,0.48189306640625,0.4919266080975532,0.6980503614500164,-0.9587035773694514,-0.2300523668527603,-0.0669104754924774,-0.0430036969482898
1783204464904831000,0.4918310546875,0.5714768224135041,0.6629683805443346,-0.9009352790117264,-0.1966262310743332,-0.0849927961826324,0.0076565546914935
1783204464914769000,0.501768798828125,0.5829875197261571,0.6474269664108753,-0.8517769880890845,-0.1567441821098327,-0.0972550809383392,0.0657158195972442
1783204464924706000,0.5117060546875,0.5180804555296897,0.6649702218860387,-0.8207417983561753,-0.0972315892577171,-0.0913524478673935,0.1230310425162315
1783204464934644000,0.52164404296875,0.4009025213479995,0.6636281596273184,-0.8119441593945026,-0.0332625545561313,-0.0825853049755096,0.1708307713270187
1783204464944581000,0.5315810546875,0.257674784630537,0.6556818767979741,-0.7833382426351309,0.0363237150013446,-0.0750448331236839,0.2103089392185211
1783204464954519000,0.54151904296875,0.1422007317572832,0.6486050702795386,-0.7904559656858444,0.1102479621767997,-0.073471613228321,0.2314638346433639
1783204464964456200,0.551456298828125,-0.0342108971595764,0.6690564682863652,-0.7325415368556976,0.1734743267297744,-0.0756173282861709,0.2405257821083068
1783204464974394000,0.56139404296875,-0.2224520800799131,0.7078124615296721,-0.6167354755491018,0.2210443466901779,-0.073086142539978,0.2295159995555877
1783204464984332000,0.57133203125,-0.3861506501570343,0.7263932433590292,-0.5163625456959009,0.2595126330852508,-0.074323184788227,0.2016702443361282
1783204464994269000,0.58126904296875,-0.5078343713253736,0.74035615612939,-0.413447530144453,0.2805790901184082,-0.0777004808187484,0.163615345954895
1783204465004206800,0.591206787109375,-0.590848754620552,0.7382045310534536,-0.2953776155591011,0.2877238094806671,-0.089613601565361,0.1131811887025833
1783204465014144000,0.60114404296875,-0.6297665142968296,0.7279369656696916,-0.1679559352606535,0.2761222124099731,-0.101595290005207,0.0480291247367858
1783204465024082000,0.61108203125,-0.6636801820755005,0.7217232057213783,-0.0522100797086954,0.2545109093189239,-0.1179098188877105,-0.0231790076941251
1783204465034019000,0.62101904296875,-0.6722554104581475,0.6607507044948637,0.0608300240159034,0.2243164032697677,-0.1193313151597976,-0.0903856754302978
1783204465043957000,0.63095703125,-0.6463049766436219,0.5684799786850809,0.1508726985126733,0.1982629746198654,-0.1106126606464386,-0.1530173569917678
1783204465053895000,0.64089501953125,-0.5796347021669149,0.4745508181437849,0.1979717188179492,0.1785953938961029,-0.1042110845446586,-0.2058250904083252
1783204465063832000,0.65083203125,-0.4949532624423504,0.3888941036462783,0.2463654551088809,0.1604757905006408,-0.098952941596508,-0.2533798217773437
1783204465073770000,0.66077001953125,-0.376980963012576,0.2881152233406901,0.2699573430985212,0.1365420073270797,-0.0902445912361145,-0.2872315645217895
1783204465083707000,0.670706787109375,-0.2843748677685856,0.1762504470057785,0.3032832741171121,0.1139807850122451,-0.0831848159432411,-0.3078979551792145
1783204465093644800,0.680644775390625,-0.2112120164021849,0.0537190229669213,0.3070943568378687,0.097708448767662,-0.0740554854273796,-0.3139603734016418
1783204465103582000,0.69058203125,-0.1393096864908933,-0.0393830391004681,0.2895592846691608,0.0759733244776725,-0.0726663768291473,-0.3138879537582397
1783204465113519900,0.700519775390625,-0.0679658672451972,-0.1264087038636207,0.2755406961888074,0.066358745098114,-0.0806254670023918,-0.3082405626773834
1783204465123457800,0.710457763671875,0.0144473352864384,-0.1771089635312557,0.2581108379602432,0.056843277066946,-0.0795404911041259,-0.2973903119564056
1783204465133395000,0.72039501953125,0.0594426613107323,-0.224792797987163,0.2914315082818269,0.0554748363792896,-0.0632828921079635,-0.2789026200771332
1783204465143332900,0.730332763671875,0.1145692129880189,-0.2908203906461596,0.336842429369688,0.0572032295167446,-0.0328991562128067,-0.2549623847007751
1783204465153270000,0.74027001953125,0.1618602487340569,-0.3360948258727789,0.3584638940691947,0.0696604922413826,0.0092055350542068,-0.2378122210502624
1783204465163208000,0.7502080078125,0.1960170776188373,-0.3557311081044376,0.369095762720704,0.0746696293354034,0.0577877201139926,-0.2183655500411987
1783204465173146000,0.76014599609375,0.2224623092129826,-0.3700212070025503,0.3576952477842569,0.0793963894248008,0.096340924501419,-0.1957836896181106
1783204465183083000,0.7700830078125,0.2657575533211231,-0.3671969433620571,0.3388391561448574,0.0781071558594703,0.1242082417011261,-0.1780739426612854
1783204465193021200,0.780021240234375,0.3009869798734784,-0.322307561930269,0.2975362548977136,0.0687445104122161,0.1425055116415023,-0.1654142439365387
1783204465202957800,0.789957763671875,0.3244511498302221,-0.2684324716188013,0.2447299628615379,0.0583528615534305,0.1555949598550796,-0.15285424888134
1783204465212895700,0.799895751953125,0.3530938914686441,-0.231437935090065,0.198317171254754,0.0445170029997825,0.1689264178276062,-0.1451019495725631
1783204465222834000,0.809833984375,0.3577203822255134,-0.2013248286381364,0.1375122816801071,0.031299203634262,0.1821013391017913,-0.1441107243299484
1783204465232770800,0.819770751953125,0.3363102221891283,-0.2595208508886397,0.0434177014440298,-0.0062951175495982,0.1632488816976547,-0.1240961551666259
1783204465242709000,0.829708984375,0.2868450572744012,-0.3915247444108128,-0.0868541075885295,-0.041116215288639,0.1156302243471145,-0.0941915214061737
1783204465252645600,0.839645751953125,0.2337050032392144,-0.494285300052911,-0.217547356903553,-0.077231228351593,0.0515612512826919,-0.0636177286505699
1783204465262583800,0.849583740234375,0.1774298660486936,-0.4765808626666665,-0.3153063048660754,-0.1089944839477539,-0.0247732028365135,-0.0345272235572338
1783204465272520700,0.859520751953125,0.1258265200614929,-0.4427624719560146,-0.372978741633892,-0.1152649819850921,-0.0907240435481071,-0.0125680016353726
1783204465282459000,0.869458984375,0.0832514069214463,-0.3853375802084803,-0.3695364922255277,-0.1087711304426193,-0.122941106557846,0.007166021503508
1783204465292396800,0.879396728515625,0.0354702495709061,-0.3519534892618656,-0.316260244590044,-0.0800380930304527,-0.1294445842504501,0.0245376210659742
1783204465302334000,0.889333984375,0.0102297175914049,-0.3532331538088619,-0.2435930677860975,-0.0451983511447906,-0.1226292923092842,0.0369181223213672
1783204465312272000,0.89927197265625,-0.0012295417949557,-0.3370909973032772,-0.1811070932567119,-0.0093382410705089,-0.1022454425692558,0.0387961715459823
1783204465322208800,0.909208740234375,-0.0223027249619364,-0.3239033066891134,-0.1197422317117452,0.0216753333806991,-0.0880164355039596,0.0396904610097408
1783204465332147000,0.91914697265625,-0.0143584879592061,-0.3257332985952496,-0.0389496161192655,0.0436419993638992,-0.0817654505372047,0.0374896712601184
1783204465342084900,0.9290849609375,0.0164490304976701,-0.3226297796219587,0.0503232430487871,0.0516661033034324,-0.0834485664963722,0.0391339063644409
1783204465352022000,0.93902197265625,0.059383624599874,-0.3258867355912924,0.1847878275960683,0.0407363064587116,-0.0931546837091445,0.0417519323527812
1783204465361960000,0.9489599609375,0.0904506707757711,-0.3402924236930906,0.3196709298163652,0.0190523173660039,-0.0946990475058555,0.0491376779973506
1783204465371896800,0.958896728515625,0.1223062369808554,-0.3403976376332342,0.4564414532184601,-0.0169365312904119,-0.0751958414912223,0.0670961365103721
1783204465381834800,0.968834716796875,0.1329448276340961,-0.3737368665248155,0.5803799675762653,-0.061036616563797,-0.0503567978739738,0.0803940966725349
1783204465391772700,0.978772705078125,0.133690969826281,-0.3674807287395,0.6491670880764723,-0.1058553978800773,-0.0230563040822744,0.109700784087181
1783204465401709800,0.988709716796875,0.1242281449541449,-0.3985058354698121,0.6148422091484069,-0.1501621454954147,-0.0186937805265188,0.1420328766107559
1783204465411647700,0.998647705078125,0.0878530554980039,-0.4038609327621758,0.5183347225517034,-0.1751378029584884,-0.0154115501791238,0.1677469909191131
1783204465421585000,1.0085849609375,0.0300616685256361,-0.3059942866414785,0.3889075476497411,-0.1907710880041122,-0.0144256483763456,0.1864642202854156
1783204465431522800,1.018522705078125,-0.032279344575107,-0.2486123572528362,0.294721197476983,-0.2001921087503433,-0.0219893399626016,0.2011354267597198
1783204465441460700,1.028460693359375,-0.0553282117292284,-0.1570886504180729,0.1901496468901634,-0.1940564513206482,-0.0377912074327468,0.2062854468822479
1783204465451398000,1.03839794921875,-0.078415949589014,-0.0547771537177264,0.1301636724829673,-0.1836227476596832,-0.0271377675235271,0.2088332325220108
1783204465461335800,1.048335693359375,-0.1073293248623609,0.0515682746738195,0.1411485923558473,-0.1733445525169372,-0.005757643841207,0.2023218125104904
1783204465471274000,1.05827392578125,-0.1154290446877479,0.1620303446039557,0.1316939507901668,-0.1631023287773132,0.0192858427762985,0.1893743574619293
1783204465481211000,1.0682109375,-0.1170323882311582,0.2411369068056345,0.1138058274000883,-0.1567062139511108,0.0501116625964641,0.1671542674303054
1783204465491149000,1.078149169921875,-0.1140466504186391,0.2913210336446762,0.078600658506155,-0.1600339114665985,0.0771092176437377,0.1547929793596267
1783204465501085700,1.088085693359375,-0.114677349537611,0.3252385008156299,-0.0151543145120143,-0.1712341010570526,0.0841351747512817,0.1385495513677597
1783204465511023900,1.09802392578125,-0.1250908992633223,0.3500453175529837,-0.1320078390449285,-0.1871158927679062,0.0780790597200393,0.1254258006811142
1783204465520961800,1.1079619140625,-0.1375745332613587,0.3983706647828221,-0.2378659223109483,-0.1979296654462814,0.0631054416298866,0.1064848601818084
1783204465530898700,1.117898681640625,-0.151889766600728,0.4504290610611438,-0.3596200783669948,-0.2028435468673706,0.0427535139024257,0.0875240862369537
1783204465540836900,1.1278369140625,-0.1581631477817893,0.4887798345044254,-0.4856669631808996,-0.1912630498409271,0.0173102058470249,0.0660089403390884
1783204465550773800,1.137773681640625,-0.1697694144234061,0.4964448161743581,-0.5852683241397142,-0.1698863953351974,-0.0026113814674317,0.0463940538465976
1783204465560712000,1.1477119140625,-0.1790375935062766,0.5064112066544592,-0.6286369257450103,-0.1384379267692566,-0.014954600483179,0.0219100154936313
1783204465570649900,1.15764990234375,-0.1951712744444608,0.5255632125005125,-0.643434681904316,-0.0968374833464622,-0.0268248785287141,0.000712965382263
1783204465580587000,1.1675869140625,-0.1918923989042639,0.5239790120489896,-0.6291454597890377,-0.0535757578909397,-0.033122718334198,-0.0189883019775152
1783204465590525000,1.17752490234375,-0.1680772235527634,0.4967486214265227,-0.5903460657954216,-0.0141893234103918,-0.0371568202972412,-0.0309071522206068
1783204465600462800,1.187462890625,-0.1238669104263186,0.4569505717843771,-0.5190881712675094,0.0206189900636672,-0.0388908013701438,-0.029269041493535
1783204465610399700,1.197399658203125,-0.0849330763980746,0.407702410621196,-0.4400578891724347,0.0504823289811611,-0.0390961728990078,-0.0244241040199995
1783204465620337700,1.207337646484375,-0.0677075085699558,0.3863707226485013,-0.3274368876427412,0.0689098089933395,-0.0272941067814826,-0.0168830975890159
1783204465630274800,1.21727490234375,-0.0707949531912803,0.3819114051520824,-0.2277069318681955,0.0786945819854736,-0.0149210533127188,-0.0174180679023265
1783204465640212700,1.227212646484375,-0.1119353573530912,0.3632422143869102,-0.167591193601489,0.0811002179980278,-0.0122909164056181,-0.0266065057367086
1783204465650150700,1.237150634765625,-0.153797646048665,0.3403893081963062,-0.1470142695188522,0.0787432044744491,-0.020084673538804,-0.0405604504048824
1783204465660087800,1.247087890625,-0.1846849517434835,0.3052387920990586,-0.1307347503691911,0.0721361711621284,-0.0270171463489532,-0.0530978143215179
1783204465670025700,1.257025634765625,-0.2121905060455202,0.2459209262117743,-0.1152455048143863,0.0636216700077056,-0.0458841770887374,-0.0676640793681144
1783204465679964000,1.2669638671875,-0.2206456151798367,0.1910484954260289,-0.1017459717720747,0.0574873425066471,-0.0616141334176063,-0.0787697285413742
1783204465689900800,1.27690087890625,-0.219857971933484,0.1509858034983277,-0.0782639738976955,0.0550553984940052,-0.0703923255205154,-0.091102510690689
1783204465699839000,1.2868388671875,-0.2333063593104481,0.1076151560664177,-0.0173982940465211,0.0535467155277729,-0.0661693513393402,-0.1033261567354202
1783204465709776000,1.29677587890625,-0.2109343685045838,0.0416087523259222,0.0212637373030185,0.0587370656430721,-0.0606677792966365,-0.1150394976139068
1783204465719714000,1.306714111328125,-0.1674076537281274,-0.0007521335415542,0.0657142889261245,0.0600212402641773,-0.0552120245993137,-0.122351735830307
1783204465729652000,1.31665185546875,-0.0988704163357615,-0.0338796193785965,0.08875555729568,0.058891162276268,-0.0531810745596885,-0.1259013563394546
1783204465739588900,1.3265888671875,-0.0246110019043087,-0.0802059017457068,0.1183399636983871,0.0597060918807983,-0.0535070449113845,-0.1162990629673004
1783204465749526800,1.33652685546875,0.0378799410611391,-0.1238997897826135,0.1603477983444929,0.0608216859400272,-0.0486525222659111,-0.1064812615513801
1783204465759464700,1.346464599609375,0.0814805978566408,-0.133862527000904,0.2072679549515247,0.0569558404386043,-0.0341385602951049,-0.0904602110385894
1783204465769401900,1.35640185546875,0.1066594627767801,-0.1267167468994856,0.2533715344786644,0.0559960007667541,-0.0121269272640347,-0.0680993422865867
1783204465779339800,1.36633984375,0.1208633446961641,-0.1239861528918147,0.3069803750693798,0.0526087246835231,0.0148948365822434,-0.0438808239996433
1783204465789277000,1.37627685546875,0.1068599537849426,-0.1168447567045688,0.3272176919341087,0.0408625490963459,0.0308233462274074,-0.0265455562621355
1783204465799214800,1.38621484375,0.0704939244180917,-0.0899430135145783,0.3090051588952541,0.0229187048971653,0.0415628105401992,-0.013695003464818
1783204465809152800,1.39615283203125,0.0215340786769986,-0.0670928838029503,0.2775152111321687,3.39988619089e-05,0.0454082787036895,-0.0078282225877046
1783204465819090000,1.40608984375,-0.0261886264845728,-0.0285685073584318,0.2320259641110897,-0.0164525657892227,0.0478967353701591,-0.020004728808999
1783204465829027800,1.41602783203125,-0.0952244610488414,0.0318026669740676,0.1706137562930584,-0.0344769358634948,0.0543018169701099,-0.0352028757333755
1783204465838966000,1.425966064453125,-0.1387716340914368,0.0505249031007289,0.1091425117641687,-0.0449034795165061,0.0477235428988933,-0.0604437887668609
1783204465848903000,1.43590283203125,-0.1353784845218062,0.0733894997291266,0.0192471367835998,-0.0497345775365829,0.0473201721906662,-0.0893119052052497
1783204465858840800,1.4458408203125,-0.1340706167936325,0.0651820817455649,-0.0486918424546718,-0.050023004412651,0.0473321564495563,-0.1117008402943611
1783204465868779000,1.455779052734375,-0.098768709526956,0.0208475577175617,-0.1127367368638515,-0.0504332520067691,0.0377666354179382,-0.1345211565494537
1783204465878715600,1.465715576171875,-0.0299880187675356,0.0161496091596782,-0.1706400597780943,-0.0587537698447704,0.0245240703225135,-0.1570557653903961
1783204465888653800,1.47565380859375,0.0394517204225063,-0.0265703192785382,-0.2158557505548,-0.062297947704792,0.0035339375026524,-0.1647652834653854
1783204465898591700,1.485591796875,0.1198623509600758,-0.0936599882110953,-0.2507978845983744,-0.0684314742684364,-0.0181412640959024,-0.1678225994110107
1783204465908529000,1.49552880859375,0.1955363083645701,-0.1210512684836983,-0.2541442724168301,-0.0762462317943573,-0.0421511754393577,-0.166543498635292
1783204465918466800,1.505466796875,0.2532876555874943,-0.1402909526132047,-0.257898656514287,-0.0843773931264877,-0.0561141297221183,-0.1607870757579803
1783204465928404000,1.515404052734375,0.2968257685407996,-0.1518798297286033,-0.2433084056258201,-0.0922988578677177,-0.0714467316865921,-0.1434916704893112
1783204465938342000,1.525341796875,0.330825945559144,-0.1664072445139288,-0.2293880168229341,-0.0932666510343551,-0.0845244526863098,-0.1162430047988891
1783204465948279800,1.53527978515625,0.348595703266561,-0.2029772720202803,-0.232426361605525,-0.0826047956943512,-0.0866273045539856,-0.0781904831528663
1783204465958217000,1.545217041015625,0.3567088670954108,-0.2189979941032827,-0.2498690793156623,-0.0588121116161346,-0.0799819156527519,-0.0405610762536525
1783204465968155000,1.55515478515625,0.3208464033365249,-0.2155114671617746,-0.2634381704628467,-0.030852697789669,-0.0760694295167923,0.0017798149492591
1783204465978092800,1.5650927734375,0.2639370598956942,-0.2158025590628385,-0.2696428703218698,0.0007350575178861,-0.0727759003639221,0.0418824963271617
1783204465988030000,1.575030029296875,0.1959156630709767,-0.206256439821422,-0.2806295437604189,0.0403943210840225,-0.0682309493422508,0.0801377370953559
1783204465997968000,1.5849677734375,0.1092065169110894,-0.186972478158772,-0.259543501111865,0.0766343474388122,-0.0671867206692695,0.1128930151462555
1783204466007905800,1.59490576171875,0.0269344764158129,-0.1575812562406063,-0.2019137344419956,0.1034506261348724,-0.0685435906052589,0.1437886655330658
1783204466017842700,1.6048427734375,-0.0621241554796695,-0.1011132268264889,-0.1267459729939699,0.1224088668823242,-0.0789365693926811,0.1587707996368408
1783204466027780900,1.61478076171875,-0.1521872882425785,-0.0159939802065491,-0.0227320562899112,0.1323311626911163,-0.0808066576719284,0.1640664637088775
1783204466037718800,1.62471875,-0.2057525819525122,0.0679191054940223,0.077839611005783,0.1360894292593002,-0.0770758390426635,0.1587031185626983
1783204466047656000,1.634656005859375,-0.2454126844286918,0.136533207514882,0.2080909617722034,0.1344012320041656,-0.0536462925374507,0.1417119354009628
1783204466057593900,1.64459375,-0.260668121227622,0.2222280620656907,0.3479536059707403,0.1125638335943222,-0.0268647484481334,0.1138925552368164
1783204466067531800,1.65453173828125,-0.2472089201956987,0.2901214485965669,0.4357353497982025,0.0770153552293777,0.009306444786489,0.0850078016519546
1783204466077469000,1.664468994140625,-0.2334665183082223,0.3348297743730247,0.4906938514322042,0.0347696281969547,0.042508341372013,0.0440624989569187
1783204466087406800,1.67440673828125,-0.1999596777647733,0.3812656545944511,0.4749877482563256,-0.0121668623760342,0.0688870474696159,0.0003192934673279
1783204466097344800,1.6843447265625,-0.162660166940093,0.3945516910165548,0.3692793025940656,-0.0576475299894809,0.0822380036115646,-0.0357076823711395
1783204466107282000,1.694281982421875,-0.1298889471948146,0.3630100130662322,0.242514040377736,-0.108292318880558,0.0798936933279037,-0.0703312009572982
1783204466117219800,1.7042197265625,-0.090187928186357,0.3130255004525184,0.0602782353520393,-0.1442354023456573,0.0651006400585174,-0.102065160870552
1783204466127156700,1.71415673828125,-0.0555728341400623,0.2161921429023146,-0.1346902099967002,-0.168188065290451,0.0335507579147815,-0.1179840713739395
1783204466137094700,1.7240947265625,-0.0494832850933074,0.1287488372489809,-0.3286620455235242,-0.1780492216348648,-0.0070011964999139,-0.1313363760709762
1783204466147032800,1.73403271484375,-0.0396367216005921,0.0447729154452681,-0.4678431371986866,-0.174494132399559,-0.0503705479204654,-0.1393003612756729
1783204466156969700,1.7439697265625,-0.0478431166708469,-0.0256558347821235,-0.573590161305666,-0.1499075591564178,-0.0970315337181091,-0.1356124132871627
1783204466166908000,1.753907958984375,-0.0563484946876764,-0.0950584568321704,-0.6410252826750278,-0.1048472970724105,-0.1369708627462387,-0.1237155273556709
1783204466176845800,1.763845703125,-0.0357061041533946,-0.1432692377716302,-0.6211696586042642,-0.0453440211713314,-0.1476573348045349,-0.1059754118323326
1783204466186782700,1.77378271484375,0.001885375355184,-0.1899525168828666,-0.524523640319705,0.0264746658504009,-0.1395834982395172,-0.0777693688869476
1783204466196721000,1.783720947265625,0.0407920291155576,-0.2361199554264545,-0.3633171793192625,0.0980742797255516,-0.1093869879841804,-0.0419732891023159
1783204466206658800,1.793658935546875,0.0863762609437108,-0.2625397603183985,-0.1970610337138175,0.1623411774635315,-0.0759543105959892,0.0003187141846865
1783204466216596000,1.803595947265625,0.13014935169667,-0.2343941545471549,-0.0205681562542915,0.2053403109312057,-0.0409113727509975,0.0357201136648654
1783204466226534000,1.813533935546875,0.1506917889878153,-0.1488335939005017,0.2048392664998769,0.2219815403223037,-0.0040930253453552,0.0622032731771469
1783204466236471800,1.823471923828125,0.1537801103919744,-0.0598792991623282,0.4007750955760478,0.2073642462491989,0.0351007170975208,0.0781662613153457
1783204466246409200,1.8334091796875,0.1397469088643789,-0.0190717802166938,0.5660130040496587,0.1756321638822555,0.0645790621638298,0.0899922549724578
1783204466256347100,1.84334716796875,0.1126531502336263,0.0115745563291013,0.6357908891528844,0.129009798169136,0.096668817102909,0.0989045277237892
1783204466266285000,1.85328515625,0.0793324799120426,0.0424447647586464,0.6485913340151309,0.073395051062107,0.1142304688692092,0.0975406244397163
1783204466276222200,1.86322216796875,0.015923253057897,0.0637847821682691,0.5648235020041465,0.0105098271742463,0.1210316494107246,0.0874203518033027
1783204466286160100,1.87316015625,-0.090723057976365,0.087919983254373,0.4542600175261497,-0.0551477707922458,0.1077218949794769,0.0633376762270927
1783204466296098300,1.883098388671875,-0.1845662937998771,0.1094242513149976,0.2827835069239139,-0.1044146567583084,0.082114540040493,0.0314231514930725
1783204466306035000,1.893034912109375,-0.2624456522941589,0.1007420554265379,0.0686667089909315,-0.1353649646043777,0.0467284880578517,0.0018950763624161
1783204466315973000,1.90297314453125,-0.308102657097578,0.05044833073318,-0.1117898114025592,-0.1431962549686432,0.0104810018092393,-0.0235429052263498
1783204466325911000,1.9129111328125,-0.3372860814839601,0.0161937405623495,-0.2620131060957908,-0.1225009709596633,-0.0154180619865655,-0.0390017814934253
1783204466335848200,1.92284814453125,-0.3158814744055271,-0.0084932491876184,-0.3498223224520683,-0.0818765833973884,-0.0256853457540273,-0.0587134324014186
1783204466345786000,1.9327861328125,-0.2737780704304576,-0.033247312824428,-0.3752770817041397,-0.0350475385785102,-0.0256523303687572,-0.0609885603189468
1783204466355724000,1.94272412109375,-0.2185223394155502,-0.066548986184597,-0.3097843265742063,0.0131562100723385,-0.0143482778221368,-0.0584601536393165
1783204466365661200,1.9526611328125,-0.1194248363256454,-0.0743944389879703,-0.2173772610336542,0.0536712259054183,0.0010997764766216,-0.0494766645133495
1783204466375599000,1.96259912109375,-0.0136357266426086,-0.0847249866053461,-0.1068149455994367,0.0683265998959541,0.000586318783462,-0.0345424562692642
1783204466385537000,1.972537109375,0.0787625710695981,-0.110573275219649,0.0019166472762823,0.0592427775263786,-0.0054232515394687,-0.01423766836524
1783204466395474200,1.98247412109375,0.1224874387666583,-0.1110942303538322,0.1117909804463386,0.0399551019072532,-0.0111738154664635,0.0042782248929142
1783204466405412000,1.992412109375,0.1750058537721633,-0.0844926391541957,0.2070598651587963,0.0125831980258226,-0.0131982211023569,0.0199632849544286
1783204466415350300,2.002350341796875,0.1947518799886107,-0.0460603249073028,0.2457446928620338,-0.0127221588045358,-0.0068931872956454,0.0368333421647548
1783204466425287200,2.012287109375,0.2091717427462339,-0.0115590664990246,0.2547761405795812,-0.0363822653889656,0.000996193382889,0.0460812635719776
1783204466435225300,2.022225341796875,0.1899853962391614,0.0640543928898871,0.2763327233493328,-0.0565999187529087,0.0218050684779882,0.0467843376100063
1783204466445163300,2.032163330078125,0.1748866113066673,0.1341410516813397,0.2498065354734659,-0.0752361938357353,0.047139186412096,0.045301754027605
1783204466455101200,2.04210107421875,0.1465259014800191,0.1819299539469182,0.1802647972136735,-0.0833226144313812,0.0706700831651687,0.0411176644265651
1783204466465038000,2.0520380859375,0.1128217847988009,0.2029110749162733,0.0564607228904962,-0.0967885106801986,0.0881361737847328,0.0356821976602077
1783204466474976000,2.06197607421875,0.0562941341519355,0.1985864897154271,-0.0955102922528982,-0.1079077422618866,0.0861497148871421,0.0244061090052127
1783204466484914200,2.0719140625,-0.023073709334433,0.2042054986409842,-0.2578092246651649,-0.1174684762954711,0.0723919942975044,0.0085391942411661
1783204466494851000,2.08185107421875,-0.0698281539857387,0.1921414052292704,-0.4453139100044965,-0.1129426956176757,0.0469851642847061,-0.0126145603135228
1783204466504789000,2.0917890625,-0.1204798983365297,0.1800550999857485,-0.5989104805231094,-0.0958882048726081,0.0168009884655475,-0.0317171290516853
1783204466514727200,2.10172705078125,-0.1353866678282618,0.1619942503772675,-0.7303285369813441,-0.0661785155534744,-0.0228542778640985,-0.045533075928688
1783204466524664000,2.1116640625,-0.1165299916669726,0.0935335853524506,-0.8154378467291593,-0.0237515214830636,-0.0621498711407184,-0.0478485375642776
1783204466534602200,2.121602294921875,-0.0684486823260784,0.0403413627386093,-0.8224035940885543,0.0281367115676403,-0.0941679999232292,-0.0404880940914154
1783204466544540200,2.1315400390625,-0.0188116679757833,0.0129284551560878,-0.7372019298821687,0.0789046436548233,-0.1126929000020027,-0.0214964151382446
1783204466554477300,2.141477294921875,-0.0158554485186934,-0.009970189872384,-0.5719236893981695,0.1278607249259948,-0.1054315268993377,-0.0064945621415972
1783204466564415200,2.151415283203125,-0.0281356688991189,-0.0072597618699073,-0.4042530008196831,0.1740161776542663,-0.0914795398712158,0.0071033993735909
1783204466574353200,2.161353271484375,-0.0064984221085906,0.0217173262894153,-0.2494096451103687,0.209421306848526,-0.0874712169170379,0.0169371217489242
1783204466584290000,2.1712900390625,0.0263189748659729,0.0635477585420012,-0.0517237574964761,0.2196570187807083,-0.0822595059871673,0.0301479790359735
1783204466594228000,2.18122802734375,0.0412561394959688,0.0728831576421856,0.1682914508253336,0.2136678397655487,-0.0625856667757034,0.0438877567648887
1783204466604166100,2.191166259765625,0.0398693613126873,0.0754798961371183,0.3658382222294807,0.1951508969068527,-0.029824361205101,0.0576732754707336
1783204466614103000,2.20110302734375,0.027577742755413,0.1013699780665337,0.4831020811289548,0.1640909910202026,-0.0008824584074318,0.0610275268554687
1783204466624041000,2.211041015625,-0.016693652908504,0.1260416241168975,0.5328279428064823,0.124853178858757,0.017921146005392,0.0532495193183422
1783204466633979100,2.220979248046875,-0.0865966256961226,0.1255126318067312,0.5448579878181219,0.078958660364151,0.0354117229580879,0.0446160845458507
1783204466643917000,2.2309169921875,-0.1496867035984992,0.1332677759781479,0.5123796135395765,0.0324698388576507,0.0370812490582466,0.030282100662589
1783204466653854200,2.240854248046875,-0.2114703750774264,0.1290177173182368,0.4163432515859603,-0.0123647432774305,0.0323544032871723,0.0083717405796051
1783204466663792000,2.250792236328125,-0.2601779996231198,0.0946928383901715,0.2841939582437277,-0.0460631623864173,0.0143005531281232,-0.007626979611814
1783204466673730000,2.26072998046875,-0.3035115299150348,0.0756733728826045,0.1769622485369443,-0.0611254647374153,-0.001174010336399,-0.0314865037798881
1783204466683667200,2.270667236328125,-0.3251230577424168,0.0550385811328887,0.0910509747564792,-0.0613863505423069,-0.0103760138154029,-0.050642043352127
1783204466693605000,2.280605224609375,-0.3338081762403249,0.0261611539557576,0.0331798005461692,-0.0485517755150795,-0.009143503382802,-0.071623757481575
1783204466703543300,2.290543212890625,-0.3082832743614911,-0.0107617786414921,-0.0096539635300636,-0.029291421175003,-0.0064165974035859,-0.0856095999479293
1783204466713480200,2.300480224609375,-0.23033757263273,-0.0702373193085193,-0.0265326176166534,-0.0106130745261907,-0.004000044427812,-0.0908254012465477
1783204466723418000,2.310418212890625,-0.1224874387666583,-0.1156004557318985,-0.0128606506168842,0.0023843115195631,-0.004311672411859,-0.0863340720534324
1783204466733356300,2.320356201171875,-0.0203422385439276,-0.1511085530951619,0.0297609320133924,0.0082390047609806,-0.0028258953243494,-0.0719772353768348
1783204466743293000,2.33029296875,0.0762628632083535,-0.149948277144134,0.0972854852318763,0.0052507882937788,-0.0004510041326284,-0.057410392910242
1783204466753231000,2.340231201171875,0.1454310919806361,-0.1534083544701337,0.1660135690212249,-0.0012886030599474,0.0126062082126736,-0.0372931398451328
1783204466763169000,2.3501689453125,0.2067158740267157,-0.127871323762089,0.2102519391983747,-0.013022119179368,0.0228820331394672,-0.0228015035390853
1783204466773106200,2.360106201171875,0.2322951364412903,-0.112865477810055,0.2228881334096193,-0.0284572672098875,0.0365283340215683,8.5967592895e-05
1783204466783044000,2.370044189453125,0.2491623923510313,-0.1058972462326288,0.2033008048862218,-0.0477795153856277,0.0544431209564209,0.0214351043105125
1783204466792982000,2.37998193359375,0.2293330717653036,-0.0704471626669168,0.150863930684328,-0.0660562589764595,0.0594437383115291,0.037617802619934
1783204466802920200,2.389920166015625,0.1808922814622521,-0.0267233178831636,0.0828226601153612,-0.0772192627191543,0.065419852733612,0.04261464625597
1783204466812857000,2.399857177734375,0.1315709089323878,0.0134358201563358,-0.0136100076794624,-0.0850351080298423,0.0733981505036354,0.0435816422104835
1783204466822795300,2.409795166015625,0.0694458766698837,0.0691594609439373,-0.1409562846541404,-0.0879058390855789,0.0681900605559349,0.0304090660065412
1783204466832733200,2.419733154296875,0.0075119830653071,0.1099912375479936,-0.2812023752123117,-0.0829102843999862,0.0586892366409301,0.0143536673858761
1783204466842670000,2.429670166015625,-0.0316582900673151,0.1245611763007938,-0.3848392752975225,-0.0729341879487037,0.0582614354789257,-0.0086033269762992
1783204466852608300,2.439608154296875,-0.0689934567272663,0.1093371575534343,-0.5075099616765976,-0.0489340461790561,0.0403988137841224,-0.0240917392075061
1783204466862546200,2.449546142578125,-0.0708037210196256,0.0910483444079756,-0.6124591134041547,-0.0199847389012575,0.0095294266939163,-0.0288920290768146
1783204466872483000,2.459483154296875,-0.0452133526891469,0.0566001313611865,-0.6663789196401834,0.0141641767695546,-0.0209155641496181,-0.0302555672824382
1783204466882421000,2.4694208984375,-0.001350245565176,0.0383995810210704,-0.6530658490806818,0.0473612770438194,-0.0482895039021968,-0.0219931751489639
1783204466892359000,2.47935888671875,0.0354515448704361,0.0285673383146524,-0.5740799906492233,0.081743486225605,-0.0625081211328506,-0.0106326639652252
1783204466902297000,2.489297119140625,0.0550368275672197,0.0299471022352576,-0.4405044638961553,0.1102216243743896,-0.069179967045784,0.0019065509550273
1783204466912234000,2.49923388671875,0.0717065150782465,0.0362651993408799,-0.2915706244915723,0.133448913693428,-0.066814012825489,0.0185110941529274
1783204466922172200,2.509172119140625,0.0817751968890428,0.0680716657072305,-0.1363777246922254,0.1451240628957748,-0.0574276894330978,0.0330027304589748
1783204466932110000,2.519110107421875,0.0637619858145713,0.1003062943577766,0.0356394686579704,0.1441743820905685,-0.0382092557847499,0.0402731634676456
1783204466942047200,2.529047119140625,0.0340983766958117,0.1121525072351098,0.153866619631648,0.1313842684030532,-0.0263500101864337,0.0445297248661518
1783204466951985200,2.538985107421875,-0.0078825699433684,0.1035527289330959,0.2332686576485633,0.1112467870116233,-0.0164806023240089,0.0501511245965957
1783204466961923000,2.548923095703125,-0.0307420520052313,0.1227180326521396,0.2755482949733734,0.0865730717778205,-0.0154196731746196,0.0481380671262741
1783204466971860200,2.558860107421875,-0.067410571449995,0.144226392365992,0.297712780508399,0.0581717863678932,-0.0032791211269795,0.0402971915900707
1783204466981798100,2.568798095703125,-0.1181140459880232,0.1495037482470274,0.288389656367898,0.0336868427693843,0.0015881364233791,0.0308335684239864
1783204466991736000,2.578736083984375,-0.1740288254335522,0.1508262290224432,0.2575350838989019,0.0127903493121266,0.0055573116987943,0.0142146423459053
1783204467001674200,2.58867431640625,-0.2286860060334205,0.1478343537300825,0.1982727475911379,-0.0012569166719913,0.008004211820662,-0.0034562156070023
1783204467011611100,2.598611083984375,-0.2664595641106367,0.1216783143408596,0.1182464401960372,-0.0067310445010662,0.009199971333146,-0.0249402020126581
1783204467021549300,2.60854931640625,-0.2633057762548327,0.1025648869395256,0.0586602787613868,-0.010853205807507,0.0021182657219469,-0.042079322040081
1783204467031487200,2.6184873046875,-0.2625865220695734,0.0800882667154073,0.0199035548657178,-0.0115624060854315,-0.0053740055300295,-0.0580505654215812
1783204467041424100,2.628424072265625,-0.2154039151340722,0.0453007387116551,0.0068926821231842,-0.0071986950933933,-0.0058024660684168,-0.0665717422962188
1783204467051362000,2.638362060546875,-0.1677767793014645,-0.0035030396848917,0.0133218383878469,0.0017649726942181,-0.0036050914786756,-0.0673451200127601
1783204467061300000,2.648300048828125,-0.1119768584072589,-0.0427801341928541,0.0388619378358125,0.0040012784302234,0.011419178918004,-0.0682017132639885
1783204467071238100,2.658238037109375,-0.0488826888516545,-0.0707252489559352,0.0737783529162406,0.0057661556638777,0.0151031296700239,-0.0622359700500965
1783204467081175000,2.668175048828125,0.0109501408204436,-0.1067028635270893,0.0582195492565631,0.0070436568930745,0.0141627416014671,-0.0476163811981678
1783204467091113200,2.67811328125,0.0682420538380742,-0.1314414373338222,0.032976971450448,0.0060116816312074,0.0097935600206255,-0.0347330719232559
1783204467101051100,2.688051025390625,0.1031993854507803,-0.1347610832758247,0.040050855359435,0.0088969506323337,0.007057961076498,-0.0168699193745851
1783204467110988000,2.697988037109375,0.1199526595920324,-0.12957125954777,0.0762286686778068,0.0066660204902291,0.0076590366661548,-0.0023796600289642
1783204467120926200,2.70792626953125,0.1129319671750068,-0.1207272972263395,0.0895376475840806,0.0056508709676563,0.0160829294472932,0.0056589655578136
1783204467130864000,2.717864013671875,0.1049359999850392,-0.096894440087676,0.1067477255821228,0.0035240706056356,0.0319777391850948,0.0121821127831935
1783204467140802000,2.727802001953125,0.0922676570698618,-0.0747352152496576,0.0993652141153812,-0.0065057007595896,0.0318814702332019,0.014073914848268
1783204467150739200,2.7377392578125,0.0581067365318536,-0.0821549899868667,0.0508019664764404,-0.0196502655744552,0.0176538005471229,0.021912395954132
1783204467160677000,2.747677001953125,0.03341156347543,-0.0921601050421595,0.0056511576294898,-0.0330546088516712,0.0009149112738668,0.0294120106846094
1783204467170615300,2.757615234375,0.0086567691862583,-0.0835807850062847,-0.0311281287133693,-0.037194225937128,-0.0090732742100954,0.0364440903067588
1783204467180552200,2.76755224609375,-0.0237771814286708,-0.0539823500782251,-0.0240986684679985,-0.0327238775789737,-0.0025913487188518,0.0387300737202167
1783204467190490400,2.777490478515625,-0.0531271945536136,0.0068242930620908,-0.0140226801335811,-0.0234329067170619,0.0168132428079843,0.0277320146560668
1783204467200428300,2.78742822265625,-0.0512263293683528,0.0820259567797184,0.0009130231916904,-0.0166114307940006,0.0388348922133445,0.0137252938002347
1783204467210366200,2.7973662109375,-0.0157440970987081,0.1187324701473116,-0.0036743045985698,-0.0200732760131359,0.0457180961966514,0.0038513576146215
1783204467220303000,2.80730322265625,0.0498252303987741,0.1113644255973398,-0.0389145448058843,-0.0340811349451541,0.0367707684636116,-4.72303945571e-05
1783204467230241000,2.817240966796875,0.1070645364463329,0.1138395835392177,-0.0895709653317928,-0.0399209149181842,0.0293738394975662,-0.0061213681474328
1783204467240179000,2.827178955078125,0.1421048701673746,0.1188867839261889,-0.128989368006587,-0.0543447472155094,0.0225757099688053,-0.0084834787994623
1783204467250117000,2.8371171875,0.1396323425740003,0.1039677394747734,-0.1916127051800489,-0.0667564123868942,0.0149343013763427,-0.0065598776564002
1783204467260055000,2.847054931640625,0.1207101999610662,0.1095617600895464,-0.2334562891751527,-0.0715923011302948,0.0112226121127605,-0.0060300547629594
1783204467269993000,2.856992919921875,0.1310220428779721,0.0908129282169044,-0.3313642902195453,-0.064583919942379,-0.0046927048824727,-0.0077187656424939
1783204467279929900,2.866929931640625,0.1176727319613099,0.0547264464437961,-0.4474105900228023,-0.0480654835700988,-0.0214672274887561,0.0025398167781531
1783204467289867800,2.87686767578125,0.0885930602103471,0.0199748665362596,-0.510681577450037,-0.0233121998608112,-0.0358938351273536,0.0140193728730082
1783204467299806000,2.886805908203125,0.049519525450468,0.009726882635802,-0.5210083256751299,0.0142232635989785,-0.0452307313680648,0.026991244405508
1783204467309743900,2.896743896484375,0.0005567570999264,0.0081109718717634,-0.5184726697176695,0.0566263794898986,-0.0527775958180427,0.0319915972650051
1783204467319681000,2.906680908203125,-0.0485141478002071,0.0050271805122494,-0.4746528172135353,0.0930899158120155,-0.060585830360651,0.0370358265936374
1783204467329619000,2.916618896484375,-0.0647732086837291,0.0303746799975633,-0.3616109599232673,0.1256158947944641,-0.065152883529663,0.0375985540449619
1783204467339556900,2.926556884765625,-0.0728717594653367,0.0513327123522758,-0.2121265008985996,0.1462653875350952,-0.0652051195502281,0.0414400212466716
1783204467349494000,2.936493896484375,-0.0593736877277493,0.0620848463825881,-0.0583347000688314,0.1594123542308807,-0.0601576380431652,0.0483320131897926
1783204467359432000,2.946431884765625,-0.0660743544101715,0.0876595787525176,0.1042477254599332,0.1519494205713272,-0.0483577325940132,0.0463875494897365
1783204467369369900,2.956369873046875,-0.0843529384225606,0.1300464758440852,0.2434574587076902,0.1379691511392593,-0.0371985547244548,0.0393549390137195
1783204467379308000,2.96630810546875,-0.1082078612625598,0.1457574013255536,0.3606196107983589,0.1091232225298881,-0.0207421705126762,0.0335082709789276
1783204467389245000,2.976244873046875,-0.1279649933949112,0.1247467620007693,0.422399482885003,0.0795735865831375,-0.0048454962670803,0.0319801494479179
1783204467399183000,2.98618310546875,-0.1542553266882896,0.1243489948548376,0.4406757288098335,0.0412807241082191,0.011314757168293,0.0154464747756719
1783204467409121000,2.99612109375,-0.1899982557207346,0.1439043208047747,0.424089335668087,0.0112418634817004,0.0190325994044542,0.0019498406909406
1783204467419059000,3.006058837890625,-0.2177010861605405,0.1250361003361642,0.3363257120192051,-0.0131985386833548,0.0233536325395107,-0.0191409289836883
1783204467428995800,3.015995849609375,-0.2525643097490072,0.1028077557846903,0.2453016252696514,-0.0345773287117481,0.0263915006071329,-0.0339843221008777
1783204467438933800,3.025933837890625,-0.2489601477771997,0.0960603273510932,0.158422967761755,-0.0395196229219436,0.0194313284009695,-0.0614231377840042
1783204467448872000,3.035871826171875,-0.219070913209021,0.0680737115338444,0.0541658899515867,-0.0440344810485839,0.0118415849283337,-0.0730164125561714
1783204467458808800,3.045808837890625,-0.1796080868706107,0.0028895839616656,-0.0024304420173168,-0.0405630096793174,0.0100399032235145,-0.0796036049723625
1783204467468747000,3.0557470703125,-0.1231800972059369,-0.0449089629150927,-0.0391103596389293,-0.0298512428998947,0.0091911535710096,-0.0820891335606575
1783204467478685000,3.065684814453125,-0.0470291699394583,-0.0796098355486989,-0.0649047261089086,-0.0169853530824184,0.0078217396512627,-0.0768129304051399
1783204467488622800,3.075622802734375,0.0153372698634862,-0.119199064745754,-0.0753372727960348,-0.0014319596812129,0.0066736508160829,-0.0608091950416564
1783204467498560000,3.08556005859375,0.0723544575929641,-0.142159084572643,-0.0479494996547699,0.0052292146719992,0.0159137453883886,-0.0464111305773258
1783204467508498000,3.095497802734375,0.1496384805426001,-0.1242627778761088,-0.0020312135666608,0.0088673587888479,0.0214821472764015,-0.0301602575927972
1783204467518435800,3.105435791015625,0.2092676043361425,-0.0934723566845059,0.0359101022928953,0.0087679838761687,0.0222917236387729,-0.0134538132697343
1783204467528373000,3.115373046875,0.2344283490777015,-0.1102906588859856,0.0268769010096788,0.0016682622954249,0.0231790896505117,0.0104866726323962
1783204467538311000,3.125310791015625,0.241007142946124,-0.1021922542348504,0.034071780949831,-0.0080146742984652,0.0273111946880817,0.0301715582609176
1783204467548249000,3.1352490234375,0.209072666285932,-0.0375713135033845,0.0278162276864051,-0.0156374387443065,0.0218972526490688,0.0396902300417423
1783204467558187000,3.14518701171875,0.1597398955792188,-0.012195172445476,-0.0002010755300521,-0.0262640081346035,0.0274756718426942,0.0453054383397102
1783204467568124200,3.155124267578125,0.0904445332959294,-0.0081276307456195,-0.0391997914880514,-0.0334862321615219,0.0181482173502445,0.0455413945019245
1783204467578062000,3.16506201171875,0.0275368262231349,0.015915946534276,-0.1070697971433401,-0.0354777351021766,0.015276450663805,0.0376619324088096
1783204467588000000,3.175,-0.024123802909255,0.0540209285229444,-0.1648772584676742,-0.0326659716665744,0.0064129172824323,0.028459645807743
1783204467597937000,3.18493701171875,-0.0818421246454119,0.0472732078284025,-0.224121474596858,-0.024829663336277,-0.0046072914265096,0.0231821872293949
1783204467607874800,3.194874755859375,-0.1190267769187688,0.025336101308465,-0.2628881353646516,-0.0149179100990295,-0.0155398342758417,0.0144475512206554
1783204467617813000,3.20481298828125,-0.1314811848223209,0.0138017308592796,-0.276574715411663,-0.0011405004188418,-0.0288685113191604,0.0105830188840627
1783204467627751000,3.2147509765625,-0.1174111584156751,0.0122191378429532,-0.2390665302723646,0.0116709023714065,-0.0337729901075363,0.0061163646169006
1783204467637687800,3.224687744140625,-0.0805409789189696,0.0184175540916621,-0.1530716698616743,0.0241970084607601,-0.0303254164755344,0.0032756312284618
1783204467647626000,3.2346259765625,-0.0486696306228637,0.041432957367599,-0.0596118803977966,0.0307808741927146,-0.0181467793881893,-0.000588348833844
1783204467657564000,3.24456396484375,0.0079758011847734,0.0630187662318348,0.0086532620549201,0.0329467356204986,-0.0042374520562589,0.0004939457867294
1783204467667501800,3.254501708984375,0.0608832155078649,0.0593096825808286,0.0575946953564882,0.0201901923865079,0.0031879737507551,0.0074376063421368
1783204467677439000,3.26443896484375,0.0886582344010472,0.054874038220942,0.0942734439343214,0.0038238856941461,0.0042963428422808,0.0108274547383189
1783204467687377000,3.274376953125,0.1022846086934208,0.0636275457799434,0.1047434000223875,-0.0133396545425057,0.0127241816371679,0.0141492150723934
1783204467697315000,3.284315185546875,0.0931882790461182,0.0753128690071403,0.0871761791497468,-0.0298893116414546,0.0120173217728734,0.0150374546647071
1783204467707253000,3.2942529296875,0.066159110084176,0.074861179716885,0.0301022927969694,-0.0399467386305332,0.0120362304151058,0.0117662940174341
1783204467717190100,3.304190185546875,0.0444508438840508,0.0724517804875969,-0.0537935495078563,-0.0422844849526882,0.0078556574881076,0.0036430454347282
1783204467727128000,3.314128173828125,0.0337079160735011,0.0742827953070402,-0.1323667354851961,-0.0391318351030349,0.0015295846387743,0.0016778989229351
1783204467737066000,3.32406591796875,0.0279033214479684,0.0542310641422867,-0.1929284639537334,-0.0266327634453773,0.0133514273911714,-0.0013770977966487
1783204467747003100,3.334003173828125,0.0040370004311203,0.0685179481700062,-0.1641694024592637,-0.0039072129875421,0.0187709592282772,0.0012716823257505
1783204467756941000,3.343941162109375,0.0131397598192095,-0.0013835633128881,-0.2597083362847566,0.0110706565901637,0.0076856319792568,0.0076097063720226
1783204467766879000,3.35387890625,0.0116904377937316,0.0185806356988847,-0.2645265502214431,0.0218276977539062,-0.0038293437100946,0.0098696649074554
1783204467776817200,3.363817138671875,-0.0052490065693855,0.0090057287544012,-0.2538467507749796,0.0321013107895851,-0.0211923439055681,0.0170922093093395
1783204467786753800,3.37375390625,-0.0279389772832393,0.0027849545434117,-0.212198397091031,0.042717732489109,-0.028690742328763,0.0216744448989629
1783204467796692000,3.38369189453125,-0.0406377153366804,0.0278399008229374,-0.1501806245952844,0.052061166614294,-0.031279869377613,0.0214083939790725
1783204467806630000,3.3936298828125,-0.0591626753255724,0.0492298948541283,-0.0600683919936418,0.0619987547397613,-0.0287866126745939,0.0260308440774679
1783204467816567000,3.403567138671875,-0.0785953978091478,0.0691727588169276,0.016190087300539,0.0686522647738456,-0.0214955359697341,0.030266223475337
1783204467826505000,3.4135048828125,-0.1090115788608789,0.0668869859673082,0.1051227547287941,0.0683854222297668,-0.0146759785711765,0.0293650086969137
1783204467836443000,3.42344287109375,-0.1569993646994233,0.0842445096120238,0.1739467001080513,0.0590248927474021,-0.0042758490890264,0.0264907851815223
1783204467846381000,3.433381103515625,-0.1906649029359221,0.1009384547814726,0.2092728650331497,0.0533134788274765,0.0086561944335699,0.0203170459717512
1783204467856318000,3.44331787109375,-0.2107370923668146,0.0971472458049654,0.2458627662837505,0.0438671447336673,0.0234231408685445,0.0078808357939124
1783204467866256000,3.453255859375,-0.2460012979716062,0.1075222170859575,0.2585691031217575,0.0295174978673458,0.0295734442770481,-0.0115405330434441
1783204467876194000,3.463194091796875,-0.2853425437569618,0.1054889576926827,0.2620236274898052,0.0118995252996683,0.0366089306771755,-0.0318526588380336
1783204467886132000,3.473132080078125,-0.2798816480025649,0.0777490101128816,0.2398223170757293,-0.0077037373557686,0.0324067287147045,-0.0590507239103317
1783204467896069000,3.483069091796875,-0.230240541999042,0.0392658424615859,0.2033323690682649,-0.0322150960564613,0.0231026820838451,-0.0769748985767364
1783204467906007000,3.493007080078125,-0.1539344241708517,0.0017602876707911,0.1901449707150459,-0.0539195910096168,0.0105096586048603,-0.0879740267992019
1783204467915945000,3.502945068359375,-0.0701309363245964,-0.0893114376127719,0.1590893227159976,-0.0720732659101486,0.0039547034539282,-0.0847224220633506
1783204467925883100,3.512883056640625,0.0199245976537466,-0.1488495221219956,0.1313987672358751,-0.08793905377388,0.0060516763478517,-0.0758799239993095
1783204467935819800,3.52281982421875,0.1227957740634679,-0.1609625692419707,0.103399584197998,-0.0886016115546226,0.0071311620995402,-0.0566244050860405
1783204467945758000,3.532758056640625,0.1752130667820572,-0.1872545099705457,0.0566676436394453,-0.0870961248874664,0.0157962888479232,-0.0400302484631538
1783204467955695900,3.54269580078125,0.2241056925058364,-0.1873024407655,0.0209527716577053,-0.0793863907456398,0.026131547987461,-0.0141465347260236
1783204467965633000,3.552633056640625,0.2595823718175292,-0.1597913335055112,-0.0311719678550958,-0.0632846504449844,0.0367636866867542,0.0087779555469751
1783204467975571000,3.562571044921875,0.2621604056119919,-0.1361051913611591,-0.1083417167752981,-0.053824882954359,0.0507644116878509,0.030060201883316
1783204467985508900,3.5725087890625,0.2442769583970308,-0.0861561884522438,-0.1524953312784433,-0.0418406575918197,0.057499811053276,0.0462780520319938
1783204467995447000,3.582447021484375,0.2039031546935439,-0.0336338279239833,-0.1950830116391181,-0.0347904115915298,0.0583035200834274,0.0584715083241462
1783204468005384000,3.592384033203125,0.1338315473407506,0.0081432667061686,-0.2594213360369205,-0.0278345011174678,0.0525066182017326,0.0645616203546524
1783204468015321900,3.60232177734375,0.0782955380797386,0.0496156793013215,-0.3264981454879045,-0.0194569677114486,0.0363373383879661,0.0574718229472637
1783204468025260000,3.612260009765625,0.0215709035560488,0.1089624790221452,-0.3809896141320467,-0.0141319772228598,0.0108418343588709,0.0488572940230369
1783204468035198000,3.622197998046875,-0.0396650709122419,0.1248345864146947,-0.4043839337229728,-0.0089510325342416,-0.0093024540692567,0.0395184978842735
1783204468045135000,3.632135009765625,-0.0890066094473004,0.1541167950004339,-0.372529244300723,0.001618786714971,-0.0277760028839111,0.0285097863525152
1783204468055073000,3.642072998046875,-0.1084311486244201,0.1754712793268263,-0.3445996193677186,0.0153597509488463,-0.0392348505556583,0.0136230643838644
1783204468065011000,3.652010986328125,-0.1162944293454289,0.1827348405890166,-0.2882511246800422,0.024206506088376,-0.0457742437720298,0.0009972832631319
1783204468074949000,3.66194921875,-0.0940951647579669,0.1729591503754258,-0.2064788504004478,0.0399073138833045,-0.0449131540954113,-0.0106458282098174
1783204468084886000,3.671885986328125,-0.0612543869078159,0.1606893052585423,-0.1199205108880996,0.0467180833220481,-0.0408824607729911,-0.0158078335225582
1783204468094824200,3.68182421875,-0.03032499563694,0.1359961780287325,-0.0188835641682147,0.0469766333699226,-0.0297451689839363,-0.0164993293583393
1783204468104762000,3.69176220703125,-0.0016945289582014,0.1069037929266691,0.0583849689513444,0.0371279940009117,-0.0208683218806982,-0.017204800620675
1783204468114699000,3.701698974609375,0.0340144978046417,0.0792281427547335,0.1082926169365644,0.0267707146704196,-0.0152424741536378,-0.012072323821485
1783204468124637000,3.711636962890625,0.0425794970542192,0.0381822850085794,0.1440372995346784,0.0113741820678114,-0.00806125998497,-0.0036894923541694
1783204468134574800,3.721574951171875,0.0306663564205169,0.0014466916769742,0.142048171544075,0.0010749977082014,-0.0028340402059257,0.0021246273536235
1783204468144512800,3.7315126953125,0.0262403566718101,-0.0007075637474656,0.1005950481712818,-0.0059743886813521,-0.0042116935364902,0.0053321383893489
1783204468154450000,3.741449951171875,0.0204378078728914,-0.0069075874313712,0.0509025042414665,-0.0131457187235355,-0.0058715352788567,0.0085730049759149
1783204468164387800,3.751387939453125,-0.0160401574358344,-0.0179658648014068,0.0152735569775104,-0.0160451028496027,-0.0107219507917761,0.0108864931389689
1783204468174326000,3.761325927734375,-0.0488292050987482,-0.0009290975436568,-0.0122954179495573,-0.0113861132413148,-0.0084646651521325,0.0088611077517271
1783204468184264000,3.771263916015625,-0.0635907209008932,0.0158022570267319,-0.0611170242637395,0.0004132883623242,-0.0091158086434006,0.0089806839823722
1783204468194201000,3.781201171875,-0.0783738640129566,0.022665420794487,-0.0852402426511049,0.0068343807943165,-0.0098617495968937,0.0063162418082356
1783204468204139000,3.791138916015625,-0.0756882781907916,0.0589541471414268,-0.0733417150646448,0.0156587660312652,-0.0087996814399957,0.0024000634439289
1783204468214077000,3.801076904296875,-0.0673439359545707,0.0698269849419593,-0.0482698176503181,0.019135920330882,-0.0025216676294803,-0.0019295493839308
1783204468224015000,3.81101513671875,-0.0796162652894854,0.0690476711325347,-0.0489262357324361,0.0244236253201961,0.0005830451846122,-0.0025274290237575
1783204468233952000,3.820951904296875,-0.0703951402187347,0.0686088413238525,-0.0338075770556926,0.0224179271608591,0.0035575847141444,-0.0044101485982537
1783204468243889200,3.83088916015625,-0.0637184389337897,0.0664941872574389,-0.0131155021607875,0.0190793871879577,0.0007732496596872,-0.0079465601593256
1783204468253827000,3.8408271484375,-0.0605371785491704,0.051953474599123,0.0049567456245422,0.0118091003969311,-0.0016317288391292,-0.0099816359579563
1783204468263764000,3.850763916015625,-0.0640709056332707,0.0326829569399356,0.0092471362948417,0.0060670585371553,-0.0040634609758853,-0.0161255486309528
1783204468273702000,3.860701904296875,-0.0551885109975934,0.0412181455731391,0.0044119712233543,8.07363539934e-05,-0.0049083931371569,-0.0211421251296997
1783204468283639800,3.870639892578125,-0.0383569109231233,0.0339442090474069,0.0081166709601879,-0.000814352184534,-0.0058162650093436,-0.0281550288200378
1783204468293578000,3.880577880859375,-0.027352117305994,0.0143527888707816,-0.0062286652565002,0.00302654504776,-0.0043005631305277,-0.028408546000719
1783204468303515000,3.890514892578125,-0.0168795308694243,-0.0099288349486887,0.0032458500534296,0.0040654446929693,-0.0019473941065371,-0.0266798883676528
1783204468313453000,3.900453125,0.022663374967873,-0.0201011232644319,0.0177466690927743,0.0040084859356284,0.000144625082612,-0.0231274329125881
1783204468323391000,3.910390869140625,0.0346963425889611,-0.0447716002710163,0.0164490304976701,0.0035261875018477,0.0030988696962594,-0.0178764797747135
1783204468333329000,3.920328857421875,0.04983282918334,-0.0816999396957457,0.0141238024204969,0.0010381871834397,0.0031644960399717,-0.0073340283706784
1783204468343266000,3.93026611328125,0.0676917264789342,-0.1040183006182313,0.0025718963146209,-0.0029504280537366,-0.0007735202088952,0.0006530580576509
1783204468353204000,3.940203857421875,0.0458297310218214,-0.1005443408973515,-0.0107955347806215,-0.0034512858837842,-0.0003875321708619,0.0077149765565991
1783204468363142000,3.950141845703125,0.0049354105755686,-0.1122545063048601,-0.0324403803557157,0.002149075269699,0.0015397975221276,0.0167233850806951
1783204468373080000,3.960080078125,-0.0161374803304672,-0.1060201419599354,-0.050351300099492,0.0089262342080473,-0.0015108436346054,0.0188675466924905
1783204468383017000,3.970016845703125,-0.0369862070918083,-0.0666283350311219,-0.0448246456325054,0.0215283129364252,-0.005925565958023,0.0244828220456838
1783204468392955100,3.979955078125,-0.0528282116070389,-0.06040741468966,0.0075379942893981,0.0189026277512311,0.0052230707369744,0.0209946744143962
1783204468402893000,3.98989306640625,-0.069708326998353,-0.0115673959359526,0.0740367115914821,0.024167962372303,0.0170461740344762,0.0159999169409275
1783204468412831000,3.9998310546875,-0.0646744244843721,0.0144243928022682,0.1101414596736431,0.0161816030740737,0.0293670780956745,0.0084305489435791
1783204468422768000,4.00976806640625,-0.0316626739814877,0.0377707815982401,0.1307557931572198,0.0019818935543298,0.038174420595169,0.0034581611398607
1783204468432706000,4.0197060546875,0.0014151274949312,0.0627018092371523,0.1210398703068494,-0.0141248051077127,0.0272659175097942,0.0016660920809954
1783204468442644200,4.029644287109375,0.0230509129807353,0.036235096463561,0.0685889675796031,-0.0350580513477325,0.0168337821960449,0.001934005646035
1783204468452582100,4.03958203125,0.0264975463032722,0.0257106337092816,0.0361795668840408,-0.0482347011566162,0.011107575148344,0.008237287402153
1783204468462519000,4.04951904296875,0.0208645088523626,0.0352567529506981,-0.0043073418051004,-0.0492775961756706,0.0075256237760186,0.0018262600060552
1783204468472457000,4.05945703125,0.0142088503554463,0.0480355705030262,-0.0511070869028568,-0.0519811958074569,0.0133265480399131,-0.0001877904869616
1783204468482395000,4.069394775390625,0.0046165538847446,0.0534562803775072,-0.096788057103753,-0.0451485887169837,0.0134394653141498,-0.0024456186220049
1783204468492333000,4.0793330078125,0.0152893390685319,0.060500645931065,-0.1622977633684873,-0.037823986262083,0.0124370316043496,-0.0070013245567679
1783204468502270000,4.08927001953125,0.0250251356631517,0.0647526042871177,-0.2131809783875942,-0.0287569873034954,0.0015867808833718,-0.0083952229470014
1783204468512208000,4.099207763671875,0.0466021766990423,0.05203355409801,-0.265940508672595,-0.0158205386251211,-0.0120227057486772,-0.003551012603566
1783204468522146000,4.10914599609375,0.0596548427566885,0.0337165377713739,-0.2722089214175939,-0.0052214246243238,-0.0192100461572408,0.0060760481283068
1783204468532084000,4.119083984375,0.0587634468749165,0.0350499783322215,-0.2451601709723472,0.0075920047238469,-0.021412193775177,0.0116339027881622
1783204468542021000,4.129021240234375,0.0591524461925029,0.0437234063923358,-0.2115332111805677,0.0176968369632959,-0.0222825147211551,0.0162691343575716
1783204468551959000,4.138958984375,0.0477630371719598,0.0549393585421144,-0.177528065726161,0.0259453821927309,-0.0179902426898479,0.020416609942913
1783204468561897000,4.14889697265625,0.0218009129196405,0.0795342860944569,-0.1475795021861791,0.0297715459018945,-0.0134583413600921,0.0220014564692974
1783204468571834000,4.158834228515625,-0.0063864861667156,0.0991743677183985,-0.119981301164627,0.0353572815656662,-0.010437598451972,0.0149212097749114
1783204468581772000,4.16877197265625,-0.0382610493332147,0.1148757947191596,-0.1197381400585174,0.0453436002135276,-0.0115223042666912,0.0083602461963891
1783204468591710200,4.178710205078125,-0.0666863488286733,0.0995354561157524,-0.1449918237805366,0.0521931461989879,-0.0152323711663484,0.0044930237345397
1783204468601648000,4.188648193359375,-0.1182435175865888,0.1087146417409181,-0.1568546955317258,0.0581439808011055,-0.0207357928156852,-0.0059851836413145
1783204468611585000,4.1985849609375,-0.1374038528695702,0.1321288350760936,-0.1659469335258007,0.0720946639776229,-0.0218875873833894,-0.0158926341682672
1783204468621523000,4.20852294921875,-0.1377542737424373,0.1019599067836999,-0.1530178938478231,0.0811438262462616,-0.0328417047858238,-0.0213680937886238
1783204468631460900,4.2184609375,-0.1315633101478218,0.0618891776800155,-0.1565513286709785,0.0871053710579872,-0.0429641418159008,-0.0304887145757675
1783204468641398800,4.228398681640625,-0.1027916814327239,0.089368282366544,-0.0947866541534662,0.0909025073051452,-0.0406967252492904,-0.0409141890704631
1783204468651336000,4.2383359375,-0.0886935979753732,0.080282912504673,-0.0402326416671276,0.0867746919393539,-0.0333651565015316,-0.0512049719691276
1783204468661273900,4.24827392578125,-0.0666848875239491,0.0696546971149742,-0.0106891517966985,0.0873832181096077,-0.0339955277740955,-0.0513586364686489
1783204468671212000,4.2582119140625,-0.0050628363475203,0.0227957691758871,-0.0084831661850214,0.0868521258234977,-0.0370280966162681,-0.0392136573791503
1783204468681150000,4.26814990234375,0.0218643335446715,0.0014160042777657,0.0200941090017557,0.083573505282402,-0.038069125264883,-0.0329083539545536
1783204468691087000,4.278087158203125,0.0223719908058643,0.0084168229505419,0.0835948135316371,0.0782883018255233,-0.0221918169409036,-0.0290902070701122
1783204468701025000,4.28802490234375,-0.015882336525619,0.0184149237431585,0.15798457634449,0.0836785361170768,0.027819950133562,-0.030486237257719
1783204468710963000,4.297962890625,-0.0600794979095458,-0.003782148887217,0.1786608691483736,0.1024283096194267,0.0487160310149192,-0.0339040830731391
1783204468720901000,4.307901123046875,-0.0509247160732746,0.0499383353844284,0.0991840123295784,0.0969275534152984,0.0523741468787193,-0.0350883901119232
1783204468730838000,4.317838134765625,-0.0320060805916786,0.0100759883344173,0.0920937618076801,0.0758890211582183,0.0371817126870155,-0.0352539680898189
1783204468740776000,4.32777587890625,-0.0451224595353007,-0.0315368556447327,0.1048112045615911,0.0529986172914505,0.0200080536305904,-0.0334094613790512
1783204468750714000,4.337714111328125,-0.03806464997828,-0.0337568697817623,0.122786421713233,0.0308168604969978,0.0040129204280674,-0.0351019352674484
1783204468760652000,4.347652099609375,-0.0306669409424066,-0.0502830571688711,0.1498795958220958,0.0123885842040181,-0.0084741096943616,-0.034024953842163
1783204468770589200,4.357589111328125,-0.0212619837373495,-0.0663461570888757,0.1802542758196592,-0.005889100022614,-0.003716493025422,-0.0380573570728302
1783204468780527000,4.367527099609375,-0.0131800918295979,-0.0778726364925503,0.19513561860919,-0.0197492539882659,0.0013360558077692,-0.0309861302375793
1783204468790465000,4.377465087890625,0.0002016600519418,-0.0973591349899768,0.207601132428646,-0.0314992219209671,0.0111455852165818,-0.0260761827230453
1783204468800403200,4.3874033203125,0.0255839385896921,-0.1053773140117526,0.2003185742050409,-0.0403494387865066,0.0205071289092302,-0.0212380196899175
1783204468810339800,4.39733984375,0.0517851322948932,-0.1097697037518024,0.1799853957504034,-0.0505707114934921,0.030135229229927,-0.0141176227480173
1783204468820278000,4.407278076171875,0.0625058482736349,-0.1125787698231637,0.148866619387269,-0.0584355592727661,0.028326142579317,-0.0076477387920022
1783204468830216000,4.4172158203125,0.0761973967567086,-0.1127547109119594,0.1151888061910867,-0.066165305674076,0.0247845593839883,0.0024013719521462
1783204468840153900,4.42715380859375,0.0986994436830282,-0.1112730940520763,0.0920095906555652,-0.0750536024570465,0.0259374417364597,0.0070400657132267
1783204468850091000,4.437091064453125,0.1199760404676199,-0.1140443123310804,0.0691407562434673,-0.089502565562725,0.0304409768432378,0.0136943478137254
1783204468860029000,4.44702880859375,0.117196931143105,-0.1070654132291674,0.0642266807168722,-0.0956845581531524,0.034204289317131,0.0206995271146297
1783204468869967000,4.456967041015625,0.1155021099239587,-0.0939636473327875,0.0214554604828357,-0.1024146378040313,0.0392947159707546,0.0302998833358287
1783204468879905000,4.466905029296875,0.1004383963048458,-0.0924547040745615,-0.0242395382434129,-0.1017014384269714,0.0377064049243927,0.0397200137376785
1783204468889842000,4.476842041015625,0.0694409082338213,-0.0761529730930924,-0.1046083754658699,-0.0945074260234832,0.0398732796311378,0.0470691137015819
1783204468899780000,4.486780029296875,0.0327601138293743,-0.0258072259515523,-0.1897726302713155,-0.0820044130086898,0.0347648039460182,0.0463250279426574
1783204468909718000,4.496718017578125,-0.0029386838003993,0.0101215810418128,-0.2512164022713899,-0.062382772564888,0.0297077279537916,0.0444435030221939
1783204468919656000,4.506656005859375,-0.0310574015647172,0.0295398366086184,-0.2804910120725631,-0.0445830076932907,0.0204146280884742,0.0417031124234199
1783204468929593000,4.516593017578125,-0.0370896674662828,0.0717018389031291,-0.2813186950683594,-0.0321759954094886,0.0181382223963737,0.0379399843513965
1783204468939531000,4.526531005859375,-0.0474801285773515,0.0929901261255145,-0.2734410935610533,-0.0197763182222843,0.0088035752996802,0.0300234723836183
1783204468949469200,4.53646923828125,-0.0497536264672875,0.0993503088071942,-0.2460655953794717,-0.0180117301642894,-0.0017784144729375,0.0226086676120758
1783204468959407000,4.546406982421875,-0.0413587230876088,0.1108159979343414,-0.2085124020546674,-0.0167256891727447,-0.009203840047121,0.0188304428011178
1783204468969344000,4.556343994140625,-0.0222089091986417,0.1214521043695509,-0.1668745697647333,-0.0145191764459013,-0.0163084678351879,0.0149637358263134
1783204468979282000,4.566281982421875,-0.0064221420019865,0.1119585920982062,-0.117124158167839,-0.0176704935729503,-0.0199407543987035,0.0144393602386116
1783204468989219800,4.5762197265625,0.0055894905701279,0.1000952819555997,-0.0757587130784988,-0.0153258722275495,-0.0200385600328445,0.0185979697853326
1783204468999158000,4.586157958984375,0.0098690675854682,0.1052747304201126,-0.0546574728608131,-0.0190825257450342,-0.0202345699071884,0.0203061215579509
1783204469009095000,4.596094970703125,-0.0098491938412189,0.0808016756817698,-0.025201661273837,-0.0165612883865833,-0.0121952164918184,0.0193872470408678
1783204469019032800,4.60603271484375,-0.0191097741395235,0.0891696910545229,-0.0048942017823457,-0.0182241648435592,-0.0111789535731077,0.0188239887356758
1783204469028971000,4.615970947265625,-0.0294184021860361,0.0930852570630609,0.0296715001642704,-0.0191708356142044,-0.0079736849293112,0.0170742310583591
1783204469038909000,4.625908935546875,-0.0415115755617618,0.0857936387501657,0.0599210924774408,-0.0220403932034969,-0.0037834672257304,0.0166222918778657
1783204469048846000,4.63584619140625,-0.0601958177655935,0.075970894524455,0.0743108523577451,-0.0318605378270149,-0.0015195710584521,0.014157879166305
1783204469058784000,4.645783935546875,-0.0784054281949997,0.075202540500462,0.0803676681786775,-0.0424250289797782,0.0003084223717451,0.0130537310615181
1783204469068722000,4.655721923828125,-0.0921054522454738,0.0527834956824779,0.0720645347356796,-0.045244313776493,0.0011494806967675,0.0104042459279298
1783204469078660000,4.66566015625,-0.1093178683310747,0.049588499033451,0.0791927791804075,-0.052582386881113,0.0017071464098989,0.006675022188574
1783204469088597000,4.675596923828125,-0.1254042029961943,0.0291097746282815,0.07519698754251,-0.0616656243801116,0.0033703483641147,-0.000779241323471
1783204469098535200,4.68553515625,-0.1430854056373238,0.0134255910232663,0.0682961221128702,-0.0608341917395591,0.0016550063155591,-0.0094717992469668
1783204469108473000,4.69547314453125,-0.13364625390172,-0.0034783436350524,0.0674006345778703,-0.0635730028152465,0.0026196832768619,-0.0106111317873001
1783204469118411000,4.705410888671875,-0.1279854516610503,-0.0342781171768903,0.0664262365877628,-0.0685224905610084,-0.0023236763663589,-0.0167779475450515
1783204469128348200,4.71534814453125,-0.1167830896452069,-0.0388847341895103,0.087944240912795,-0.0745460242033004,-0.0040467414073646,-0.0214414075016975
1783204469138286000,4.7252861328125,-0.1028501336216926,-0.0461696305006742,0.101336806449294,-0.0780464857816696,-0.0066598351113498,-0.0278172828257083
1783204469148224000,4.73522412109375,-0.1104202766150236,-0.0702433106578886,0.1178109713882207,-0.0864837691187858,-0.0088930409401655,-0.0333794504404068
1783204469158162200,4.745162109375,-0.0901738996610045,-0.0541838639996945,0.1590022289544344,-0.1033080220222473,-0.0134853944182395,-0.0449745841324329
1783204469168098800,4.755098876953125,-0.0870557676404714,-0.0718624362923204,0.1778250028461217,-0.1202400028705596,-0.0234045982360839,-0.0537182800471782
1783204469178037000,4.765037109375,-0.0384434201627969,-0.0610147329330444,0.1782365062564611,-0.1417870968580246,-0.0216221455484628,-0.0582038424909114
1783204469187975000,4.774974853515625,-0.0273743291378021,-0.0746539667069911,0.2031044055312871,-0.1683857887983322,-0.0167757384479045,-0.0673862025141716
1783204469197912800,4.784912841796875,-0.0175265966013073,-0.0542237576186656,0.1911789899379014,-0.1960267424583435,-0.0196724589914083,-0.0791027843952179
1783204469207850000,4.79485009765625,-0.0228530523210763,-0.0365146440573036,0.1502419993937015,-0.2216517776250839,-0.0296431425958871,-0.0912720635533332
1783204469217788000,4.804787841796875,-0.0434627096295356,0.0063924775160849,0.0990489877730607,-0.2496312111616134,-0.0542009472846984,-0.1160410568118095
1783204469227726000,4.81472607421875,-0.0735270085036754,0.0624548487387597,0.0533007975548505,-0.2855463027954101,-0.0737043768167495,-0.1421097815036773
1783204469237664000,4.8246640625,-0.1695429121911525,0.0434933970287442,0.0678577306956052,-0.3296940326690674,-0.1100930124521255,-0.1751747876405716
1783204469247601200,4.83460107421875,-0.248431739988923,0.0958652431704103,0.0371159709513187,-0.3795223832130432,-0.1551326960325241,-0.2237482666969299
1783204469257539000,4.8445390625,-0.2875125812724232,0.1746473957233131,0.0420510892659425,-0.4363401234149933,-0.2013185620307922,-0.2816964983940124
1783204469267477000,4.85447705078125,-0.3140869922041893,0.1905534053854644,0.0661363137304782,-0.4901661872863769,-0.240912914276123,-0.3319625854492187
1783204469277415000,4.864414794921875,-0.2706526318863034,0.1663409012794494,0.1103343518972396,-0.5374420881271362,-0.2587036490440368,-0.3673791885375976
1783204469287352000,4.87435205078125,-0.0968722282558679,0.143495447742939,0.1144213289499282,-0.5475167632102966,-0.2278081476688385,-0.3703148365020752
1783204469297290000,4.8842900390625,0.0759203333809971,0.0338620837219059,0.0745563515514135,-0.530757486820221,-0.1854140907526016,-0.3422565758228302
1783204469307228200,4.894228271484375,0.2161132324472069,-0.0711649555474519,-0.0576741903334856,-0.4874987006187439,-0.1385970264673233,-0.2955060303211212
1783204469317166000,4.904166015625,0.3448243680343031,-0.0828664992570877,-0.1919540659636259,-0.4179033935070038,-0.0878454148769378,-0.2400888353586197
1783204469327103200,4.914103271484375,0.4425836082577705,-0.1436173205569386,-0.3378279332756996,-0.3365769982337951,-0.0438468679785728,-0.1667018830776214
1783204469337041200,4.924041259765625,0.4835761283814906,-0.2057359230786561,-0.4486591287791728,-0.250440776348114,-0.0043085142970085,-0.0935440510511398
1783204469346979000,4.93397900390625,0.491250024010241,-0.2269508528038859,-0.5410615181446076,-0.1631568670272827,0.0287753865122795,-0.0229191966354846
1783204469356917200,4.943917236328125,0.480675438503921,-0.2090206438377499,-0.6011112054377794,-0.0783452913165092,0.0508609823882579,0.0426299832761287
1783204469366854100,4.953854248046875,0.4472121448412537,-0.1547518780335784,-0.6190092656999826,-0.0043708579614758,0.0650838017463684,0.0965316966176033
1783204469376792300,4.963792236328125,0.3644564124822616,-0.0863251152783632,-0.607378449138999,0.0443830974400043,0.0698077231645584,0.124362789094448
1783204469386730200,4.973730224609375,0.2733092838749289,0.0051817865520715,-0.5534942987382412,0.075013592839241,0.0608005933463573,0.1379401981830597
1783204469396668200,4.983668212890625,0.1596364352047443,0.0624479806065559,-0.51155251506567,0.0895805433392524,0.0426897667348384,0.1393564641475677
1783204469406605000,4.99360498046875,0.0712622784420847,0.1102317683055996,-0.4430184925436973,0.0897573381662368,0.0212820116430521,0.1321174353361129
1783204469416543000,5.00354296875,0.015279986718297,0.123560328695178,-0.4012029655992984,0.0879613012075424,-0.0041841990314424,0.1219020783901214
1783204469426481000,5.01348095703125,-0.0170695004835724,0.1480593946576118,-0.3597743921458721,0.0860516130924224,-0.027495052665472,0.1090111806988716
1783204469436419000,5.023419189453125,-0.0398366280868649,0.157397131845355,-0.2936713961631059,0.0759409219026565,-0.0394233539700508,0.0849609747529029
1783204469446356000,5.03335595703125,-0.0712508802652358,0.1926052233487367,-0.2106014832884073,0.0664490684866905,-0.0483325198292732,0.0629406124353408
1783204469456294100,5.043294189453125,-0.0943880102246999,0.2278860878273844,-0.1323860247075557,0.0563002936542034,-0.0511275082826614,0.0407085418701171
1783204469466232000,5.053232177734375,-0.1033832175850868,0.2008510736465454,-0.095984339505434,0.0481055490672588,-0.0483058616518974,0.019131975248456
1783204469476170000,5.063169921875,-0.1025324459746479,0.1707791759878396,-0.0580471152991056,0.0393448136746883,-0.0562655180692672,0.0017881393432617
1783204469486107100,5.073107177734375,-0.0796276634663343,0.1510483473405242,-0.0329494989216327,0.0300232265144586,-0.0495084784924984,-0.0100425034761428
1783204469496045000,5.083045166015625,-0.0440697356119751,0.1203241232529282,0.0089934537947177,0.0280223935842514,-0.0396158993244171,-0.0156862754374742
1783204469505983200,5.092983154296875,0.0247965876042842,0.0688265757277607,0.0028705870002508,0.0320983119308948,-0.0333256311714649,-0.0101938284933567
1783204469515921200,5.102921142578125,0.070071899613738,0.0029033202260732,-0.0339981311917305,0.0356786660850048,-0.0326127000153064,0.0039760526269674
1783204469525859000,5.112859130859375,0.0966185457557439,-0.0152756028041243,-0.0445265394687652,0.0407629013061523,-0.0237976964563131,0.0107671879231929
1783204469535796200,5.122796142578125,0.1031955860584974,-0.0168242935508489,-0.0312765972733497,0.0456303618848323,-0.0247172862291336,0.0280700139701366
1783204469545734100,5.132734130859375,0.0845847013518214,-0.0606748334541916,-0.0675637161850929,0.0551583059132099,-0.0285526104271411,0.0415551327168941
1783204469555672000,5.142672119140625,0.0573211391121149,-0.0981117069229483,-0.0760521430671215,0.0669987201690673,-0.027263905853033,0.0554935857653617
1783204469565610200,5.1526103515625,0.01874327891469,-0.0881768806248903,-0.0510538954108953,0.0710166990756988,-0.0231935046613216,0.0562273785471916
1783204469575547000,5.162546875,-0.0129813543871045,-0.0630164281442761,-0.0070335518985986,0.0754101201891899,-0.0226488895714283,0.0563554763793945
1783204469585485000,5.172485107421875,-0.0328092136681079,-0.0785436676219105,-0.0051882162928581,0.0809159576892852,-0.0270160213112831,0.0609047189354896
1783204469595423000,5.182423095703125,-0.0392114819258451,-0.0845356015130877,0.0230593885481357,0.0769449174404144,-0.0251984149217605,0.0611883476376533
1783204469605361000,5.19236083984375,-0.0586664162412285,-0.0609358224779367,0.0562052868247032,0.0721012353897094,-0.0260372683405876,0.0538604818284511
1783204469615298000,5.202298095703125,-0.0760822459444403,-0.035093817473948,0.1124409687876701,0.065885953605175,-0.0209405124187469,0.0485256388783454
1783204469625236000,5.212236083984375,-0.0785363610982894,-0.0365533686324954,0.1440413911879062,0.0553163513541221,-0.0147552974522113,0.0407481901347637
1783204469635174100,5.222174072265625,-0.0440206357732415,-0.0153688340455293,0.1730851148426532,0.0438370630145072,-0.0113134291023015,0.0382197834551334
1783204469645112000,5.232112060546875,-0.0179331315755844,-0.0141132810264825,0.1966787563979625,0.026516605168581,-0.0047522378154098,0.0347186997532844
1783204469655049000,5.242049072265625,0.0004255319356918,-0.0170177702963352,0.1951321114778518,0.0104092732071876,-0.0013774801045656,0.0347426682710647
1783204469664987100,5.251987060546875,0.0081236852228641,-0.0371820219248533,0.1582248148411512,-0.0044796532019972,-0.0011641038581728,0.0372137390077114
1783204469674925000,5.261925048828125,0.0019596096351742,-0.0320218626827001,0.1225952830553054,-0.014985023997724,-0.0059604570269584,0.0399522669613361
1783204469684863000,5.271863037109375,-0.0284855052500963,-0.0209901810586452,0.0740115771502256,-0.018704354763031,-0.0067398590035736,0.0403321012854576
1783204469694800100,5.281800048828125,-0.0621913754969835,-0.0270069571301341,0.0301443783730268,-0.0216466151177883,-0.0082871560007333,0.0383419208228588
1783204469704738000,5.291738037109375,-0.0899929901361465,-0.0319394450962543,-0.0278472073465585,-0.0180536806583404,-0.0067241638898849,0.0381447486579418
1783204469714676200,5.30167626953125,-0.1102083874300122,0.0010123919129371,-0.0426584075093269,-0.0127992630004882,-0.0098073063418269,0.0277214013040065
1783204469724614100,5.3116142578125,-0.1267903966575861,0.0148120769456028,-0.0614075316429138,-0.001539722084999,-0.0104731451719999,0.0183503963053226
1783204469734551300,5.32155126953125,-0.1280570555925369,0.0112158060193061,-0.0925187092214822,0.0139446957036852,-0.0071625695563852,0.0129519030451774
1783204469744489200,5.3314892578125,-0.134399702617526,0.0185749366104602,-0.1131038166105747,0.033031191676855,-0.0047544166445732,0.0082912156358361
1783204469754427100,5.34142724609375,-0.1313268710434436,0.0635538960218429,-0.1130856964319944,0.052992645651102,0.0017471588216722,-4.55442350357e-05
1783204469764365300,5.351365234375,-0.101892686766386,0.0656987990960478,-0.0993652141153812,0.0651628002524375,0.0112355165183544,-0.0041895490139722
1783204469774302000,5.361302001953125,-0.0639911183953285,0.0844540607094764,-0.0511573557853698,0.0688645914196968,0.0143876336514949,-0.0049101999029517
1783204469784240000,5.371240234375,-0.0286082548469305,0.0929822350800037,-0.0272404736250638,0.0690476447343826,0.0183766707777977,-0.0061672735027968
1783204469794178000,5.381177978515625,-0.0097121234580874,0.0837907744951546,-0.0533230093866586,0.0710487365722656,0.0185974463820457,-0.0044583231210708
1783204469804116000,5.391115966796875,0.0044438276663422,0.086416885215044,-0.0687386051833629,0.0694582089781761,0.0124469883739948,-0.0077720331028103
1783204469814054000,5.401053955078125,0.0280836464509367,0.1342325293570757,-0.0870469998121261,0.059224747121334,0.010442960076034,-0.01342991925776
1783204469823991000,5.410990966796875,0.0378419471383094,0.1242529871344566,-0.0840904880940914,0.0504139997065067,0.0055618286132812,-0.0119055425748229
1783204469833929000,5.420928955078125,0.0480249029785394,0.120882049396634,-0.0709463443607091,0.0405680239200592,0.0007244627922773,-0.0157492831349372
1783204469843867100,5.4308671875,0.0662348056688904,0.1287904844336211,-0.098861940768361,0.0340817682445049,-0.003495056182146,-0.0156510099768638
1783204469853805000,5.44080517578125,0.0704381025776267,0.0993549849823117,-0.1231599312007427,0.0288526527583599,-0.0128816328942775,-0.0102985883131623
1783204469863742200,5.4507421875,0.0713496644645929,0.0889157162934541,-0.1321066232442855,0.0262063071131706,-0.0165330450981855,-0.0077399490401148
1783204469873680100,5.46068017578125,0.0750479344606399,0.0787353908017277,-0.1376706871122121,0.0331619530916214,-0.0192244350910186,0.0004604563582688
1783204469883618000,5.4706181640625,0.0616042232587933,0.0577297199130058,-0.1458159996449947,0.0434227287769317,-0.0228583924472332,0.0116540174931287
1783204469893556200,5.48055615234375,0.0442825015798211,0.0446286846689879,-0.162287241974473,0.0604970529675483,-0.012824666686356,0.0162157453596591
1783204469903493000,5.4904931640625,0.0376063848167657,0.0569480680160224,-0.1504290463984012,0.0850051343441009,0.0040235803462564,0.0214481558650732
1783204469913431000,5.50043115234375,-0.0050210430324077,0.0615501549839973,-0.1533218452304601,0.1044166460633277,0.010136067867279,0.0275478605180978
1783204469923369200,5.510369140625,-0.0161082542359828,0.0625647388540208,-0.1546954716712236,0.1212729215621948,0.0124548496678471,0.0305733829736709
1783204469933307100,5.52030712890625,-0.0225093534499406,0.0506242718219757,-0.1572843191206455,0.1305660307407379,0.0158005785197019,0.0334402769804
1783204469943244000,5.530244140625,0.0026551906839013,0.0509951509609818,-0.1283826342850923,0.1367735117673874,0.0200877115130424,0.031025756150484
1783204469953182000,5.540181884765625,0.0025330256089568,0.0469186953023076,-0.0806640207767486,0.133698359131813,0.0159267876297235,0.0289223939180374
1783204469963119900,5.550119873046875,0.0037353871360421,0.0341067061327397,-0.050664603832364,0.1266335994005203,0.0122982561588287,0.0281930491328239
1783204469973058000,5.56005810546875,0.0252419932842254,0.0294470437586307,-0.0143032506406307,0.1083991974592208,0.0067045525647699,0.0196610819548368
1783204469982995000,5.569994873046875,0.016786884149909,0.0415049996905028,0.0121013566821813,0.0896854475140571,-0.0015790099278092,0.010243902914226
1783204469992933000,5.57993310546875,0.0002840776383876,0.0079753627933561,0.0070212769389152,0.0665172785520553,-0.0172490496188402,0.0081621101126074
1783204470002871000,5.58987109375,0.002810381245613,-0.0188759653836488,0.0267880536824464,0.0546214617788791,-0.0244451109319925,0.0002887148875743
1783204470012809000,5.59980908203125,0.0117246323242783,-0.013997691822797,0.0454722958862781,0.039003886282444,-0.0263732373714447,0.0004719404969364
1783204470022746000,5.60974609375,0.011921031679213,-0.0349834889672696,0.0302314721345901,0.0368615761399269,-0.0265471134334802,-8.4002967923e-06
1783204470032684000,5.61968408203125,-0.008854922106862,-0.0764693455658853,0.0198234753668308,0.0392227359116077,-0.0224546324461698,0.0016310417558997
1783204470042622200,5.629622314453125,-0.0072805123969912,-0.0856267577506601,0.0031149171501398,0.046156458556652,-0.0198243241757154,0.0080069014802575
1783204470052560100,5.63956005859375,-0.0001814940467476,-0.0798655638754367,0.0116612116992473,0.0536138415336608,-0.015878053382039,0.0103448899462819
1783204470062498000,5.649498046875,-0.005900748476386,-0.0805491622254252,0.0274129075825214,0.0592635534703731,-0.0029152855277061,0.0136328432708978
1783204470072435200,5.659435302734375,-0.0177677118808031,-0.0733880384244024,0.0564753359377384,0.0574667192995548,0.0036273018922656,0.0149891916662454
1783204470082373000,5.669373046875,-0.0083376202344894,-0.0642436318516731,0.0904231982469558,0.0585041232407093,0.0034931655973196,0.0193737838417291
1783204470092311000,5.67931103515625,-0.0076461308389902,-0.063515463707596,0.0989057799100875,0.0503319464623928,0.0076165380887687,0.0223008636385202
1783204470102249200,5.689249267578125,-0.0089876085758209,-0.0685308076515793,0.1011538510978221,0.0405162870883941,0.0079346084967255,0.0242710895836353
1783204470112186000,5.69918603515625,-0.0183934425637125,-0.0690941406227648,0.0936070889800786,0.0282510966062545,0.0006596515886485,0.026927325874567
1783204470122124300,5.709124267578125,-0.024847441008687,-0.0689972561195492,0.0798608877003192,0.0236519649624824,-0.0052459808066487,0.0295955743640661
1783204470132062200,5.719062255859375,-0.0518839164942502,-0.0529011307127773,0.0916202990770339,0.0190707948058843,-0.0005753291770815,0.0343746207654476
1783204470142000000,5.729000244140625,-0.0736477122738957,0.0005948971532285,0.1164157176375389,0.0161143355071544,0.0060163019225001,0.0240004174411296
1783204470151937000,5.73893701171875,-0.0834717716738581,0.0394828462131321,0.105738256278634,0.0125342486426234,0.0158763900399208,0.0202791821211576
1783204470161875000,5.748875,-0.08735679641366,0.0138803490534424,0.0826291833698749,0.0079287663102149,0.0222907830029726,0.0172362402081489
1783204470171813000,5.758813232421875,-0.1038736314505338,0.0287777661949396,0.0796995596587658,0.0048765176907181,0.0280251018702983,0.0106646250933408
1783204470181751000,5.7687509765625,-0.0931704511284828,0.0597093494229018,0.0617787030428648,-0.0033264532685279,0.0302907396107912,-0.0021460144780576
1783204470191688000,5.77868798828125,-0.0749175860792398,0.0665150839149952,0.0102466687262058,0.0159287340939044,0.0474353693425655,-0.0025548096746206
1783204470201626000,5.788626220703125,-0.0405409769639372,0.0848011205814778,0.0150607910096645,-0.0048563200980424,0.0405090972781181,-0.0126785794273018
1783204470211564000,5.79856396484375,-0.0638841508895158,0.0618337942309677,0.0278039527267217,-0.0154578313231468,0.029302779585123,-0.010907843708992
1783204470221502000,5.808501953125,0.0433326535090804,0.0446561571978032,-0.0739963795810937,-0.0220597609877586,0.0207360293716192,-0.0106025813147425
1783204470231440100,5.818440185546875,0.0409177013218402,0.0644872313492,-0.1027665469914674,-0.0275618508458137,0.0092868339270353,-0.0090219946578145
1783204470241377000,5.828376953125,0.0312204831719398,0.0506447300881147,-0.1310772801965475,-0.0225903093814849,0.0071889557875692,-0.0086177913472056
1783204470251315200,5.838315185546875,0.0203027833163738,0.0371988269291818,-0.1601332788109779,-0.0173385553061962,0.0061279525980353,-0.0047716544941067
1783204470261253000,5.848253173828125,0.0111389413908123,0.0502870026916265,-0.1629647028446197,-0.0129017578437924,-0.002679041121155,-0.0068425606004893
1783204470271191000,5.85819091796875,0.0154784318998456,0.0507885224729776,-0.2012327664405107,0.0017187306657433,-0.0074961665086448,-0.005511512979865
1783204470281128200,5.868128173828125,0.0134282213717699,0.045682285375148,-0.1947083331078291,0.0127851925790309,-0.0102094421163201,-0.0036775339394807
1783204470291066000,5.878066162109375,-0.0046361353680491,0.0363211673118174,-0.1738467468649149,0.0289915930479764,-0.0090925134718418,-0.0022854995913803
1783204470301004300,5.88800439453125,-0.0005497428372502,0.0366344710446894,-0.1497258665651082,0.0370147451758384,-0.0092391800135374,-0.0051966300234198
1783204470310942200,5.897942138671875,-0.015363865609467,0.0431219333678483,-0.0989250691324472,0.0408166758716106,-0.010063961148262,-0.0061202142387628
1783204470320879000,5.907879150390625,-0.0063406011983752,0.0338135684050619,-0.055163084295392,0.0361144579946994,-0.006867095362395,-0.0047779846936464
1783204470330817300,5.9178173828125,0.0036810266003012,0.0350777431219816,0.0013204349488019,0.0309583116322755,-0.0104312039911746,-0.0079442169517278
1783204470340755200,5.927755126953125,0.0071077861785888,0.0336170229196548,0.0385953958541154,0.0195616446435451,-0.0156827233731746,-0.008682538755238
1783204470350693000,5.937693115234375,0.0090919457331299,0.0066498132780194,0.0601373655766248,0.0087422858923673,-0.0106067396700382,-0.006530970800668
1783204470360630000,5.947630126953125,0.0048678982973098,0.0118351069614291,0.083531685167551,0.0018220888450741,-0.0075132912024855,-0.0083059351891279
1783204470370568000,5.95756787109375,0.0045221535995602,0.0260480489701032,0.0879722979635,-0.0022102035582065,-0.0006338134407997,-0.0083546712994575
1783204470380506000,5.967506103515625,0.0071124623537063,0.0067934595324099,0.0581856469869613,-0.0006879679858684,0.0040826546028256,-0.0047985021956264
1783204470390444000,5.977444091796875,0.0128135966047644,-0.0156064421936869,0.0125537766247987,-0.003413712605834,0.0093916663900017,-0.0054536396637558
1783204470400381200,5.987381103515625,0.0197509946525096,0.0132794605508446,-0.0011620295166969,-0.00220263376832,0.0034669958986341,-0.00818239338696
1783204470410319000,5.997319091796875,0.0240960381194949,-0.000207943662256,-0.0271317525535821,-0.0003573289141058,-0.001353592146188,-0.0020600529387593
1783204470420257000,6.007257080078125,0.0123801736235618,-0.0354964069254696,-0.0445417370378971,0.0014983611181378,-0.0045451237820088,0.003671602346003
1783204470430195200,6.0171953125,0.0007967033356428,-0.0255282628796994,-0.0503986463725566,0.0025122268125414,-0.0048737586475908,0.0005098977126181
1783204470440133000,6.027133056640625,0.0022644378006458,-0.0050887014411389,-0.0377940163433551,0.006226067431271,-0.0075617195107042,-0.0004151118919253
1783204470450070000,6.037070068359375,-0.0107508188560605,-0.0060256900303065,-0.0262818577259778,0.0058628120459616,-0.0079798363149166,0.0004639974795281
1783204470460008200,6.04700830078125,-0.0201522689297795,-0.0011494622960686,-0.0269429519832134,0.0035761594772338,-0.0073243989609181,-0.0010120989754796
1783204470469946000,6.056946044921875,-0.0056128714457154,0.0027864158481359,-0.012387187886238,0.0047375643625855,-0.009432291612029,-0.0038214677479118
1783204470479883300,6.06688330078125,-0.0018456278666853,0.0035563773073256,0.0011480009913444,0.0004560379311442,-0.0110080363228917,-0.0050847306847572
1783204470489821200,6.0768212890625,-0.0026309330254793,-0.0048749125599861,0.0040717794835567,-0.000408424064517,-0.0098365107551217,-0.0045659467577934
1783204470499759000,6.086759033203125,0.0094482118248939,-0.0071720835864543,0.0124251818090677,-0.0015030214563012,-0.0060854968614876,-0.007057474926114
1783204470509697300,6.096697265625,0.0135234984397888,-0.0142396838851273,0.0122515788078308,-0.0028087692335247,-0.004327277187258,-0.0090140989050269
1783204470519635200,6.10663525390625,0.0167839615404605,-0.0167374920502305,0.0079787237942218,-0.0025788936764001,-0.0020400495268404,-0.0015164369251579
1783204470529572400,6.116572265625,0.0313116685867309,-0.0349137847319245,-0.0110860421597957,0.002496825531125,-0.0012863748706877,-0.0005992441438138
1783204470539510300,6.12651025390625,0.041902912966907,-0.0259036720633506,-0.0209030872970819,-0.0023900158703327,-0.0038192817009985,0.0029503148980438
1783204470549448000,6.136447998046875,0.0354030295535922,-0.0213910169444978,-0.0253185656517744,0.0019149836152791,-0.0015159137547016,0.0045703155919909
1783204470559385000,6.146385009765625,0.0284399125427007,-0.0092779698245227,-0.0171662388563156,0.0018326668068766,-0.0018723728135228,0.0056085744872689
1783204470569323000,6.156322998046875,0.0193050044506788,-0.0125417939260602,-0.0152495915800333,0.0004619378596544,-0.001125356182456,0.0061108469963073
1783204470579261200,6.16626123046875,0.0145391052231192,-0.0224352653004229,-0.0258551567465066,0.000109052285552,-0.006059696432203,0.0107022542506456
1783204470589199000,6.17619921875,0.00632218875885,-0.0174067696139216,-0.0340402167677879,0.002046768553555,-0.0078789014369249,0.0127739273011684
1783204470599137000,6.186136962890625,0.00179039054811,-0.0012225275322794,-0.0274701907277107,0.0079714162275195,-0.0058844415470957,0.0125364754348993
1783204470609074200,6.19607421875,-0.0115744101986289,0.0265548294484615,-0.0220692084670066,0.0067695318721234,-0.0039869388565421,0.0103947613388299
1783204470619012000,6.20601220703125,-0.0109416652530431,0.0382554963752627,-0.0114092827647924,0.0042492868378758,-0.000951275229454,0.0022423204500228
1783204470628950000,6.215949951171875,-0.0045054947257041,0.0353632820650935,-0.0276139831125736,0.0052029653452336,-0.0048815682530403,1.00589822977e-05
1783204470638887200,6.22588720703125,-0.0013411854758858,0.0214189278647303,-0.0374655150413513,0.0058675636537373,-0.010008830577135,0.0014679853338748
1783204470648825000,6.2358251953125,0.0083937343358993,0.0333563261568546,-0.034601357781887,-0.0012084553018212,-0.0166912339627742,0.0012101915199309
1783204470658763300,6.24576318359375,0.0074698974892497,0.0317560513533651,-0.0133341133475303,-0.0023681875318288,-0.0145416427403688,-0.0006610064301639
1783204470668701200,6.255701171875,0.0057952422752976,0.0322387203037738,-0.0090922379940748,-0.0022946838289499,-0.0121051166206598,-0.0004945588298141
1783204470678638300,6.265638427734375,0.016906126615405,0.037245004158467,-0.0129950906515121,-0.0014477586373686,-0.0120113473385572,-0.0008768902625888
1783204470688576300,6.275576171875,0.0052846624046564,0.0224123228162527,-0.0142342770576477,-0.0027162218466401,-0.015972800552845,0.0015947895590215
1783204470698514200,6.28551416015625,-0.0063762570336461,0.0122042325347661,-0.0232400058120489,-0.0018220758065581,-0.0153224971145391,0.0018183498177677
1783204470708452400,6.295452392578125,-0.0156070267155766,0.0113937929347157,-0.031744214785099,0.0064888508059084,-0.0183585006743669,0.0006444284226745
1783204470718389000,6.305388916015625,-0.0204442376136779,0.0132996265560388,-0.0371931278407573,0.0076111573725938,-0.0211570039391517,0.0014238005969673
1783204470728327000,6.315326904296875,-0.0305234408184885,0.0049728199765086,-0.015830021816492,0.0121260145679116,-0.0203183777630329,0.0034739023540169
1783204470738265000,6.32526513671875,-0.0402642058491706,0.0101055066898465,0.0047346273064613,0.0176669061183929,-0.0162137188017368,-0.0021453402005136
1783204470748203000,6.335203125,-0.0412710448041558,0.0192217100813984,0.0400432565748691,0.0214083809405565,-0.0074918675236403,-0.0037474979180842
1783204470758140200,6.34514013671875,-0.0469634112268686,0.0105693248093128,0.0601297667920589,0.0212364438921213,-0.0061176596209406,-0.0029018975328654
1783204470768078000,6.355078125,-0.0434770304158329,6.42974078655e-05,0.0835848766595125,0.0229874737560749,-0.0020076036453247,-0.0029450408183038
1783204470778016000,6.36501611328125,-0.0522474891096353,0.0040935529239475,0.0949205096662044,0.0224468186497688,0.0003715367056429,-0.0049108271487057
1783204470787953200,6.374953125,-0.0605538374230265,0.0169729082413017,0.1194172375410795,0.0150589421391487,0.0066022682003676,-0.0064602540805935
1783204470797891000,6.38489111328125,-0.0661383595570921,0.0203751179002225,0.1228600714713335,0.0087701845914125,0.0094888946041464,-0.0105462437495589
1783204470807829200,6.394829345703125,-0.0916238062083721,0.0388835651457309,0.1194160684973001,0.0068875956349074,0.0142010916024446,-0.0180459711700677
1783204470817767200,6.40476708984375,-0.1265375909402966,0.0345069574967026,0.1096206506699323,0.008339824154973,0.0162665601819753,-0.0309596061706542
1783204470827704000,6.4147041015625,-0.1667395452082157,0.071374652775377,0.0890384658902883,0.0134887807071208,0.0301698576658964,-0.0411201007664203
1783204470837642200,6.424642333984375,-0.1516843071565032,0.0742817723937332,0.0899240165531635,0.0111752850934863,0.0390981845557689,-0.0532004982233047
1783204470847580200,6.434580078125,-0.135636258675158,0.0870506530739367,0.0644569823414087,0.0001197038218379,0.0299590155482292,-0.0670800879597663
1783204470857518000,6.44451806640625,-0.1433142459571361,0.1012831765659153,0.0237187292397022,0.0004238849505782,0.0376247093081474,-0.0853835940361023
1783204470867455200,6.454455322265625,-0.1659405037850141,0.0656529141277074,-0.0076648355394601,0.012943404726684,0.0526188351213932,-0.1025716364383697
1783204470877393200,6.46439306640625,-0.1679389841258525,0.0912571648530662,-0.042300095590949,0.023039286956191,0.0596482641994953,-0.1105416268110275
1783204470887331300,6.474331298828125,-0.0581193037524819,0.0730753192134201,-0.0681423928558826,0.0371103659272193,0.0549262128770351,-0.1077461093664169
1783204470897268000,6.48426806640625,0.0056947045102715,0.0249187526792287,-0.0483311924487352,0.0249914973974227,0.0705927312374115,-0.1005120798945427
1783204470907206100,6.4942060546875,0.0533525277420878,-0.0046656537234783,0.03330897988379,0.0384029112756252,0.0588921308517456,-0.0876114666461944
1783204470917144000,6.50414404296875,0.1675888555139303,-0.0268196178644895,-0.0620545973747968,0.0301008410751819,0.0435603857040405,-0.0725118964910507
1783204470927082000,6.51408203125,0.1894321462705731,-0.012342471961677,-0.0062391866505146,0.0234296228736639,0.0373629443347454,-0.0573678389191627
1783204470937019100,6.52401904296875,0.2061111861318349,-0.071632865320146,-0.0089092826426029,0.0170412249863147,0.0247694663703441,-0.0345017053186893
1783204470946957000,6.53395703125,0.2095195332705974,-0.0613606237612664,-0.0033504794716835,0.0125066619366407,0.020689770579338,-0.0188945140689611
1783204470956895200,6.543895263671875,0.1889057843089103,-0.0640814270272851,0.0048287353307008,0.0082480497658252,0.0257889740169048,-0.0083786165341734
1783204470966832000,6.55383203125,0.160507957342267,-0.0285509717017412,0.0056628480672836,0.0098747089505195,0.0318018607795238,-0.0053862892091274
1783204470976770000,6.56377001953125,0.1273810560271144,-0.0295315071716904,-0.0304179346174001,0.0095554515719413,0.0293445289134979,0.0008323653601109
1783204470986708200,6.573708251953125,0.0957099064782261,-0.023499971922487,-0.0602028320282697,0.0049260789528489,0.0186008028686046,0.0038228286430239
1783204470996646100,6.583646240234375,0.0821294171541929,-0.0372305372416973,-0.0722907447069883,4.30736690759e-05,0.0085400845855474,0.0055615929886698
1783204471006583300,6.593583251953125,0.0683612963035702,-0.0501964017987251,-0.1094616607159376,0.0028359303250908,-0.0041354969143867,0.0096173211932182
1783204471016521200,6.603521240234375,0.0510702620238065,-0.054767655237019,-0.1179682077765464,0.0078083272092044,-0.0119421808049082,0.0076735457405447
1783204471026459100,6.613459228515625,0.0365977922961115,-0.0461104476593434,-0.1118178684532642,0.0172249972820281,-0.0155771290883421,0.0122009189799427
1783204471036396000,6.62339599609375,0.0163216047257184,-0.0528644519641995,-0.074180503976345,0.0249654203653335,-0.0186759512871503,0.0166168007999658
1783204471046334000,6.633333984375,-0.0041527357652783,-0.0427884636297822,-0.0378460387915372,0.0323264002799987,-0.0163350328803062,0.0181174930185079
1783204471056272100,6.643272216796875,-0.0138745038345456,-0.0331985052466392,0.0105009357482194,0.0315859802067279,-0.0147151872515678,0.0160930175334215
1783204471066209000,6.653208984375,-0.0224719440490007,-0.0294759775921702,0.0521422751694917,0.0272088088095188,-0.0116930305957794,0.0138130839914083
1783204471076147200,6.663147216796875,-0.0288806420475244,-0.0212543849527835,0.0977770681411027,0.0246252864599227,-0.0118168424814939,0.0126752154901623
1783204471086085000,6.673085205078125,-0.0645487522780895,-0.0164316409714519,0.1093821657389402,0.0201692841947078,-0.0066590984351933,0.0068772481754422
1783204471096023000,6.68302294921875,-0.0836444978922605,0.0070414429441094,0.1216641396850347,0.0156710986047983,-0.0069554182700812,0.0024508282076567
1783204471105960200,6.692960205078125,-0.1009501452192664,0.0122124158412218,0.1546995633244514,0.0093985553830862,2.95205973088e-05,-0.0044081429950892
1783204471115898000,6.702898193359375,-0.1251385377973318,0.0177592363134026,0.1751075605809688,0.0058123432099819,0.006332503631711,-0.0141145996749401
1783204471125836000,6.7128359375,-0.1370624920859932,0.0340108445428311,0.1811725597083568,-0.0044482834637165,0.0069125401787459,-0.0232167523354291
1783204471135773200,6.722773193359375,-0.1211567746847867,0.0487238450281322,0.1960164930969476,-0.0150633826851844,0.0052800485864281,-0.0346416123211383
1783204471145711000,6.732711181640625,-0.0864613088786602,0.050254269465804,0.1936778210163116,-0.0244464986026287,0.0160187128931283,-0.0380046516656875
1783204471155649300,6.742649169921875,-0.0606608049288392,0.0209586168766021,0.172216515314579,-0.0304966643452644,0.0230304431170225,-0.0396976880729198
1783204471165586200,6.752586181640625,-0.023204349976778,0.0143850837051868,0.1490349616914987,-0.0319523476064205,0.0274478290230035,-0.0365479700267314
1783204471175524400,6.7625244140625,-0.001312836164236,0.0043768999099731,0.0799555802464485,-0.029394119977951,0.0364121347665786,-0.0319379717111587
1783204471185462300,6.772462158203125,0.0014890695139765,0.002136281376332,0.0302566065758466,-0.0201201923191547,0.0409296564757823,-0.0263597145676612
1783204471195399200,6.782399169921875,0.0300426715642213,0.0022045243069529,-0.0236579389631748,-0.0127767035737633,0.037877183407545,-0.0223669558763504
1783204471205337000,6.792337158203125,0.0471367219671607,0.0172182613044977,-0.0693769030869007,-0.0067068273201584,0.0346861816942691,-0.016559399664402
1783204471215275000,6.80227490234375,0.0518573207482695,0.0241663268767297,-0.0643897623240947,-0.0058487392961978,0.0344757661223411,-0.0155767947435379
1783204471225213000,6.812212890625,0.0609668021380901,0.0271399358600378,-0.0766191293001175,-0.0070120077580213,0.033826220780611,-0.0149648003280162
1783204471235150000,6.822150146484375,0.075217445808649,0.0156017660185694,-0.0841992091655731,-0.0096042547374963,0.0270076114684343,-0.0111384214833378
1783204471245087200,6.832087158203125,0.082720368784666,0.0015051438659429,-0.1163572654485702,-0.013944674283266,0.0184660553932189,-0.0060973237268626
1783204471255025200,6.842025146484375,0.0949170025348663,-0.0134891577787697,-0.1384054311275482,-0.0122051490470767,0.0038216307293623,-0.0041507263667881
1783204471264962300,6.85196240234375,0.0769654585197568,-0.0226889478005468,-0.1627840855807066,-0.0081249186769127,-0.0070967967621982,0.0019878600724041
1783204471274900200,6.861900146484375,0.0622983430027961,-0.0226180745214223,-0.1807604717761278,0.000556374900043,-0.0165291428565979,0.0005692786071449
1783204471284838100,6.871838134765625,0.0519376925081014,-0.0231125800400972,-0.1539268253862857,0.0150876464322209,-0.0151160694658756,-0.0019125210819765
1783204471294775300,6.881775390625,0.054957917112112,-0.0219442669130861,-0.1210194120407104,0.0245215594768524,-0.0175823643803596,0.0037221231032162
1783204471304713200,6.891713134765625,0.0306397606745362,-0.0025714579232037,-0.0727682990908622,0.0315176844596862,-0.0056290333159267,0.0052073681727051
1783204471314651100,6.901651123046875,0.0183671390786766,-0.0060711366072297,-0.0207300688177347,0.0368488393723964,-0.0096699595451354,0.00344083388336
1783204471324588300,6.91158837890625,0.0182771227076649,-0.013196750703454,0.0185106392025947,0.0328399837017059,-0.0066275643184781,0.0039918422698974
1783204471334526200,6.921526123046875,0.0224169989913701,0.0045592707395553,0.0673158789038658,0.0232910700142383,-0.0031935875304043,0.0006913992110639
1783204471344464400,6.93146435546875,0.0256225170344114,0.0073744742907583,0.1165139173150062,0.0104021690785884,-0.0032519116066396,0.0037465777713805
1783204471354401300,6.9414013671875,0.0312988091051578,-0.0114879009589552,0.1269926412314176,0.0013332646340131,-0.0064019607380032,0.0062812534160912
1783204471364339500,6.95133935546875,0.0328188582792878,-0.019239245738089,0.1137812774807214,-0.0048649767413735,-0.0083151757717132,0.0081193670630455
1783204471374277400,6.96127734375,0.0036427404165267,-0.0127956225566565,0.1069686748564243,-0.0124433515593409,-0.0068175280466675,0.0109523134306073
1783204471384214300,6.97121435546875,-0.0173912797838449,-0.0136363111644983,0.1088508353412151,-0.0144151570275425,-0.0017700386233627,0.0125083979219198
1783204471394152200,6.981152099609375,-0.030688568252325,-0.0167407069206237,0.0840033943325281,-0.0105685256421566,0.0017283139750361,0.0103593291714787
1783204471404090000,6.991090087890625,-0.0371679933995008,-0.0245893745943903,0.0572930820614099,-0.0086119025945663,0.0016635991632938,0.0105374949052929
1783204471414027300,7.00102734375,-0.0460980265691876,-0.0290241421714425,0.0526373652100563,-0.0054350951686501,0.0061442391015589,0.00927877984941
1783204471423965200,7.010965087890625,-0.0450219217702746,-0.0158826287865638,0.0728495476335287,-0.0075467163696885,0.0107440510764718,0.0100114159286022
1783204471433903000,7.020903076171875,-0.0281336230725049,0.0051757952027022,0.0684299776256084,-0.0101688476279377,0.0094085559248924,0.0036757218185812
1783204471443840300,7.03084033203125,-0.0142225866198539,-0.0131691320441663,0.0490250199317932,-0.013774768449366,0.0031645088456571,0.0088244108483195
1783204471453778200,7.040778076171875,-0.0074362874805927,-0.0283019653767347,0.0429617743700742,-0.0170550644397735,-0.0010436810553073,0.0105902478098869
1783204471463716400,7.05071630859375,-0.0083668463289737,-0.0217398303821682,0.0276993233084678,-0.0167424082756042,0.0004199924878776,0.0077451928518712
1783204471473653200,7.0606533203125,-0.0066638418033719,0.0106003044694662,0.0251589911758899,-0.0153076378628611,0.0060201836749911,0.0048769805580377
1783204471483591400,7.07059130859375,-0.0107291915461421,0.013985562993586,0.0042389527440071,-0.0100364433601498,0.0100831016898155,0.0078549273312091
1783204471493529300,7.080529296875,0.0070613166883587,-0.0058472647234797,-0.0150064304739236,-0.0052044577896595,0.0097198719158768,0.0074845845811069
1783204471503466200,7.09046630859375,0.0072217679470777,0.0132037649661302,-0.0095808982938528,-0.0040917880833148,0.0116258962079882,0.0056057241745293
1783204471513404400,7.100404296875,0.0207306533396244,0.0300640066131949,-0.001538461613655,-0.0042730020359158,0.0087381415069103,0.0058786757290363
1783204471523342300,7.11034228515625,0.0215814249500632,0.0249114461556076,-0.0101402857422828,-0.0046799341216683,0.0080047072842717,0.0081133339554071
1783204471533279200,7.120279296875,0.021257307562232,-0.005979074409604,-0.0327443317383527,-0.0036865472793579,0.0037853484973311,0.0106675140559673
1783204471543217200,7.130217041015625,0.0238946703284978,0.0048602995127439,-0.0328939693421125,-0.0071374718099832,0.0029682905878871,0.0116345072165131
1783204471553155000,7.140155029296875,0.0197094935983419,0.013103519462049,-0.0251566530883312,-0.0039097405970096,0.0001115091145038,0.0107210529968142
1783204471563092200,7.15009228515625,0.0134293904155492,0.0091771397985517,-0.0514718285620212,-0.0011565638706088,-0.0023559094406664,0.0111317122355103
1783204471573030100,7.160030029296875,-4.67617511749e-05,0.0015710487090051,-0.033320085799694,0.0014248378574848,-0.0023628338240087,0.0116441044956445
1783204471582967300,7.16996728515625,-0.0257891057729721,0.0158797061771154,-0.0322083251655101,0.0112891867756843,-0.0017945151776075,0.0060448087751865
1783204471592905200,7.1799052734375,-0.0304658654123544,0.0327219737760722,-0.0133843822300434,0.0093576349318027,-0.0028532985597848,0.000163972377777
1783204471602843400,7.189843505859375,-0.0186196525350213,0.0153729256987571,-0.0005196399599313,0.0098521839827299,-0.0033481139689683,-0.0013846557121723
1783204471612780300,7.1997802734375,-0.0089168814271688,0.0096989717155694,0.0090039751887321,0.0072593106888234,-0.0048516714014112,-0.003420656081289
1783204471622718200,7.20971826171875,-0.0003454524368047,0.0058092708006501,0.0577308889567852,0.0025761425495147,-0.0074242851696908,-0.0011127607431262
1783204471632656400,7.219656494140625,0.0116352004751563,-0.0044951194621622,0.0789034408450126,-0.0047143474221229,-0.0048332302831113,0.0029862960800528
1783204471642593000,7.229593017578125,0.019203882163763,-0.0197629773512482,0.0854366420060396,-0.0127568282186985,-0.0015929620712995,0.0059972656890749
1783204471652531200,7.23953125,0.0262099615335464,-0.0138981769710779,0.0835772778749465,-0.016317319124937,-0.0008508274331688,0.0060622245073318
1783204471662469000,7.24946923828125,0.0215796713843941,-0.0184346513569355,0.0659656333386898,-0.0168041437864303,0.000528956297785,0.0125675275921821
1783204471672406300,7.25940625,0.018579028263688,-0.0290660816170275,0.0506166730374097,-0.0111682508140802,-0.0017437697388231,0.013675982132554
1783204471682344200,7.26934423828125,-0.0159679689824581,-0.0295659939631819,0.0269780232965946,-0.0076914951205253,0.0038984033744782,0.0144685395061969
1783204471692282000,7.2792822265625,-0.0314779650643467,-0.0066828387647867,0.021854104411602,-0.0004512406885623,0.0069973529316484,0.0121442126110196
1783204471702219300,7.28921923828125,-0.0257224702775478,0.0024750118114054,0.0337561391294002,-0.000581469386816,0.0072580762207508,0.0066237449645996
1783204471712157200,7.2991572265625,-0.0309922273740172,0.0038806408256292,0.0262637375473976,-0.0016882782801985,0.0088493153452873,0.0055757910013198
1783204471722094300,7.30909423828125,-0.0256125801622867,0.0138477619580924,0.0162239895701408,-0.0044893911108374,0.0104666529223322,0.0051941601559519
1783204471732032300,7.3190322265625,-0.0401557770386338,0.0106000122085213,0.0089490301311016,-0.004445900209248,0.0106034744530916,0.0004098725039511
1783204471741970200,7.32897021484375,-0.0337540933027863,0.0129471598565578,0.0015063129097223,-0.0036568054929375,0.0085832010954618,-0.0037691600155085
1783204471751907300,7.3389072265625,-0.0191921917259693,0.0256010358549654,0.0012415244936943,-0.0057446807622909,0.0022826616186648,-0.0065607782453298
1783204471761845200,7.34884521484375,-0.0051832478567957,0.0401569460824131,-0.0159305595815181,-0.008985748514533,0.0009460211731493,-0.0127409100532531
1783204471771783400,7.358783447265625,0.0191501061499118,0.0349362888246774,-0.009802432090044,-0.0149725042283535,-0.0009793634526431,-0.0135454852133989
1783204471781720000,7.368719970703125,0.0457376688241958,0.0369281932942569,-0.0253325941771268,-0.0131394509226083,-0.0031905858777463,-0.0144168715924024
1783204471791658200,7.378658203125,0.0633902298927307,0.0097336046375334,-0.0535299301356077,-0.0105615407228469,-0.0042767045088112,-0.0111355558037757
1783204471801596200,7.38859619140625,0.0928121392101049,-0.0144302380211651,-0.0515793805897235,-0.0071705374866724,-0.004328369628638,-0.0010120819788426
1783204471811533300,7.398533203125,0.0848345844596624,-0.0215446000710129,-0.0664309127628803,0.0001842901110649,-0.0014307792298495,0.0070066731423139
1783204471821471200,7.40847119140625,0.0801402891635894,-0.0260632465392351,-0.0693675507366657,0.0090960254892706,-0.0042904810979962,0.0144568653777241
1783204471831408400,7.418408447265625,0.0486141010433435,-0.0174719438046216,-0.0678793580055236,0.0154550019651651,-0.0052461922168731,0.0191448405385017
1783204471841346300,7.42834619140625,0.0191483525842428,-0.0021047171942889,-0.056893853610754,0.0205048881471157,-0.0046997116878628,0.0196588300168514
1783204471851284200,7.4382841796875,-0.0105982586428523,0.0092171795479953,-0.0226098912149667,0.0225388631224632,-0.005609811283648,0.0159983038902282
1783204471861221400,7.448221435546875,-0.0341647199302911,0.0128878308847546,-0.0008463876962661,0.024536233395338,-0.0067903902381658,0.010082890279591
1783204471871159300,7.4581591796875,-0.0609726473569869,0.0166720255985856,0.0289659822434186,0.0216335821896791,-0.0058716493658721,0.0054642977192997
1783204471881096400,7.468096435546875,-0.0672153411388397,0.0254668880812823,0.0482902759164571,0.017157606780529,-0.0136262401938438,0.0012130939867347
1783204471891034400,7.478034423828125,-0.0707449765697121,0.0372252765446901,0.0712993955820798,0.0122420219704508,-0.0101080033928155,-0.0062458058819174
1783204471900972300,7.48797216796875,-0.068315119074285,0.0249682909093797,0.1077677162796258,0.0038988711312413,-0.0097442157566547,-0.0101132486015558
1783204471910909200,7.4979091796875,-0.0464984240636229,0.0244493816018104,0.1419616623044013,-0.0030938275158405,-0.0002621128223836,-0.0120487986132502
1783204471920847000,7.50784716796875,-0.0267196646213531,0.0222099321119487,0.1435205821841955,-0.0095021929591894,0.001544842030853,-0.0149034410715103
1783204471930785300,7.517785400390625,-0.0081722005397081,0.0009162380620837,0.1211380699843168,-0.0174664556980133,0.00321482331492,-0.011697020381689
1783204471940722200,7.52772216796875,0.0053834466040134,-0.0054784314110875,0.0781470695197582,-0.0232324656099081,0.0017785807140171,-0.0044968975707888
1783204471950660400,7.537660400390625,0.017991583764553,-0.0252951847761869,0.0661655398249626,-0.0240135453641414,0.0061263851821422,-0.005425919778645
1783204471960597200,7.54759716796875,0.0176803258582949,-0.0153334704712033,0.0572375524818897,-0.0197341106832027,0.0052065290510654,-0.0041846204549074
1783204471970535200,7.55753515625,0.0277995688125491,-0.0191745099388062,0.0140934072822332,-0.015026468783617,0.0101239364594221,0.0048409816808998
1783204471980473300,7.567473388671875,0.0243128957405686,-0.0302817410171031,-0.0132511112391948,-0.0087027940899133,0.0105827990919351,0.0090008396655321
1783204471990410200,7.57741015625,0.0031301147192716,-0.021506167756766,-0.0328711729884147,-0.0034373365342617,0.0044194255024194,0.0082404017448425
1783204472000348400,7.587348388671875,-0.0136997317895293,0.0021823124751448,-0.0394505513787269,0.003758524544537,0.0083587728440761,0.0045830821618437
1783204472010285000,7.59728515625,-0.0255564660608768,0.0151785721704363,-0.0220037420153617,0.008075725287199,0.0077762948349118,0.001363773830235
1783204472020223200,7.60722314453125,-0.016620879933238,0.0323667305976152,-0.0174584998011589,0.0014114314690232,0.0071706920862197,-0.0018850163323804
1783204472030161200,7.6171611328125,0.0011439093381166,0.0494601964786648,-0.0141349083364009,-0.0009551336988806,0.0063205622136592,-0.0083513101562857
1783204472040098300,7.627098388671875,0.0212374338179826,0.031749767743051,-0.0100157825797796,-0.0054702563211321,0.0012810621410608,-0.0088639687746763
1783204472050036200,7.6370361328125,0.0254784323886036,0.0035062545552849,-0.0277267958372831,-0.0078949490562081,-0.0030691944994032,-0.0093376990407705
1783204472059974100,7.64697412109375,0.0357078577190637,0.0053849079087376,-0.0352162748098373,-0.0070672398433089,-0.0069933622144162,-0.0065001007169485
1783204472069911300,7.656911376953125,0.0450263056844472,0.0063248191073536,-0.0465992540895938,-0.0048847431316971,-0.0090962275862693,-0.0071161822415888
1783204472079849200,7.66684912109375,0.0499623007819056,0.0040542438268661,-0.0379641122132539,-0.0009065130725502,-0.0096075544133782,0.0003396032843738
1783204472089786400,7.676786376953125,0.0495946365132927,-0.0174045776568353,-0.0468090974479913,0.0036390936002135,-0.0064883292652666,0.0026678419671952
1783204472099724300,7.686724365234375,0.0365980845570564,-0.0090804014258086,-0.050722471499443,0.0093776732683181,-0.0048744534142315,0.0041866428218781
1783204472109662200,7.696662109375,0.021783085002005,0.001261544368416,-0.0381043974667787,0.0186862051486969,-0.0045162183232605,0.0034382417798042
1783204472119599400,7.706599365234375,0.0064113283470273,-0.0045540100425481,-0.0197042329013347,0.0207719933241605,-0.0055410028435289,0.009023156017065
1783204472129537300,7.716537353515625,-0.0135913029789924,-3.24409648776e-05,0.0075619596868753,0.0210041012614965,-0.0043961289338767,0.0094393016770482
1783204472139474200,7.72647412109375,-0.016876315999031,0.0086447864875197,0.0475976174771785,0.0168365202844142,0.000659349374473,0.0048253750428557
1783204472149412000,7.736412109375,-0.033555063599348,0.028463585679233,0.0799053113639354,0.0124303204938769,-0.000210971571505,-0.0029646370094269
1783204472159350300,7.746350341796875,-0.0357785848677158,0.0212969089202582,0.0973749170809984,0.0030211061239242,-0.0055356961674988,-0.002418156247586
1783204472169287200,7.756287109375,-0.033954292050004,-0.0055151101596653,0.1054366429835557,-0.0018682377412915,-0.0015783212147653,-0.0016929423436522
1783204472179225000,7.76622509765625,-0.0280997208029031,-0.0074269351303577,0.1240630175203084,-0.0077844494953751,0.0014520897530019,-0.0074538923799991
1783204472189162200,7.776162353515625,-0.0199234286099672,-0.0083136548370122,0.1092377888321876,-0.0100962072610855,0.0040765032172203,-0.0047863065265119
1783204472199100200,7.78610009765625,-0.0132516957610845,-0.0163946699619293,0.1033142440021038,-0.0133540518581867,0.0101810004562139,-0.0071064522489905
1783204472209037300,7.796037353515625,0.0022071546554565,-0.0062877019673585,0.0691126991927623,-0.0123364916071295,0.0081058992072939,-0.0066126100718975
1783204472218975200,7.805975341796875,0.019692542463541,-0.0124091074571013,0.0482815080881118,-0.0167810395359992,0.0064986813813447,-0.0042003188282251
1783204472228913400,7.815913330078125,0.0126356096893548,-0.0224842190086841,0.0200642983853816,-0.0122633380815386,0.0077484534122049,0.0009373133070766
1783204472238850300,7.825850341796875,0.0228264565750956,-0.0045779754400253,0.002564297530055,-0.0109530622139573,0.0086328890174627,-0.0020193280652165
1783204472248788700,7.835788818359375,0.0155891987979412,-0.0128276251301169,-0.0119365215092897,-0.0092552527785301,0.0071416040882468,0.0009935311973094
1783204472258725600,7.8457255859375,0.0120820674598217,-0.0138537533074617,-0.0315057298541069,-0.0059044640511274,0.0067679621279239,0.0040045012719929
1783204472268663600,7.85566357421875,0.0151467157274484,-0.0089328096486628,-0.055418520361185,-0.0044146906584501,-0.0021024942398071,0.0031435014680027
1783204472278601700,7.865601806640625,0.0082373747304081,-0.0062847793579101,-0.0457680639624595,0.0002311933785676,-0.00246122200042,0.003385582473129
