time,seconds_elapsed,ax,ay,az,gx,gy,gz
1783204241607542300,0.100542236328125,0.1010474681138992,0.0234407890811562,-0.0669441229820251,0.0189813412725925,-0.0250084176659584,0.0248971916735172
1783204241617479400,0.1104794921875,0.0695858696624636,0.0496764695778489,-0.0393956063210964,0.0255289897322654,-0.0264081731438636,0.0270618088543415
1783204241627416300,0.120416259765625,0.0360255453661084,0.09492869297266,0.0026876316487789,0.036342479288578,-0.0201644003391265,0.03211110830307
1783204241637353500,0.130353515625,0.0481809703230857,0.1321034083738923,0.0792249278843402,0.0372564792633056,-0.033018946647644,0.0351042374968528
1783204241647291400,0.14029150390625,0.0846428612798452,0.1409364109098911,0.1379039113461971,0.0267350561916828,-0.0444807074964046,0.0437953770160675
1783204241657228300,0.150228271484375,0.1241226387530565,0.1061482983842492,0.1318313134342432,0.0080058434978127,-0.0614253394305706,0.0519939176738262
1783204241667165200,0.160165283203125,0.1423971311122178,0.0717678898766636,0.1146229890018701,-0.0085347611457109,-0.0719638839364051,0.0589057840406894
1783204241677102300,0.170102294921875,0.1172641511604189,0.0691647216409444,0.1087584808826446,-0.027394201606512,-0.0735476687550544,0.0569731257855892
1783204241687039500,0.18003955078125,0.0822831464111805,0.0704869101554155,0.1018196215301752,-0.0406887419521808,-0.0681911036372184,0.0648992732167244
1783204241696976400,0.189976318359375,0.0411351434648036,0.0397781758978962,0.0969283423572778,-0.0430730693042278,-0.0577765479683876,0.062111210078001
1783204241706914300,0.199914306640625,0.0451455481499433,0.0110904260739684,0.0753618227154016,-0.0475688092410564,-0.0694938600063324,0.0586491823196411
1783204241716851200,0.209851318359375,0.0317477219164371,-0.0009898878201842,0.0117822077304124,-0.0473954379558563,-0.0684459060430526,0.0581272020936012
1783204241726788400,0.219788330078125,0.0169923435941338,0.0013379706054925,0.0425619613975286,-0.0471253655850887,-0.0635368898510932,0.0569224432110786
1783204241736725200,0.229725341796875,0.025367665490508,-0.0178401925951242,0.0656675271749496,-0.0437242425978183,-0.0632631182670593,0.0600956007838249
1783204241746662400,0.239662353515625,0.0150835873633623,-0.0452183211252093,0.0595019902825355,-0.0507168062031269,-0.0668152719736099,0.0618963800370693
1783204241756600300,0.249600341796875,0.0190133280277252,-0.0330213951140642,0.0817675981044769,-0.0554529689252376,-0.0810626521706581,0.0654538348317146
1783204241766537500,0.259537353515625,0.0087494159057736,-0.0378361019194126,0.0829132610082626,-0.0691374540328979,-0.1029560267925262,0.0623231492936611
1783204241776474000,0.26947412109375,-0.0219447053045034,-0.0735018740624189,0.0282815071105957,-0.0732440501451492,-0.1074069663882255,0.0573081485927104
1783204241786411300,0.279411376953125,-0.0786594029560685,-0.1009697267025709,-0.0019949732095003,-0.0755613669753074,-0.0935243293642997,0.0440429039299488
1783204241796348400,0.289348388671875,-0.132322019560635,-0.1044195748955011,-0.0220171860188245,-0.0814485475420951,-0.0656777843832969,0.023003663867712
1783204241806286300,0.299286376953125,-0.1573211439996957,-0.0937172713562846,-0.0467418774306774,-0.0926972031593322,-0.0477535426616668,0.0089567210525274
1783204241816223500,0.309223388671875,-0.1456365514248609,-0.1075876835376024,-0.0767366181999445,-0.1002592518925666,-0.0383025184273719,-0.0004194702487438
1783204241826160400,0.319160400390625,-0.1169555236026644,-0.1384279352203011,-0.1094265894025564,-0.100935198366642,-0.0435417890548706,-0.0077221589162945
1783204241836097300,0.32909716796875,-0.1025157871007919,-0.1325742407560348,-0.1609580391973257,-0.0926895141601562,-0.0526769645512104,-0.0101690711453557
1783204241846034200,0.3390341796875,-0.1144300967782735,-0.0936228710711002,-0.1950000095307827,-0.0741142034530639,-0.0569217428565025,-0.0151246469467878
1783204241855972400,0.348972412109375,-0.1190036883041262,-0.0572895749300718,-0.1713210277795791,-0.0574374869465827,-0.0400886982679367,-0.0224233046174049
1783204241865909200,0.3589091796875,-0.1176698093518614,-0.030755788269639,-0.1521580621480941,-0.0438006110489368,-0.0291546210646629,-0.0233345124870538
1783204241875846400,0.368846435546875,-0.0896560132667422,-0.006007131460309,-0.1556038186877965,-0.0328520908951759,-0.0196636468172073,-0.0280094258487224
1783204241885783300,0.378783203125,-0.0703083387181162,-0.0028323008164763,-0.139220839163661,-0.0239520370960235,-0.0116694588214159,-0.0276915580034255
1783204241895720200,0.38872021484375,-0.0580073678106069,0.0130772159770131,-0.1377513511329889,-0.0225357674062252,-0.014141671359539,-0.0333129577338695
1783204241905658400,0.398658447265625,-0.065981999951601,0.0190343708157539,-0.1410766961634159,-0.0118206264451146,-0.0122704617679119,-0.0331248752772808
1783204241915595300,0.40859521484375,-0.0533072272956371,0.0167632110133767,-0.1317781219422817,-0.0044532576575875,-0.0092602903023362,-0.0393303111195564
1783204241925532400,0.418532470703125,-0.0324029709547758,0.0236310509562492,-0.154754508382082,0.0028857383877038,-0.0036787469871342,-0.0380009524524211
1783204241935469300,0.42846923828125,-0.0241758253574371,0.0467141126409173,-0.1384469321817159,0.0165589395910501,0.0056207454763352,-0.0410081930458545
1783204241945406200,0.43840625,-0.0159282214939594,0.0700599169149994,-0.0944324338883161,0.0230807848274707,0.0147555572912096,-0.0368493013083934
1783204241955344100,0.44834423828125,0.0253507143557071,0.066138651818037,-0.0696492902874946,0.0290382746607065,0.0126013262197375,-0.035328634083271
1783204241965281300,0.45828125,0.0652267976701259,0.0383083956062793,-0.0742038848519325,0.032234039157629,0.0155849624425172,-0.0256582647562026
1783204241975218200,0.46821826171875,0.0577507627010345,0.0305380538657307,-0.0391033453762531,0.0316332280635833,0.0339655689895153,-0.0254260376095771
1783204241985155300,0.4781552734375,0.0392708108976483,0.0385325597509741,0.043542204606533,0.022772604599595,0.036449946463108,-0.0258728303015232
1783204241995092500,0.488092529296875,0.0508145336970686,0.0250225053146481,0.0619552286535501,0.0099995518103241,0.0278439410030841,-0.0261753648519516
1783204242005030400,0.498030517578125,0.0700958650112152,0.0038981764823198,0.07001227838099,-0.0020609637722373,0.0055627506226301,-0.0195317883044481
1783204242014967300,0.50796728515625,0.0978872505173087,-0.0386900884002447,0.0704687899768352,-0.0104248877614736,-0.0144306644797325,-0.0147317079827189
1783204242024904200,0.517904296875,0.0901256766051054,-0.0215498607680201,0.0546422752916812,-0.0189021974802017,-0.0263634175062179,-0.0116266040131449
1783204242034841300,0.52784130859375,0.0492030068472027,0.0105684480264782,0.0494733482211828,-0.0264746323227882,-0.0128433462232351,-0.0101924920454621
1783204242044778200,0.5377783203125,0.0403302568227052,0.0322656083106994,0.0917868878155946,-0.0378317832946777,-0.0050786123611032,-0.0097516952082514
1783204242054716400,0.54771630859375,0.0747372610762715,0.0145627783596515,0.0062754270076751,-0.0444742366671562,-0.010571114718914,-0.0044866260141134
1783204242064653300,0.5576533203125,0.0808469761282205,0.0119429512500762,-0.0474719452708959,-0.0484813936054706,-0.011540925130248,0.0067207012325525
1783204242074590200,0.567590087890625,0.0589729979723691,0.0315884397014975,-0.0539279895424842,-0.0427164509892463,-0.0135066043585538,0.0147906122729182
1783204242084527400,0.57752734375,0.046505730587244,0.0562280831784009,-0.077936641639471,-0.0383868888020515,-0.02160563506186,0.0186424404382705
1783204242094465300,0.58746533203125,0.0228474993631243,0.0415039767771959,-0.1222375556588172,-0.0299241617321968,-0.0221523810178041,0.0230105556547641
1783204242104402200,0.597402099609375,-0.0070358899861574,0.0280284091323614,-0.0907014306664466,-0.020828578621149,-0.0083028757944703,0.0209396742284297
1783204242114339300,0.60733935546875,-0.0336719679772853,0.0401011242419481,-0.0477367336869239,-0.0214767903089523,-0.0038511352613568,0.0225314460694789
1783204242124276500,0.6172763671875,-0.0328656200304627,0.0508107343047857,-0.0195136787652969,-0.0246588699519634,-0.0176664851605892,0.0229113511741161
1783204242134213000,0.627213134765625,-0.0414051925778388,0.0593903466016054,0.0226291804373264,-0.035020962357521,-0.0257915221154689,0.0251313615590333
1783204242144151300,0.6371513671875,-0.0717977004930377,0.0723649789869785,0.0807575442790985,-0.0436807163059711,-0.0353603474795818,0.0205585286021232
1783204242154088200,0.647088134765625,-0.068007368299365,0.0766910254925489,0.1030523781955242,-0.0465127192437648,-0.0501398257911205,0.023714106529951
1783204242164025300,0.657025390625,-0.0343482598036527,0.0873711171999573,0.1322995154678821,-0.0479505807161331,-0.0668042451143264,0.0338517911732196
1783204242173962200,0.666962158203125,-0.0471112952649593,0.0931798034787178,0.1850993777632713,-0.0498864315450191,-0.0899995788931846,0.0391458868980407
1783204242183900400,0.676900390625,-0.0465799648672342,0.0943146527275443,0.2503063016891479,-0.0577968992292881,-0.1268440634012222,0.0443591959774494
1783204242193837300,0.68683740234375,-0.0622574264705181,0.1013628176733851,0.3034638913810253,-0.0726288408041,-0.1637616008520126,0.0523135252296924
1783204242203774200,0.696774169921875,-0.0831634363770484,0.1323725807040929,0.3920359088033437,-0.0896325334906578,-0.1805803775787353,0.0594162195920944
1783204242213711400,0.70671142578125,-0.0885302241072058,0.1749979627266526,0.58277709184587,-0.1107122525572776,-0.2079227864742279,0.072156511247158
1783204242223648300,0.716648193359375,-0.0237523392483592,0.243897895951569,0.6672732381314039,-0.1344342082738876,-0.2823695242404938,0.0902672037482261
1783204242233586400,0.72658642578125,0.0154129654482007,0.2610050980970263,0.7077326742917299,-0.1592119932174682,-0.3499973118305206,0.1026596948504448
1783204242243523300,0.7365234375,0.0456245638385415,0.2816650242879986,0.8508931909918784,-0.1929182410240173,-0.3822153210639953,0.1267095506191253
1783204242253460500,0.74646044921875,0.0389230203732848,0.3103215021908283,1.1238199052900075,-0.25738725066185,-0.4169956743717193,0.1365430057048797
1783204242263397000,0.756397216796875,0.0706359632372856,0.3064247870132326,1.1962602876007555,-0.339493066072464,-0.5091911554336548,0.1553701758384704
1783204242273335300,0.766335205078125,0.0674129095375537,0.2773784330099821,1.1407897447913884,-0.4206784665584564,-0.5902316570281982,0.1749625205993652
1783204242283272200,0.776272216796875,0.0302773571029305,0.2558814714729785,1.1948469136714934,-0.4834041595458984,-0.6498152613639832,0.1894892156124115
1783204242293209300,0.786209228515625,-0.0153650346532464,0.2627425894141197,1.1380641192197798,-0.5477155447006226,-0.6999335885047913,0.1881464421749115
1783204242303146200,0.796146240234375,-0.0827197842627763,0.2748427770525217,1.0460399155169724,-0.6206605434417725,-0.7384448051452637,0.184369683265686
1783204242313084400,0.80608447265625,-0.1344014561831951,0.218228032644093,0.9564484919190406,-0.6956391930580139,-0.7423521876335144,0.1803027689456939
1783204242323021300,0.816021240234375,-0.1106754204198718,0.0836471282407641,0.8288251515686511,-0.7661277055740356,-0.7452352643013,0.1750428527593612
1783204242332958200,0.825958251953125,-0.1639814786717295,0.0223491944521665,0.6870797623634338,-0.8368120193481445,-0.7507475018501282,0.1640509217977523
1783204242342895400,0.835895263671875,-0.1867775401085615,-0.0173427644670009,0.5123211613506078,-0.9174510836601256,-0.7508005499839783,0.1499493569135666
1783204242352833300,0.845833251953125,-0.1836845425292849,-0.1350054134257137,0.3109451870471238,-0.997381865978241,-0.7402932643890381,0.1487397402524948
1783204242362770400,0.8557705078125,-0.1791349164009094,-0.2564303375273943,0.0952940191537141,-1.0634340047836304,-0.7020800113677979,0.1463354378938675
1783204242372707300,0.865707275390625,-0.1809191694691777,-0.3310834274515509,-0.1387812787026167,-1.1048293113708496,-0.6456601619720459,0.1410083174705505
1783204242382644500,0.87564453125,-0.2466004329085349,-0.3060379796527326,-0.3925169703185558,-1.110264778137207,-0.5846449732780457,0.1206586211919784
1783204242392581000,0.8855810546875,-0.3112020844176411,-0.295787949925661,-0.6147685593903064,-1.085940957069397,-0.5195679664611816,0.0994553342461586
1783204242402519300,0.895519287109375,-0.3585165010392666,-0.3088694036863744,-0.8067477597951889,-1.0246679782867432,-0.4565908014774322,0.0694381743669509
1783204242412456200,0.905456298828125,-0.3758347155869007,-0.3319000045314431,-0.9749065241515636,-0.94359028339386,-0.4195491671562195,0.0257213171571493
1783204242422393300,0.915393310546875,-0.3645788698181509,-0.3854048002257943,-1.1232137560904023,-0.8487957715988159,-0.3861638009548187,-0.0208491180092096
1783204242432330500,0.92533056640625,-0.3227566208720207,-0.425987862765789,-1.2218600082814692,-0.7468395829200745,-0.3487200140953064,-0.0684139728546142
1783204242442268400,0.935268310546875,-0.2548196874603629,-0.4177824906088411,-1.3011498180955647,-0.6526834964752197,-0.3042807579040527,-0.1135047152638435
1783204242452205300,0.945205322265625,-0.196364575882256,-0.3675928108118474,-1.369020408272743,-0.571147620677948,-0.2601457834243774,-0.1519506424665451
1783204242462142200,0.95514208984375,-0.1176756545707583,-0.3264651200011372,-1.4026193110138176,-0.502038300037384,-0.1939680874347686,-0.1784530878067016
1783204242472079400,0.965079345703125,0.0239016845911741,-0.2675961669251323,-1.447882348063588,-0.435008704662323,-0.1211551427841186,-0.2007743716239929
1783204242482017300,0.975017333984375,0.2330453702867031,-0.1853233957774937,-1.5506886425435542,-0.3702035248279571,-0.0928048938512802,-0.200334221124649
1783204242491954400,0.984954345703125,0.4059662344783544,-0.0619775866158306,-1.7476619979739187,-0.2874428629875183,-0.0173021499067544,-0.1807844936847686
1783204242501891300,0.994891357421875,0.5529167911112308,0.0848993202589452,-1.6692875494390724,-0.1821356266736984,0.058920282870531,-0.1446071118116378
1783204242511828500,1.004828369140625,0.6278253171011805,0.1978245654322206,-1.5828478678703308,-0.074873611330986,0.115677572786808,-0.093938872218132
1783204242521766400,1.014766357421875,0.6586079933777451,0.2985238046303391,-1.524227921119332,0.0354683548212051,0.163736343383789,-0.0274285040795803
1783204242531703300,1.024703369140625,0.5547673874139786,0.400163101157546,-1.2236696880519389,0.156722605228424,0.2164453566074371,0.0237835515290498
1783204242541640200,1.03464013671875,0.4478334916099906,0.3754584296204149,-0.8635282161593437,0.2684558629989624,0.2133868038654327,0.0601880773901939
1783204242551578400,1.044578369140625,0.3413660442739725,0.3044701458141207,-0.570775688406825,0.3549090027809143,0.1632714420557022,0.0839277580380439
1783204242561515300,1.054515380859375,0.2688350610703229,0.214652804505825,-0.1945698014199733,0.3964940011501312,0.111634723842144,0.0960158035159111
1783204242571452400,1.064452392578125,0.2156809785097837,0.1144157759919762,0.1372287885636091,0.3967091739177704,0.0497742854058742,0.1057121083140373
1783204242581389300,1.074389404296875,0.1232791736662387,0.0811276927657425,0.3708078273355961,0.3684975504875183,0.0010746354237198,0.1081265211105346
1783204242591327500,1.084327392578125,0.0528618216156959,0.0518484067894518,0.5523351918309927,0.3136928677558899,-0.0271703172475099,0.1061773523688316
1783204242601264000,1.09426416015625,0.0192339850410819,0.0138198510378599,0.6774918498069048,0.2414798885583877,-0.0408579334616661,0.1002317667007446
1783204242611201300,1.104201171875,0.0024625907212495,-0.012538286794722,0.7529857744693755,0.1557947993278503,-0.0353662297129631,0.0923360213637352
1783204242621138400,1.114138427734375,-0.0290896086230874,-0.0314782573252916,0.7954448600143194,0.0586607977747917,-0.0250669959932565,0.0796239525079727
1783204242631076400,1.124076416015625,-0.0874842221856117,-0.0470807539962232,0.7714233484357595,-0.032118372619152,-0.0178982987999916,0.0657020136713981
1783204242641013500,1.134013427734375,-0.1674210977315902,-0.0653437020480632,0.7064660153567791,-0.1054864004254341,-0.0209648553282022,0.0530726388096809
1783204242650950400,1.143950439453125,-0.2392483165800571,-0.092078125847131,0.5845002623766661,-0.1518051624298095,-0.0319911390542984,0.0341237112879753
1783204242660887300,1.15388720703125,-0.2712640417829156,-0.1334716279871761,0.4245931935369968,-0.1703996360301971,-0.0590233244001865,0.0198196060955524
1783204242670825200,1.1638251953125,-0.2779009955793619,-0.1712786499425768,0.2399637713730335,-0.1689119935035705,-0.0871207416057586,0.0059485300444066
1783204242680762400,1.173762451171875,-0.2779688001185655,-0.1875087769925594,0.0659597881197929,-0.1536274701356887,-0.1078607961535453,-0.0057428330183029
1783204242690699300,1.18369921875,-0.2692272752583026,-0.1752019608661532,-0.0846516291081905,-0.1369033455848693,-0.1043819114565849,-0.0213148687034845
1783204242700636400,1.193636474609375,-0.2561386611044406,-0.1566109499037265,-0.2092529912889003,-0.1203644350171089,-0.0759779438376426,-0.0384155139327049
1783204242710574300,1.20357421875,-0.2230088371798396,-0.1337085054829716,-0.3161339878618717,-0.112063892185688,-0.0249509792774915,-0.0548975504934787
1783204242720511200,1.21351123046875,-0.1497737973600625,-0.1039902435675263,-0.405856928884983,-0.0993094220757484,0.0214103423058986,-0.0639345869421958
1783204242730448100,1.2234482421875,-0.0804068311452865,-0.091395404279977,-0.5069675253629684,-0.0829227268695831,0.0681845098733902,-0.072018876671791
1783204242740386300,1.23338623046875,-0.0099690208286046,-0.0917892259031534,-0.5845341646462678,-0.0560182072222232,0.1093484908342361,-0.0751546174287796
1783204242750323200,1.2433232421875,0.0554956772506237,-0.0750198774099349,-0.6504910301566124,-0.020083911716938,0.1446513533592224,-0.0752289220690727
1783204242760260400,1.25326025390625,0.0941337432026863,-0.0409419589802622,-0.6615297260433435,0.0245724860578775,0.1651024371385574,-0.0727775245904922
1783204242770197500,1.263197509765625,0.1274886080548167,0.0190682730853557,-0.6374409944474697,0.0732428207993507,0.1762911826372146,-0.0663212239742279
1783204242780135400,1.273135498046875,0.1305731300666928,0.073885904943943,-0.5648778625398874,0.1253270506858825,0.1643874794244766,-0.0495295077562332
1783204242790072300,1.283072265625,0.1434565770372748,0.1278220777928829,-0.4449655349582433,0.175618439912796,0.1299922317266464,-0.0311467703431844
1783204242800009200,1.29300927734375,0.1665922456920147,0.1458829274013638,-0.3566138822883367,0.2210565656423568,0.0886377841234207,-0.0142866987735033
1783204242809947100,1.302947021484375,0.1849219753697514,0.1243989714764058,-0.2441723289787769,0.2519654631614685,0.0537554323673248,0.0077048861421644
1783204242819884300,1.31288427734375,0.175929690618813,0.133457014939934,-0.100650577750802,0.267168253660202,0.0360663346946239,0.0189155489206314
1783204242829821400,1.322821533203125,0.1566451444342732,0.1390473822928965,0.0408534039139747,0.2530199587345123,0.0359361059963703,0.0249920841306448
1783204242839758300,1.33275830078125,0.1467424668401479,0.1118064702764153,0.1487456233561039,0.222955971956253,0.0524369440972805,0.0278352778404951
1783204242849696500,1.342696533203125,0.1303077571287751,0.0895543064579367,0.212392458358407,0.182665005326271,0.0685511976480484,0.0293945576995611
1783204242859633200,1.352633056640625,0.0793608292236924,0.0808700647428631,0.2148731692582368,0.138319656252861,0.078037790954113,0.0263844300061464
1783204242869570300,1.3625703125,0.0069517188340425,0.0782515528075397,0.2000841809272766,0.1017976030707359,0.0825566425919532,0.0214144382625818
1783204242879508200,1.37250830078125,-0.0553413634717464,0.088119597479701,0.1941536218345165,0.0828690826892852,0.0744437575340271,0.0090737044811248
1783204242889445400,1.3824453125,-0.079896835796535,0.0681608052954077,0.1419067172467708,0.0732388198375701,0.0555840469896793,0.0067258616909384
1783204242899382300,1.39238232421875,-0.0817728588014841,0.0563192685931921,0.0580816020905971,0.0786777883768081,0.0305129028856754,0.007583356462419
1783204242909319400,1.4023193359375,-0.1112429911747574,0.0464687595777213,-0.0080091189324855,0.091116614639759,0.0195523984730243,0.0057476386427879
1783204242919257300,1.41225732421875,-0.1507344590857625,0.0906552534371614,-0.0179985980272293,0.1111152917146682,0.0138558391481637,-0.0008379151113331
1783204242929194200,1.4221943359375,-0.1706222318604588,0.1029246601626276,-0.0128267483472824,0.1228600963950157,0.0133559638634324,-0.0063914051279425
1783204242939131100,1.432131103515625,-0.1420142692744732,0.0835495130851864,0.0191974524229764,0.1235494762659072,0.0102463327348232,-0.0052963127382099
1783204242949069300,1.4420693359375,-0.1019967316627502,0.0413254053398966,0.0577770661860704,0.1148934066295623,0.0087914476171135,-0.006514442153275
1783204242959006200,1.452006103515625,-0.051856443965435,-0.0141065590247511,0.0945014074712991,0.1043984666466713,-0.0035903211683034,-0.0089816842228174
1783204242968943400,1.461943359375,-0.0662508800208568,-0.0156520349010825,0.1072235264003276,0.0840255469083786,-0.0106192026287317,-0.015218274667859
1783204242978880500,1.471880615234375,-0.0967319430023431,0.0222295135952532,0.1519078867793083,0.0596410632133483,-0.0190910510718822,-0.0235634669661521
1783204242988818400,1.481818359375,-0.0948804699167609,0.0516463083460927,0.1340788001000881,0.0435084328055381,-0.0248663797974586,-0.0221450682729482
1783204242998755300,1.49175537109375,-0.0761637867480516,0.0492421698138117,0.1068786584854125,0.0365350320935249,-0.0203971024602651,-0.0173282530158758
1783204243008692200,1.501692138671875,-0.0387947178184986,0.0367531289882957,0.0934615430295467,0.0340588241815567,-0.0078253839164972,-0.0225802734494209
1783204243018630100,1.511630126953125,0.0033785365223884,-0.0050952773123979,0.0568552751660347,0.0407347977161407,-0.0008805547840893,-0.0199134275317192
1783204243028567800,1.52156787109375,0.0535804912790656,-0.0478758498966693,0.042369069173932,0.0441036969423294,-0.0011151791550219,-0.0149255935102701
1783204243038505000,1.5315048828125,0.086124039748311,-0.0733931529909372,0.0253226573050022,0.0417046807706356,-0.0055958442389965,-0.0081644048914313
1783204243048441900,1.54144189453125,0.0719186965242028,-0.0857115134246647,0.0533797080099582,0.0363615825772285,-0.0156087977811694,-0.0016556390328332
1783204243058379800,1.5513798828125,0.047412031777203,-0.0960335854746401,0.0743728116780519,0.0234780069440603,-0.023363146930933,-0.0082454532384872
1783204243068317000,1.56131689453125,0.0253171043470501,-0.1215145020812749,0.0677010788291692,0.0136165879666805,-0.0448556579649448,-0.0162573065608739
1783204243078254000,1.571254150390625,0.0153814012661576,-0.1094793425031006,0.0490840566426515,0.0018609790131449,-0.0477530509233474,-0.022032106295228
1783204243088192000,1.58119189453125,0.0145297528728842,-0.0725302525512874,0.0791647221297025,-0.0041942512616515,-0.0268363170325756,-0.0245511904358863
1783204243098129000,1.59112890625,0.0399643461197614,-0.0235663151569664,0.0927121859669685,-0.003981314599514,-0.0088049778714776,-0.0200187563896179
1783204243108065800,1.601065673828125,0.098347269244492,-0.0396305841207504,0.0955687444418668,-0.0061275549232959,0.0013850755058228,-0.0101653262972831
1783204243118003000,1.6110029296875,0.1581441508203744,-0.096086923097074,0.1270668755114078,-0.0081798247992992,-0.0031710774637758,0.0020995954982936
1783204243127940900,1.62094091796875,0.1652060520306229,-0.1607392818801105,0.1354378134936094,-0.0193682983517646,-0.0273456573486328,0.0109570026397705
1783204243137878000,1.6308779296875,0.1229240766182541,-0.2264810433350503,0.1419429576039314,-0.0251635797321796,-0.0320902839303016,0.0167367737740278
1783204243147815000,1.64081494140625,0.0671639032125473,-0.2535173726901412,0.2111556100398302,-0.037239946424961,-0.0431980565190315,0.012743629515171
1783204243157753000,1.650753173828125,-0.0234156546398997,-0.2279839952439069,0.2257932072013616,-0.062294203788042,-0.0630759298801422,-0.0030759025830775
1783204243167689700,1.660689697265625,-0.0901201236471533,-0.1851753656089305,0.2606926711469888,-0.0946020781993866,-0.0841652378439903,-0.0194037426263093
1783204243177627000,1.670626953125,-0.1353086341559886,-0.1423886555448174,0.3071872958183288,-0.1351814866065979,-0.1050250455737114,-0.0443108677864074
1783204243187564800,1.680564697265625,-0.1650789185196161,-0.0755079531878232,0.3250105372786521,-0.1838230490684509,-0.1220218688249588,-0.0687112808227539
1783204243197502000,1.690501953125,-0.1513897081241011,-0.0340720732107758,0.2702092720329761,-0.2222597002983093,-0.1313289850950241,-0.0872274860739708
1783204243207438800,1.70043896484375,-0.1311123515099287,0.0354632353082299,0.1674322036474943,-0.2393220365047454,-0.1159556210041046,-0.0959288328886032
1783204243217377000,1.710376953125,-0.0242190799772739,0.0461339746654033,0.0770236184477806,-0.218982458114624,-0.1131627261638641,-0.0794799104332923
1783204243227314000,1.72031396484375,0.0172273213937878,-0.0521000434629619,-0.1240039808094501,-0.1877784579992294,-0.1266971826553344,-0.0742696970701217
1783204243237250800,1.730250732421875,-0.053695349830389,0.0097208912864327,-0.2499211017638444,-0.1649389266967773,-0.1435949951410293,-0.0778901726007461
1783204243247188000,1.74018798828125,-0.0894011617228388,0.0924490049861371,-0.3799029879391193,-0.1713249385356903,-0.1471037119626999,-0.0862977728247642
1783204243257126000,1.7501259765625,0.0135667530596256,0.1563333020061254,-0.5308972670048475,-0.1882679611444473,-0.1209367662668228,-0.070493072271347
1783204243267062800,1.760062744140625,0.1728407846927642,0.0933463922172784,-0.714426034450531,-0.1809005886316299,-0.0711601451039314,-0.0323243774473667
1783204243277000000,1.77,0.1391524501025676,0.0273088626861572,-0.906256766295433,-0.1331103444099426,-0.0096983816474676,-0.0083136744797229
1783204243286937900,1.779937744140625,-0.0615109920173883,0.0720446609914302,-0.9521586857706308,-0.0464641377329826,0.0834821611642837,-0.013587798923254
1783204243296875000,1.789875,-0.255405086132884,0.1214541501961648,-0.8709890535593032,0.0619426779448986,0.157206118106842,-0.0322095081210136
1783204243306812000,1.79981201171875,-0.2951619269818067,0.0901779913142323,-0.8153875778466463,0.1569722592830658,0.1777204424142837,-0.0504630804061889
1783204243316749800,1.809749755859375,-0.1804696721360087,0.0384615403413772,-0.6836638164401054,0.2307928651571273,0.1549249738454818,-0.0532937087118625
1783204243326687000,1.81968701171875,-0.0330754633888602,0.0084033789470791,-0.4928279408514499,0.279436856508255,0.10289266705513,-0.0399539358913898
1783204243336623900,1.829623779296875,0.0518570284873247,0.01014554643929,-0.2820230439454317,0.3010848760604858,0.0562398880720138,-0.0239967182278633
1783204243346561800,1.839561767578125,0.0748322458833456,0.0863031957074999,-0.0367465531170368,0.3065613806247711,0.0307438503950834,-0.0153166782110929
1783204243356499000,1.8494990234375,0.0573889436513185,0.1423348795309662,0.1809077712923288,0.2857510447502136,0.029125303030014,-0.0118095614016056
1783204243366436000,1.85943603515625,0.0769821173936128,0.1390077809348702,0.3813350665688514,0.2357800006866455,0.0560770258307457,-0.0119496434926986
1783204243376372700,1.869372802734375,0.1498416018992662,0.082284023194015,0.5489075554698706,0.1696991473436355,0.0678726360201835,-0.0064162146300077
1783204243386311000,1.879310791015625,0.2110448431417345,0.0203244106262922,0.5990764847397804,0.0986590608954429,0.0526947490870952,-0.0127619942650198
1783204243396247800,1.889247802734375,0.2369894317373633,-0.0334472193107008,0.6132850428342819,0.0362008996307849,0.0285161361098289,-0.0143933147192001
1783204243406185000,1.89918505859375,0.24809242503196,-0.056088090185821,0.6370213077306747,-0.0225092843174934,-0.0081175090745091,-0.0124880895018577
1783204243416123000,1.909122802734375,0.2366173835545778,-0.0436997332558035,0.584254178661108,-0.0711955800652504,-0.0575442612171173,-0.0042401463724672
1783204243426060000,1.91906005859375,0.2279161907047033,-0.0516613597847521,0.4429728998363018,-0.1033199653029441,-0.0970900729298591,0.0002787052653729
1783204243435997000,1.928996826171875,0.2358873157143592,-0.040464989118278,0.3019371202051639,-0.1243624687194824,-0.1220499500632286,0.0123071428388357
1783204243445935000,1.93893505859375,0.226982416985929,0.0084320205196738,0.1374362938344478,-0.1308246254920959,-0.1360512375831604,0.0264599807560443
1783204243455871700,1.948871826171875,0.2177683061778545,0.0130588035374879,-0.0377542688548564,-0.12546207010746,-0.1226770877838134,0.042567528784275
1783204243465809000,1.958808837890625,0.2322673716515302,0.0136618839971721,-0.1861503481209278,-0.1138267219066619,-0.0960252359509468,0.0600855350494384
1783204243475746800,1.968746826171875,0.2058802999854087,0.086910075559467,-0.3233610165059566,-0.0914674028754234,-0.0787161961197853,0.0791172385215759
1783204243485684000,1.97868408203125,0.170631291949749,0.1288433836646378,-0.4268991323918104,-0.0639670714735984,-0.041206631809473,0.0958333685994148
1783204243495620900,1.988620849609375,0.1360731887876987,0.1950707366794347,-0.4240735535770654,-0.0414419583976268,0.0024315130431205,0.1129050254821777
1783204243505559000,1.99855908203125,0.1026344450443983,0.2030675806522369,-0.44008536170125,-0.0248366184532642,0.0355660319328308,0.1251457184553146
1783204243515495700,2.00849560546875,0.0966965794280171,0.169024587405473,-0.4598813645392656,-0.0040964903309941,0.0523969829082489,0.1364665925502777
1783204243525432800,2.018432861328125,0.0375526088029146,0.1350520290464162,-0.472885223019123,0.0259354449808597,0.0593624860048294,0.1404653340578079
1783204243535370800,2.028370849609375,-0.0681029376283288,0.1802989917442202,-0.4442413123369216,0.0573188215494155,0.068420186638832,0.1304983645677566
1783204243545308000,2.038307861328125,-0.1741474833771586,0.2476468732215464,-0.3861702316403388,0.0860197097063064,0.076405145227909,0.1167769581079483
1783204243555244800,2.048244873046875,-0.2338771449357271,0.2384137654520571,-0.315215703973174,0.1034142673015594,0.075479581952095,0.0951741486787796
1783204243565183000,2.058182861328125,-0.2355652441531419,0.2266952706076204,-0.2220698027640581,0.1106364876031875,0.0594361685216426,0.0766209736466407
1783204243575120000,2.068119873046875,-0.149683488728106,0.1722295209266245,-0.1513829861223697,0.1119650229811668,0.0411682352423667,0.0569375902414321
1783204243585056800,2.078056884765625,-0.0318073431491851,0.1216404665485024,-0.1214180559694766,0.1057982072234153,0.0136476624757051,0.0534866675734519
1783204243594994000,2.087993896484375,0.0667418784081935,0.0985451299041509,-0.1119908869326114,0.1060420572757721,0.003678273409605,0.0635636746883392
1783204243604931800,2.097931884765625,0.1389151342153549,0.1183385023936629,-0.0846703338086605,0.1084793880581855,0.0064189322292804,0.0896037966012954
1783204243614869000,2.107868896484375,0.1712947242945432,0.1384090843893587,-0.0750689772486686,0.1175419837236404,0.0153132434934377,0.108889564871788
1783204243624806000,2.117805908203125,0.1829077129378914,0.1313105044305324,-0.0546282467663288,0.1234161183238029,0.0213564895093441,0.1350082457065582
1783204243634743800,2.127743896484375,0.2126747824311256,0.1040611168466508,-0.0362222369819879,0.1228724420070648,0.0172284357249736,0.1540547013282776
1783204243644681000,2.137680908203125,0.2114434870705008,0.0630652357220649,-0.0153635733485221,0.1212625578045845,0.0089492015540599,0.1672171056270599
1783204243654617900,2.147617919921875,0.20127134488523,0.0170084179461002,0.0113806411921978,0.1219066381454467,-0.0131264738738536,0.1823103725910186
1783204243664555800,2.1575556640625,0.1859533642441034,-0.0185008484609425,0.0192103119045496,0.1223079785704612,-0.0303478054702281,0.1917009502649307
1783204243674493000,2.167492919921875,0.1598445249974727,-0.0326854411579668,0.0311544321984052,0.1219642758369445,-0.0295538492500782,0.1920448541641235
1783204243684429800,2.177429931640625,0.147527479737997,-0.0173974172636866,0.0646533816963434,0.1101792603731155,-0.0095993168652057,0.1870897710323333
1783204243694368000,2.187367919921875,0.1169999472662806,0.0154142806224524,0.1140203469336032,0.0858768746256828,0.0287519358098506,0.1912433505058288
1783204243704305000,2.197304931640625,0.0859448837891221,0.0253276257410645,0.1734241375386714,0.0563365556299686,0.0672324821352958,0.2014981061220169
1783204243714242000,2.207241943359375,0.0618777795031666,-0.005969722059369,0.211571789625287,0.0328690521419048,0.0850334018468856,0.2087694704532623
1783204243724180000,2.217179931640625,0.0123684831857681,-0.0544204492345452,0.2154723041951656,0.0202224999666214,0.0722771286964416,0.203354999423027
1783204243734116900,2.227116943359375,-0.0533209635600447,-0.1165732462868094,0.2036006646156311,0.0099296495318412,0.052810039371252,0.1942218095064163
1783204243744053800,2.2370537109375,-0.1440484054505825,-0.1594799294687807,0.2279308037519455,0.002419801428914,0.0372214913368225,0.179188534617424
1783204243753992000,2.246991943359375,-0.2430360184252262,-0.1718492894373834,0.2489864512622356,-0.0046562636271119,0.0166149847209453,0.1578417420387268
1783204243763928800,2.2569287109375,-0.3264686271324754,-0.1990909321062266,0.2422796470999717,-0.0094867059960961,-0.0114326309412717,0.1312506198883056
1783204243773866000,2.266865966796875,-0.3469716091960668,-0.2553244221121072,0.2015495773047208,-0.0101063204929232,-0.0298289209604263,0.1020360067486763
1783204243783804000,2.276803955078125,-0.3701853115230799,-0.2682812265798449,0.1872095017850399,-0.0083465026691555,-0.0365113243460655,0.0746422037482261
1783204243793741000,2.286740966796875,-0.3994987920299172,-0.2842994644448161,0.1575000076979398,-0.0093752210959792,-0.0516237989068031,0.0467192679643631
1783204243803677700,2.296677734375,-0.4454676392614841,-0.2973363484114408,0.0869546453535556,-0.011957156471908,-0.0523913204669952,0.0066386926919221
1783204243813615900,2.306615966796875,-0.4855751932442188,-0.2846212437450885,0.1031745432704687,-0.0166600942611694,-0.0252376310527324,-0.030902599915862
1783204243823552800,2.316552734375,-0.4772089314371347,-0.2323869063779711,0.1412941383063793,-0.0326212160289287,-0.0199049171060323,-0.0701232403516769
1783204243833490000,2.326489990234375,-0.4197296791538596,-0.1875473554372787,0.0926280148148536,-0.0558039620518684,-0.026205126196146,-0.098951555788517
1783204243843427800,2.336427734375,-0.3328556978210806,-0.1637529306128621,0.0864724147945642,-0.0793316587805748,-0.0252754148095846,-0.1132745668292045
1783204243853365000,2.346364990234375,-0.2635913151979446,-0.1154718609161674,0.0883212575316429,-0.0996039286255836,-0.0288686379790306,-0.1209360808134079
1783204243863302000,2.356302001953125,-0.2111193696826696,-0.0636965193629264,0.0365635977655649,-0.1056109592318534,-0.0206378735601902,-0.1236756742000579
1783204243873240000,2.366239990234375,-0.1736579462945461,-0.030664310593903,0.0120586865842342,-0.1038389429450035,-0.0026386654935777,-0.1259884983301162
1783204243883176700,2.3761767578125,-0.1299155429407954,0.0067757777452468,0.0082967037022113,-0.0935330465435981,0.0106041692197322,-0.1187420412898063
1783204243893113900,2.38611376953125,-0.0748515351057052,0.020050562120974,-0.0214396783918142,-0.0847260802984237,4.36417758464e-05,-0.1140258461236953
1783204243903051800,2.3960517578125,-0.0196522104531526,0.0338790348567068,-0.0358317763596773,-0.0815097838640213,-0.0023811659775674,-0.1091264262795448
1783204243912989000,2.405989013671875,0.0260015794798731,0.0400714597560465,0.0087052845031023,-0.0808572694659233,-0.0018526669591665,-0.1001257896423339
1783204243922925800,2.41592578125,0.0633954905897378,0.0260308055743575,0.019584405913949,-0.0876885429024696,-0.0090961987152695,-0.089452639222145
1783204243932864000,2.425864013671875,0.1007823874369263,0.0594435380935668,-0.0064577978372573,-0.0940439775586128,-0.0186411850154399,-0.0839516893029213
1783204243942801000,2.43580078125,0.1352010821282863,0.0770160196632146,-0.0029851532906293,-0.1000776290893554,-0.0119212307035923,-0.0738596394658088
1783204243952739000,2.445739013671875,0.1926929016321897,0.0545166030853986,-0.0076104750037193,-0.1048555150628089,-0.0167468879371881,-0.0589577555656433
1783204243962675700,2.45567578125,0.2375333293557167,0.0475477869860827,-0.0560971502751111,-0.1078329309821128,-0.0193200334906578,-0.0490992665290832
1783204243972612900,2.46561279296875,0.254916425833106,0.0502314731121063,-0.0663034869909286,-0.1107185333967208,-0.0129961241036653,-0.0343883670866489
1783204243982550800,2.47555078125,0.252534791393578,0.0773974201962351,-0.0113368020504713,-0.1188531517982482,-0.0052987891249358,-0.0203548390418291
1783204243992488000,2.485488037109375,0.2762640420272946,0.0683349928185343,-0.0377039999723434,-0.1208827123045921,-0.0186561979353427,-0.0041047567501664
1783204244002424800,2.4954248046875,0.2776324077710509,0.0098182141810655,-0.1238473289430141,-0.1145124211907386,-0.0282350555062294,0.009762855246663
1783204244012363000,2.505363037109375,0.23819851526618,-0.0051928924679756,-0.1074865612506866,-0.1082585155963897,-0.0380982011556625,0.013874415308237
1783204244022300000,2.5152998046875,0.1683773755431175,0.0280468215718865,-0.1817459756821393,-0.0896310359239578,-0.0502182468771934,0.0217320714145898
1783204244032236800,2.52523681640625,0.1189747544705867,0.0014659808993339,-0.2306102520942687,-0.0694105103611946,-0.0489335395395755,0.0239247940480709
1783204244042174700,2.5351748046875,0.0712011959046125,0.0210284672424197,-0.2334229714274406,-0.0529154241085052,-0.049344465136528,0.0135901318863034
1783204244052112000,2.54511181640625,0.0297977568924427,0.0712178547784686,-0.280164848858118,-0.029171697795391,-0.0384440161287784,0.0087596429511904
1783204244062049000,2.555049072265625,0.0326920170292258,0.047238721036911,-0.3007043635398149,-0.0126680871471762,-0.022830968722701,0.0088603096082806
1783204244071987000,2.564987060546875,0.016773732407391,0.0328681042484939,-0.2981161006122827,0.0083217360079288,-0.0105962101370096,0.0100487936288118
1783204244081923800,2.574923828125,0.0071001873940229,0.0380154040090739,-0.2984147912979126,0.0312539488077163,0.006203809287399,0.0039102081209421
1783204244091860700,2.58486083984375,-0.0231628489226102,0.0385341671861708,-0.2612275086760521,0.0437541753053665,0.0204190332442522,-0.0024655810557305
1783204244101798700,2.594798583984375,-0.0404562212899327,0.0425311278678476,-0.1871650781214237,0.0523473992943763,0.036939688026905,-0.001904719392769
1783204244111735800,2.60473583984375,-0.0582765401408076,0.0222267371162772,-0.1286474227011203,0.0559903346002101,0.0439922213554382,-0.0036563207395374
1783204244121673000,2.6146728515625,-0.0818903477013111,-0.0023030162453651,-0.066148004168272,0.05421107634902,0.0330799184739589,-0.0122767072170972
1783204244131611000,2.62461083984375,-0.0904763897389173,-0.0094520112171769,-0.0218891757249832,0.0570805333554744,0.01413637958467,-0.0174260605126619
1783204244141548000,2.634548095703125,-0.0899970817893743,0.0059527709245681,0.0043289691150188,0.057077869772911,0.0067386501468718,-0.0257068928331136
1783204244151484700,2.644484619140625,-0.0606418079674243,-0.0027840777605772,0.0638169308722019,0.0532786548137664,0.0079222880303859,-0.0331627279520034
1783204244161422800,2.6544228515625,-0.0316653043299913,0.0229592891745269,0.0860579887747764,0.0429613068699836,0.0084099136292934,-0.0344242677092552
1783204244171359700,2.66435986328125,-0.0054357613131403,0.0327104294687509,0.0952022492170333,0.0330009497702121,0.0109806302934885,-0.0311211422085762
1783204244181297000,2.674296875,0.030144086112082,0.0272742297641932,0.1160848782479763,0.0202630497515201,0.0082674026489257,-0.0274260062724351
1783204244191234800,2.68423486328125,0.0640048546597361,0.0155719554021954,0.0926484730809927,0.0102603677660226,0.0031857278663665,-0.0187356788665056
1783204244201172000,2.694171875,0.0588134234964847,0.0008586626559495,0.0682838471531867,0.0053905113600194,-0.0077172531746327,-0.0132269309833645
1783204244211110000,2.70410986328125,0.0569482141464948,-0.0143554192192852,0.0523415971338748,0.006730131804943,-0.0225385650992393,-0.0048706326633691
1783204244221047000,2.714047119140625,0.0639019788071513,-0.0238797650203108,0.0077659578263759,0.0068246740847826,-0.0312391128391027,0.0021744933910667
1783204244230983700,2.723983642578125,0.0777913879498839,-0.0376436480872333,-0.0101864629715681,0.0002362849190831,-0.0227122157812118,0.0106484554708004
1783204244240921900,2.733921875,0.0942176220938563,-0.02469254270792,0.0010638298392295,-0.0132835190743207,-0.0097609972581267,0.0175830610096454
1783204244250858800,2.743858642578125,0.0899590878665447,0.0038239422023296,-0.0301718509018421,-0.027756929397583,-0.0010067387484014,0.0284681897610425
1783204244260796000,2.7537958984375,0.0947419382289052,-0.0155310388699173,-0.0450923566579818,-0.0405528843402862,0.010719958692789,0.0429107807576656
1783204244270733800,2.76373388671875,0.099854166676104,-0.0302823255389928,-0.0721843617230653,-0.0396816208958625,0.0089742764830589,0.0519261583685874
1783204244280671000,2.7736708984375,0.0762155169352889,-0.0225806651204824,-0.1043570310533046,-0.0363814309239387,-0.0034528323449194,0.0565917491912841
1783204244290607900,2.78360791015625,0.0578743890807032,0.008614391349256,-0.1302209556281566,-0.0212231203913688,-0.0082761291414499,0.0585433691740036
1783204244300546000,2.793546142578125,0.0458984123438596,0.040491000342369,-0.1121720887184143,-0.0114330751821398,-0.0058497237041592,0.0607652477920055
1783204244310482700,2.803482666015625,0.0455573438212275,0.0624744302220642,-0.1205704992294311,0.0025329319760203,-4.6226195991e-06,0.0675394386053085
1783204244320419800,2.813419921875,0.0773214323505759,0.0540565843582153,-0.1135924769103527,0.0069583067670464,-0.0001047574914991,0.0799156799912452
1783204244330357800,2.823357666015625,0.0830354260832071,0.04931991122514,-0.0816162069350481,0.0070070000365376,-7.0481095463e-05,0.0799887254834175
1783204244340295000,2.833294921875,0.0746796856701374,0.0683569123893976,-0.037104280513525,-0.0015204418450593,-0.0016638501547276,0.0859510153532028
1783204244350232800,2.84323291015625,0.0802127698779106,0.0401765275657176,-0.0370347224086523,-0.006223521195352,-0.0106649659574031,0.0958236753940582
1783204244360170000,2.853169921875,0.0709627109736204,0.0232525730326771,-0.0573562104254961,-0.0021153297275304,-0.0172253958880901,0.0945448279380798
1783204244370106600,2.863106689453125,0.0063511225923895,0.0305807239636778,-0.085946929615736,0.0050884811207652,-0.0089954938739538,0.0892755314707756
1783204244380044800,2.873044921875,-0.0525213376149535,0.0520784161530435,-0.0582405920445919,0.0114350598305463,-0.0047400281764566,0.0763815715909004
1783204244389981700,2.882981689453125,-0.0694412004947662,0.0486371896579861,-0.045597383570671,0.0143021391704678,-0.0105565413832664,0.0655544474720954
1783204244399918800,2.8929189453125,-0.066354924917221,-0.0003963058412075,-0.0166840082973241,0.0088980533182621,-0.0070534190163016,0.0596925653517246
1783204244409856800,2.902856689453125,-0.0643383243978023,-0.007070084516704,0.0259621242523193,-0.0020462907850742,-0.0149884764105081,0.0492207035422325
1783204244419794000,2.9127939453125,-0.0674903586879372,0.0172591778367757,0.0168202018976211,-0.0133607303723692,-0.0320811755955219,0.0460874959826469
1783204244429730800,2.922730712890625,-0.0279261178016662,0.0090026600144803,0.0367559054672718,-0.0242115519940853,-0.0343446768820285,0.0448385588824749
1783204244439669000,2.9326689453125,-0.0274693139448761,-0.0214518072210252,0.0183113172382116,-0.0304305665194988,-0.0252443887293338,0.0550286136567592
1783204244449605600,2.942605712890625,-0.0540513236612081,-0.0236933025375008,-0.0214320796072483,-0.0219563469290733,-0.0181941241025924,0.0463602021336555
1783204244459542800,2.952542724609375,-0.0730778034314513,-0.0027140812642872,-0.0308715236037969,-0.0136400954797863,-0.0016886508092284,0.0441793389618396
1783204244469480700,2.962480712890625,-0.0687388974443078,-0.0173187990695238,-0.026167875957489,-0.005357994697988,0.0044050635769963,0.0432920232415199
1783204244479417900,2.97241796875,-0.060823302014172,-0.0224624455682933,-0.0347398894697427,-0.00667439494282,-0.0008895667269825,0.0442371778190135
1783204244489355800,2.982355712890625,-0.0507777088180184,-0.0293712020434439,-0.0199076465189456,-0.0083887111395597,-0.0040151155553758,0.0408856272697448
1783204244499293000,2.99229296875,-0.0422387207925319,-0.0381977748386561,-0.0233569101899862,-0.0132606979459524,-0.0043123248033225,0.0374070070683956
1783204244509229800,3.002229736328125,-0.0458335304141044,-0.0442208345204591,-0.0168365685105323,-0.0173423197120428,-0.00332388933748,0.0291904024779796
1783204244519168000,3.01216796875,-0.0511111785560846,-0.0264667127735912,-0.0089548753499984,-0.0196339674293994,0.0028501169290393,0.0196911729872226
1783204244529104600,3.022104736328125,-0.0330146731123328,-0.0169819683305919,-0.0132364981919527,-0.0184596367180347,0.0090353284031152,0.0105171613395214
1783204244539041800,3.032041748046875,-0.0168178638100624,0.0022311200529336,-0.0147439801454544,-0.020275380462408,0.0069775036536157,0.0070475954562425
1783204244548979700,3.041979736328125,0.0175923553138971,-1.40285253524e-05,-0.0126747726559638,-0.0176614299416542,-0.0043288306333124,0.0116988085210323
1783204244558916900,3.051916748046875,0.0524301522001624,0.0054753626711666,-0.028830957686901,-0.0193504076451063,-0.020397812128067,0.0105017172172665
1783204244568854800,3.061854736328125,0.0707476069182157,0.0046785132050514,-0.0425432566970586,-0.0296847112476825,-0.0452680811285972,0.008021431043744
1783204244578792000,3.0717919921875,0.0972425228729844,-0.0196326289698481,-0.0344049584269523,-0.0518579259514808,-0.0576821379363536,0.009729316458106
1783204244588728800,3.081728759765625,0.124593471135199,-0.0432955363690853,0.0022638532787561,-0.0700406208634376,-0.0488092303276062,0.020371614024043
1783204244598667000,3.0916669921875,0.1229044951349496,-0.0046428573697805,0.0006488192975521,-0.0897357612848281,-0.0286541637033224,0.0216680411249399
1783204244608603600,3.101603759765625,0.1156231059551239,0.0426540235951542,0.1441577110439539,-0.1204964220523834,-0.0011161821894347,0.0280438736081123
1783204244618540800,3.111540771484375,0.1861445029020309,0.0344528892219066,0.066560092100501,-0.1328226029872894,-0.0863911285996437,0.0452489592134952
1783204244628478700,3.121478759765625,0.2167982921019196,0.0269058348432183,-0.2583271110594272,-0.0969315692782402,-0.0953108444809913,0.062653824687004
1783204244638416000,3.131415771484375,0.2791974651306867,0.0554880784660577,-0.0918517697453498,-0.0459631904959678,-0.0631001740694046,0.0787220075726509
1783204244648352800,3.141352783203125,0.270830618801713,0.1420503635011613,-0.0194797764956951,-0.0126688135787844,-0.0604243427515029,0.1078317835927009
1783204244658291000,3.151291015625,0.2558925773888826,0.2108829305782914,-0.1519897198438644,0.0223458968102931,-0.0720176100730896,0.1500072032213211
1783204244668227800,3.161227783203125,0.2805611546993255,0.2017702343180775,-0.2037713450074195,0.0645490437746048,-0.0629135370254516,0.1771123707294464
1783204244678166000,3.171166015625,0.2050394652470946,0.1700429706677794,-0.1466354993343353,0.0951319858431816,-0.0538436137139797,0.184596374630928
1783204244688102700,3.1811025390625,0.0771256175175309,0.1814088526822626,-0.1170668750226497,0.0999915599822998,-0.0606751926243305,0.173088863492012
1783204244698039800,3.191039794921875,-0.0054161798298358,0.1301326928228139,-0.0692874712377786,0.0936037003993988,-0.0660718157887458,0.1616282165050506
1783204244707977700,3.200977783203125,-0.0524342438533902,0.0192690563544631,-0.0170966807514429,0.0797822996973991,-0.0953974872827529,0.1301556676626205
1783204244717915000,3.210914794921875,-0.1036246251255273,-0.0641622371785342,-0.0181996735572814,0.0535690709948539,-0.0915420353412628,0.1104775816202163
1783204244727851800,3.220851806640625,-0.2042769564419984,-0.0665304276145994,0.0142909756809473,0.0296176224946975,-0.0389630645513534,0.0895079895853996
1783204244737790000,3.2307900390625,-0.2492185064524412,-0.0646557197839021,0.0247685305535793,0.0078532043844461,0.0037886579521,0.0616316199302673
1783204244747726800,3.240726806640625,-0.2865866985991597,-0.1038610642299056,0.0511450808256864,-0.0078647444024682,-0.0203248802572488,0.0377484261989593
1783204244757665000,3.2506650390625,-0.23789076449126,-0.0836119107969105,-0.0973567969024181,-0.0068492805585265,-0.0408578515052795,0.0298154037445783
1783204244767601700,3.2606015625,-0.2723413156256079,-0.0979550550565123,-0.0981435633659362,0.0028124246746301,-0.0261033456772565,0.0234845019876956
1783204244777538800,3.270538818359375,-0.2761412924304604,-0.1194056932337582,-0.0640507396280765,0.0177698023617267,-0.0125220231711864,0.0099612362682819
1783204244787476700,3.280476806640625,-0.2765682856708765,-0.1105083932898938,-0.0969803648054599,0.033334881067276,-0.0146853849291801,-0.0053057800978422
1783204244797414000,3.290413818359375,-0.230477273364365,-0.1211269640684127,-0.1140332064151763,0.0435094870626926,-0.0192391239106655,-0.0145506784319877
1783204244807350800,3.300350830078125,-0.189014505380392,-0.0987369992144405,-0.0825233849078416,0.0455733314156532,-0.005455610807985,-0.0137172397226095
1783204244817289000,3.3102890625,-0.1808726999789476,-0.0662087944447994,-0.0251379483878612,0.0466468520462513,0.0160094685852527,-0.0138962045311927
1783204244827225900,3.320225830078125,-0.1644835829749703,-0.0148614690452814,-0.0050081835508346,0.0436809211969375,0.0323616191744804,-0.0194100998342037
1783204244837162800,3.330162841796875,-0.1544102249890565,-0.0151699504725635,0.0320300459891557,0.0322061590850353,0.0471645332872867,-0.0270368605852127
1783204244847100700,3.3401005859375,-0.1078358130797743,-0.0051404316283762,0.0711725543320179,0.0136410798877477,0.0434849932789802,-0.0334037765860557
1783204244857037800,3.350037841796875,-0.0829056622236967,0.0049634676262736,0.1037760162949562,-0.0084501067176461,0.0285824742168188,-0.0355393663048744
1783204244866975700,3.359975830078125,-0.0377545611158013,0.0193444596782326,0.118729839798808,-0.0289905238896608,0.0139048108831048,-0.0387403815984725
1783204244876913000,3.369912841796875,-0.0185614926069974,0.0425208987347781,0.1233592531651258,-0.0428988859057426,0.0059515470638871,-0.0365597866475582
1783204244886849800,3.379849853515625,0.0130044430017471,0.0614082622952759,0.1072077443093061,-0.0530679635703563,0.00134684657678,-0.038415603339672
1783204244896788000,3.3897880859375,0.0439092843532562,0.0592746112674474,0.0840086550295352,-0.0600196160376071,0.0013686846941709,-0.0361841395497322
1783204244906724900,3.399724853515625,0.0749625942647457,0.0553334724262356,0.0541086068063974,-0.0668377876281738,-0.0003517200239002,-0.0260544680058956
1783204244916663000,3.4096630859375,0.0874739930525422,0.056926440706104,-0.0214069451659917,-0.0590001083910465,-0.014004148542881,-0.0167848039418458
1783204244926599700,3.419599609375,0.0778986477166414,0.0543127510763704,-0.098362174552679,-0.0394526422023773,-0.0014350535348057,-0.0098111303523182
1783204244936536800,3.429536865234375,0.0966597545489668,0.0320619024321436,-0.1020820718586444,-0.0170860849320888,0.0056161982938647,-0.0022512150462716
1783204244946474800,3.439474853515625,0.1038692475363612,0.0356629956640303,-0.1161906767100095,-0.0062996391206979,-0.0161799676716327,0.0011236739810556
1783204244956412000,3.449411865234375,0.0960471756085753,0.0264472774207592,-0.1535796193838119,-0.0089841056615114,-0.0340785421431064,0.0051841959357261
1783204244966348800,3.459348876953125,0.0711167324915528,0.0032687925375998,-0.1257803428322076,-0.0130819948390126,-0.0242082588374614,-0.0004339253064244
1783204244976287000,3.469286865234375,0.0249932792201638,0.011252484767884,-0.0810825384497642,-0.0277341715991497,-0.0049895574338734,-0.0039476999081671
1783204244986223600,3.4792236328125,-0.0048968321308493,0.014108604851365,-0.0925701471477746,-0.0346534699201583,0.0085214972496032,-0.0125037170946598
1783204244996161800,3.489161865234375,-0.0056090720534324,-0.0043386137261986,-0.1104337206184864,-0.0309261102229356,0.0229198783636093,-0.0136856287717819
1783204245006098700,3.4990986328125,0.0270069571301341,0.0008386427812278,-0.1125496898591518,-0.0194788910448551,0.0284954719245433,-0.0097338603809475
1783204245016035800,3.509035888671875,0.0489119149461388,0.0125479314059019,-0.1230588089138269,-0.0016780560836195,0.0234594345092773,-0.0048466934822499
1783204245025973800,3.518973876953125,0.0485351905882358,0.0208322140179574,-0.0932458544522523,0.0151290297508239,0.0211404301226139,0.0003651226870715
1783204245035911000,3.528910888671875,0.045287879230082,0.0224631762206554,-0.0465969160020351,0.0239092055708169,0.01346040610224,0.0022351946681737
1783204245045847800,3.538847900390625,0.0204348852634429,0.0112532154202461,0.0010030395627021,0.0207819454371929,0.0150014236569404,0.0052981725893914
1783204245055786000,3.548785888671875,-0.0050371173843741,-0.0065692953877151,0.0550222145199775,0.007655756548047,0.0087315430864691,-0.0031792016234248
1783204245065723000,3.558722900390625,-0.0187891638830304,-0.0112670978151261,0.0827525174885988,-0.0076308771967887,-0.0022445209324359,-0.0113043161109089
1783204245075661000,3.5686611328125,-0.0376081383824348,-0.0191372466683387,0.0673860215306282,-0.0156616400927305,-0.0029135076329112,-0.0133642712607979
1783204245085598000,3.578597900390625,-0.0337795200049877,-0.0292844005428254,0.0939449426323175,-0.0251620598137378,0.0019483785144984,-0.0205020308494567
1783204245095534800,3.588534912109375,-0.0287388954892754,-0.016835399466753,0.1188414834797382,-0.0443493351340293,0.0132971731945872,-0.0239401701837778
1783204245105472800,3.59847265625,-0.0089323712572455,-0.0310479030840098,0.1247024844676256,-0.0578088536858558,-0.0388167202472686,-0.0230181440711021
1783204245115410000,3.608409912109375,-0.0254033213257789,-0.0400865111947059,-0.0293354000777006,-0.0653602480888366,-0.0297204311937093,-0.0184375066310167
1783204245125346800,3.618346923828125,-0.0231619721397757,-0.0250587456718087,0.0851297680139541,-0.0675034523010253,-0.0118881333619356,-0.0209412239491939
1783204245135285000,3.628284912109375,-0.0608478519335389,0.0424760366797447,0.0254845698684453,-0.0671859979629516,-0.0231762081384658,-0.0210072696208953
1783204245145222000,3.638221923828125,-0.0340741190373897,0.0176189510598778,-0.107821492293477,-0.0568680427968502,-0.0337177030742168,-0.0173524878919124
1783204245155160000,3.64816015625,0.008547171331942,0.0068505965471267,-0.1458037246853113,-0.0373398810625076,-0.0084869135171175,-0.00836325250566
1783204245165097000,3.658096923828125,0.0188552148565649,0.0484352373450994,-0.1374795484542846,-0.0173096880316734,0.0114836748689413,-0.0037318356335163
1783204245175033900,3.668033935546875,-0.000896948839724,0.0597867985732853,-0.1634358274877071,-0.0040439497679471,0.0168339647352695,0.0028355193790048
1783204245184971800,3.6779716796875,-0.0015361235260963,0.0295467047408223,-0.1468488498240709,-0.0015285396948456,0.0341962352395057,-0.0001067030243575
1783204245194909000,3.687908935546875,0.0246241536468267,-0.003640402328968,-0.0946171428054571,-0.0137098394334316,0.0247063264250755,0.0071139256469905
1783204245204846800,3.697846923828125,-0.0159957337722182,0.0016293547675013,-0.0907294877171516,-0.0230889301747083,0.0158649738878011,0.0013883095234632
1783204245214784000,3.707783935546875,-0.0213663208946585,0.0160962715372443,-0.0720259562909603,-0.0224700104445219,0.0131445545703172,-0.0042397491633892
1783204245224721000,3.717720947265625,-0.0062333414316177,0.0073253744520246,-0.0548065259426832,-0.0208973735570907,0.0096801631152629,-0.0079362131655216
1783204245234659000,3.7276591796875,0.0297600552305579,0.0135674837119877,-0.055485740378499,-0.0169071592390537,0.0070641399361193,-0.0062767975032329
1783204245244596000,3.737595947265625,0.05530658441931,0.0241300865195691,-0.0568044217616319,-0.0126788178458809,0.0018095700070261,-0.0011273056734353
1783204245254532900,3.747532958984375,0.0681117054566741,0.021367197677493,-0.0548959577918052,-0.0037742732092738,-0.0072949789464473,0.0048983627930283
1783204245264470800,3.757470703125,0.0601186608761548,0.0180406836032867,-0.0512760137289762,-0.001317685469985,-0.0095324330031871,0.013468898832798
1783204245274408000,3.767407958984375,0.0556587588578462,0.014209434877336,-0.0264490309864282,-0.0017328727990388,-0.0102429632097482,0.015424458310008
1783204245284345900,3.777345947265625,0.0507964135184884,0.0096501641377806,-0.0204699565768241,-0.0042704669758677,-0.0130127696320414,0.0184950083494186
1783204245294283000,3.787282958984375,0.0221659468397498,0.0118177174352109,-0.0588964256048202,-0.0038187941536307,-0.005727426148951,0.0163732692599296
1783204245304220000,3.797219970703125,-0.0040063130319118,-0.0017608721926808,-0.029992987203598,-0.0018498571589589,0.0140834907069802,0.0141773829236626
1783204245314158000,3.807157958984375,-0.0171335056304931,0.0019438275441527,-0.0236935947984457,-5.27556985616e-05,0.0148781780153512,0.0142282480373978
1783204245324095000,3.817094970703125,-0.0125336106196045,-0.0089013915970921,-0.0542518146693706,0.0015305075794458,0.0070344074629247,0.016726916655898
1783204245334033000,3.827032958984375,-0.0064484454870223,-0.0272669232405722,-0.0367494757264852,0.003677281551063,-0.0003026011399924,0.0182347986847162
1783204245343969800,3.8369697265625,-0.0211947637200355,-0.0106473584815859,-0.0273696529626846,0.0069634076207876,-0.0023319143801927,0.0148823847994208
1783204245353907000,3.846906982421875,-0.0437400652661919,0.0049831952400505,-0.0029331308424472,-0.001414630562067,-0.0007798243314027,0.0081592351198196
1783204245363844900,3.856844970703125,-0.067201604874432,0.0018090952485799,-0.0008189151674509,-0.0071571487933397,0.0031318480614572,-0.0014987713657319
1783204245373782000,3.866781982421875,-0.0800917738467454,-0.0030877368822693,0.0141126965045928,-0.0119148846715688,0.0012026540935039,-0.0085351094603538
1783204245383719000,3.876718994140625,-0.0647471974596381,-0.0152438924916088,0.0189069450438022,-0.0165209993720054,0.002651814604178,-0.0149054387584328
1783204245393657000,3.886656982421875,-0.0537593549773097,-0.0090890231236815,0.0204015675157308,-0.0249046310782432,-0.0029490790329873,-0.021184641867876
1783204245403593700,3.89659375,-0.0507446833312511,-0.0029670331120491,-0.0008487257838249,-0.0230631809681653,-0.0132783977314829,-0.0211835298687219
1783204245413532000,3.906531982421875,-0.0439846876770257,-0.0088104984432458,-0.0498632243216037,-0.0179344657808542,-0.0137415202334523,-0.0211190804839134
1783204245423468800,3.91646875,-0.036136312264204,-0.0130547118842601,-0.0618476766258478,-0.0041078422218561,-0.0126796420663595,-0.0218749735504388
1783204245433406000,3.926406005859375,-0.0334670930549502,-0.0110924719005823,-0.0834358235776424,0.0057823397219181,-0.0042960126884281,-0.0181366950273513
1783204245443344000,3.93634375,-0.0218523508459329,-0.013066110061109,-0.0727367349088192,0.0123698972165584,-0.0049805575981736,-0.0170370787382125
1783204245453281000,3.946281005859375,0.0065755789980292,0.0026623510770499,-0.066627312117815,0.014009871520102,-0.010593969374895,-0.0129435341805219
1783204245463219000,3.956218994140625,0.0267146961852908,-0.0016660335160791,-0.0858060598403215,0.0095100756734609,-0.0040966938249766,-0.0116137377917766
1783204245473156000,3.966156005859375,0.025155191783607,0.0096437343969941,-0.0629968466609716,0.0073803458362817,0.0064909700304269,-0.0089202169328928
1783204245483092700,3.9760927734375,0.0324327815711498,0.0194235162638127,-0.0475175379782915,0.0052212486043572,0.0134988110512495,-0.0076739294454455
1783204245493031000,3.986031005859375,0.0251473007380962,0.0253859317995607,-0.0474561631798744,0.0068393852561712,0.0103118065744638,-0.0082478411495685
1783204245502967800,3.9959677734375,0.0251978618815541,0.0282116567447781,-0.0454804791927337,0.0083934674039483,0.0011057718656957,-0.003812923328951
1783204245512905700,4.00590576171875,0.0302700505793094,0.0138216046035289,-0.0448930346935987,0.0133879594504833,-0.0032956348732113,-0.0025479216128587
1783204245522843000,4.0158427734375,0.0492649661675095,0.0285673383146524,-0.0314040230453014,0.014630033634603,-0.0077668912708759,0.0019526402465999
1783204245532780000,4.025780029296875,0.0695417382597923,0.037877164582163,-0.0233159936577081,0.0078267231583595,-0.003485326655209,0.0081511475145816
1783204245542718000,4.035718017578125,0.0674266458019614,0.0453396094173192,-0.0008563245683908,-0.0006620856001973,0.0044186799786984,0.0100092105567455
1783204245552655000,4.045655029296875,0.0350093540608882,0.0575917727470397,0.015604396367073,-0.0067665828391909,0.0077998293563723,0.0111226784065365
1783204245562593000,4.055593017578125,0.0172477796599268,0.0422651704080402,-0.0146843589127063,-0.0119222616776824,0.0075236642733216,0.0120248580351471
1783204245572530000,4.065530029296875,0.0093996965080499,0.0202953306622803,-0.0028109657675027,-0.0038446271792054,0.0015714992769062,0.0096905976533889
1783204245582466800,4.075466796875,-0.0058981181278824,0.0088594521515071,-0.0277542683660984,0.002183798700571,-0.0048372633755207,0.0077624199911952
1783204245592404700,4.08540478515625,-0.0134314362421631,0.0058254912830889,-0.0344324309557676,0.003483154810965,-0.004491850733757,0.009433819912374
1783204245602342000,4.095341796875,-0.0288180982053279,0.0167795776262879,-0.0173334121167659,-0.0016601970419287,-0.0018907035700976,0.0089223170652985
1783204245612279800,4.10527978515625,-0.0481952911093831,0.0285441035695374,-0.035382863548398,-0.0014463448897004,0.0069536538794636,0.0066977785900235
1783204245622217000,4.115217041015625,-0.0419496747180819,0.0090370006754994,-0.019466917014122,0.0019508870318531,0.0133081013336777,0.0055320393294095
1783204245632154000,4.125154052734375,-0.0188616445973515,-0.0118564420104026,-0.0445814845263957,0.0069874576292932,0.0126369846984744,0.0039594424888491
1783204245642092000,4.135092041015625,-0.022504969535768,-0.012538286794722,-0.0501215829968452,0.0089735807850956,0.0059370095841586,0.0073737823404371
1783204245652028700,4.145028564453125,-0.0209881352320313,-0.0101664430968463,-0.0372767144709825,0.0113107711076736,-0.0008535184897482,0.0033204518258571
1783204245661965800,4.1549658203125,-0.0221858205839991,-0.0223000946134328,-0.0257160405367612,0.0058518359437584,-0.0053637106902897,0.0007245219312608
1783204245671903700,4.16490380859375,-0.0271685774326324,-0.0329302096992731,-0.0250204594880342,0.0016016969457268,-0.0090838801115751,-0.0053581381216645
1783204245681841000,4.1748408203125,-0.0388923329740762,-0.023375907151401,0.0015513210952281,-0.0092701269313693,-0.0038844249211251,-0.0112195182591676
1783204245691778800,4.18477880859375,-0.05246259316504,-0.0147357968389987,-0.0071691609770059,-0.0137301227077841,-0.0095079559832811,-0.0136003848165273
1783204245701716000,4.194716064453125,-0.0383732775360345,-0.0004098959751427,-0.0701660076379775,-0.0083543071523308,-0.0110583314672112,-0.0161643046885728
1783204245711653000,4.204653076171875,-0.005057867911458,-0.0060896951772272,-0.0558610034316778,0.0031390972435474,-0.0020749568939208,-0.0118025783449411
1783204245721591000,4.214591064453125,0.017907704873383,0.0106055651664733,-0.0682756638467311,0.0142923174425959,-0.0011544376611709,-0.0046945526264607
1783204245731527700,4.224527587890625,0.0277709272399544,0.0137998311631381,-0.0781827253550291,0.0189267508685588,-0.0037701944820582,0.0007105991244316
1783204245741465900,4.2344658203125,0.0365343716710805,0.0136351421207189,-0.0392693495929241,0.0179301314055919,-0.0010175099596381,0.0064587574452161
1783204245751402800,4.24440283203125,0.0369175257697701,0.0270662861019372,-0.0116892687499523,0.0154187707230448,-0.0048884148709475,0.0097956983372569
1783204245761340000,4.25433984375,0.0222317055523395,0.0096150928243994,0.001029343047738,0.006408613640815,-0.0043758125975728,0.0025919789914041
1783204245771277800,4.26427783203125,-5.28992310166e-05,0.019530337639153,0.0182353293925523,-0.0085389101877808,-0.0016071903519332,0.0002470659092068
1783204245781215000,4.274215087890625,-0.020915946778655,0.0170103176422417,0.0135018711298704,-0.015853738412261,-0.0008902703411877,-0.0022237170487642
1783204245791153000,4.28415283203125,-0.0279486218944191,0.0314483005784451,-0.0013970073163509,-0.0136720761656761,0.0131200877949595,-0.0046751569025218
1783204245801090000,4.294090087890625,-0.0025201661273837,0.0306407835878431,0.0127799865961074,-0.0122904712334275,0.0170142780989408,-0.0014283249620348
1783204245811026700,4.304026611328125,0.017542086431384,0.0210297824166715,-0.0253793559283018,-0.0079290112480521,0.0024411939084529,0.006015476770699
1783204245820964900,4.31396484375,0.0271694542154669,0.0013898469232022,-0.0490489853292703,-0.0039870357140898,-0.0162548422813415,0.0117082456126809
1783204245830901800,4.32390185546875,0.0133081021234393,-0.013896131144464,-0.0442991604536771,0.0055619943886995,-0.0254898853600025,0.0095204589888453
1783204245840840000,4.33383984375,-0.0203399004563689,-0.0138584294825792,-0.0556792171239852,0.0070422808639705,-0.0289113447070121,0.0044349278323352
1783204245850776800,4.34377685546875,-0.0362850730851292,-0.026031682357192,-0.0568628739506006,0.0066404100507497,-0.0236449427902698,0.0020596543326973
1783204245860714000,4.3537138671875,-0.0389949165657162,-0.0243029588684439,-0.0571364301949739,0.0084274401888251,-0.0175160579383373,-0.0005043430719524
1783204245870652000,4.36365185546875,-0.0290530760049819,-0.0209868200577795,-0.0550900190591812,0.0049381665885448,-0.0116467177867889,-0.0038759049493819
1783204245880589000,4.373589111328125,-0.0159890117704868,-0.0197444187812507,-0.0426987395197153,-9.580515325e-06,-0.0038708020001649,-0.0073395674116909
1783204245890527000,4.38352685546875,-0.0137681208506226,-0.0014542904615402,-0.0347357978165149,-0.005299418233335,0.0004115612246096,-0.0051733520813286
1783204245900463900,4.3934638671875,-0.0010115151301026,5.9913493692e-06,-0.0500415034979581,-0.0054738763719797,0.0059039620682597,-0.0022782580927014
1783204245910400800,4.40340087890625,-0.0205436063349246,0.0070515259467065,-0.0320177710294723,-0.0066312868148088,0.0163430199027061,-0.006569942459464
1783204245920339000,4.4133388671875,-0.0122290747150778,0.0371235697358846,-0.0081482351422309,-0.0049642007797956,0.0115248728543519,-0.0061174798756837
1783204245930275800,4.42327587890625,-0.0124000473678112,0.0292982829377055,-0.02569967392385,0.0021938430145382,0.0028304504230618,-0.0028154263272881
1783204245940214000,4.433214111328125,0.0126250882953405,0.0078866615965962,-0.0194879598021507,0.0090649556368589,-0.0119484029710292,-0.0048836781643331
1783204245950151000,4.44315087890625,0.0245779764175415,0.0149807115107774,-0.0114800099134445,0.0092758787795901,-0.0252612773329019,-0.0030253243166953
1783204245960088000,4.453088134765625,0.0350467634618282,0.0258282687395811,-0.0085883801251649,0.0091551784425973,-0.028539054095745,0.001124937320128
1783204245970025700,4.463025634765625,0.0364113298133015,0.0303114055030047,0.0039542905837297,0.0012844717130064,-0.0269504785537719,0.0059532485902309
1783204245979963000,4.472962890625,0.0257248083651065,0.0270069571301341,-0.0075870941281318,-0.0027438150718808,-0.0178815796971321,0.0031157408375293
1783204245989900800,4.48290087890625,0.018689210639894,0.0208864284232258,-0.0157119483947753,-0.0059926053509116,-0.0127009330317378,0.0051661087200045
1783204245999838000,4.492837890625,0.0137234049260616,0.0202012226380407,-0.0310439575612544,-0.013194010592997,0.0001615234650671,-0.0026588733308017
1783204246009774800,4.50277490234375,0.00407499435395,0.0316236571453511,-0.0413742129176855,-0.0168968699872493,0.0054508275352418,0.0011300060432404
1783204246019713000,4.512713134765625,-0.0039613048464059,0.0211095696546137,-0.0609673866599798,-0.0202639065682888,0.0036606506910175,0.0026128541212528
1783204246029649200,4.522649169921875,-0.0051689270704984,0.0135430799230933,-0.0937310076206922,-0.0114986421540379,0.001476059667766,0.0049433857202529
1783204246039587300,4.53258740234375,-0.0140393390074372,-0.0012207739666104,-0.0971118822306394,0.0090415459126234,0.0074051669798791,0.00668909214437
1783204246049524200,4.542524169921875,-0.0208452196300029,0.0073402797602117,-0.0878074627906084,0.0222564190626144,-0.0004104119725525,0.004767089150846
1783204246059461400,4.55246142578125,-0.0220937583863735,0.0053723406881093,-0.0875379981994628,0.0303544364869594,-0.0078616142272949,0.0063334298320114
1783204246069399300,4.5623994140625,0.0009516016364097,-0.0002644961550831,-0.0476852957606315,0.0279013998806476,-0.012212686240673,0.0052702953107655
1783204246079336200,4.572336181640625,-0.0056067339658737,0.0012416706241667,-0.0181985045135021,0.0186028182506561,-0.0093027437105774,0.0029730938840657
1783204246089274000,4.582274169921875,-0.0081792148023843,0.0093488431036472,0.0139385089814662,0.0057165804319083,-0.0039335442706942,0.003176825819537
1783204246099211300,4.592211181640625,-0.0042938978016376,0.0116559510022401,0.0357452671200037,-0.0068691140040755,-0.0009545139037072,0.0014905573334544
1783204246109148200,4.602148193359375,-0.0027981062859296,0.0028074586361646,0.0300286430388689,-0.0159723311662673,-0.004545253701508,0.0032836634200066
1783204246119086300,4.61208642578125,0.0121902040094137,0.0034589082822203,0.0099649291753768,-0.0138073367998003,-0.0111603718250989,0.0057540526613593
1783204246129023200,4.622023193359375,0.0100248426690697,0.006262567526102,0.0018172785550355,-0.0080573046579957,-0.0124919526278972,0.0110638625919818
1783204246138961400,4.63196142578125,0.0173377960309386,0.0121910807922482,-0.0134387427657842,-0.006639901548624,-0.0109797427430748,0.0117781357839703
1783204246148898300,4.641898193359375,0.0152250416606664,0.0404277258478105,-0.024192776492238,-0.0075464416295289,-0.0074119055643677,0.0162266809493303
1783204246158835200,4.651835205078125,-0.000831774649024,0.0333063495352864,-0.01352116035223,-0.0099105900153517,-0.0055653005838394,0.0187290627509355
1783204246168773000,4.661773193359375,-0.0147612235412001,0.0066854691132903,-0.0243242939174175,-0.0137636521831154,-0.0049439845606684,0.0156850703060627
1783204246178710300,4.671710205078125,-0.0556704492956399,0.0013878010965883,-0.0397545027613639,-0.0148652037605643,-0.0063538579270243,0.0046477671712636
1783204246188648200,4.681648193359375,-0.0593590746805071,-0.0122831429898738,-0.036615620213747,-0.0121069671586155,-0.005780478939414,0.0024261579383164
1783204246198585300,4.69158544921875,-0.0484153636008501,-0.0228770177185535,-0.0468155271887779,-0.0101757505908608,-0.0076347445137798,2.95385252684e-05
1783204246208523300,4.701523193359375,-0.0298944952651858,-0.0341476226650178,-0.0653495472669601,-0.0047373091802001,-0.0138055551797151,0.001368309604004
1783204246218460400,4.71146044921875,-0.0118409521803259,-0.0461827822431921,-0.083902856567502,-0.0002882750704884,-0.014787346124649,0.0009884485043585
1783204246228397300,4.721397216796875,-0.0105915366411209,-0.0209798057951033,-0.0817354494005441,0.0058330008760094,-0.0139665603637695,0.0039573404937982
1783204246238335500,4.73133544921875,-0.0190498606458306,-0.0123589847050607,-0.0634124417245388,0.0065486812964081,-0.0134162809699773,0.0019509273115545
1783204246248272100,4.741272216796875,-0.0255158417895436,0.0023079846814274,-0.0708726946026086,0.0125908609479665,-0.0068696979433298,0.0010036409366875
1783204246258210300,4.751210205078125,-0.0165650580927729,-0.0030884675346314,-0.0627221213728189,0.010590523481369,-0.0040080142207443,0.0011156657710671
1783204246268147200,4.761147216796875,0.0068029580131173,0.0098062314823269,-0.0564683216750621,0.0121974749490618,-0.0028189136646687,-0.0001895495224744
1783204246278084400,4.77108447265625,0.0182148711264133,0.0245388134509325,-0.0302794029295444,0.0084580704569816,-0.0017312280833721,0.0050597749650478
1783204246288022300,4.781022216796875,0.0274164147138595,0.0433688938662409,-0.0259007494539022,0.0035296250134706,0.0012669586576521,0.0048989197239279
1783204246297959400,4.79095947265625,0.028398411488533,0.0394444138988852,-0.019409049347043,0.0026295818388462,0.0062988717108964,0.006981729529798
1783204246307897300,4.8008974609375,0.0259419582471251,0.039340369002521,-0.0112193131506443,0.0048583811149001,0.0004867892712354,0.0084507288411259
1783204246317834500,4.81083447265625,0.0304173500955104,0.0318541049003601,-0.0247515794187784,0.0069351447746157,-0.0082383770495653,0.0131180137395858
1783204246327771100,4.820771240234375,0.0298635156050324,0.0313895561285316,-0.0217453833401203,0.0081996135413646,-0.0080879088491201,0.0158482864499092
1783204246337709300,4.830709228515625,0.0298339972496032,0.0359887204870581,-0.006449030008912,0.0094909882172942,-0.005142415408045,0.0155429113656282
1783204246347646200,4.840646240234375,0.0217804546535015,0.0443418305516242,-0.0332183789908885,0.0097256125882267,-0.0070308628492057,0.0169043187052011
1783204246357584100,4.850584228515625,0.0283776609614491,0.0411385044656693,-0.0113747959733009,0.0057810815051198,-0.0042930776253342,0.014794697985053
1783204246367521300,4.860521240234375,0.0310281754702329,0.0323220146730542,-0.0169078801810741,-0.0023855017498135,0.0016052913852036,0.018051479011774
1783204246377458400,4.87045849609375,0.0286094238907098,0.0366102133862674,-0.0259013339757919,-0.0063890917226672,0.0126898698508739,0.0233773440122604
1783204246387396400,4.880396240234375,0.0318657953381538,0.0228350782729685,-0.0311421572387218,-0.004480137489736,0.0184763856232166,0.0264807268977165
1783204246397333500,4.89033349609375,0.0335112244576215,0.0147834353730082,-0.0473328290611505,-0.001217620447278,0.009050715714693,0.034155823290348
1783204246407271400,4.900271484375,0.0162953012406826,-0.0011591069072484,-0.0605132131516933,0.0042490502819418,0.0006918525323271,0.0347379893064498
1783204246417208300,4.910208251953125,-0.0570195258170366,-0.0096764676228165,-0.0473211386233568,0.0025148447602987,-0.0013857227750122,0.0240065287798643
1783204246427145200,4.920145263671875,-0.1142649693444371,-0.0246473883919417,-0.0333580797225236,0.0055244835093617,-0.0046715312637388,0.0129610672593116
1783204246437083100,4.930083251953125,-0.1162964751720428,-0.058074295566976,-0.0593020837962627,0.0060266647487878,-0.0095021165907382,0.0066734161227941
1783204246447020300,4.940020263671875,-0.0788528797015547,-0.0778060009971261,-0.0603852028578519,0.0070679606869816,-0.0140284243971109,0.0012112730182707
1783204246456958200,4.949958251953125,-0.0623185090079903,-0.068983665985614,-0.0537695841103792,0.009480457752943,-0.0133388806134462,-0.0019182396354153
1783204246466895400,4.959895263671875,-0.051464814299345,-0.0451024396605789,-0.0536994414836168,0.0086151976138353,-0.0094964727759361,5.78258186578e-05
1783204246476832500,4.96983251953125,-0.0536839516535401,-0.0270792917139828,-0.0402536844551563,0.0089683812111616,0.0032308031804859,-0.0019723779987543
1783204246486770200,4.979770263671875,-0.0448930346935987,-0.0276817876517772,-0.0232645557314157,0.0054354309104382,0.0088032018393278,-0.0021633266005665
1783204246496707300,4.989707275390625,-0.0200339032471179,-0.0107163320645689,-0.0036252047598361,0.0027730474248528,0.0146391056478023,-0.0029581093695014
1783204246506645200,4.999645263671875,-0.0159174078390002,0.0131003045916557,-0.0111304658234119,-0.0026741819456219,0.0108092129230499,-0.0027221532072871
1783204246516582100,5.00958203125,-0.0152875855028629,0.0066468906685709,0.0128448685258626,-0.0048828776925802,0.0118576809763908,-0.0049752327613532
1783204246526520300,5.019520263671875,-0.0135968559369444,0.0143497201308608,0.0306622647672891,-0.0035425089299678,0.0069087292067706,-0.0088064558804035
1783204246536457200,5.029457275390625,-0.0016036358043551,0.0292532747521996,0.0272094939649105,-0.0071560498327016,-0.0020830687135457,-0.006167403422296
1783204246546394400,5.039394287109375,0.0131327455565333,0.0469543511375784,0.0173866036087274,-0.0091606117784976,-0.0107750929892063,-0.0073895282112061
1783204246556332300,5.049332275390625,0.0150780344054102,0.0535784454524517,0.021022329762578,-0.0101404972374439,-0.0092843919992446,-0.005066136829555
1783204246566269200,5.059269287109375,0.029789573585987,0.0529813563421368,0.019067688563466,-0.0146620105952024,-0.0150101874023675,-0.0030762227252125
1783204246576207000,5.06920703125,0.0407230555325746,0.0528457472637295,-0.0066278937071561,-0.0160145014524459,-0.0159633513540029,-0.0011843582615256
1783204246586144300,5.079144287109375,0.0393541052669286,0.0364938935302197,-0.0318909297794103,-0.0165932066738605,-0.0134993959218263,0.0023864079266786
1783204246596081200,5.0890810546875,0.0259510183364152,0.0260851661100983,-0.0313923326075077,-0.0200790334492921,-0.0109295193105936,0.0032131392508745
1783204246606019300,5.099019287109375,0.0196516259312629,0.0075096449777483,-0.0651525633901357,-0.0111318752169609,-0.0102842357009649,0.0035447026602923
1783204246615956200,5.108956298828125,0.0063084524944424,-0.0063185354970395,-0.0940519101381301,-0.0059661818668246,-0.0170581713318824,0.0074191503226757
1783204246625894400,5.118894287109375,0.0065419689893722,-0.0124709206469357,-0.0979284593105316,-0.0025155246257781,-0.0127920545637607,0.0046515939757227
1783204246635831300,5.128831298828125,0.0025534838750958,-0.0099647830449044,-0.1131225213110446,0.0031190030276775,-0.0113130584359169,0.0073623531498014
1783204246645769500,5.13876953125,-0.0131976274862885,-0.0096390582218766,-0.117709849101305,0.0094261672347784,-0.0019174278713762,0.0091940760612487
1783204246655706000,5.1487060546875,-0.0191653037190437,-0.0062245736032724,-0.0931219358116388,0.0135744260624051,0.0011104950681328,0.0059309448115527
1783204246665643300,5.158643310546875,-0.0137672440677881,0.0027205110050737,-0.0788455731779336,0.0158149432390928,0.0013970509171485,0.0047104177065193
1783204246675581200,5.168581298828125,-0.0136272510752081,0.012129998254776,-0.0536199465066194,0.0119609534740448,0.0095426142215728,0.0043149832636117
1783204246685518300,5.178518310546875,-0.0242246329352259,0.0197264447331428,-0.0224123228162527,0.0077457018196582,0.0145821133628487,0.0009687216952443
1783204246695456300,5.188456298828125,-0.0208516493707895,0.0165206344291567,-0.0112169750630855,0.0043628122657537,0.0144020281732082,0.0030828700400888
1783204246705393400,5.198393310546875,-0.015438392150402,0.0110045013561844,-0.0031131635844707,0.0089602274820208,-0.0012235362082719,0.0017747250385582
1783204246715330300,5.208330322265625,-0.0153971833571791,-0.0064779638424515,-0.0522071570992469,0.0206913501024246,-0.0161162614822387,0.0009967803489416
1783204246725268500,5.2182685546875,-0.0150204589992761,-0.0114990068748593,-0.0604570990502834,0.037638109177351,-0.0063642999157309,0.0016497874166816
1783204246735205000,5.228205078125,0.0073024319678544,0.0168655023440718,-0.0121679921776056,0.041784644126892,-0.008212836459279,0.0054335161112248
1783204246745143300,5.238143310546875,0.0114879009589552,0.0238327110081911,-0.0077057520717382,0.0353107675909996,-0.0206442065536975,0.0078008002601563
1783204246755080200,5.248080078125,0.0206441440999507,0.0101674660101532,0.0073223057121038,0.0129967993125319,-0.0090738916769623,0.0054325815290212
1783204246765018000,5.25801806640625,-0.0101858784496784,0.0116404611721634,0.0708668493837118,-0.012869419530034,0.0094883404672145,0.0028916597366333
1783204246774955300,5.267955322265625,-0.0366892699718475,0.0045347208201885,0.0814145468831062,-0.0386723950505256,0.0178966838866472,-0.0043277731165289
1783204246784892400,5.277892333984375,-0.034420448257029,-0.0154988901659846,0.0460217464625835,-0.0499495491385459,0.0225162021815776,-0.007492939941585
1783204246794830300,5.287830322265625,-0.0238534615352749,-0.0088737729378044,0.0098111999183893,-0.0446010008454322,0.0224967077374458,-0.0079759061336517
1783204246804767500,5.297767578125,0.0007864742025732,0.0123763742312788,-0.0369277549028396,-0.028218301013112,0.0112014412879943,-0.0035590538755059
1783204246814705400,5.307705322265625,0.0245338450148701,0.0192938985347747,-0.0552221210062503,-0.0098916292190551,0.00049684708938,0.0030985372141003
1783204246824642300,5.317642333984375,0.0201338564902544,0.0274599615946412,-0.0719715957552194,0.0050668148323893,-0.0031373021192848,0.009401973336935
1783204246834579200,5.3275791015625,0.0257221780166029,0.0286471255525946,-0.0689449414104223,0.0135290436446666,-0.0024044457823038,0.0094174295663833
1783204246844517000,5.33751708984375,0.0312064546465873,0.0177022454291582,-0.0633399610102176,0.0120893390849232,0.0064423093572258,0.0137338805943727
1783204246854454300,5.347454345703125,0.0204205644771456,0.0168732472591102,-0.0392874697715044,0.0010168831795454,0.0190337486565113,0.0132050449028611
1783204246864392200,5.35739208984375,0.035052608680725,0.0135449796192348,-0.0306827230334281,-0.0067475633695721,0.0223176926374435,0.0172325428575277
1783204246874329300,5.367329345703125,0.0518491374418139,0.0134773212105035,-0.0697094960421323,-0.0107095893472433,0.0291632786393165,0.016315946355462
1783204246884267300,5.377267333984375,0.0625201690599322,-0.0516710043959319,-0.1617623413175344,-0.0089806653559207,0.052945040166378,0.0143436081707477
1783204246894204400,5.387204345703125,0.0718035457119345,-0.0660369450092315,-0.2741074485152959,0.0073071061633527,0.0586560145020484,0.0175119303166866
1783204246904141300,5.397141357421875,0.0415513230502605,-0.0054603112325072,-0.4178197538793087,0.0345240794122219,0.074512742459774,0.0186536274850368
1783204246914079200,5.407079345703125,-0.0498424737945199,0.0073847034238278,-0.4744418048113584,0.0744821801781654,0.1161116138100624,0.0096629885956645
1783204246924016000,5.41701611328125,-0.0993926866441965,-0.1255364510737359,-0.49098143620193,0.1161324232816696,0.1472205221652984,-0.0060981316491961
1783204246933954300,5.426954345703125,-0.1439271171584725,-0.0961518050268292,-0.4907552262306213,0.1452479362487793,0.147476777434349,-0.0195830576121807
1783204246943891200,5.43689111328125,-0.0977589479625225,0.0250049696579575,-0.3707096276581287,0.163874089717865,0.1304021775722503,-0.0117845237255096
1783204246953828400,5.446828369140625,-0.0253188579127192,0.0260889655023813,-0.271438521566987,0.1807422637939453,0.0976853668689727,0.0031471922993659
1783204246963766300,5.456766357421875,0.0323760829478502,0.0028362463392317,-0.2056488293170928,0.2051341533660888,0.0671309232711792,0.0123979486525058
1783204246973703400,5.466703369140625,0.053818391688168,0.0101589904427528,-0.1379945122390985,0.2243238687515258,0.055215660482645,0.0151166031137108
1783204246983641300,5.476641357421875,0.0381067355543375,0.0539485939390957,-0.0299216755330562,0.2361123412847519,0.0588079988956451,0.0192168056964874
1783204246993578200,5.486578125,0.0268684254422783,0.129875210930407,0.0724731155365705,0.2318458259105682,0.0773931592702865,0.0297893341630697
1783204247003516200,5.49651611328125,0.0360816594675183,0.1848429187841713,0.1515115809381008,0.220931127667427,0.0889755114912986,0.0400619432330131
1783204247013453300,5.506453369140625,0.0607882307007908,0.207149881529808,0.2355418632775545,0.1989132910966873,0.0837800130248069,0.0459385104477405
1783204247023390200,5.51639013671875,0.090892861585319,0.1980254948318004,0.2709609671831131,0.1727450639009475,0.0719406679272651,0.0543887205421924
1783204247033329200,5.5263291015625,0.0998147114485502,0.1600061452999711,0.2889268319845199,0.1437158286571502,0.0538601838052272,0.0617237016558647
1783204247043266000,5.53626611328125,0.0771095431655645,0.1353727854333818,0.314665668874979,0.1164748966693878,0.0392546094954013,0.0634659379720687
1783204247053204000,5.546203857421875,0.0282987505063414,0.1048947911918163,0.3006733838796615,0.0919869467616081,0.0272318795323371,0.0655070170760154
1783204247063141000,5.55614111328125,-0.0068254621058702,0.0709694329753518,0.3044172465831041,0.0699945613741874,0.0260656811296939,0.0613966919481754
1783204247073078300,5.566078369140625,-0.0075339026361703,0.0437298361331224,0.2922685436278581,0.052040472626686,0.0015595955774188,0.0606780387461185
1783204247083016200,5.57601611328125,-0.0327560221761465,0.0020560557469725,0.2357780101209878,0.0377315767109394,-0.0164604168385267,0.0620767287909984
1783204247092953000,5.585953125,-0.0685915979281067,-0.0460389898583292,0.1887450407892465,0.0254202261567115,-0.0223090965300798,0.0598913133144378
1783204247102891300,5.595891357421875,-0.1044242510706186,-0.06052870298177,0.1501940685987472,0.0156962256878614,-0.0144471786916255,0.0480905808508396
1783204247112828200,5.605828125,-0.1379366445720195,-0.0507063971474766,0.0635363603651523,0.0115973437204957,-0.0103822760283946,0.0423963814973831
1783204247122766300,5.615766357421875,-0.1514814780607819,-0.0467190810769796,0.0308849676072597,0.0076284348033368,-0.0068360101431608,0.033896904438734
1783204247132703000,5.625702880859375,-0.1458233061686158,-0.0645899610713124,0.0035819501399993,-0.0037523470818996,-0.0068445224314928,0.0253419317305088
1783204247142640000,5.63564013671875,-0.1420195299714803,-0.0931400559902191,-0.0306055661439895,-0.0108086597174406,-0.0049848370254039,0.0154882352799177
1783204247152578000,5.645578125,-0.133836515776813,-0.0798163179062306,-0.0454530066639184,-0.0126568702980875,-0.0056030396372079,0.0100177563726902
1783204247162515200,5.65551513671875,-0.1066860585227608,-0.0639170302458107,-0.0528331800431013,-0.0105503099039196,-0.0058895964175462,0.0040568024851381
1783204247172453000,5.665453125,-0.0776364896491169,-0.0440631597407162,-0.0683516516923904,-0.0072675524279475,0.0009255618788301,0.001029371516779
1783204247182390300,5.675390380859375,-0.0695312168657779,-0.0180951902695,-0.0629635289132595,-0.0077567743137478,0.0029596842359751,-0.0045709898695349
1783204247192328200,5.685328125,-0.0830348415613174,-0.0024498773701488,-0.0638572628825902,-0.0043072383850812,0.0043350318446755,-0.0088190175592899
1783204247202265300,5.695265380859375,-0.0690998397111892,-0.0152590900607407,-0.0480459457665681,0.0014023119583725,0.0009450940415263,-0.0154747907072305
1783204247212202000,5.705201904296875,-0.0221545486629009,-0.0170573716543614,-0.0435614938288927,-0.0006886143237352,-0.0036247335374355,-0.0177526175975799
1783204247222140200,5.71514013671875,0.0139776719480752,-0.0116137192957103,-0.0235538940668106,-0.0057435594499111,-0.0212141126394271,-0.0156071744859218
1783204247232077000,5.7250771484375,0.03495937743932,0.0087296882919967,-0.039161213043332,-0.0078727751970291,-0.027311872690916,-0.0088317468762397
1783204247242015200,5.73501513671875,0.0337260362520813,0.0135310972243547,-0.0500415034979581,-0.0006414949893951,-0.0148906204849481,-0.0047967913560569
1783204247251952000,5.7449521484375,0.0573556259036064,0.0302981076300144,-0.0171259068459272,0.0046743173152208,-0.0045915525406599,0.000477825757116
1783204247261889300,5.75488916015625,0.0844686737567186,0.0569571281053125,-0.0251256734281778,0.0050024185329675,-0.0188615694642066,0.0036427262239158
1783204247271827200,5.7648271484375,0.0995323873758316,0.0621387685269117,-0.0114987146139144,0.0003181723877787,-0.0354622267186641,0.0117786787450313
1783204247281764000,5.77476416015625,0.0924856837347149,0.0620890841662883,0.0418108507692813,-0.0158568024635314,-0.0453420244157314,0.0147848548367619
1783204247291702000,5.784701904296875,0.0720204033330082,0.0516343256473541,0.0621224019140005,-0.0328661650419235,-0.0444081984460353,0.0226852931082248
1783204247301639200,5.79463916015625,0.0523620554000139,0.0545721326649188,0.09931143810153,-0.0417126528918743,-0.0524679869413375,0.022271703928709
1783204247311577000,5.8045771484375,0.0231032276898622,0.0043655017331242,0.0352232890725135,-0.0461175441741943,-0.054466001689434,0.0170966461300849
1783204247321514200,5.81451416015625,-0.034752456690371,-0.0232736158207058,0.0227145206332206,-0.0438903421163558,-0.0571190416812896,0.0135421240702271
1783204247331451100,5.824451171875,-0.0887476662501692,0.0241638426586985,0.050694414448738,-0.040040161460638,-0.0673681572079658,0.0072642685845494
1783204247341389000,5.83438916015625,-0.0943026700288057,-0.0010777122341096,0.0188169286727905,-0.0336610898375511,-0.0880265682935714,0.0082653500139713
1783204247351326200,5.844326171875,-0.0571352611511945,-0.0638239451348781,-0.0133662620514631,-0.0262311287224292,-0.1156567856669426,0.0110991355031728
1783204247361264000,5.85426416015625,-0.0708703565150499,-0.0396618560418486,-0.019673837763071,-0.0049476800486445,-0.1627446562051773,0.0150139816105365
1783204247371201000,5.864200927734375,-0.096195059646666,-0.0819020381391048,-0.0851040490508079,0.0208643153309822,-0.1755174249410629,0.007780248299241
1783204247381139000,5.874138916015625,-0.0939127939283847,-0.0884413767799735,-0.0502034160614013,0.0333569347858428,-0.1728140413761139,-0.0010587831493467
1783204247391076000,5.884076171875,-0.1311921387478709,-0.0208127786651253,-0.0117810386866331,0.0325369834899902,-0.1610383242368698,-0.0069231390953063
1783204247401013200,5.89401318359375,-0.0816939483463764,-0.0235793207690119,0.0204717101424932,0.0112788323312997,-0.1335062980651855,-0.0108193438500165
1783204247410951200,5.903951171875,-0.014690496392548,-0.0180472594745457,0.0533960746228694,-0.0255889147520065,-0.0912313908338546,-0.0172388982027769
1783204247420888000,5.91388818359375,0.0114861473932862,0.0003755553141236,0.0838403127253055,-0.0673161223530769,-0.0500024631619453,-0.0209955535829067
1783204247430826200,5.923826171875,0.0043292613759636,0.0256593419134616,0.0910971519857645,-0.1037473678588867,-0.007329567335546,-0.0276976656168699
1783204247440763100,5.93376318359375,-0.0077682959139347,0.0140393390074372,0.064613049685955,-0.1201726794242858,0.0158676318824291,-0.0293275192379951
1783204247450700000,5.943699951171875,-0.01534896030128,0.0246501648709177,0.0069096332579851,-0.1214395388960838,0.0119507275521755,-0.0330195426940918
1783204247460638000,5.953637939453125,0.0038537528187036,0.0146548405572772,-0.0513128386080265,-0.1069386228919029,-0.0089305862784385,-0.0289502348750829
1783204247470575000,5.9635751953125,0.0245876210287213,0.0102969376087188,-0.0851595786303281,-0.0787529125809669,-0.0336299464106559,-0.0243122894316911
1783204247480513000,5.973512939453125,0.0442290178269147,0.0071785133272409,-0.1094809499382972,-0.0515681691467762,-0.0608322694897651,-0.018303932622075
1783204247490450200,5.9834501953125,0.0457455598697066,0.0161794197760522,-0.1240466509073972,-0.0339769721031188,-0.0745565146207809,-0.012022353708744
1783204247500388000,5.99338818359375,0.0569154809206724,0.0202250419050455,-0.0949251858413219,-0.022962138056755,-0.0764865055680275,-0.014189900830388
1783204247510325200,6.0033251953125,0.0534451744616031,-0.0034764439389109,-0.1120668747782707,-0.0246708169579505,-0.0585727207362651,-0.0109008066356182
1783204247520262100,6.01326220703125,0.0476107692196965,0.0182914434939622,-0.0864724147945642,-0.0328467190265655,-0.0396371111273765,-0.0085977045819163
1783204247530200300,6.023200439453125,0.0417044677853584,0.0193684250757098,-0.0877566093862056,-0.0418310612440109,-0.0212351344525814,-0.0167575944215059
1783204247540137000,6.033136962890625,0.0409977808207273,0.0021929799996316,-0.102726214981079,-0.0477651208639144,-0.0098011195659637,-0.0101321823894977
1783204247550075100,6.0430751953125,0.0357908598273992,-0.0046688685938715,-0.1101817916840314,-0.0407347381114959,-0.00329295033589,-0.0090352613478899
1783204247560012000,6.053011962890625,0.0377530998110771,0.0119315530732274,-0.1213216098576784,-0.0264841616153717,-0.0062115085311234,-0.0072703850455582
1783204247569950200,6.0629501953125,0.0314677359312772,0.006386632297188,-0.1466243934184312,-0.0075388262048363,-0.0111060757189989,-0.001975885592401
1783204247579887000,6.07288720703125,0.0432239324375987,0.012644669778645,-0.1284364102989435,0.0126460706815123,-0.0142941456288099,0.005293745547533
1783204247589824300,6.08282421875,0.0485708464235067,0.0272562557160854,-0.1057902787268161,0.0307369083166122,-0.014371489174664,0.0114461751654744
1783204247599762200,6.09276220703125,0.0399111546277999,0.0433233011588454,-0.0569406153619289,0.0361180901527404,-0.0135027645155787,0.0113678788766264
1783204247609699300,6.10269921875,0.0361842430591583,0.0488544856704771,-0.0082920275270938,0.031205590814352,-0.0070325341075658,0.0162039939314126
1783204247619637200,6.11263720703125,0.0314192206144332,0.0328168124526739,0.0392342782795429,0.0223548412322998,-0.002344305627048,0.0154399331659078
1783204247629574100,6.12257421875,0.0464753354489803,0.0311404036730527,0.0700379973441362,0.0098371608182787,-0.0085977856069803,0.0138670653104782
1783204247639511000,6.132510986328125,0.0335030411511659,0.0477669826947152,0.0627910949558019,-0.0044190073385834,-0.0189098119735717,0.0185965728014707
1783204247649449200,6.14244921875,0.0161842420816421,0.0506917841002345,0.0678875413119792,-0.0088462010025978,-0.0190395507961511,0.0173933655023574
1783204247659386000,6.15238623046875,-0.0052937224939465,0.0235142927087843,0.0671808543473482,-0.0091338213533163,-0.0142115056514739,0.0151531156152486
1783204247669324000,6.162323974609375,-0.0210837045609951,0.0011035773277282,0.0314993001133203,-0.0047219460830092,-0.0176530852913856,0.0171115510165691
1783204247679261200,6.17226123046875,-0.0345049116700887,-0.0147777362845838,-0.0007762450695037,0.0022605964913964,-0.0245219096541404,0.0141847347840666
1783204247689198300,6.1821982421875,-0.0402656671538949,-0.0246808522701263,-0.0187888716220855,0.0098854377865791,-0.0241056159138679,0.0153695680201053
1783204247699136300,6.19213623046875,-0.0439317884460091,-0.0219090494692325,-0.0245054957032203,0.016352392733097,-0.0246430411934852,0.0116344839334487
1783204247709073200,6.2020732421875,-0.0776183694705367,-0.0221970726303756,-0.0150455934405326,0.0125017911195755,-0.0148687120527029,0.0020370830316096
1783204247719011000,6.212010986328125,-0.1006064463481307,-0.0273468566089868,-0.0012894552886486,0.0086476653814315,-0.0023987279273569,-0.0037731355987489
1783204247728948200,6.2219482421875,-0.0934589126810431,-0.0363809346750378,-0.0157768303245306,0.0045185266062617,-0.0028178109787404,-0.0084457919001579
1783204247738886100,6.23188623046875,-0.0762836137354373,-0.046110301528871,-0.0044523032337427,0.0043808417394757,-0.0039858729578554,-0.0109997624531388
1783204247748823000,6.241822998046875,-0.0629866175279021,-0.0400042397387325,-0.0158820442646741,0.0072339847683906,-0.0132450154051184,-0.0139596490189433
1783204247758760200,6.25176025390625,-0.0465326185941696,-0.0160474639594554,-0.0325818346530199,0.0180485490709543,-0.0229631587862968,-0.0118661383166909
1783204247768698000,6.261697998046875,-0.049351767668128,-0.0111940325789153,-0.0173141228944063,0.0280169546604156,-0.0275254398584365,-0.0157817304134368
1783204247778635300,6.27163525390625,-0.0462044095531105,0.003830664204061,-0.0151449621617794,0.04031303524971,-0.0495223514735698,-0.0137284332886338
1783204247788573200,6.2815732421875,-0.0381698639184236,0.0081606562323868,-0.0293546893000602,0.0512885302305221,-0.0530805774033069,-0.0216053184121847
1783204247798510000,6.291510009765625,0.0296326294586062,0.020805033750087,0.0056201779693365,0.047570489346981,-0.0588854700326919,-0.0149809708818793
1783204247808447200,6.301447265625,0.0326361951887607,0.0360007031857967,0.0188368024170398,0.0437866374850273,-0.0608962699770927,-0.0074748564511537
1783204247818385200,6.31138525390625,0.0695011139884591,0.0257950971223413,0.0135346043556928,0.0321334414184093,-0.0367962643504142,-0.0078578181564807
1783204247828322000,6.321322021484375,0.0480316249802708,0.0724301531776785,0.0698895287841558,0.0105818230658769,-0.0078166332095861,-0.0079827765002846
1783204247838259200,6.33125927734375,0.0388917484521865,0.090958035776019,0.0649298605501651,-0.009504803456366,0.0134558975696563,-0.0005789229180663
1783204247848197000,6.341197021484375,0.059198915682733,0.0453510075941681,0.0682189652234315,-0.0133581552654504,0.0313649103045463,0.0066824173554778
1783204247858134000,6.351134033203125,0.0613259908393025,0.0261209680758416,0.0664712447732687,-0.0126106049865484,0.0220619589090347,0.0074496744200587
1783204247868072000,6.361072021484375,0.0529608980759978,0.0211081083498895,0.0212432790368795,-0.0047401096671819,-0.003989162389189,0.0090315099805593
1783204247878009000,6.371009033203125,0.04446165753901,0.0135536013171076,0.0161485862463712,0.0057519455440342,-0.0221037175506353,0.01323664188385
1783204247887946200,6.3809462890625,0.0265498610123991,0.0067730012662708,0.0248784206688404,0.0108868805691599,-0.0283970274031162,0.0110076470300555
1783204247897884200,6.39088427734375,-0.0151277187660336,0.0101838326230645,0.0325192908108234,0.0135178174823522,-0.0237799063324928,0.0079897530376911
1783204247907821000,6.400821044921875,-0.0225227974534034,0.0150816876672208,0.0533417140871286,0.0068605146370828,-0.0209746100008487,0.0056119998916983
1783204247917759200,6.41075927734375,-0.00615443097651,0.0051779871597886,0.0501730209231376,-0.009255071170628,-0.0149702467024326,0.0036575060803443
1783204247927696100,6.420696044921875,-0.0072381345599889,0.007122399225831,0.0451619147628545,-0.0194493420422077,-0.007150653284043,0.0051304483786225
1783204247937633000,6.430633056640625,-0.0035118075132369,6.25438421964e-05,0.0541986231774091,-0.0325648784637451,0.0030873364303261,0.0056351171806454
1783204247947571000,6.440571044921875,-0.0117538584187626,-0.0076797408476471,0.026384149056673,-0.0287516675889492,0.0056154741905629,0.0081617552787065
1783204247957508000,6.450508056640625,-0.0102522216841578,0.0004947977796196,0.0043891748696565,-0.0200271531939506,0.0066186869516968,0.0044442485086619
1783204247967446000,6.460446044921875,-0.0130883218929171,-0.0054220250487327,-0.007886953857541,-0.0085263727232813,0.0060773054137825,0.0068876920267939
1783204247977383200,6.470383056640625,-0.0093120182245969,-0.0002899228572845,-0.0100900168597698,-0.000375235453248,0.0015496653504669,0.0071433559060096
1783204247987320000,6.480320068359375,-0.0126817869186401,-0.0153951375305652,0.0035328503012657,0.0071724001318216,-0.0129702314734458,0.0092212399467825
1783204247997258200,6.49025830078125,-0.0223509480178356,-0.0071031100034713,-0.0212368492960929,0.0131618492305278,-0.0196891203522682,0.0069311875849962
1783204248007195100,6.500195068359375,-0.0382739088147878,0.0063292030215263,0.0044295068800449,0.0133120100945234,-0.0163729712367057,0.0043434458784759
1783204248017133300,6.51013330078125,-0.0454547602295875,0.0125695587158203,0.0202659584373235,0.0085598658770322,-0.0132109997794032,-0.0006233493331819
1783204248027069700,6.520069580078125,-0.0203203189730644,0.0103644498869776,0.0131856447875499,0.0041191950440406,-0.0158987008035182,0.0004055092576891
1783204248037006600,6.530006591796875,0.0055757543057203,0.0023132453784346,0.0125064303517341,0.0046057542786002,-0.0221920162439346,0.0061198538169264
1783204248046944500,6.539944580078125,0.0254550515130162,0.004355710991472,0.021121113961935,0.0049611879512667,-0.0307977180927991,0.0058471402153372
1783204248056881700,6.549881591796875,0.0528650364860892,0.0161085464969277,0.0255786778926849,0.0133109968155622,-0.1057324111461639,-0.0009428553748875
1783204248066818800,6.55981884765625,0.145043261706829,0.0364841027885675,0.0359264689058065,0.0031360164284706,-0.1180281713604927,0.0241434574127197
1783204248076756700,6.5697568359375,0.0531608045622706,0.0097565471217036,0.0893663826704025,-0.0027671456336975,-0.0662752315402031,0.035765491425991
1783204248086694000,6.57969384765625,-0.0651686377421021,0.0540486933127045,0.0926923122227191,0.0022177742794156,-0.0120950415730476,0.0163197126239538
1783204248096631600,6.589631591796875,-0.1205497487023472,0.0898022898696362,0.0578238279372453,-0.0023748464882373,0.0219492111355066,-0.0038872882723808
1783204248106568400,6.599568359375,-0.0590510316446423,0.0253138894766569,0.0810445445269346,-0.017098844051361,0.0286868903785944,-0.003452492179349
1783204248116505600,6.609505615234375,0.004436813403666,-0.0150476392671465,0.0686000734955072,-0.0353566780686378,0.0018965550698339,0.0071112029254436
1783204248126443500,6.619443603515625,0.00895195274055,-0.0131274848595261,0.0432119497388601,-0.0399128086864948,-0.0183793976902961,0.0116301942616701
1783204248136380700,6.629380615234375,-0.0085965634316205,-0.0391471845179796,0.004716507127881,-0.0311741791665554,-0.027224289253354,0.0094099165871739
1783204248146317800,6.63931787109375,-0.0321016499206423,-0.0302015153877437,-0.0369341846436262,-0.0113270254805684,-0.0202879346907138,0.003872136818245
1783204248156255700,6.649255859375,-0.0389618910789489,-0.0202830557025969,-0.0570183567732572,0.0019626813009381,-0.0084472540766,4.59735747426e-05
1783204248166192600,6.659192626953125,-0.0253194424346089,7.20423229038e-05,-0.0399649306416511,0.0095408307388424,0.0059590958990156,0.0025623496621847
1783204248176130600,6.669130615234375,0.001982405988872,0.0170445121727883,-0.0200800804764032,0.0090984795242547,0.0063055730424821,0.0062204678542912
1783204248186067500,6.6790673828125,0.0287613995820283,0.0211037244357168,-0.01292436350286,0.0044315624982118,0.0005041579715907,0.0109885409474372
1783204248196004600,6.689004638671875,0.0195247846812009,0.0096538173995912,-0.0102601127296686,0.0030288761481642,-0.0095791025087237,0.0128575479611754
1783204248205942500,6.698942626953125,-0.0073468556314706,0.0002566051095724,-0.0123357499599456,0.0050302343443036,-0.0234342142939567,0.0056164623238146
1783204248215879700,6.708879638671875,-0.0367617506861686,-0.000104337157309,-0.0610790303409099,0.0167385563254356,-0.0179121494293212,0.0052492129616439
1783204248225816800,6.71881689453125,-0.0227881703913211,0.0155754625335335,-0.0365992536008357,0.0340292155742645,0.0032047722488641,0.003302167635411
1783204248235754800,6.728754638671875,0.0190048524603247,0.0368370078794658,-0.0082569562137126,0.0397371686995029,0.0008683810010552,0.0071741375140845
1783204248245691600,6.738691650390625,0.050457683083415,0.0419319929309189,-0.0011111761122941,0.0384567007422447,-0.0082412660121917,0.0102936746552586
1783204248255628500,6.748628662109375,0.0614104542523622,0.0302481310084462,0.0600970335662364,0.01523367036134,-0.0078271459788084,0.0139123778790235
1783204248265566500,6.75856640625,0.042068917183578,0.0173652685597538,0.1245265433788299,-0.0103101264685392,-0.0022722142748534,0.0165008790791034
1783204248275503600,6.768503662109375,0.0058984103888273,0.0013487842604517,0.1243628772497177,-0.0309890396893024,-0.0004333010874688,0.0193083845078945
1783204248285440800,6.778440673828125,-0.008791501481831,-0.0114900929160416,0.1178904663652181,-0.03370251506567,0.006371647119522,0.0124684106558561
1783204248295378700,6.788378662109375,-0.0042450902238488,-0.0010034779541194,0.0898836845427751,-0.0298142973333597,0.0050680297426879,0.0114292446523904
1783204248305315800,6.79831591796875,0.0141767016515135,0.01647255750373,0.0515548306703567,-0.0176223460584878,-0.0155685395002365,0.0135757531970739
1783204248315253800,6.808253662109375,0.0058142392367124,0.0170958039686083,0.0002805705070495,-0.0009714635089039,-0.0243439208716154,0.0175582431256771
1783204248325190700,6.818190673828125,-0.0004676175117492,0.0070893737390637,0.0219148946881294,0.009499842301011,-0.0244980789721012,0.0159580390900373
1783204248335127600,6.82812744140625,-0.0140180039584636,-0.0049564533635973,0.0234708919584751,0.0125262578949332,-0.0291791185736656,0.0182291828095912
1783204248345065500,6.8380654296875,-0.0464364647433161,-0.0067028586395084,0.0062467854350805,0.0078477822244167,-0.0265262834727764,0.0136321689933538
1783204248355002600,6.848002685546875,-0.0524713609933853,-0.0255503285810351,0.0358785381108522,-0.005620889365673,-0.0210684016346931,0.0068107480183243
1783204248364939800,6.857939697265625,-0.0714648152768611,-0.0351074076078832,0.0270434897482395,-0.0172498859465122,-0.0085888560861349,-0.0039600129239261
1783204248374877700,6.867877685546875,-0.0815443107426166,-0.0321029650948941,0.0179734635859727,-0.0267419219017028,0.0021788363810628,-0.0133409984409809
1783204248384814800,6.87781494140625,-0.0709966132432222,-0.032374621643126,-0.0024210896670818,-0.0303686410188674,0.0042683128267526,-0.0143006248399615
1783204248394751500,6.88775146484375,-0.0502960627809166,-0.0311934490345418,-0.0224362882137298,-0.024964552372694,0.0073242904618382,-0.0148718729615211
1783204248404689700,6.897689697265625,-0.0305213949918746,-0.0293793853498995,-0.0210620772510766,-0.0190748423337936,0.0168305598199367,-0.0163918770849704
1783204248414626600,6.90762646484375,-0.0191556591078639,-0.0357300695508718,0.1259615446180105,-0.0353941619396209,0.0069920448586344,-0.0171511452645063
1783204248424563700,6.917563720703125,-0.0248942027598619,-0.0229126735538244,0.0535749383211135,-0.0474787279963493,-0.0677327662706375,-0.0186663456261158
1783204248434501600,6.927501708984375,-0.0679649904623627,-0.0250298118382692,-0.0843739812105894,-0.0333088412880897,-0.032412052154541,-0.0209968779236078
1783204248444438800,6.937438720703125,-0.0598316606283187,0.0125530459724366,0.0731534990161657,-0.0139876101166009,0.0100541785359382,-0.0346194803714752
1783204248454375700,6.947375732421875,-0.0940939957141876,0.0816547853797674,-0.0081663553208112,0.0034619532525539,0.0291682183742523,-0.0309523064643144
1783204248464313900,6.95731396484375,-0.0194023273453116,0.0345060807138681,-0.0155032740801572,0.0186912938952446,0.0202228743582963,-0.0225526131689548
1783204248474250500,6.96725048828125,0.0280500364422798,-0.0111442020878195,-0.0108510643601417,0.0220886897295713,-0.0132064539939165,-0.0184348337352275
1783204248484187600,6.977187744140625,0.0068044193178415,-0.0176696583338081,-0.0062672437012195,0.0187621489167213,-0.0413507893681526,-0.0216338634490966
1783204248494125600,6.98712548828125,-0.0350511473760008,-0.0246630243524909,0.0468839162498712,0.0096307033672928,-0.042548943310976,-0.025705037638545
1783204248504062700,6.997062744140625,-0.0910875073745846,-0.026010201177746,0.0721411071032285,-0.001409538090229,-0.0378259867429733,-0.0382779128849506
1783204248513999600,7.00699951171875,-0.1156485326573252,-0.038691257444024,0.0582557896137237,-0.0091217868030071,-0.041227638721466,-0.0497433543205261
1783204248523937800,7.016937744140625,-0.2030459533423185,-0.072305211623758,0.017433949881792,-0.0118184918537735,-0.0402538180351257,-0.0744862556457519
1783204248533874700,7.026874755859375,-0.3091112496182322,-0.1147267416372895,0.0542570753663778,-0.0103715965524315,-0.0335272066295146,-0.1061653569340705
1783204248543811600,7.0368115234375,-0.3690884561970829,-0.1502431684374809,0.0709188718318939,-0.0166377872228622,-0.0351870991289615,-0.1339475363492965
1783204248553749500,7.04674951171875,-0.3431929674401879,-0.1710071395248174,0.0793611214846372,-0.0236664004623889,-0.0550667978823185,-0.1478748023509979
1783204248563686700,7.056686767578125,-0.3461860117763281,-0.1419606393910944,0.1095832412689924,-0.0237711761146783,-0.1117781773209571,-0.1500411033630371
1783204248573623600,7.06662353515625,-0.4338692636653781,-0.1631160940140485,0.0716477706283331,-0.0196222383528947,-0.1721911877393722,-0.196727380156517
1783204248583561700,7.076561767578125,-0.5872171201199293,-0.318096373976022,0.0162988083720207,-0.0226191133260726,-0.1902159005403518,-0.2571412026882171
1783204248593498600,7.08649853515625,-0.8260884200811386,-0.3847900293283164,0.09834171628654,-0.0497782975435256,-0.1718544661998748,-0.3092158436775207
1783204248603435800,7.096435791015625,-0.9254922126412392,-0.3372662077397108,0.2297083348184823,-0.0844447612762451,-0.1253777742385864,-0.3787620067596435
1783204248613373700,7.106373779296875,-0.9470113860100507,-0.4079433797702193,0.2664566415011882,-0.1061993241310119,-0.1232573539018631,-0.4700522422790527
1783204248623310600,7.116310546875,-0.8222598017036914,-0.4147198881678283,0.1837877106428146,-0.1393952816724777,-0.121347576379776,-0.5078060030937195
1783204248633247500,7.12624755859375,-0.5872913543999195,-0.429565867383033,0.1690267793625593,-0.1497496515512466,-0.1277607381343841,-0.5361534953117371
1783204248643185700,7.136185546875,-0.341126390299201,-0.3818601133562624,0.1333206752091646,-0.1545703709125518,-0.1447169780731201,-0.5497785210609436
1783204248653122600,7.14612255859375,-0.2004571058928966,-0.2246943060487508,0.105258948329091,-0.1617747545242309,-0.1472895890474319,-0.5375045537948608
1783204248663059700,7.156059814453125,-0.0785883835464715,-0.1275470602437853,0.1749345421016216,-0.1683256775140762,-0.1250478774309158,-0.5033292174339294
1783204248672997600,7.16599755859375,-0.0289320799738168,-0.0020863047547638,0.1203033727258443,-0.1672446876764297,-0.1036062389612197,-0.4587526619434356
1783204248682934800,7.175934814453125,0.0895545987188816,0.2995135463200509,0.1002186160743236,-0.1345048546791076,-0.0796064436435699,-0.4663574397563934
1783204248692871700,7.18587158203125,0.2296855384647846,0.2149807212859392,0.1757183859556913,-0.1193306893110275,-0.0650690495967865,-0.4675169885158539
1783204248702809600,7.1958095703125,0.4037187478125095,0.1681732312731444,0.1130570548593997,-0.1282433420419693,-0.0679843872785568,-0.4390331208705902
1783204248712746500,7.20574658203125,0.5394020604997873,0.2464661390043795,0.1659317359566688,-0.1520842313766479,-0.0646101683378219,-0.4088440537452698
1783204248722683600,7.21568359375,0.62886138215065,0.4388422297723591,0.2468564534962177,-0.1962104588747024,-0.0459765158593654,-0.3732782900333404
1783204248732621600,7.22562158203125,0.6461807657420635,0.5417803339384496,0.2243833404034376,-0.2419055104255676,0.0066725802607834,-0.3153145909309387
1783204248742558700,7.235558837890625,0.7173164951950312,0.5688290843836963,0.2383539980888366,-0.2763281166553497,0.0395168736577034,-0.2717166841030121
1783204248752495600,7.24549560546875,0.8358493511170149,0.5827525419265032,0.1652256335139274,-0.3040518760681152,0.0493873506784439,-0.2216745615005493
1783204248762433500,7.25543359375,0.9584539865225552,0.608366875654459,0.0870762259066104,-0.3146350383758545,0.0426021665334701,-0.1624273806810379
1783204248772370700,7.26537060546875,1.1224077004045248,0.6177243404559791,-0.070444824579358,-0.3091675639152527,0.0013764328323304,-0.0817226842045784
1783204248782307600,7.2753076171875,1.218738076868653,0.612727116690576,-0.3044499798089266,-0.2748788595199585,-0.0495864525437355,0.0127236563712358
1783204248792244700,7.28524462890625,1.192212473514676,0.5874122043006121,-0.4898030400723218,-0.2137033939361572,-0.0872584655880928,0.1012391373515129
1783204248802182700,7.2951826171875,1.0538058733433484,0.5668338189132511,-0.5961152968466281,-0.13473442196846,-0.0976701155304908,0.1630441397428512
1783204248812119800,7.305119873046875,0.8452934712886809,0.5348420591078699,-0.6083160222500562,-0.059874303638935,-0.0774588510394096,0.2138119786977768
1783204248822056400,7.315056396484375,0.6528279486715793,0.4651493680700659,-0.5265718050211667,0.0058637452311813,-0.0331510193645954,0.2524517774581909
1783204248831994600,7.32499462890625,0.4829623803973197,0.3804945240914821,-0.4218412644803523,0.0592912845313549,0.0225335489958524,0.2781701982021332
1783204248841931500,7.334931640625,0.3404091819405555,0.2862400771185756,-0.359341845947504,0.091956540942192,0.0609097220003604,0.2888868451118469
1783204248851868700,7.34486865234375,0.2077840877801179,0.2045180717214942,-0.3698077103823423,0.1155098006129264,0.0692150518298149,0.2971152067184448
1783204248861806600,7.354806640625,0.1179383971601724,0.1017487482510507,-0.3706774789541959,0.1347180157899856,0.0699671283364296,0.3055390119552612
1783204248871743700,7.36474365234375,0.0535842906713485,-0.0210951027378439,-0.3142424750268459,0.1514229476451873,0.0729053989052772,0.307004302740097
1783204248881680600,7.3746806640625,-0.0425327353030443,-0.0920318024873733,-0.2748994756758213,0.1662263721227646,0.0657104402780532,0.3009724617004394
1783204248891618800,7.384618896484375,-0.1498047770202159,-0.143228613500297,-0.2553635850787162,0.1915690004825592,0.0582320131361484,0.2931006848812103
1783204248901555500,7.394555419921875,-0.2230652435421943,-0.2079864784844219,-0.2199696156144142,0.2230799496173858,0.0468527376651763,0.2753914594650268
1783204248911492600,7.40449267578125,-0.2849327939122915,-0.2320321015909314,-0.1774596766650676,0.2488825172185897,0.0384829565882682,0.2537519335746765
1783204248921429800,7.4144296875,-0.3345890974849462,-0.2378289513014256,-0.0941559550344943,0.2739632129669189,0.0345194935798645,0.2321574240922927
1783204248931367700,7.42436767578125,-0.3755237499415874,-0.2164158686555922,-0.008209609940648,0.2839127779006958,0.0313860177993774,0.2097746282815933
1783204248941304600,7.4343046875,-0.4202390899807214,-0.2218389166176319,0.0723252314984798,0.2793793082237243,0.0321643576025962,0.1842986047267913
1783204248951241700,7.44424169921875,-0.4540326385110616,-0.2154505307547748,0.1856102498948574,0.2561991810798645,0.0412148423492908,0.1531409621238708
1783204248961179600,7.4541796875,-0.4611503615617752,-0.1938971628554165,0.3151613434374332,0.2256901562213897,0.0437006615102291,0.1142588481307029
1783204248971116500,7.464116455078125,-0.4257032006055116,-0.1913181061476468,0.3644797933578491,0.1825908869504928,0.0397876799106597,0.0885668024420738
1783204248981053700,7.4740537109375,-0.3615197745084762,-0.1826411709561944,0.4450964678615331,0.1357769519090652,0.0368278548121452,0.0670883581042289
1783204248990990600,7.483990478515625,-0.3269868057876825,-0.1496313201494515,0.4524082521796226,0.0871359184384346,0.0364715233445167,0.0473482124507427
1783204249000928800,7.4939287109375,-0.2955827827423811,-0.1207271510958671,0.4744523262053728,0.0437315627932548,0.0396866649389267,0.0273941215127706
1783204249010865700,7.50386572265625,-0.267113644105196,-0.0890901960775256,0.4767623567134141,0.0050944238901138,0.0531856939196586,0.0045615108683705
1783204249020802800,7.513802734375,-0.2350561255872249,-0.0364506389103829,0.4740063360035419,-0.0287094861268997,0.0542768724262714,-0.0062724063172936
1783204249030741200,7.5237412109375,-0.1860048021703958,-0.0316737798973917,0.4384761729389428,-0.0572186261415481,0.0364565923810005,-0.0111457239836454
1783204249040678100,7.53367822265625,-0.1113859067767858,-0.0265454770982265,0.3274187674641609,-0.0676868706941604,0.0096214963123202,-0.0168643742799758
1783204249050615300,7.543615234375,-0.0609194558650255,-0.0364652519576251,0.2222977663010358,-0.0672516971826553,-0.0081601627171039,-0.0162052419036626
1783204249060553200,7.55355322265625,-0.0405909535855054,-0.0218539582811296,0.1534744054436683,-0.0626344308257103,-0.0220161825418472,-0.0198188871145248
1783204249070490400,7.563490478515625,-0.034306758749485,0.0040431379109621,0.0777238756716251,-0.0573935955762863,-0.026743559166789,-0.0223182626068592
1783204249080427300,7.57342724609375,-0.0154687872886657,0.0211082544803619,0.0092868837833404,-0.0501985475420951,-0.0271053630858659,-0.0254419278353452
1783204249090364200,7.5833642578125,-0.0008837970972061,0.0120823597207665,-0.0546399372041225,-0.0456725023686885,-0.0204386711120605,-0.0313733220100402
1783204249100302300,7.59330224609375,0.0179606041043996,-0.0023617606952786,-0.1343453420817852,-0.039441455155611,-0.0186323300004005,-0.0311681237071752
1783204249110239200,7.6032392578125,0.0355436070680618,-0.004059066132456,-0.1749327885359525,-0.0286191701889038,-0.0092715844511985,-0.0325404517352581
1783204249120176400,7.61317626953125,0.0489753355711698,-4.82230558991e-05,-0.2273071188956499,-0.0199555344879627,-0.0011235433630645,-0.035000767558813
1783204249130114300,7.6231142578125,0.0724514882266521,0.0032611937530338,-0.2570154439389706,-0.0051315808668732,0.0158160254359245,-0.0371507368981838
1783204249140051500,7.633051513671875,0.0927490108460187,0.0170104637727141,-0.2591355048328638,0.0089973527938127,0.0409954860806465,-0.0363860502839088
1783204249149988000,7.642988037109375,0.1096218197137117,0.0408002124220132,-0.2214443643420934,0.0213698670268058,0.0542327277362346,-0.0300117768347263
1783204249159925200,7.65292529296875,0.1212771861940622,0.0567636513598263,-0.2010831288367509,0.0347538255155086,0.0523595623672008,-0.0192704945802688
1783204249169863200,7.66286328125,0.1398170514911413,0.0534315843276679,-0.1587187358379364,0.0500595420598983,0.0439341217279434,-0.0077824154868721
1783204249179800300,7.67280029296875,0.1580184786140918,0.0694447076261043,-0.1164180557250976,0.0683155730366706,0.0324494279921054,0.0002559355925768
1783204249189737200,7.6827373046875,0.1369336050093174,0.0898044818267226,-0.0657400078892707,0.0809978172183036,0.0266751628369092,0.0102015109732747
1783204249199674400,7.69267431640625,0.1240554187357425,0.1036595503084361,-0.0040513212174177,0.0826100036501884,0.0259525626897811,0.0214625094085931
1783204249209612300,7.7026123046875,0.1000099417597055,0.0995078374564647,0.0595218640267848,0.0768447965383529,0.0277041234076023,0.0250548478215932
1783204249219549200,7.712549072265625,0.0672656100213527,0.0863531723290681,0.1241466041505336,0.0605104751884937,0.027819488197565,0.0273860450834035
1783204249229486300,7.722486328125,0.0404682039886713,0.0689238986223936,0.1690203496217727,0.0413154736161232,0.0228455029428005,0.0263791028410196
1783204249239424300,7.73242431640625,0.0179880766332149,0.0349164150804281,0.1834907735228538,0.0253016464412212,0.0109143014997243,0.027803897857666
1783204249249361200,7.742361083984375,-0.0022936638951301,0.0144116794511675,0.1597398955792188,0.0132353967055678,0.0032784859649837,0.0298963412642478
1783204249259298300,7.75229833984375,-0.0190074828088283,0.0029737551137804,0.1347545074045658,0.0037028910592198,0.0092547899112105,0.0313539393246173
1783204249269235500,7.7622353515625,-0.0380500369310379,0.0033481413841247,0.128010293841362,0.0067862984724342,0.0133826900273561,0.0301025211811065
1783204249279173400,7.77217333984375,-0.0654509618148207,-0.0078669339828193,0.101570030683279,0.0099664088338613,0.0194484554231166,0.0274769514799118
1783204249289110300,7.7821103515625,-0.0675648852288723,-0.0212786426112055,0.0958037222415208,0.0070353336632251,0.0142749976366758,0.0276575144380331
1783204249299047200,7.792047119140625,-0.0657230567544698,-0.0376182213850319,0.0829004015266895,-0.0005579376593232,0.0033584870398044,0.0293753817677497
1783204249308985300,7.8019853515625,-0.0801055101111531,-0.0442336940020322,0.0687847824126482,-0.00784407928586,-0.0019047185778617,0.0261598825454711
1783204249318922200,7.811922119140625,-0.0908265183508396,-0.0320271233797073,0.0590372953802347,-0.012369112111628,-0.0047766929492354,0.0213349517434835
1783204249328859400,7.821859375,-0.0867336960792541,-0.0251445242591202,0.031647184151411,-0.0124468775466084,0.0030407502781599,0.0235624182969331
1783204249338796300,7.83179638671875,-0.0729322574809193,-0.0124275198966264,0.0159305595815181,-0.0127229057252407,0.0062947291880846,0.0237576272338628
1783204249348734500,7.841734375,-0.0580658199995756,-0.0003346387818455,-0.0071218147039413,-0.0053038727492094,0.0072907512076199,0.0212246943265199
1783204249358671000,7.851671142578125,-0.0516620904371142,-0.0083358666688203,-0.0112269119352102,0.0041042286902666,0.0126684298738837,0.0124020846560597
1783204249368608300,7.861608154296875,-0.048726913768053,-0.0132329910606145,-0.0013677812218666,2.37338244915e-05,0.0226283855736255,0.0071207704022526
