time,seconds_elapsed,ax,ay,az,gx,gy,gz
1783205171254401300,0.0994013671875,-0.049577758443728,0.0461447883203625,-0.1156061548203229,0.0447349622845649,-0.0294915623962879,-0.0395125746726989
1783205171264338200,0.109338134765625,-0.0042243396967649,0.0209101015597581,-0.0179097506999969,0.0416909456253051,-0.0268348753452301,-0.0380479805171489
1783205171274275300,0.119275390625,0.02003945620507,0.0097945410445332,0.103311905914545,0.0340194441378116,-0.0169079415500164,-0.0341344662010669
1783205171284212200,0.129212158203125,0.0498836825877428,-0.015641805768013,0.2014548847585916,0.0235434118658304,0.0020274170674383,-0.0297822933644056
1783205171294149000,0.139149169921875,0.0661704351957887,-0.0212421099931001,0.2649608499854803,0.0057526971213519,0.0147842252627015,-0.0241939164698123
1783205171304086300,0.149086181640625,0.0698454704467207,-0.008325345274806,0.2925999675393104,-0.0107502685859799,0.0251942817121744,-0.022431531921029
1783205171314023200,0.159023193359375,0.0717979196887463,-0.01214110417068,0.2917173394858837,-0.0322683453559875,0.0321259573101997,-0.0204059332609176
1783205171323960300,0.168960205078125,0.0644340398572385,-0.0165843473151326,0.2603390354037285,-0.0497548952698707,0.0381959713995456,-0.0141407949849963
1783205171333897200,0.178897216796875,0.0535243771776556,-0.0085571082040667,0.2298223165869712,-0.0697025060653686,0.0456791892647743,-0.0128307864069938
1783205171343834000,0.188834228515625,0.029851240645349,-0.0173915720447897,0.1820610329806804,-0.0817377790808677,0.0463751554489135,-0.0160204451531171
1783205171353771300,0.198771240234375,0.0441830597933381,0.0037573067069053,0.039970775860548,-0.0785829946398735,0.0446662046015262,-0.0182473808526992
1783205171363708200,0.208708251953125,0.0498341443575918,0.011212298887968,0.0365992536008357,-0.0896753221750259,0.0658712983131408,-0.012209303677082
1783205171373645300,0.218645263671875,-0.0335133433494716,-0.0151990304365754,0.1039198086798191,-0.1014584824442863,0.0745944827795028,-0.0124889351427555
1783205171383582200,0.228582275390625,-0.022099822800979,-0.0263657366171479,0.0206102418303489,-0.1027533710002899,0.0656071603298187,-0.0162426214665174
1783205171393519000,0.23851904296875,0.0104385380364954,-0.0082326985552906,-0.0735842916488647,-0.1033320724964141,0.0604105293750762,-0.0128923654556274
1783205171403455200,0.248455322265625,0.0063294222172349,-0.0073474401533603,-0.1011433297038078,-0.0985991656780242,0.0484864749014377,-0.0089629404246807
1783205171413392400,0.258392333984375,-0.0154222447331994,-0.0003325929552316,-0.10772270809412,-0.0965996608138084,0.0387739278376102,-0.0208305194973945
1783205171423329000,0.2683291015625,-0.0185358467090874,0.0162368490517139,-0.0638964258491992,-0.0913252085447311,0.0621602311730384,-0.0142013076692819
1783205171433266200,0.27826611328125,-0.012235358325392,-0.0318006211474537,-0.0009346505016088,-0.0875440537929534,0.065904900431633,-0.011393005028367
1783205171443203300,0.288203369140625,-0.0285631735961884,0.0184381584882736,-0.1123135430157184,-0.0685088783502578,0.0106745986267924,-0.0402898415923118
1783205171453140200,0.29814013671875,0.0406531321015208,0.1071697503864765,-0.1809977876633405,-0.0678654611110687,0.0307772047817707,-0.0372080318629741
1783205171463077400,0.308077392578125,-0.0251159557517617,-0.0327884631410241,0.0041851767301559,-0.073899008333683,0.0491712763905525,-0.0213670656085014
1783205171473014000,0.318013916015625,-0.0320588336922228,-0.0973988824784755,-0.0353477922350168,-0.0777842923998832,0.0368973016738891,-0.0200988687574863
1783205171482951200,0.327951171875,-0.0077010758966207,-0.0349026788160204,-0.0436146853208541,-0.0935435593128204,0.0547045953571796,-0.0102597121149301
1783205171492888300,0.337888427734375,-0.0436600588325411,-0.0548699465677142,-0.0152665427148342,-0.1053884997963905,0.0441568791866302,-0.001910169608891
1783205171502825200,0.3478251953125,-0.0104600922811776,-0.0464136683896183,-0.1075987894535064,-0.1066088750958442,0.034874927252531,0.0023914943449199
1783205171512762400,0.357762451171875,0.0094290687330067,-0.0175964469671249,-0.1487485459655523,-0.1023084074258804,0.0302607361227273,0.0013874825090169
1783205171522699000,0.367698974609375,-0.0270966081749647,-0.0173588388189673,-0.1867874769806861,-0.0876803249120712,0.0366154052317142,0.0003382752183824
1783205171532636200,0.37763623046875,-0.0689455989975482,-0.0262429870203137,-0.252861246868968,-0.0589267052710056,0.0353908836841583,-0.0032263658940792
1783205171542573300,0.3875732421875,-0.0793983847551047,-0.029090193144977,-0.3397790673434734,-0.0321654640138149,0.0297435615211725,-0.0098096141591668
1783205171552510200,0.39751025390625,-0.0795683344945311,-0.0092816230863332,-0.3923731779336929,-0.0062941843643784,0.0223207976669073,-0.0151260830461978
1783205171562447400,0.407447265625,-0.0758162884846329,0.006066752693057,-0.4020739032149314,0.0157878808677196,0.0097542582079768,-0.0169358178973197
1783205171572384000,0.417384033203125,-0.0399245255660265,0.0158168700739741,-0.3826894037872552,0.0273758266121149,-0.0043048355728387,-0.0164394043385982
1783205171582321200,0.427321044921875,-0.031715792408213,0.0093672555431723,-0.3346896352499723,0.0342230796813964,-0.0181491505354642,-0.0178697425872087
1783205171592258300,0.43725830078125,-0.0214976191241294,0.0155193484321236,-0.2656254513740539,0.0417928509414196,-0.0260496828705072,-0.0186529792845249
1783205171602195200,0.4471953125,-0.0146763948019593,0.0051078445330262,-0.1926490624904632,0.0505449287593364,-0.0289526991546154,-0.0195370689034461
1783205171612132400,0.45713232421875,-0.0201572373658418,-0.016415712749958,-0.1019891328781843,0.0567977651953697,-0.0255856625735759,-0.0223107524216175
1783205171622069200,0.4670693359375,-0.0125450818616896,-0.0294224938392639,-0.0104185181617736,0.0534801334142684,-0.0179550759494304,-0.0247658416628837
1783205171632006100,0.477006103515625,0.0156009623009711,-0.0255570505827665,0.0909597893416881,0.04966302216053,-0.0083314757794141,-0.0224960297346115
1783205171641943300,0.486943359375,0.0554885899227112,-0.0245244926646351,0.125223877993226,0.0387491770088672,0.0015475251711905,-0.0176704879850149
1783205171651879400,0.49687939453125,0.0854459943562746,-0.0139206810638308,0.1273977149009704,0.0217350404709577,0.0051353354938328,-0.0122911687940359
1783205171661816000,0.506816162109375,0.0966742214657366,-0.0141240946814417,0.1337532214075326,0.0058262450620532,0.00566380424425,-0.0022887904196977
1783205171671753200,0.516753173828125,0.0961393108714371,-0.0273503637403249,0.1274415540426969,-0.0102318162098526,0.007076877169311,0.0067377272062003
1783205171681690000,0.526690185546875,0.0720449532523751,-0.0406277784645557,0.0965589245229959,-0.0199893712997436,0.0098561523482203,0.0145623609423637
1783205171691627300,0.536627197265625,0.0310454919312149,-0.0268228327348828,0.0665571694910526,-0.0281093493103981,0.0114170312881469,0.0159658472985029
1783205171701564400,0.546564453125,-0.009862053322792,-0.0061146834880113,0.0236707984447479,-0.0287937298417091,0.0118043292313814,0.0156116522848606
1783205171711501000,0.5565009765625,-0.0349753787260502,0.0035530163064599,-0.0248275672644376,-0.0280134230852127,0.0142211467027664,0.0088152643293142
1783205171721438200,0.566438232421875,-0.0525954257644712,0.0261728443935513,-0.0639507863849401,-0.0250403024256229,0.0171352252364158,0.0047746463678777
1783205171731375000,0.576375,-0.0449238682232797,0.03631166883111,-0.1180447801440954,-0.0195078514516353,0.0137934908270835,0.0013080099597573
1783205171741312300,0.586312255859375,-0.0450878266133367,0.0417737336292862,-0.1647001483350992,-0.0107359196990728,0.0063569536432623,-0.0034123309887945
1783205171751249400,0.59624951171875,-0.0538192684710025,0.0428904626995325,-0.1811848346680402,-0.0053813681006431,0.0017864368855953,-0.0049734758213162
1783205171761186000,0.60618603515625,-0.0612557751473039,0.0216866388902068,-0.1939905402272939,0.0082191750407218,-0.0056668813340365,-0.007837968878448
1783205171771123200,0.616123291015625,-0.0500103777073323,0.0342047596797347,-0.1988707134842872,0.0174632724374532,-0.0115354228764772,-0.0120103433728218
1783205171781060000,0.62606005859375,-0.0459917897157371,0.0222787595644593,-0.206845930147171,0.0233416333794593,-0.0159738454967737,-0.0152305290102958
1783205171790997200,0.635997314453125,-0.0277605519764125,0.019586159479618,-0.1614127972275018,0.0309470891952514,-0.0168907716870307,-0.010507944971323
1783205171800934400,0.645934326171875,0.0117131610821932,0.0021165537625551,-0.1506552563697099,0.0369907766580581,-0.0186645351350307,-0.0082740047946572
1783205171810871000,0.65587109375,0.02786781174317,-0.0087646134749054,-0.1259627136617898,0.038614772260189,-0.0228560846298933,-0.0051309424452483
1783205171820808200,0.66580810546875,0.0249878723926842,-0.0034627076745033,-0.0668926850557327,0.035177543759346,-0.0243810713291168,-0.0019298162078484
1783205171830745300,0.675745361328125,0.0205478441186249,-0.0295244929090142,-0.0052799862295389,0.0321766957640647,-0.0163822658360004,-0.0056007173843681
1783205171840682200,0.68568212890625,0.0266025410477072,-0.0353223655328154,0.0419908835113048,0.0258313585072755,-0.0133637832477688,-0.0049491585232317
1783205171850619400,0.695619384765625,0.0272675808276981,-0.0385731840223073,0.0467781177878379,0.0184943489730358,-0.0045180944725871,-0.0036796296481043
1783205171860556000,0.70555615234375,0.0432466557260602,-0.0362087929785251,0.0463327121078968,0.0122620174661278,-0.0029037711210548,-0.0032433625310659
1783205171870493200,0.7154931640625,0.0489212672963738,-0.0468196188420057,0.067030047699809,0.0061439373530447,0.0024398611858487,0.0005095638334751
1783205171880430300,0.725430419921875,0.0498317332047969,-0.0394517204225063,0.0809498519808054,-0.0085134766995906,0.0084916576743125,0.0051272949203848
1783205171890367200,0.7353671875,0.0462136157728731,-0.0325914792641997,0.0724789607554674,-0.0174875296652317,0.0092080477625131,0.0123633695766329
1783205171900304400,0.745304443359375,0.0289249926459044,-0.0119476274251937,0.0536269607692956,-0.0247062928974628,0.0127511173486709,0.0149322552606463
1783205171910241000,0.755240966796875,0.0204066820822656,-0.007745207299292,0.0348421808004379,-0.0299141071736812,0.012165755033493,0.0162798129022121
1783205171920178200,0.76517822265625,0.0080881755180656,0.0202598209574818,0.0043961891323328,-0.0317613631486892,0.0179496631026268,0.0131222540512681
1783205171930115300,0.775115234375,-0.0137011930942535,0.0434282228380441,-0.0408317766040563,-0.0284641031175851,0.0180450044572353,0.0112218214198946
1783205171940052200,0.78505224609375,-0.0285672652494162,0.0567141131296753,-0.0861935978531837,-0.0215204674750566,0.0179883688688278,0.005539515055716
1783205171949989400,0.7949892578125,-0.0552998624175786,0.0569397385790944,-0.1106780507683753,-0.0151680279523134,0.0138040110468864,0.0043528103269636
1783205171959926000,0.804926025390625,-0.0649902855005115,0.0540153755649924,-0.1375473529934883,-0.0111014293506741,0.0107215270400047,-0.003935860004276
1783205171969862700,0.814862548828125,-0.0703108960013836,0.0482946598306298,-0.1385088915020227,-0.0090292235836386,0.0062277098186314,-0.0101780425757169
1783205171979799800,0.8247998046875,-0.0712603056807071,0.0554173513174056,-0.1370826580911874,-0.0030553750693798,0.0035853977315127,-0.0101913996040821
1783205171989736700,0.83473681640625,-0.0609589841578155,0.0465337876379489,-0.1467103181362152,0.0004749121144413,0.0009824242442846,-0.0143605777993798
1783205171999673900,0.844673828125,-0.0436365318264812,0.0415618444442749,-0.1361848324686288,0.0013211518526077,-0.0031239804811775,-0.0204080436378717
1783205172009611000,0.854611083984375,-0.0441672046370804,0.0326709742411971,-0.0896650733560323,0.0049784714356064,-0.0025151814334094,-0.0170575212687253
1783205172019547600,0.864547607421875,-0.0338308848660439,0.0118047118231654,-0.0779635296463966,0.0092255715280771,-0.0002286420203745,-0.0202404558658599
1783205172029484800,0.87448486328125,-0.0169590989116579,0.0096373046562075,-0.0742237585961818,0.0095278397202491,-0.0003426251932978,-0.0190897062420845
1783205172039421700,0.884421630859375,0.003907601897791,-0.0021907880425453,-0.0515975007683038,0.0070113008841872,-0.0024111955426633,-0.020321225747466
1783205172049358800,0.89435888671875,0.0294892754651606,-0.0034516017585992,-0.020768647262454,0.0045225769281387,0.0023281660396605,-0.0165581796318292
1783205172059296000,0.9042958984375,0.0351544616200029,-0.0142307699263095,0.0041337388038635,0.0001546069979667,0.0024620299227535,-0.0124330185353755
1783205172069232600,0.914232666015625,0.0426869029514491,-0.0361588163569569,0.0198988786906003,-0.0045037949457764,0.0028953261207789,-0.0102644078433513
1783205172079169800,0.924169677734375,0.0429468690618872,-0.0438508321642875,-0.0227075063705444,-0.0024076625704765,0.0012550405226647,-0.0063673732802271
1783205172089106700,0.934106689453125,0.0470017704758793,-0.0426826651677489,-0.058372693991661,0.0008139638230204,0.0066290334798395,-0.0062009254470467
1783205172099043800,0.9440439453125,0.0356355962004512,-0.0411740141704678,-0.0698608872115612,0.0015868535265326,0.0113696530461311,-0.0056886905804276
1783205172108981000,0.95398095703125,0.0508404718559235,-0.0261950562253594,-0.0593026683181524,-0.0013796407729387,0.0133126955479383,-0.002681982005015
1783205172118917600,0.963917724609375,0.0611496844243258,-0.0242985749542713,-0.0676999097853899,-0.0046038702130317,0.0071781552396714,0.0045263683423399
1783205172128854800,0.973854736328125,0.0596158989857882,-0.028359248521924,-0.0827437496602535,-0.0103637557476758,0.0002339626662433,0.0071881981566548
1783205172138791700,0.983791748046875,0.0338720936592668,-0.0425678066164255,-0.0844990688949823,-0.0084719443693757,-0.0036741481162607,0.011483259499073
1783205172148729900,0.993729736328125,0.0089336133662611,-0.040019291177392,-0.0952408276617527,-0.0034561464563012,-0.0074720825068652,0.0111855184659361
1783205172158666800,1.003666748046875,-0.0090752868592739,-0.0226239197403192,-0.0837754307955503,0.0019633863121271,-0.0025409194640815,0.0113426400348544
1783205172168604000,1.01360400390625,-0.0020211305640637,-0.0128065823420882,-0.0617933160901069,0.0031026871874928,0.0042349616996943,0.0101868277415633
1783205172178540800,1.023540771484375,0.0008506985452026,0.0171267836287617,-0.0407113650947809,-0.0012857839465141,0.008365910500288,0.0079734046012163
1783205172188477700,1.033477783203125,-0.0003135229285806,0.0234501414313912,-0.0418061745941638,-0.0008998923003673,0.0077014518901705,0.0091308141127228
1783205172198414800,1.043414794921875,-0.0079976476904004,0.025556173799932,-0.0667792878091335,-0.0005998704582452,0.0033615818247199,0.0068633151240646
1783205172208351700,1.053351806640625,-0.028602190432325,0.0268240017786622,-0.0722971744477748,-0.0021639447659254,-8.18856060504e-05,0.0049242670647799
1783205172218289000,1.063288818359375,-0.0435067679669708,0.0210869194313883,-0.0572895749300718,-0.0046772053465247,0.0029241538140922,0.0054701035842299
1783205172228225800,1.073225830078125,-0.0468505254369229,0.028032793046534,-0.038417116677761,-0.0032928949221968,-0.0028312033973634,0.004451710730791
1783205172238162700,1.08316259765625,-0.0450157112251967,0.052212710057199,-0.047387774118781,-0.0019429866224527,-0.0021254974417388,-0.0019967234693467
1783205172248099800,1.093099853515625,-0.0304350318826735,0.0716121147930622,-0.0545440756142139,-0.0033680433407425,-0.0014890017919242,-0.0088365199044346
1783205172258036700,1.10303662109375,-0.0151738959953188,0.0611111790448427,-0.0427355643987655,-0.0033582663163542,0.0061151669360697,-0.0068375142291188
1783205172267974000,1.112973876953125,-0.0135951754365116,0.0494163573369383,-0.0490641828984022,-0.0002122744917869,0.0047436389140784,-0.0109132155776023
1783205172277910800,1.122910888671875,-0.0170896664887666,0.0417664271056652,-0.0735503893792629,-0.0032646358013153,0.0016944953240454,-0.01434903498739
1783205172287847700,1.13284765625,-0.0027335896823555,0.0344172333866357,-0.0993389106303453,-0.0042265690863132,-0.0013801241293549,-0.0112613653764128
1783205172297784800,1.142784912109375,0.0083674308508634,0.0110991939023137,-0.0825982037097215,-0.0019153943285346,-0.0012960447929799,-0.0104772690683603
1783205172307721700,1.1527216796875,0.0102989103700965,0.0011304653346538,-0.0722971744477748,-6.92913308739e-05,-0.0020563774742186,-0.0061996998265385
1783205172317659000,1.162658935546875,0.0111187023203819,-0.0035299276918172,-0.0706552524596452,0.0025983033701777,-0.0028232401236891,-0.005803489126265
1783205172327595800,1.172595703125,0.0239183434650301,-0.0106637250944972,-0.0660480509251356,0.000930099748075,-0.004921012558043,-0.0063473060727119
1783205172337532700,1.18253271484375,0.03188457310386,-0.0179223179206252,-0.0428530532985925,0.0022864220663905,0.0022991625592112,-0.0027319048531353
1783205172347469800,1.1924697265625,0.0320990195721387,-0.0169084647029638,-0.0300982011437416,0.0048430571332573,0.0063849841244518,-0.0048765484243631
1783205172357407000,1.202406982421875,0.023234525919333,-0.0377706354677677,-0.0318786548197269,0.0008433554321527,0.0018633105792105,-0.0003428834024816
1783205172367343900,1.21234375,0.0212016318522393,-0.0463619382023811,-0.0236924257546663,-0.0030834758654236,0.0030601352918893,0.004563192371279
1783205172377280800,1.22228076171875,0.0194037886500358,-0.0522878211200237,-0.0211538471877574,-0.0074686957523226,0.002468378515914,0.0126973297446966
1783205172387218700,1.23221875,0.0043260465055704,-0.0361158539980649,-0.0253249953925609,-0.0104980422183871,0.0001375800929963,0.0131532624363899
1783205172397155800,1.24215576171875,-0.009077405751124,-0.0069449968323111,-0.0405056133896112,-0.007320350036025,-0.0009879563003778,0.0157315731048584
1783205172407092700,1.2520927734375,-0.0053727790795266,0.0175239662528038,-0.0632388387233018,-0.0046667754650115,0.0033271634019911,0.0133309988304972
1783205172417030000,1.26202978515625,-0.0235015793576836,0.0345320919379591,-0.0367173270225524,-0.0032157525420188,0.0108862360939383,0.0087670572102069
1783205172426966800,1.271966796875,-0.0301162482570856,0.0408513580873608,-0.0054202714830636,-0.0115405265241861,0.0127025116235017,0.0049203876405954
1783205172436903700,1.281903564453125,-0.032130656819418,0.0638026100859046,-0.007191372808814,-0.0153255462646484,0.0083275148645043,0.0019225489813834
1783205172446840800,1.2918408203125,-0.0219992119707167,0.0585123947232961,-0.0199947402805089,-0.02232326567173,0.0047205295413732,0.0020674250554293
1783205172456777700,1.30177783203125,-0.018902707260102,0.0554734654188156,-0.0150210435211658,-0.0275940392166376,0.0030823294073343,0.0020998416002839
1783205172466715000,1.31171484375,-0.0159958799026906,0.0527890486404299,-0.0044452889710664,-0.0344396904110908,0.0017952239140868,-0.0019582831300795
1783205172476652000,1.321652099609375,-0.0237866799093782,0.0487058709800243,-0.0076116440474987,-0.0349938347935676,0.0020572314970195,-0.0031806740444153
1783205172486588700,1.331588623046875,-0.0033539866030216,0.0518278023928403,-0.0019072949260473,-0.0365896001458168,0.0051475637592375,-0.0024911817163228
1783205172496525800,1.34152587890625,-0.0162451784886419,0.0481882768467068,0.021307576444745,-0.0377947017550468,0.0121478168293833,-0.0076841888949275
1783205172506462700,1.351462646484375,-0.0261530437145382,0.0436418655887246,0.0019908815562725,-0.0386580973863601,0.019226498901844,-0.0072223972529172
1783205172516399900,1.36139990234375,-0.0277175165522843,0.029552842220664,-0.0085720135122537,-0.0401917472481727,0.0249831043183803,-0.0071736420504748
1783205172526336800,1.371336669921875,-0.0238197784613817,0.0443047134116292,-0.0239601367801427,-0.0441278964281082,0.0218240618705749,-0.0078500853851437
1783205172536273700,1.381273681640625,-0.0313883140195161,0.0474535328313708,-0.0173977095246315,-0.0479159615933895,0.0238191131502389,-0.0099881840869784
1783205172546210800,1.3912109375,-0.0452316189981997,0.0691153295412659,0.0095639471590518,-0.0495918877422809,0.0280876271426677,-0.0145714841783046
1783205172556148700,1.401148681640625,-0.0378896587375551,0.0444283397912979,-0.0065127428948879,-0.0511079654097557,0.0257076509296894,-0.0163183975964784
1783205172566086000,1.4110859375,-0.040861806416139,0.0326733123287558,-0.059635261273384,-0.0490962117910385,0.0261097885668277,-0.0173506401479244
1783205172576022800,1.421022705078125,-0.0606015490222722,0.0362605231657624,-0.1295820732027292,-0.0382263772189617,0.020877256989479,-0.0208113342523574
1783205172585959700,1.430959716796875,-0.0626588468782603,0.0316176657959818,-0.1855979749351739,-0.0239489041268825,0.0162143297493457,-0.0244611967355012
1783205172595896800,1.440896728515625,-0.0557809239327907,0.0377732658162713,-0.2066448546171188,-0.0108697302639484,0.0127899888902902,-0.025051437318325
1783205172605833700,1.450833740234375,-0.0394466058559715,0.0375073083564639,-0.2224240230292081,-0.0044251475483179,0.0081398440524935,-0.0306579209864139
1783205172615771000,1.46077099609375,-0.0215954534754157,0.0415258963480591,-0.2148410205543041,0.0040623405948281,0.004101388156414,-0.0333628356456756
1783205172625707800,1.470707763671875,-0.028723844050616,0.0189405550524592,-0.17954408172369,0.0092027736827731,-0.0017772736027836,-0.0331937260925769
1783205172635644700,1.480644775390625,-0.0119801414553076,-0.0050891398325562,-0.1547989320456981,0.0123455859720706,-0.0022284775041043,-0.0343431532382965
1783205172645581800,1.490581787109375,0.0139749685343354,-0.027370822006464,-0.1202753156751394,0.0156923793256282,-0.0018849298357963,-0.034014519304037
1783205172655518700,1.500518798828125,0.0522412054993212,-0.033883272640407,-0.0807990453332662,0.0183191876858472,-0.0032464182004332,-0.0318209007382392
1783205172665455900,1.510455810546875,0.0803831580087542,-0.0402750195041298,-0.0357774158239364,0.0174067877233028,0.0003131628036499,-0.0282314904034137
1783205172675392800,1.520392822265625,0.1067694259572774,-0.04804243863523,-0.0007633855879306,0.0124292094260454,0.0036339389625936,-0.0191000215709209
1783205172685331000,1.5303310546875,0.120038145918399,-0.0624257687747478,0.003700023561716,0.008649917319417,0.0050893565639853,-0.0168853346258401
1783205172695267600,1.540267578125,0.1104118741128593,-0.0807017224386334,0.0147293670982122,0.004089088179171,0.0116115240380167,-0.0035920946393162
1783205172705204700,1.550204833984375,0.0987345880616456,-0.1059478073760867,0.0124199211120605,-0.0047922879457473,0.0142856044694781,0.0048482613638043
1783205172715142000,1.560141845703125,0.0812779879566282,-0.1092699375361204,-0.0016015899777412,-0.0085843978449702,0.0140922646969556,0.0132785467430949
1783205172725078800,1.570078857421875,0.059890332012996,-0.0924888986051082,-0.024056582891941,-0.0118896467611193,0.0088764643296599,0.0231330413371324
1783205172735016000,1.580015869140625,0.0325269626606255,-0.0510918893337249,-0.0372673621207475,-0.0164584331214427,0.0032162617426365,0.0245807599276304
1783205172744952600,1.58995263671875,0.0141758979339152,-0.0192658414840698,-0.0300426715642213,-0.0158951729536056,0.0054296148009598,0.0154852662235498
1783205172754889700,1.5998896484375,0.0051017070531845,0.0154544665023684,-0.0352034153282642,-0.0126471137627959,0.0136975105851888,0.0169710516929626
1783205172764827000,1.609826904296875,-0.0017374182518571,0.0369967284858226,-0.0459703085362911,-0.0097751608118414,0.0128189343959093,0.012985898181796
1783205172774763800,1.619763671875,-0.0021499445755034,0.0499397966891527,-0.0582709871828556,-0.0091903852298855,0.0138840563595294,0.0101238507777452
1783205172784701000,1.629700927734375,-0.0303518836438655,0.0572527500510215,-0.0660720163226127,-0.0116154598072171,0.0165581349283456,0.0060412255115807
1783205172794637600,1.639637451171875,-0.0601261865954846,0.0345922976925969,-0.0860696792125701,-0.0110422596335411,0.0121918767690658,0.0024041512515395
1783205172804575700,1.64957568359375,-0.0508634143400937,0.0404722956418991,-0.1181599309563636,-0.003765171393752,0.0045440765097737,-0.000864346511662
1783205172814512600,1.6595126953125,-0.0525550206888467,0.0447445661336183,-0.1070738887965679,-0.0019521499052643,0.0018760138191282,-0.0055576423183083
1783205172824449800,1.66944970703125,-0.048428150017187,0.0435305141687393,-0.0841910258591175,-0.0006448039785027,0.0045751277357339,-0.0066372877918183
1783205172834387000,1.679386962890625,-0.0492754875615239,0.0466048070475459,-0.0609112725585699,-0.0009849276393651,0.0017767013050615,-0.0144590567797422
1783205172844323800,1.68932373046875,-0.0335121743056923,0.0426630836844444,-0.0499374586015939,0.0005061756819486,0.0014174408279359,-0.0113554084673523
1783205172854260700,1.6992607421875,-0.0002292787112295,0.0400102310881018,-0.0711661245912313,0.0039922324940562,-0.0069091878831386,-0.0145852398127317
1783205172864197600,1.70919775390625,0.0114099403519183,0.0451157375335693,-0.0305570508271455,-0.0004371367394924,-0.0017106980085372,-0.0195823945105075
1783205172874134800,1.719134765625,0.0233722538895905,0.046285658095777,0.0225602068543434,-0.0064807469025254,0.0043335268273949,-0.0208935420960187
1783205172884072000,1.729072021484375,0.054248818994686,0.0224327810823917,0.0426888026475906,-0.0160478875041008,0.0098713040351867,-0.021942026913166
1783205172894008800,1.7390087890625,0.0813289144262671,-0.0011582301244139,0.0411141006767749,-0.0307168699800968,0.0134428795427083,-0.0191475227475166
1783205172903946800,1.74894677734375,0.0751788673639297,-0.0555760490104556,0.0288449862122535,-0.0345164015889167,0.0117003731429576,-0.0082075232639908
1783205172913883600,1.758883544921875,0.0509212820071727,-0.1038578493595123,-0.0133206693440675,-0.0428560562431812,0.0105935186147689,0.0060339393094182
1783205172923820800,1.76882080078125,0.0140811323225498,-0.1254109249979257,-0.0684358228445053,-0.0401369705796241,0.0049910270608961,0.0120542803779244
1783205172933757700,1.7787578125,0.003061287266761,-0.0867611686080694,-0.1162812776029109,-0.0323847904801368,0.0009542373009026,0.0184142813086509
1783205172943694800,1.78869482421875,0.0166210260637104,-0.0024392098456621,-0.1704623651236295,-0.0163706708699464,0.0064110541716217,0.0148011706769466
1783205172953632000,1.798632080078125,0.0173358232695609,0.0664458180710673,-0.1647328815609216,0.0029281973838806,0.0169549006968736,0.007965475320816
1783205172963567900,1.80856787109375,-0.0144696201834827,0.0683025518536567,-0.1489157192260027,0.0142650073394179,0.0183264296501874,0.0029496778734028
1783205172973505000,1.818505126953125,-0.0447505574829876,0.055086511927843,-0.1371370186269283,0.0186630431562662,0.0151131432503461,-0.0008343362715095
1783205172983442000,1.82844189453125,-0.0511933769468218,0.0476066775664687,-0.1258873103380203,0.0165735278278589,0.006192086264491,-0.0070805139839649
1783205172993378800,1.83837890625,-0.0486808826692402,0.0325651757791638,-0.0927683000683784,0.0076244729571044,-0.0026704808697104,-0.0115253338590264
1783205173003317000,1.84831689453125,-0.0359831675291061,0.0213917475968599,-0.0507516975939273,0.0018997425213456,-0.0130999516695737,-0.0141112627461552
1783205173013254000,1.85825390625,-0.0019995032541453,0.0175239662528038,-0.024966683474183,-0.0028693256899714,-0.0172903779894113,-0.016921728849411
1783205173023191000,1.86819091796875,0.0090955259297043,0.0084612466141581,0.0016781623452901,-0.0065508792176842,-0.0076342890970408,-0.0169475618749856
1783205173033128000,1.8781279296875,0.0165843473151326,-0.0215106978014111,0.0369628262162208,-0.0127591732889413,-0.0009184842929244,-0.013782219029963
1783205173043064800,1.88806494140625,0.0417157198317348,-0.0394894220843911,0.0531312862068414,-0.0173336863517761,0.002910875249654,-0.0157500281929969
1783205173053002000,1.898001953125,0.0668349635191261,-0.0329129663035273,0.0384445892065763,-0.0234974436461925,0.0032093140762299,-0.0095515009015798
1783205173062939000,1.90793896484375,0.1034819287192076,-0.0494324316889047,0.0250146142691373,-0.0252655185759067,0.0055113504640758,-0.0066710263490676
1783205173072876000,1.9178759765625,0.1118352579794824,-0.0409027960136532,0.0225227974534034,-0.0313120447099208,0.0109050758183002,-0.0023274286650121
1783205173082814000,1.92781396484375,0.1035498793888837,-0.0554211507096886,0.0301338569790124,-0.043649137020111,0.0170950610190629,0.0038029015995562
1783205173092751000,1.937751220703125,0.0849549229037016,-0.0940109936058521,-0.0170130941212177,-0.0478599555790424,0.0188853126019239,0.0191122256219387
1783205173102687700,1.947687744140625,0.0558024781774729,-0.10280834030658,-0.0863958424270153,-0.0452220924198627,0.0153688751161098,0.0270513761788606
1783205173112625000,1.957625,0.0356708136443048,-0.0979410265311598,-0.1784901887565851,-0.0331366658210754,0.0040605436079204,0.032744362950325
1783205173122562000,1.96756201171875,0.0089232381027191,-0.0574035566985607,-0.2393710661768913,-0.0134772099554538,0.000192834995687,0.0376858599483966
1783205173132499000,1.9774990234375,-0.0310688728068023,-0.0084063015565276,-0.2345651271998882,0.0023732157424092,0.0017773387953639,0.0376002267003059
1783205173142436000,1.98743603515625,-0.0517421699360012,0.0450894340485334,-0.1974111623257398,0.0162839721888303,0.0082834409549832,0.0286978092044591
1783205173152372700,1.997372802734375,-0.0731793641097843,0.0961015361443161,-0.1652308942109346,0.0208634547889232,0.002581121167168,0.0208460483700037
1783205173162310000,2.007309814453125,-0.0830089034024626,0.1240603871718049,-0.1424392166882753,0.0219279192388057,-0.0019494486041367,0.0101798214018344
1783205173172247800,2.017247802734375,-0.0938361484955996,0.1240776305675506,-0.1099386305779218,0.0179329980164766,-0.017403831705451,0.0021473718807101
1783205173182185000,2.02718505859375,-0.09494045647569,0.1132312423825264,-0.0456447298437356,0.0095395129173994,-0.0208704695105552,-0.0054114782251417
1783205173192121900,2.037121826171875,-0.0753702982828021,0.099130528576672,0.0202618667840957,0.0046452470123767,-0.0187788251787424,-0.0113172307610511
1783205173202059000,2.04705908203125,-0.0442594860304147,0.0731660662367939,0.0554284572333097,-0.0025591356679797,-0.0118442215025424,-0.0159519296139478
1783205173211996000,2.056995849609375,-0.0167384418983012,0.0580801407858729,0.1097398931354284,-0.0142607102170586,-0.0047606811858713,-0.0188552923500537
1783205173221932800,2.066932861328125,0.0057229807566851,0.0297995104581117,0.1533925723791122,-0.0265490673482418,0.0029116193763911,-0.0136006083339452
1783205173231870000,2.076869873046875,0.0316517872612923,-0.0059393269211053,0.1375163733333349,-0.0378793999552726,0.0061627463437616,-0.0082658547908067
1783205173241807000,2.08680712890625,0.0527558770231902,-0.0239957926154136,0.1064034421890973,-0.0476111248135566,0.0071534421294927,0.0005393554456532
1783205173251745000,2.0967451171875,0.0777007139917463,-0.033059096775949,0.0499222610324621,-0.0515668056905269,0.002453270368278,0.0131558496505022
1783205173261682000,2.106681884765625,0.0646771278981119,-0.0404325481534004,0.0028004443734884,-0.0519867874681949,0.0065297707915306,0.020934410393238
1783205173271618800,2.116618896484375,0.0420586149852722,-0.0285790287524461,-0.0139712422072887,-0.0560224466025829,0.014205103740096,0.0165680162608623
1783205173281556000,2.126555908203125,0.0151355367463082,-0.0050184126839041,-0.0275946938902139,-0.0587282218039035,0.0161279048770666,0.0130129624158144
1783205173291492900,2.136492919921875,0.0447996573217213,0.0226736041009426,-0.0894599061727523,-0.0512464195489883,0.013694561086595,0.0051279095932841
1783205173301430000,2.146429931640625,0.0492707383211702,0.0292322319641709,-0.1564753408253192,-0.0427519977092742,0.0129046672955155,-0.0036019321996718
1783205173311367000,2.156366943359375,0.0378858593452721,0.0084030866861343,-0.1731125873714685,-0.0367546007037162,0.0135087864473462,-0.003212904324755
1783205173321303800,2.1663037109375,0.0014527560915797,-0.0579562221452593,-0.1944353613853454,-0.0297281127423048,0.0137655157595872,-0.0002173807006329
1783205173331241700,2.17624169921875,-0.0355853273179382,-0.1189718318611383,-0.2092038914501666,-0.0234520807862281,0.0092190308496356,0.0115185379981994
1783205173341179000,2.186178955078125,-0.0313275237429887,-0.1384697285354137,-0.2396896306067705,-0.0157486237585544,-0.0106018111109733,0.0190174672752618
1783205173351116000,2.196115966796875,0.010981120480597,-0.0970087141171097,-0.2733446474492549,-0.0008649658411741,-0.0271028876304626,0.0262855067849159
1783205173361053000,2.206052978515625,0.0397738650489598,-0.0264537071615457,-0.2207470297276973,0.0124039677903056,-0.0291476622223854,0.0278945881873369
1783205173370989800,2.21598974609375,0.0511808097261935,0.0410772757977247,-0.123972416627407,0.0231065806001424,-0.0181129574775695,0.0213944856077432
1783205173380926700,2.2259267578125,0.0610169248901307,0.0690904873609542,-0.0396206472486257,0.0261913202702999,-0.0015635429881513,0.0157456547021865
1783205173390864000,2.23586376953125,0.0639811084579676,0.0768786570191383,0.0059241293519735,0.020936781540513,-0.0016600806266069,0.0106796054169535
1783205173400801800,2.2458017578125,0.0752047324575483,0.0428752651304006,0.0125391635775566,0.0088737271726131,-0.001139698550105,0.0120436763390898
1783205173410739000,2.255739013671875,0.0478860059645026,-0.0053510056391358,0.0392968221217393,-0.0107833016663789,-0.0127242784947156,0.0171545017510652
1783205173420676000,2.265676025390625,0.0191183227721601,-0.0424374582350254,0.0570347233861684,-0.0271710641682147,-0.0201515685766935,0.0214192867279052
1783205173430612700,2.27561279296875,0.0128771633602678,-0.0528431169152259,0.0627916794776916,-0.0428180806338787,-0.0223861187696456,0.02676054649055
1783205173440550000,2.2855498046875,0.0190733145866543,-0.0326084303990006,0.0520212791383266,-0.0434002466499805,-0.019473684951663,0.0315707474946975
1783205173450486800,2.29548681640625,0.0170209121014922,-0.0063069911897182,0.0309369900554418,-0.0415817350149154,-0.0077591319568455,0.0338779725134372
1783205173460424000,2.305423828125,0.0202630358278751,0.0190609665617346,0.0036667058140039,-0.0385774224996566,-0.0002988190390169,0.0322611667215824
1783205173470361900,2.31536181640625,0.0014488836340606,0.0449207994833588,-0.0512666613787412,-0.0309247784316539,-0.0021772161126136,0.0309466402977705
1783205173480299000,2.325299072265625,0.0038377515319734,0.07386340085119,-0.0981786346793174,-0.0238655395805835,-0.0032307626679539,0.0312459822744131
1783205173490236000,2.33523583984375,0.009056289897859,0.0745253718912601,-0.114141927486658,-0.02104427292943,-0.0111013082787394,0.0348649844527244
1783205173500172800,2.3451728515625,-0.0393366426754742,0.0485369441539049,-0.0749000504225492,-0.0277780778706073,-0.0098429648205637,0.0301035214215517
1783205173510110000,2.35510986328125,-0.1080395189583301,0.0461509258002042,-0.048443420651555,-0.0336181260645389,-0.0132343526929616,0.0225555896759033
1783205173520046800,2.365046875,-0.093344857847318,0.0668853785321116,-0.0714852735430002,-0.030708622187376,-0.0170155093073844,0.0198697913438081
1783205173529985000,2.374985107421875,-0.0763021723054349,0.0725681003436446,-0.0988818145126104,-0.0234152097254991,-0.0199296064674854,0.0134045034646987
1783205173539922000,2.384921875,-0.0611545067299157,0.0737532184749841,-0.0789238991111516,-0.0151668656617403,-0.0135824959725141,0.0088997669517993
1783205173549858800,2.39485888671875,-0.0453532726164907,0.0795040370866656,-0.0509895980030298,-0.0102909933775663,-0.0090285968035459,0.0015692873857915
1783205173559796000,2.4047958984375,-0.0387616923317313,0.0728533470258116,-0.0224859725743532,-0.0123850367963314,-0.0045747268013656,-5.47082163393e-05
1783205173569732900,2.41473291015625,-0.0191406076692044,0.0709904757633805,-0.0153606507390737,-0.0171040017157793,-0.0047479411587119,-0.0031939046457409
1783205173579670000,2.424669921875,0.0045818478975445,0.0643526451840996,-0.0133095634281635,-0.0228228718042373,-0.0080803548917174,-0.0022575370967388
1783205173589607000,2.43460693359375,0.0074604720737785,0.0421431514635682,-0.0082236384660005,-0.0300562269985675,-0.006605171598494,-0.0011290374677628
1783205173599545000,2.444545166015625,0.0055359337519854,0.0402186131417751,-0.0290507379174232,-0.0383335947990417,-0.0107855349779129,-0.0003926735371351
1783205173609481700,2.454481689453125,0.0166151077795773,0.0217249250739812,-0.0422445660114288,-0.0385043360292911,-0.0146090649068355,0.0022009203676134
1783205173619419000,2.4644189453125,0.0054965515896677,0.0186456637591123,-0.0385363591432571,-0.0379698388278484,-0.015966210514307,0.0041634039953351
1783205173629356000,2.47435595703125,0.0065417497936636,0.01454699626863,-0.0427098454356193,-0.0379445068538188,-0.0083079971373081,0.0040193852037191
1783205173639293000,2.48429296875,0.00778400493972,0.0235278828427195,-0.0560591563522815,-0.0335921049118042,-0.0061353901401162,0.0035807627718895
1783205173649230000,2.49422998046875,0.0056800183977931,0.0302329334393143,-0.0609440057843923,-0.0306163225322961,-0.0072886981070041,0.0057232696563005
1783205173659168000,2.50416796875,-0.0055870063520967,0.043279169756174,-0.0662877048999071,-0.0302559975534677,-0.0050026411190629,0.0095875160768628
1783205173669105000,2.51410498046875,-0.008934270953387,0.033240006300807,-0.0689887805521488,-0.0298192054033279,-0.0051541430875658,0.0064815315417945
1783205173679041800,2.524041748046875,-0.0235085936203598,0.0428898781776428,-0.0815051477760076,-0.027955524623394,-0.0076945321634411,0.0072517176158726
1783205173688979000,2.53397900390625,-0.0230434603266417,0.0438987629592418,-0.0822416453570127,-0.0275797117501497,-0.0121619366109371,0.0005373642779886
1783205173698915800,2.543915771484375,-0.0332085882492363,0.0427966469362378,-0.0635953970760107,-0.0251911226660013,-0.0114418193697929,-0.0024754700716584
1783205173708853000,2.55385302734375,-0.0222373315755277,0.0321148016631603,-0.0597030658125877,-0.0242566429078578,-0.008274421095848,-0.0060735121369361
1783205173718791000,2.563791015625,-0.0016767741058021,0.0204170573458075,-0.0616617986649274,-0.0242209583520889,-0.0061252498999238,-0.0059558004140853
1783205173728727800,2.573727783203125,0.0136824883937835,0.0211240365713834,-0.0580868627876043,-0.0232637785375118,-0.00757687818259,-0.0034540717024356
1783205173738665000,2.5836650390625,0.0213123987503349,0.0141179572016,-0.071480012845993,-0.0211689360439777,-0.0101731931790709,0.0007340153679251
1783205173748601900,2.593601806640625,0.0276964737642556,0.0024760347247123,-0.0660235010057687,-0.0199829880148172,-0.0072945500724017,0.0013902792707085
1783205173758539000,2.6035390625,0.0257997002322226,-0.0034963176831603,-0.052738487496972,-0.0209995154291391,-0.0079387687146663,0.0041008447296917
1783205173768476000,2.613475830078125,0.0106020580351352,0.002002864255011,-0.0452764810532331,-0.016891811043024,-0.0059412345290184,0.0039610378444194
1783205173778414000,2.6234140625,0.0191422151044011,0.0081815528899431,-0.0469464600920677,-0.014663808979094,-0.0021744593977928,0.0069837253540754
1783205173788350700,2.633350830078125,0.009198036456108,0.0148591309577226,-0.0523141246050596,-0.0122521352022886,-0.0007325666956603,0.0063815684989094
1783205173798288000,2.643287841796875,0.0041693215738981,0.0198310741513967,-0.0502250433713197,-0.0079055894166231,0.0010458920150995,0.0065392274409532
1783205173808225000,2.65322509765625,0.0075502692490816,0.0289215585798025,-0.043042438390851,-0.0074122315272688,0.0033624768257141,0.0086096506565809
1783205173818162000,2.663161865234375,0.0131179133135825,0.0354690805271267,-0.0588362198501825,-0.0085241002961993,-0.0003710086457431,0.0043379412963986
1783205173828099000,2.67309912109375,0.0064984221085906,0.0163350487291812,-0.0593815787732601,-0.0084180627018213,-0.0025323959998786,0.0051137818954885
1783205173838037000,2.683037109375,-0.0063313949786126,0.0180798465698957,-0.063195584103465,-0.0085488241165876,0.0009845742024481,0.0064155342988669
1783205173847974000,2.692973876953125,-0.0143377374321222,0.0124327805936336,-0.046515082937479,-0.0076452353969216,-0.0001418264582753,0.0060622352175414
1783205173857910800,2.702910888671875,0.0013144435994327,0.0189586752310395,-0.0504173510730266,-0.0047786077484488,-0.0024933977983891,0.0056222812272608
1783205173867848000,2.712847900390625,0.0100717505507171,0.0324669761016964,-0.0760550656765699,-0.0015547294169664,-0.0014086882583796,0.0059926994144916
1783205173877785000,2.72278515625,0.0109806820891797,0.0213894095093011,-0.0620037439703941,-0.0038937842473387,0.0004549915902316,0.0042810859158635
1783205173887722000,2.732721923828125,0.0002604775670915,0.0140805478006601,-0.0359767377883195,-0.0049742124974727,0.005214583594352,0.0064438940025866
1783205173897660000,2.742659912109375,0.0017272621840238,0.0302978153690695,-0.0455143814623355,-0.005750523880124,-0.0002432987093925,0.0098585989326238
1783205173907596800,2.7525966796875,-0.0024529461100697,0.0329477453559637,-0.0636333909988403,-0.0062245596200227,-0.0013947989791631,0.008400734513998
1783205173917534000,2.762533935546875,0.0011119067646563,0.0303325944215059,-0.058949032574892,-0.0054493118077516,0.0013415990397334,0.0102196736261248
1783205173927470800,2.772470947265625,-0.0134566437486559,0.0371697469651699,-0.039502573826909,-0.0071081211790442,0.0002594776451587,0.005707174539566
1783205173937408000,2.782407958984375,-0.0313417714640498,0.0470075426295399,-0.0416764107346534,-0.0031008636578917,0.0037897638976573,0.0038397659081965
1783205173947346000,2.792345947265625,-0.0338559462420642,0.0529869093000888,-0.0630880320757627,0.001277832314372,-0.0005102539435029,0.0002478922251611
1783205173957283800,2.802283935546875,-0.014599676303938,0.0526999090522527,-0.0821083743661642,0.0064310492016375,0.0002540736459195,-0.000968107022345
1783205173967220700,2.812220703125,-0.0295392520867288,0.0534758618608117,-0.0597848988771438,0.0030253455042839,0.0022110838908702,-0.0039271009154617
1783205173977157600,2.82215771484375,-0.0160091047104448,0.056078737835586,-0.0561783988177776,0.0002276943996548,0.0038633090443909,-0.0047481535002589
1783205173987094500,2.832094482421875,-0.0078602119810879,0.047831718493998,-0.0436684613347053,-0.0013420432806015,-0.0001496179029345,-0.0041098613291978
1783205173997032700,2.84203271484375,-0.0019135785363614,0.0442041756466031,-0.0343500133693218,-0.0056028338149189,-0.0036564683541655,-0.0045492826029658
1783205174006969600,2.851969482421875,0.0005480623368173,0.0438493708595633,-0.0446013582706451,-0.0047632381319999,-0.0012039253488183,1.48762483149e-05
1783205174016906800,2.86190673828125,-0.0004911445178091,0.0284942730784416,-0.0282505274504423,-0.006048746407032,0.001232867129147,-0.0009609058033674
1783205174026844000,2.871843994140625,-0.0036414983075112,0.0247381354153156,-0.0225549461573362,-0.0062600886449217,0.0017734887078404,-0.0019862526096403
1783205174036780500,2.881780517578125,-0.000548281532526,0.0279962604284286,-0.0357698170393705,-0.0029782736673951,0.0049487757496535,-0.0053759240545332
1783205174046717700,2.8917177734375,0.022528204280883,0.0342430458635091,-0.0626268443048,0.0017650239169597,0.0045892102643847,-0.0061328588053584
1783205174056655600,2.901655517578125,0.015604396367073,0.0246335059970617,-0.0653647448360919,0.0019487822428345,0.0085698366165161,-0.0040446738712489
1783205174066592800,2.9115927734375,-0.0004230477176606,0.0303130129382014,-0.0737906278759241,0.0033467495813965,0.0069020427763462,-0.0060204016044735
1783205174076529700,2.92152978515625,-0.000849821762368,0.0338742125511169,-0.0941793359100818,0.0035664597526192,0.0045826956629753,-0.0035521839745342
1783205174086466800,2.931466796875,0.0099262046001851,0.0362958867400884,-0.1128133092314004,0.0054168361239135,-0.0002460996620357,-6.32852315902e-05
1783205174096404700,2.94140478515625,0.002392740355432,0.0160194069087505,-0.1025561191111803,0.0061824950389564,-0.0039114085957407,-0.0019932780414819
1783205174106341600,2.951341552734375,-0.0165703187897801,0.0212996853992342,-0.0925298151373863,0.0088504496961832,-0.0024685077369213,-0.0038154129870235
1783205174116278500,2.961278564453125,-0.0107600981410592,0.0213134216636419,-0.08015782482028,0.0105729820206761,-0.0034440234303474,-0.0029783814679831
1783205174126215700,2.971215576171875,-0.0001364127960056,0.0384422511190176,-0.0616395868331193,0.0132289957255125,-0.0012653684243559,-0.0042506707832217
1783205174136152800,2.98115283203125,-0.0004823036242276,0.036645430830121,-0.0431850617319345,0.0126819824799895,0.0004904540255665,-0.0075660403817892
1783205174146089700,2.99108984375,0.0051274260163307,0.0249026783272624,-0.0305833543121814,0.0125709697604179,-0.0001364313066005,-0.0066769034601747
1783205174156028000,3.00102783203125,0.0179863961327821,0.0206675249755382,-0.0214350022166967,0.0137555440887808,0.0061675370670855,-0.0064449422061443
1783205174165964500,3.010964599609375,-0.0015683452952653,0.0178527598157525,-0.0172767134934663,0.0105555597692728,0.0015443000011146,-0.0102374851703643
1783205174175901700,3.020901611328125,-0.0275040199320763,0.0204947987571358,-0.037536826711893,0.0117598408833146,0.0038660436403006,-0.0083306618034839
1783205174185838600,3.030838623046875,-0.0069992843028157,0.0284589095041155,-0.0667822104185819,0.0139837795868515,0.0017719250172376,-0.008840724825859
1783205174195775700,3.040775634765625,0.0060712827377021,0.035725977897644,-0.0981599299788475,0.0132319694384932,-0.0007048146799206,-0.0087722819298505
1783205174205713700,3.050713623046875,0.0122714525520801,0.0296969268664717,-0.0833048906743526,0.0147583596408367,-0.0004439088515937,-0.0097250249236822
1783205174215650800,3.06065087890625,0.0151641783189028,0.026658289822936,-0.0802004949182271,0.0176047459244728,-0.0033065401948988,-0.0080078188329935
1783205174225587700,3.070587646484375,0.0043621407322585,0.0338473245441913,-0.0831447316765785,0.0203205402940511,-0.002190405037254,-0.0128584681078791
1783205174235524600,3.080524658203125,-0.0025925737764686,0.0118932668894529,-0.0739899498403072,0.0232686586678028,-0.0018849405460059,-0.011810247786343
1783205174245461800,3.090461669921875,-0.0067737319186329,0.0027709260180592,-0.061101242172718,0.0226106904447078,-0.0039334814064204,-0.0127626275643706
1783205174255399700,3.100399658203125,0.0055809419374912,0.0040574586972594,-0.053247606062889,0.0239228308200836,-0.0025787311606109,-0.0125383893027901
1783205174265336800,3.1103369140625,0.0238823953688144,0.006292378142476,-0.0625999562978744,0.0240065827965736,-0.0028619104996323,-0.0076508214697241
1783205174275273700,3.120273681640625,0.0382595149632543,0.0016939444363117,-0.0431289476305246,0.0200816169381141,-0.0026605753228068,-0.0056523852981626
1783205174285210600,3.130210693359375,0.0495421026084572,-0.0026888006925582,-0.0302215352624654,0.017855018377304,0.0009040758013725,-0.004352964926511
1783205174295148500,3.1401484375,0.0321030381601303,-0.0042690556213259,-0.031110008534789,0.0169375594705343,0.0006622606888413,-0.0018322828691452
1783205174305085700,3.150085693359375,0.0259124398916959,-0.010542729063332,-0.0224549929141998,0.0175129678100347,0.0007297089323401,0.0010996263008564
1783205174315022600,3.160022705078125,0.0192432643260806,-8.9431849122e-05,-0.0230354231506586,0.0173142962157726,0.0037382817827165,0.002112692920491
1783205174324959700,3.169959716796875,0.0191929223783314,-0.0010433715730905,-0.0323182152807712,0.0178813673555851,0.0070193200372159,0.0011083816643804
1783205174334897000,3.17989697265625,0.0239483002118766,0.0100172438845038,-0.0469978980183601,0.0162376649677753,0.0064573930576443,0.0026005508843809
1783205174344834800,3.189834716796875,0.0277843712434172,0.0206578803643584,-0.0418389078199863,0.0165779385715723,0.0038650259375572,0.0065542128868401
1783205174354771700,3.199771728515625,0.0235136351216584,0.0258709388375282,-0.0499397966891527,0.0139230340719223,0.0072150165215134,0.0075646159239113
1783205174364708600,3.20970849609375,0.018301745692268,0.0296978036493062,-0.0655278264433145,0.01167475245893,0.0037650014273822,0.0057710763067007
1783205174374645800,3.219645751953125,0.0120200350742787,0.0328963074296712,-0.0775116942256689,0.0146524328738451,0.0002823858521878,0.0064283441752195
1783205174384582700,3.229582763671875,-0.0100753307472914,0.0295177709072828,-0.0741524469256401,0.0125943748280406,0.002483932999894,0.0035286957863718
1783205174394520800,3.239520751953125,-0.0322716727253049,0.0404144279748201,-0.0539151300609111,0.015458071604371,0.0041010044515132,0.0031353465747088
1783205174404457700,3.249457763671875,-0.025291750710085,0.0471966354608535,-0.056485272809863,0.0155612062662839,0.0013936860486865,0.0008561795111745
1783205174414394600,3.25939453125,-0.0132065414451062,0.0421685781657695,-0.0609668021380901,0.0192094705998897,-0.0016058320179581,-0.0016615728382021
1783205174424331800,3.269331787109375,-0.0063140785176306,0.0402095530524849,-0.0519330163329839,0.0190438367426395,-0.002012790646404,0.0011805535759776
1783205174434269700,3.279269775390625,-0.0186897951617836,0.0437117159545421,-0.0190706111729145,0.0144195249304175,0.0030799722298979,-0.0011113630607724
1783205174444206600,3.28920654296875,-0.016546718718484,0.0398953725367784,-0.0167243403077125,0.0122000519186258,0.0037832572124898,-0.0039461334235966
1783205174454143700,3.299143798828125,0.0004461363323032,0.0506587586134672,-0.0122217681914567,0.0085608419030904,0.0042112274095416,-0.000875242287293
1783205174464081000,3.309080810546875,0.0060249593779444,0.0454597286656498,-0.0023287352085113,0.0033337939530611,0.0041238022968173,-0.0005645174533128
1783205174474017500,3.319017578125,-0.0051427697159349,0.0376116455137729,-0.0184656310170888,0.0019047418609261,0.0034055479336529,-0.0013171269092708
1783205174483955700,3.328955810546875,0.0045159430544823,0.0404158892795443,-0.0198474407643079,0.0030772974714636,0.0050537409260869,-0.0022400193847715
1783205174493892600,3.338892578125,0.0004940671272575,0.026844752305746,-0.0380979677259922,0.0012319926172494,0.002882199594751,-0.0032283186446875
1783205174503829800,3.348829833984375,-0.0144845254916697,0.0246735457465052,-0.0321574717611074,0.0014839004725217,0.0062673077918589,-0.0052224523387849
1783205174513766700,3.3587666015625,-0.0050757688943296,0.0269373990252614,-0.0346907896310091,-0.0042237862944602,0.007962942123413,-0.0070499135181307
1783205174523704800,3.368704833984375,0.015072043056041,0.0090486911132931,-0.0588730447292327,-0.0035205883905291,0.0083548389375209,-0.0086285034194588
1783205174533641700,3.378641845703125,0.02927351382263,0.0119692547351121,-0.0705506230413913,-0.0034686559811234,0.0074184723198413,-0.0056135384365916
1783205174543578600,3.38857861328125,0.0309076908957213,0.0017886369824409,-0.0769511377334594,-0.0036468636244535,0.0050377156585454,-0.0034200600348412
1783205174553515800,3.398515869140625,0.0276771845418959,0.0054068274796009,-0.1085480530023574,0.0002477429807186,0.0005636047571897,0.0011597778648138
1783205174563452700,3.40845263671875,0.0258375480245798,0.0010635375782847,-0.1108890631705522,0.0056225550360977,0.0009316275827586,0.0022356968838721
1783205174573390800,3.418390869140625,0.0189689774293452,0.0018277999490499,-0.1112011978596448,0.0115845734253525,0.0037830742076039,0.0023523436393588
1783205174583327700,3.42832763671875,0.001784180003032,0.01191723228693,-0.0992570775657892,0.0174991078674793,0.0012868465855717,-0.0007276702672243
1783205174593265000,3.438264892578125,0.0017233166612684,0.0156166713267564,-0.1003396121054887,0.0214214101433753,-0.0006918823346495,0.0005021775141358
1783205174603201500,3.448201416015625,-1.0083002597e-05,0.0219072959035635,-0.0990203462004661,0.0269276946783065,-4.77968715131e-05,0.0030655665323138
1783205174613139700,3.4581396484375,-0.0048101036954671,0.0168853760883212,-0.0673082801192998,0.0227422714233398,0.0009903032332658,-0.0012847071047872
1783205174623076600,3.46807666015625,-0.0164481537148356,0.0076397010982036,-0.0415004696458578,0.0209083221852779,7.85337761044e-05,-0.0045501384884119
1783205174633013800,3.478013671875,-0.0013460808467119,0.0097106621533632,-0.0241430921316146,0.0183535516262054,-0.0004839259199798,-8.02888534963e-05
1783205174642950700,3.48795068359375,0.0230407569129019,0.0107402974620461,-0.0174655140638351,0.017141094431281,0.0007507042028009,-0.0005349258426576
1783205174652888800,3.497888916015625,0.0266075825490057,0.019938626179099,-0.022225275811553,0.0106576289981603,0.0011469824239611,-0.0022891499102115
1783205174662825700,3.50782568359375,0.0314904592197388,0.0164595518916845,-0.0171077866673469,0.0090956911444664,-0.0004623364657163,0.0014810427092015
1783205174672762600,3.5177626953125,0.0294127761628478,0.0139700731635093,-0.0163444010794162,0.0063925832509994,-0.0008231946267187,0.0054526152089238
1783205174682699800,3.52769970703125,0.0170792181599885,0.0156117028906941,-0.0163555069953203,0.0034902216866612,0.0074103418737649,0.0075198584236204
1783205174692637700,3.5376376953125,0.0044622401058673,0.0055205169871449,-0.0138859020113945,0.0018989834934473,0.0068148588761687,0.0064066569320857
1783205174702574800,3.547574951171875,-0.0018024463120847,0.0218511818021535,-0.0310521408677101,0.0018212450668215,0.0078309215605258,0.0061550959944725
1783205174712511700,3.55751171875,2.38923322409e-05,0.0367886386930942,-0.0486842436701059,0.0015706419944763,0.007925996556878,0.0056967660784721
1783205174722448600,3.56744873046875,-0.0052842970784753,0.0359197469040751,-0.0633259324848651,0.0040256343781948,0.0080754496157169,0.0052004223689436
1783205174732385500,3.577385498046875,-0.015270999694243,0.0383171634346246,-0.0893447553604841,0.0114023238420486,0.0039643282070755,0.0039319582283496
1783205174742323700,3.58732373046875,-0.026925489391759,0.0431128732785582,-0.1105956331819295,0.0127269802615046,0.0050788610242307,0.0009188579861074
1783205174752260600,3.597260498046875,-0.0172854082565754,0.0410796138852834,-0.1102782377958297,0.0149765526875853,0.0016558999195694,-0.0023640203289687
1783205174762197800,3.60719775390625,-0.0226533650305122,0.033612931266427,-0.106754739844799,0.0165530890226364,-0.001862536650151,-0.0035117920488119
1783205174772134700,3.617134765625,-0.0133387895226478,0.0378214888721704,-0.0820434924364089,0.0183246247470378,-0.0026676096022129,-0.0041062096133828
1783205174782072800,3.62707275390625,-0.0064939651291817,0.0296177241504192,-0.0609136106461286,0.0155179733410477,-0.0037194886244833,-0.0065224301069974
1783205174792009500,3.637009521484375,-0.0003992284506559,0.0219414904341101,-0.0501034628182649,0.0147246178239583,0.0004757894203066,-0.0037956198211759
1783205174801946600,3.646946533203125,0.012779840465635,0.0136196522906422,-0.0318248788058757,0.0146143427118659,-0.0043868776410818,-0.0045114336535334
1783205174811883800,3.6568837890625,0.0185850926782935,0.0174640527591109,-0.016661796465516,0.0123149696737527,-0.0033477125689387,-0.005475231911987
1783205174821821700,3.66682177734375,0.014972235943377,0.0147381349265575,-0.0117827922523021,0.0077236955985426,-0.0007497081533074,-0.0033401157706975
1783205174831758800,3.6767587890625,0.015528846912831,0.0090296941518783,0.0090419691115617,0.0051460219547152,0.0013235625810921,-0.0027395728975534
1783205174841695700,3.68669580078125,0.0115806207437068,0.0194999425008893,0.0055734162181615,0.0022103069350123,0.0026265054475516,-0.0004358023870736
1783205174851632600,3.696632568359375,0.020743001364544,0.0192982824489474,-0.0077893387019634,-0.002223590388894,0.0045389216393232,0.0014462536200881
1783205174861570600,3.706570556640625,0.008507643039152,0.0112988081276416,-0.0167985745877027,-0.005520268343389,0.0073958532884716,0.0042635132558643
1783205174871507700,3.7165078125,-0.003268865602836,0.0134679688602685,-0.0258960732787847,-0.0058475704863667,0.0092518106102943,0.0009012725204229
1783205174881444600,3.726444580078125,-0.0047728404249995,0.0210009947136044,-0.0544464604586362,-0.0039097350090742,0.0056552649475634,-0.0011032614856958
1783205174891381800,3.7363818359375,0.0040521980002522,0.0157271459639072,-0.0783060594737529,-0.0048852507025003,0.0013867504894733,-0.0009187043178826
1783205174901319700,3.746319580078125,0.0075234543073922,0.0250333189696073,-0.0962871218442916,0.0006568999961018,0.0002990770153701,3.16996593028e-05
1783205174911256800,3.7562568359375,0.0163399441000074,0.0161401106789708,-0.0927940190315246,-0.0021796328946948,0.0012841802090406,-0.0012740483507514
1783205174921193500,3.766193359375,0.0186865802913904,0.0142900988981127,-0.084646952933073,-0.0014970656484365,-0.0021263547241687,-0.0008515093941241
1783205174931130600,3.776130615234375,0.0120624129112809,0.0181447284996509,-0.071646017062664,-0.0010179625824093,0.0009541232138872,-0.0004581604152917
1783205174941068500,3.786068603515625,0.0143882255103439,0.0125824181973934,-0.0911351459085941,0.0081342570483684,-0.0045324303209781,0.0023885972332209
1783205174951005700,3.796005615234375,0.0085001173198223,0.0155868607103824,-0.0991255601406097,0.012875217013061,-0.0046802349388599,0.0024008478503674
1783205174960942600,3.805942626953125,-0.0150444243967533,0.0051391164541244,-0.0724994190216064,0.0111376019194722,-0.0003459728322923,-0.000834081089124
1783205174970879500,3.81587939453125,-0.0246638280700892,0.01403407831043,-0.0284796600311994,0.0077236955985426,0.0007459232583642,-0.0006258219946175
1783205174980817700,3.825817626953125,-0.0145345021132379,0.0193111419305205,-0.0318920988231897,0.0057976534590125,-0.003958623856306,-0.0017734883585944
1783205174990754300,3.83575439453125,0.0052246758457273,0.0301698050752282,-0.0324047245204448,0.0025928048416972,-0.0043176179751753,-0.0050451820716261
1783205175000691500,3.84569140625,0.0118093879982829,0.0321677008941769,-0.0212111303329467,-0.0014738989993929,-0.0074383881874382,-0.0034431365784257
1783205175010628400,3.85562841796875,0.0121246644925326,0.0206879832416772,-0.0128875386238098,-0.005425764247775,-0.0035573630593717,3.20223625749e-05
1783205175020566500,3.86556640625,0.0188619368582963,0.0259828747794032,0.0008919804036617,-0.0079615367576479,-0.0016926652751863,0.0020380991045385
1783205175030503400,3.87550341796875,0.0097554511431604,0.0199991241946816,-0.0075672203838825,-0.0095852660015225,2.72043980658e-05,-0.0002351752482354
1783205175040440600,3.885440673828125,0.01441876677908,0.0224970784902572,-0.0051356093227863,-0.0074229296296834,0.00521243782714,0.0003017915878444
1783205175050377500,3.89537744140625,0.0005771423008292,0.0317056363403797,-0.0320645327806472,-0.0060820281505584,0.0039045594166964,0.0019691968336701
1783205175060315400,3.9053154296875,0.0064375587668269,0.0175736506134271,-0.0700894352704286,-0.0022318316623568,0.0052122515626251,0.0008651642128825
1783205175070252500,3.91525244140625,-0.0106820644687861,0.0209717686191201,-0.0818839179605245,-0.000494385138154,0.0053667146712541,-0.0020262296311557
1783205175080189400,3.925189453125,-0.0094502576515078,0.0183282683730125,-0.0829033241361379,-0.0031316056847572,0.0016511287540197,-0.0010972470045089
1783205175090126600,3.935126708984375,-0.0047824119709432,0.0172477796599268,-0.076401687157154,-0.0012532789260149,0.0005730814300477,-0.0012080343440175
1783205175100064500,3.945064453125,0.0091182492181658,0.0168088037207722,-0.0761100107342004,-0.0025197220966219,-0.0025584115646779,-0.003629557788372
1783205175110001700,3.955001708984375,0.0076546794716268,0.010512918446958,-0.077878773972392,0.0043874522671103,-0.0047280886210501,-0.0021762708202004
1783205175119938300,3.964938232421875,0.0092761431936174,0.0025572832673788,-0.0917407105863094,0.0071672601625323,-0.0039126290939748,-0.0009855714160948
1783205175129876500,3.97487646484375,0.0072302435144782,0.0045724224820733,-0.0690478172630071,0.0053967903368175,-0.0033357883803546,0.000173702603206
1783205175139813400,3.9848134765625,0.0103493984483182,0.0008344049975275,-0.0431231024116277,0.0038580046966671,-0.0016669705510139,-0.0010811234824359
1783205175149750500,3.99475048828125,0.029474516287446,-0.0055284080326557,-0.023351649492979,0.0039163278415799,-0.0022592577151954,0.0031551669817417
1783205175159687400,4.0046875,0.0422436892285943,-0.0006575871258974,-0.0269838685154914,0.0025955084711313,-0.0011391667649149,0.0058334758505225
1783205175169625600,4.01462548828125,0.0409564989622682,0.0111272509530186,-0.0101893855810165,-0.0016250694170594,0.0002707107923924,0.0111528737470507
1783205175179562500,4.0245625,0.0272035756807774,0.015878537133336,-0.0109007487207651,-0.0046174405142664,3.7504360079e-06,0.0099236648529767
1783205175189499400,4.03449951171875,0.019229893387854,0.0312295432612299,-0.0243126034796237,-0.0085253631696105,0.0028274999931454,0.0082179103046655
1783205175199436500,4.0444365234375,0.0123086427573114,0.0475330278083682,-0.0514694904744625,-0.0067349262535572,0.0039873495697975,0.0044869165867567
1783205175209374500,4.05437451171875,0.0021875001069158,0.057912090742588,-0.0635281770586967,0.0009922347962856,0.0046973479911684,0.0036035466473549
1783205175219311400,4.064311279296875,-0.0111649526149034,0.046446109354496,-0.0837391904383897,-0.0012107323855161,0.0055692670866847,0.0023393437732011
1783205175229248500,4.07424853515625,-0.0313996391311287,0.0422463195770978,-0.0867231746852397,0.0015277964994311,0.0028674900531768,-0.0007912020664662
1783205175239185700,4.084185546875,-0.0475170995868742,0.0257180863633751,-0.0708095662385225,0.0023188078776001,0.0032001438084989,-0.0006082735490053
1783205175249123600,4.09412353515625,-0.0465652056895196,0.0164484459757804,-0.0903022022157907,0.0056381719186902,-0.0033128834329545,-0.0040224459953606
1783205175259060500,4.104060546875,-0.0476037549570202,0.0066340311869978,-0.0994604911834001,0.009835934266448,-0.0109691154211759,-0.010712987743318
1783205175268997400,4.113997314453125,-0.0352901437636464,-0.0192275553002953,-0.0656318713396787,0.0119938934221863,-0.0049908519722521,-0.0121612148359417
1783205175278935600,4.123935546875,0.034540713635832,-0.0227542681217193,-0.004570961177349,0.0076025170274078,0.0002422146499156,-0.0097665227949619
1783205175288872400,4.13387255859375,0.1190991845678538,-0.002872048304975,-0.0045195232510566,0.0003097169101238,0.0022273350041359,-0.0028084819205105
1783205175298809600,4.1438095703125,0.1404254657130688,-0.0339200975194573,-0.0343003290086984,-0.0091434987261891,-0.0059439376927912,0.0006960679311305
1783205175308746200,4.153746337890625,0.1000914825633168,-0.0800263073951005,-0.0016226327657699,-0.0148101719096302,-0.0016977940686047,0.010597700253129
1783205175318684400,4.163684326171875,0.1114037346944212,-0.0944148982316255,-0.0226928933233022,-0.0113542256876826,-0.0024485127069056,0.0200968850404024
1783205175328621300,4.173621337890625,0.1069708668135106,-0.0886196559563279,-0.0599234305649995,-0.0100287711247801,-0.0032003237865865,0.0262953918427228
1783205175338558500,4.183558349609375,0.083357716840133,-0.0848413064613938,-0.0653740971863269,-0.0084881754592061,0.000334910582751,0.0295792650431394
1783205175348495400,4.193495361328125,0.078140420583263,-0.0735194097191095,-0.0599666851848363,-0.0048550898209214,0.0041203275322914,0.0344645678997039
1783205175358433500,4.20343359375,0.0670611004251986,-0.0644461686864495,-0.058303720408678,-0.0037819715216755,0.0020610603969544,0.039922896772623
1783205175368370400,4.213370361328125,0.0522026270546019,-0.0528416556105017,-0.0790203452229499,0.001249804161489,0.0015705060213804,0.0444492064416408
1783205175378307300,4.223307373046875,0.0243807733450084,-0.0530801405414938,-0.0993260511487722,-0.0009498791769146,-0.0036399257369339,0.0444492250680923
1783205175388245200,4.233245361328125,-0.0158264416199177,-0.0320019889384508,-0.0739689070522785,0.0047024134546518,-0.0050617870874702,0.0488804578781127
1783205175398182400,4.243182373046875,-0.0336154885496944,-0.0092059275016188,-0.0498036030888557,0.0055513679981231,-0.0037804380990564,0.0455521382391452
1783205175408119600,4.25311962890625,-0.0580362285789102,0.0191585817173123,-0.0199012167781591,0.0061138276942074,-0.0015985104255378,0.0437126941978931
1783205175418056400,4.263056396484375,-0.0625917729914188,0.0398220150396227,-0.0093961893767118,0.0084561016410589,0.0020555360242724,0.0430263429880142
1783205175427994400,4.272994384765625,-0.0736493927743285,0.0678097999006509,0.0305482829988002,0.0113000907003879,0.0082481848075985,0.0419373773038387
1783205175437931500,4.282931640625,-0.0893261967904865,0.0899085267230868,0.0508574960559606,0.0099740102887153,0.0174661390483379,0.0371286608278751
1783205175447868400,4.292868408203125,-0.0899532426476478,0.1156096619516611,0.060366498157382,0.0067513189278542,0.0254641454666852,0.0336095578968524
1783205175457806300,4.302806396484375,-0.0832638280116021,0.1306508714780211,0.0503337644428014,0.0052581219933927,0.0300870537757873,0.0302504636347293
1783205175467743500,4.312743408203125,-0.0752634038422256,0.1660676372960209,0.0403588983952999,-0.0053737489506602,0.0235998593270778,0.0293039754033088
1783205175477680400,4.322680419921875,-0.1025428943034261,0.1863657444372773,0.0300233823418617,-0.0116556603461503,0.0220887158066034,0.0244670808315277
1783205175487617500,4.332617431640625,-0.1288322046834975,0.1948141315698623,0.0157283150076866,-0.0177849251776933,0.0150371976196765,0.0117656672373414
1783205175497555500,4.342555419921875,-0.1641794854618609,0.2007262782230973,0.0004202712386846,-0.0259964503347873,0.0146200451999902,0.0005115855019539
1783205175507492600,4.35249267578125,-0.1605626101389527,0.2034293997019529,-0.0238186824828386,-0.0300969220697879,0.0113502154126763,-0.0091213341802358
1783205175517429200,4.36242919921875,-0.1628850617371499,0.2064002322062849,-0.0306745397269725,-0.0315552875399589,0.0120223015546798,-0.02304258197546
1783205175527366400,4.372366455078125,-0.1479642637200653,0.1792427606895565,-0.0465688589513301,-0.0293184965848922,0.0058267232961952,-0.0403731055557727
1783205175537304300,4.38230419921875,-0.104237934718281,0.1478448751240968,-0.0584381604433059,-0.0311181358993053,0.0027172786649316,-0.0464120134711265
1783205175547241500,4.392241455078125,-0.0476248708102852,0.1221010697975754,-0.0865536633372306,-0.033071830868721,-0.0014180778525769,-0.0508019663393497
1783205175557178600,4.4021787109375,0.0040112814679741,0.0872229409009218,-0.0845434925585985,-0.0344629101455211,-0.002339887432754,-0.0516095981001853
1783205175567116500,4.412116455078125,0.0337995398797094,0.0431251482382416,-0.0941851811289787,-0.0312066636979579,-0.0032885046675801,-0.0448710024356842
1783205175577053400,4.422053466796875,0.0570275629930198,0.0145084178239107,-0.1020528457641601,-0.0257012210786342,0.000603063032031,-0.0474082380533218
1783205175586990300,4.431990234375,0.0648280076108872,-0.0172556707054376,-0.1345931793630123,-0.0134171219542622,0.0042641106992959,-0.0412603318691253
1783205175596927500,4.441927490234375,0.0774384828589856,-0.034797172614932,-0.176013569509983,-0.0023007281124591,0.0003406112082302,-0.0388159565627574
1783205175606865400,4.451865478515625,0.0728507897425442,-0.0405780941039323,-0.2290980939656496,0.0150329880416393,0.0038493261672556,-0.0374971590936183
1783205175616802600,4.461802490234375,0.0617896628282964,-0.0329921690195798,-0.2774976754754781,0.0329329892992973,-0.0011672638356685,-0.0397145301103591
1783205175626739500,4.471739501953125,0.0433737892370671,-0.0446501658484339,-0.3133691993236541,0.0517681986093521,-0.0013989587314426,-0.0404682084918022
1783205175636677400,4.481677490234375,0.0491745114050805,-0.0539013937965035,-0.3625187224179506,0.0757047086954116,-0.0087497169151902,-0.0426726639270782
1783205175646614500,4.491614501953125,0.0425577236138284,-0.068076341882348,-0.3924082492470741,0.0998401343822479,-0.0196060929447412,-0.0409669056534767
1783205175656551400,4.501551513671875,0.0379880045454949,-0.0908472688779234,-0.3914537250012159,0.1210171952843666,-0.0319348685443401,-0.0423463508486747
1783205175666488300,4.51148828125,0.0325274010520428,-0.0714689069300889,-0.3623118016690015,0.1414596289396286,-0.0378476195037364,-0.0425306409597396
1783205175676426500,4.521426513671875,0.045496188218519,-0.0580266570329666,-0.3288654591411352,0.1680871248245239,-0.0475091263651847,-0.0430207848548889
1783205175686363400,4.53136328125,0.0614338351279497,-0.040921792975068,-0.3071615768551826,0.1878834664821624,-0.0425428673624992,-0.0392928905785083
1783205175696300500,4.541300537109375,0.0728701520301401,-0.008388765899837,-0.2445154433280229,0.2006465494632721,-0.0367885418236255,-0.0319167003035545
1783205175706238500,4.551238525390625,0.1059975648019462,0.0035503859579563,-0.176718502908945,0.2140230685472488,-0.0326441302895545,-0.0189335234463214
1783205175716175600,4.561175537109375,0.1044086881753057,-0.0090025138840079,-0.1462824481129646,0.2146810293197631,-0.0380657613277435,-0.004983321763575
1783205175726112300,4.5711123046875,0.068262439038977,-0.007911211515963,-0.1374608437538146,0.2078779935836792,-0.0486888438463211,0.0046964706853032
1783205175736050400,4.581050537109375,0.0626717063598334,0.0547623945400118,-0.1141857666283845,0.2097929418087005,-0.0654753819108009,0.0184363927692174
1783205175745987300,4.5909873046875,0.0801329095747321,0.0948170492917299,-0.1434101075470447,0.2058573216199875,-0.0609253719449043,0.0141361868008971
1783205175755924500,4.600924560546875,-0.0793310916725546,0.065987552909553,-0.0613882424205541,0.213006854057312,-0.0599978268146514,0.0169846564531326
1783205175765861600,4.610861572265625,-0.0347176045726984,0.1184232580676674,-0.1347813954114914,0.2184759229421615,-0.0718065500259399,0.0087046232074499
1783205175775799600,4.620799560546875,-0.1146521420311182,0.1170674595445394,-0.0596551350176334,0.2168976813554763,-0.0597685575485229,-0.0102757420390844
1783205175785736400,4.630736328125,-0.1247822717055678,0.1086667109459638,-0.0021101240217685,0.2128337025642395,-0.0622972324490547,-0.0208948291838169
1783205175795673300,4.64067333984375,-0.109956385430321,0.1112459137842059,0.0526589925199747,0.1963974386453628,-0.0670551657676696,-0.031212355941534
1783205175805611300,4.650611328125,-0.0576461332827806,0.0896414002195,0.1222124212175607,0.1773654222488403,-0.0690328255295753,-0.0388079583644866
1783205175815548400,4.66054833984375,-0.0075295187219977,0.0783066439956426,0.2050958716094493,0.1478186398744583,-0.0655835345387458,-0.0405302867293357
1783205175825485600,4.670485595703125,0.0398828053161501,0.0673252312541008,0.3082020258188248,0.1171427518129348,-0.0560550168156623,-0.0395592972636222
1783205175835422500,4.68042236328125,0.1152978925887495,0.0532175031855702,0.3855740193128585,0.0863541960716247,-0.0372361540794372,-0.0321496501564979
1783205175845360600,4.690360595703125,0.1687804033860564,0.03590133446455,0.4257815265387296,0.0584389492869377,-0.0220707822591066,-0.0195430442690849
1783205175855297500,4.700297607421875,0.1730392298743128,0.0099202132508158,0.4583434874475002,0.0293024461716413,-0.0035631437785923,-0.006330331787467
1783205175865234400,4.710234375,0.121680871624127,-0.0102680037751793,0.4724573529958725,0.0093356622382998,0.0218655169010162,-0.0019028265960514
1783205175875172400,4.72017236328125,0.0982221084948629,-0.0431985057353973,0.439859736251831,-0.013257797807455,0.0374490059912204,0.0119195124134421
1783205175885109500,4.730109619140625,0.1140116521704942,-0.0560392826080322,0.3811614635676145,-0.0398140400648117,0.0443202257156372,0.0257900543510913
1783205175895046400,4.74004638671875,0.0891503287669271,-0.0325379955112934,0.3335679377436638,-0.0707926079630851,0.0443840734660625,0.0375694036483764
1783205175904984600,4.749984619140625,0.0653103843003511,-0.0246446119129657,0.2917851440250873,-0.101056769490242,0.0503663346171379,0.0445902980864048
1783205175914921500,4.75992138671875,0.0311895765770226,-0.0144520114615559,0.2454465866982936,-0.122997872531414,0.0536596663296222,0.0474404878914356
1783205175924858600,4.769858642578125,0.0088794720262289,0.0045142625540494,0.1569154858082533,-0.1348353624343872,0.0571798346936702,0.0492644868791103
1783205175934795300,4.779795166015625,-0.010630042020604,0.0230173029720783,0.0683726944804191,-0.1396086364984512,0.0580213516950607,0.0464878119528293
1783205175944733400,4.7897333984375,-0.0429660121537745,0.0293763166099786,0.0225561152011156,-0.1412539333105087,0.060499157756567,0.0410813316702842
1783205175954670300,4.79967041015625,-0.077810823302716,0.0257791689008474,0.0084656305283308,-0.1405781656503677,0.0640018507838249,0.034109566360712
1783205175964607000,4.80960693359375,-0.0977075831014663,-0.0015831775382161,0.0089957918822765,-0.140838623046875,0.0708714723587036,0.0252540223300457
1783205175974545000,4.819544921875,-0.0784887956295162,-0.0027267946153879,0.019761516046524,-0.1402297616004943,0.0739433467388153,0.020594161003828
1783205175984482000,4.82948193359375,-0.0476829576730728,0.0185813663512468,0.0123339963942766,-0.1439856141805648,0.0778062641620636,0.0103985145688056
1783205175994419200,4.839419189453125,-0.0288857566140592,0.0070420274659991,-0.0347656084328889,-0.1439630985260009,0.0804616212844848,0.0122698731720447
1783205176004357000,4.849357177734375,-0.01608092783764,0.0021826047360897,-0.1005769279927015,-0.1421193927526474,0.0785747691988945,0.0079241283237934
1783205176014294300,4.859294189453125,-0.0030598259620368,-0.0051148587957024,-0.1770721386522054,-0.1335541754961013,0.0710943862795829,0.0078281452879309
1783205176024231200,4.869231201171875,0.0159735950056463,-0.0169300920128822,-0.2243447619587182,-0.1282350420951843,0.0627496317028999,0.0053546009585261
1783205176034169000,4.879169189453125,0.0293869110692292,-0.0178156426757574,-0.243991127192974,-0.1191187649965286,0.0551853775978088,0.0105993337929248
1783205176044106000,4.88910595703125,0.0270908360213041,-0.0061485857576131,-0.2671463773310184,-0.108476772904396,0.0476153455674648,0.0088890520855784
1783205176054043100,4.899043212890625,0.0051928194027394,-0.0342775326550006,-0.2940548425227403,-0.0952299535274505,0.0401210151612758,0.008599130436778
1783205176063980000,4.90897998046875,-0.0241072171006351,-0.0555564675271511,-0.332851313906908,-0.0746695473790168,0.0290915369987487,0.0075192181393504
1783205176073918200,4.918918212890625,-0.0247437614385038,-0.0490001777514815,-0.3546715160489082,-0.0563310533761978,0.0189668945968151,0.0063598342239856
1783205176083855000,4.928855224609375,-0.0160392806529998,-0.0414554614603519,-0.366609791123867,-0.0365237966179847,0.0136946346610784,0.0042207827791571
1783205176093792000,4.9387919921875,-0.0002473258245736,-0.0240837631598114,-0.3354986135452985,-0.0139263113960623,0.0082040969282388,0.0078526455909013
1783205176103730000,4.94872998046875,0.0100390903901308,-0.0148158763378858,-0.3187900553286075,-8.10697674751e-05,0.0005901199765503,0.007330666296184
1783205176113667000,4.9586669921875,0.0107221772834658,-0.0062748424857854,-0.2789882062941789,0.0141574926674366,-0.0037099597975611,0.0062476666644215
1783205176123604000,4.96860400390625,-0.0070144818719476,0.0146861124783754,-0.2176151614427566,0.0212907698005437,-0.0063661960884928,0.0046441769227385
1783205176133542100,4.978542236328125,-0.0096230569351464,0.0153179806411266,-0.1601701036900281,0.0262256823480129,-0.0085314437747001,0.0012379006948322
1783205176143479000,4.98847900390625,-0.0023692133493721,0.0300417947813868,-0.0940887350171804,0.0253969058394432,-0.012183703482151,0.0006674516480416
1783205176153416200,4.998416259765625,0.010388853675872,0.0396805607423186,-0.0442512296587228,0.0265700295567512,-0.0095310062170028,-0.0032581449486315
1783205176163354000,5.00835400390625,0.0202774296794086,0.0366401701331138,0.0157119483947753,0.0206785835325717,-0.0020339414477348,-0.0045045046135783
1783205176173291000,5.018291015625,0.0399436686579138,0.0293517666906118,0.0585614945620298,0.0117978947237133,0.0016799089498817,-0.0012329972814768
1783205176183228000,5.028227783203125,0.053034109442681,0.0289230198845267,0.0830681593090295,-0.0040055690333247,0.0030607578810304,0.0036563002504408
1783205176193166000,5.038166015625,0.0515322535123676,0.0169078801810741,0.1013812301129102,-0.0151351876556873,0.0070410785265266,0.0050437580794095
1783205176203103000,5.04810302734375,0.0419305316261947,0.0067725628748536,0.104406715413928,-0.029316522181034,0.0040753823705017,0.0053430972620844
1783205176213040000,5.0580400390625,0.0415546840511262,0.0118581955760717,0.0724941583245992,-0.0383860655128955,0.0067904819734394,0.0126369809731841
1783205176222977300,5.067977294921875,0.0258117559961974,0.0163628135189414,0.0443377388983964,-0.0419339276850223,0.0077835745178163,0.0116036739200353
1783205176232915200,5.077915283203125,0.0044702772818505,0.0331026436567306,0.02109305691123,-0.0412295311689376,0.0147780217230319,0.0101665332913398
1783205176242852000,5.08785205078125,-0.0122075204703956,0.0286585237294435,-0.0277998610734939,-0.0420966558158397,0.0152600537985563,0.0068812579847872
1783205176252789000,5.0977890625,-0.0295283653665333,0.0398076942533254,-0.0606768792808055,-0.0400157682597637,0.0136492196470499,0.0029420405626296
1783205176262727000,5.107726806640625,-0.0403757764648646,0.04931991122514,-0.0952595323622226,-0.0402173697948455,0.0107077583670616,-0.001270015258342
1783205176272664000,5.1176640625,-0.0469580774646252,0.0588970101267099,-0.1309235509395599,-0.0324670858681201,0.0046863611787557,-0.0024998288135975
1783205176282601200,5.127601318359375,-0.0484823644224554,0.0428001540675759,-0.1593295612126588,-0.0219931378960609,-3.35592776536e-05,-0.0055568711832165
1783205176292539100,5.1375390625,-0.0249024591315537,0.0436103014066815,-0.1789788490563631,-0.0146089978516101,-0.0032900031656026,-0.0080929789692163
1783205176302476300,5.147476318359375,-0.0227232153963297,0.0596267857059836,-0.1592126568347215,-0.0051356013864278,-0.0041147843003273,-0.0117558911442756
1783205176312413000,5.157412841796875,-0.0260629542782902,0.0500149077519774,-0.1316027653753757,0.0027490817010402,0.0002869386225938,-0.0138085857033729
1783205176322351000,5.16735107421875,-0.0140953800436109,0.0446443206295371,-0.1183510696142911,0.0102930180728435,0.0010222373530268,-0.0147574702277779
1783205176332288000,5.1772880859375,-0.0090341511312872,0.0358794148936867,-0.1096317565858364,0.0139307668432593,-0.0019384492188692,-0.0117572210729122
1783205176342225200,5.18722509765625,-0.0098965401142835,0.0111941787093877,-0.0788192696928977,0.0157973766326904,-0.0002888869494199,-0.0108882319182157
1783205176352163000,5.1971630859375,-0.0036116146259009,0.0082598788231611,-0.0523719922721385,0.0154289994388818,-0.0030625774525105,-0.0111670410260558
1783205176362100200,5.207100341796875,0.0140001760408282,0.0088835636794567,-0.0338724589854478,0.0121818073093891,0.0009454800747334,-0.008510005660355
1783205176372037000,5.217037109375,0.0181566381331533,0.0147901573747396,0.0057522799164056,0.008541876450181,0.0023560202680528,-0.0110566616058349
1783205176381975300,5.226975341796875,0.0243340846590697,0.0289241889283061,0.0154857384234666,0.0029321936890482,0.0021472284570336,-0.0064680352807044
1783205176391912000,5.236911865234375,0.0401472284059971,0.027807167597115,0.0131681091308593,-0.004340985789895,0.0062628937885165,-0.0052847983315587
1783205176401849000,5.24684912109375,0.0370108300764113,0.0356149187386035,0.0021358429849147,-0.0059071909636259,0.008630177937448,-0.0044560227543115
1783205176411787000,5.256787109375,0.0346832639116793,0.0466425087094306,-0.0034516017585992,-0.0100383535027503,0.0094418209046125,-0.0058473320677876
1783205176421724200,5.26672412109375,0.0033621699094772,0.0520832384586334,-0.0107429278105497,-0.0107193235307931,0.0054811681620776,-0.0057884762063622
1783205176431661000,5.2766611328125,-0.0144808722298592,0.0442260952174663,-0.0436556018531322,-0.0106282923370599,0.0078272670507431,-0.011971965432167
1783205176441599200,5.28659912109375,-0.0213749425925314,0.0350607919871807,-0.0757470226407051,-0.0087819211184978,0.00409910781309,-0.0154188945889472
1783205176451536100,5.2965361328125,-0.025339243113622,0.0201236273571848,-0.0967038859516382,-0.0051568709313869,0.0020089522004127,-0.0192145444452762
1783205176461473000,5.30647314453125,-0.0110513361725956,0.0168272161602973,-0.0959042600065469,-0.0034798793494701,-0.0003775064833462,-0.0171226300299167
1783205176471411000,5.316410888671875,-0.0013709230270236,0.0154746325075626,-0.0807370860129594,-0.0043712854385375,0.0003193356096744,-0.0150263030081987
1783205176481348000,5.32634814453125,0.0258021113850176,-0.0022632687568664,-0.0903834507584571,-0.0029267873615026,-0.0003973208367824,-0.0185366161167621
1783205176491285000,5.336284912109375,0.0435925465542823,-0.0095589787229895,-0.0927419965833425,-3.7201680243e-05,-0.003025178797543,-0.0101538877934217
1783205176501222100,5.34622216796875,0.045617476510629,-0.0134662152945995,-0.0873813463330268,0.0053064310923218,0.0006776805967092,-0.0092502767220139
1783205176511160000,5.35616015625,0.0411433267712593,-0.0020087094739079,-0.0873556273698806,0.0107302954420447,0.0009742183610796,-0.0090019460767507
1783205176521097200,5.36609716796875,0.0301969122778624,0.0030669863551855,-0.0726291828811168,0.0119148697704076,0.0051018516533076,-0.00833136215806
1783205176531034000,5.3760341796875,0.0173820004988461,0.004707154777646,-0.076606854340434,0.0150042762979865,0.0026541291736066,-0.0089441761374473
1783205176540972000,5.385971923828125,-0.0004309387631714,-0.001475040988624,-0.087718615463376,0.0178109817206859,0.0032117951195687,-0.0094831995666027
1783205176550909000,5.395908935546875,-0.0067822805512696,0.0086509239673614,-0.069885437130928,0.0158348120748996,0.001783883664757,-0.0116392131894826
1783205176560846000,5.40584619140625,-0.013457374401018,0.0206482357531785,-0.0508721091032028,0.0152065716683864,-0.0022936821915209,-0.0094002932310104
1783205176570784000,5.415783935546875,-0.0051018531836569,0.0162432787925004,-0.0322428119570016,0.0108219794929027,-0.0002270056866109,-0.0140181528404355
1783205176580721200,5.42572119140625,-0.0156216397628188,0.0251797417029738,-0.0114887777417898,0.0085401833057403,0.0011530444025993,-0.0142304068431258
1783205176590658300,5.435658203125,-0.004737988307327,0.0350479325056076,-0.005214519777894,0.0055733402259647,6.73690810799e-05,-0.0133663853630423
1783205176600596200,5.44559619140625,0.0206130183093249,0.030938451360166,-0.0169283384472131,-0.0006840229034423,0.0026229384820908,-0.0157802738249301
1783205176610533000,5.455533203125,0.0372008727557957,0.0342766558721661,-0.0118535194009542,-0.0014742529019713,0.0018651415593922,-0.0132288224995136
1783205176620470000,5.465469970703125,0.0407501627352088,0.0237052852362394,-0.0129126730650663,0.0004373639822006,0.00400206213817,-0.0156802628189325
1783205176630408000,5.475407958984375,0.039672742762044,0.0076546064063906,-0.0197995099693536,-0.0027227066457271,0.0072767487727105,-0.0075522335246205
1783205176640345000,5.485344970703125,0.0180211751852184,-0.0020423194825649,-0.0350385801553726,-0.0010041696950793,0.0089761111885309,-0.0055308942683041
1783205176650282200,5.4952822265625,0.0026077713456004,-0.0108592476665973,-0.0472545031279325,-0.0006897989660501,0.0075605846941471,-0.0047613135538995
1783205176660220200,5.50522021484375,0.0086462477922439,0.0094607790455222,-0.0687017803043127,0.0009994441643357,0.0093379784375429,-0.005999150685966
1783205176670157300,5.5151572265625,0.001011295934394,0.0307321151331067,-0.0957365022242069,0.0061958129517734,0.0048388494178652,-0.0053040571510791
1783205176680094000,5.525093994140625,-0.0071730334345251,0.0256277777314186,-0.1021259110003709,0.0092738941311836,0.003713930491358,-0.0087195616215467
1783205176690032000,5.5350322265625,-0.008065086903423,0.0301917246460914,-0.1065250227421522,0.0127949677407741,0.0016099857166409,-0.0124925002455711
1783205176699969000,5.544968994140625,-0.0089578710246831,0.0290624283552169,-0.118211368882656,0.0148943373933434,0.0017889500595629,-0.015149270184338
1783205176709906200,5.55490625,-0.0108333095077425,0.013349603177607,-0.0960796165734529,0.0205269549041986,0.0032148954924196,-0.0174104571342468
1783205176719844000,5.564843994140625,0.0062773267038166,-0.0037476620957255,-0.0826110631912946,0.0224697310477495,0.001207404769957,-0.015967022627592
1783205176729781200,5.57478125,0.0226884363438934,-0.0064057753890752,-0.0727940180540084,0.0252833478152751,0.0036811712197959,-0.0132975224405527
1783205176739718100,5.58471826171875,0.0427629638623446,-0.0126575292602181,-0.0662362669736146,0.0251805484294891,0.0023669011425226,-0.0099901426583528
1783205176749656000,5.594656005859375,0.0586442044094204,-0.0136202368125319,-0.0471060345679521,0.0275779739022254,0.0038421067874878,-0.0051412545144557
1783205176759593000,5.604593017578125,0.0587393353469669,-0.0106134562119841,-0.0424403808444738,0.02897559851408,0.0065689170733094,-0.0025137797929346
1783205176769530000,5.614530029296875,0.0444548624720424,-0.0193134800180792,-0.0227852477818727,0.028899585828185,0.0091983145102858,-0.0028308893088251
1783205176779468000,5.624468017578125,0.0297689691893756,-0.0209448806121945,-0.0124894792169332,0.0262462776154279,0.0130423214286565,-0.0007381772156804
1783205176789405200,5.6344052734375,0.0345205476306378,0.0085588617697358,-0.0156365450710058,0.0258335545659065,0.014056047424674,0.0044852034188807
1783205176799342000,5.644342041015625,0.0309492650151252,0.0245560568466782,-0.009638181439042,0.0217192396521568,0.0119300466030836,0.0025951578281819
1783205176809280300,5.6542802734375,0.0209214266713708,0.0358040115699172,-0.0175765732228755,0.0216364599764347,0.0171395353972911,0.0037960477638989
1783205176819217000,5.664216796875,0.0065001756742596,0.0502726819053292,-0.0299579158902168,0.0142874671146273,0.0141802318394184,0.0008069158066064
1783205176829154000,5.674154052734375,0.0026085750631988,0.053984395904839,-0.0332031814217567,0.0127462288364768,0.0136336497962474,-0.0015716343186795
1783205176839092000,5.684092041015625,-0.0114260877691209,0.054390930879116,-0.0477706359565258,0.0084966225549578,0.0100612863898277,-0.0065133962780237
1783205176849029000,5.694029052734375,-0.0122485831331461,0.0485331447616219,-0.0698433515548706,0.0110373655334115,0.0069551216438412,-0.0102589987218379
1783205176858966000,5.703966064453125,-0.0130777274336665,0.0454272877007722,-0.08537994338274,0.01116359885782,0.0033745015971362,-0.011478460393846
1783205176868904200,5.713904296875,-0.0188553609870374,0.025093524724245,-0.0772527510285377,0.0129848290234804,0.0016749207861721,-0.0128555418923497
1783205176878841000,5.723841064453125,-0.016854469493404,0.0133092711672186,-0.0944862099021673,0.0180184692144393,0.0012277760542929,-0.0175309870392084
1783205176888778000,5.733778076171875,-0.0010547697499394,-0.0061363107979297,-0.0866273130953311,0.0186780802905559,0.000906488392502,-0.0107807870954275
1783205176898716000,5.7437158203125,0.0111678021591156,-0.0033507717326283,-0.0619762714415788,0.0217034295201301,0.0031315595842897,-0.0109099503606557
1783205176908653000,5.753653076171875,0.0126844903323799,-0.0009127309307456,-0.0581897386401891,0.0226867571473121,0.0018424959853291,-0.0114637119695544
1783205176918590000,5.76358984375,0.0243699596900492,-0.0122132926240563,-0.0540390487015247,0.026025827974081,0.0023530239704996,-0.0090540843084454
1783205176928528100,5.773528076171875,0.0168733933895826,-0.0242836696460843,-0.0419657490700483,0.0291879773139953,0.004984853323549,-0.0044121034443378
1783205176938465000,5.783465087890625,0.0274878725148737,-0.0171025259703397,-0.0422504112303257,0.0296178124845027,0.0096882618963718,-0.0019726478494703
1783205176948403200,5.7934033203125,0.0343742710277438,-0.0234711842194199,-0.0297924961954355,0.0321330204606056,0.0141418352723121,0.0006553290877491
1783205176958340000,5.803340087890625,0.0342730026103556,-0.0250906021147966,-0.0109539402127265,0.0367602631449699,0.0177650656551122,0.004315311089158
1783205176968277500,5.813277587890625,0.0115437227994203,-0.0054673254951834,-0.0215337864160537,0.0363456979393959,0.0221994165331125,0.0058489413931965
1783205176978215400,5.82321533203125,0.0097653149500489,0.0097565471217036,-0.0261807354390621,0.0380083099007606,0.0244034491479396,0.0049514565616846
1783205176988152600,5.833152587890625,0.0149602532446384,0.0220566412463784,-0.0287444484472274,0.0379209890961647,0.0252618473023176,0.0068383668549358
1783205176998089500,5.84308935546875,0.0143424136072397,0.0322965879708528,-0.0259229612857103,0.0367851480841636,0.0260916873812675,0.0040023666806519
1783205177008027600,5.853027587890625,0.0003753361184149,0.0474471030905842,-0.0362017787158489,0.0325355306267738,0.023243673145771,0.0017256143037229
1783205177017964300,5.86296435546875,-0.0112334147412329,0.0478939700752496,-0.0498725766718387,0.029011370614171,0.0186800807714462,-0.0014960116241127
1783205177027901400,5.8729013671875,-0.0224636146120727,0.038333237786591,-0.0343511824131011,0.0246410146355628,0.017318719998002,-0.0006456251721829
1783205177037839400,5.88283935546875,-0.0151660780150443,0.0370364759743213,-0.0471270773559808,0.0220420360565185,0.013756476342678,-0.0047692637890577
1783205177047776500,5.892776611328125,-0.0191251909043639,0.0349789589226245,-0.0528606525719165,0.0191939640790224,0.0105772875249385,-0.0074222134426236
1783205177057713400,5.90271337890625,-0.0053557548794895,0.0410018724739551,-0.0520581040173769,0.0173433348536491,0.008969803340733,-0.0074536390602588
1783205177067651600,5.912651611328125,0.0046446840006858,0.0512491257220506,-0.043874213039875,0.0155653189867734,0.0111968452110886,-0.0046811904758214
1783205177077588500,5.92258837890625,0.0199265704151242,0.0568587822973728,-0.0377297189354896,0.0105236880481243,0.0134251117706298,-0.0061187651008367
1783205177087525400,5.932525390625,0.0051698038533329,0.0588572626382112,-0.0474509024828672,0.0118780191987752,0.011826092377305,-0.0105226133018732
1783205177097463300,5.94246337890625,-0.0021606851652264,0.0569400308400392,-0.0627186142414808,0.0144346533343195,0.0113595053553581,-0.0098592191934585
1783205177107400400,5.952400390625,-0.0095155779726803,0.0611643705368041,-0.0825157861232757,0.0190302673727273,0.0133762024343013,-0.0142772682011127
1783205177117337300,5.96233740234375,-0.0136529700383543,0.0478323030158877,-0.0728852034687995,0.0190347954630851,0.0123631358146667,-0.017063733190298
1783205177127275500,5.972275634765625,-0.021024083328247,0.0404205654546618,-0.0587988104492425,0.0162535086274147,0.013850200921297,-0.0158965066075325
1783205177137212400,5.98221240234375,-0.0232099759999662,0.0423629316940903,-0.0609451748281717,0.0181297063827514,0.0073853782378137,-0.020064353942871
1783205177147149600,5.992149658203125,-0.0190595052570104,0.0437017790824174,-0.0604044920802116,0.0166517402976751,0.0031346138566732,-0.0180843845009803
1783205177157087500,6.00208740234375,-0.0042922173012048,0.0319505510121583,-0.0468576127648353,0.0165590625256299,0.0028187627904117,-0.0227305348962545
1783205177167024400,6.0120244140625,0.0007044950075447,0.0267892227262258,-0.0372831442117691,0.0113732647150754,0.0026124471332877,-0.0196281354874372
1783205177176961500,6.02196142578125,0.0164877550728619,0.0132020114004611,-0.0237543850749731,0.0066291089169681,0.0049373866058886,-0.0200832691043615
1783205177186899500,6.0318994140625,0.0272306828834116,0.00304915843755,-0.0085515552461147,0.0065072271972894,0.0032933382317423,-0.0182236675173044
1783205177196836400,6.04183642578125,0.0358618792369961,-0.0088461542785167,-0.0064987143695354,0.004240876995027,0.0059676845557987,-0.0155666321516036
1783205177206774500,6.0517744140625,0.0293162569858133,0.0022153379619121,-0.0017108955711126,0.0012468332424759,0.0092234425246715,-0.0140027869492769
1783205177216711400,6.06171142578125,0.0143820880305022,-0.006747428433597,0.005341361027956,-0.0029215468093752,0.0102876424789428,-0.016338912770152
1783205177226648600,6.071648681640625,0.0217902453951537,-0.0005374678775668,-0.0180956286609172,-0.0038742776960134,0.0126157961785793,-0.0128839686512947
1783205177236586500,6.08158642578125,0.0236089852549135,0.0029068273574113,-0.0286953486084938,-0.0048953332006931,0.0134214023128151,-0.015690142288804
1783205177246523400,6.0915234375,0.012978431777656,0.0022124153524637,-0.0405465299218893,-0.0079713445156812,0.0159773789346218,-0.0124489301815629
1783205177256460500,6.10146044921875,0.0084535016991198,-0.0054693713217973,-0.0584784924536943,-0.0077076908200979,0.008749826811254,-0.0126992678269743
1783205177266398500,6.1113984375,0.0171718648795038,-0.0004021510601043,-0.0821837776899337,-0.0027286447584629,0.0048477766104042,-0.0139445541426539
1783205177276335400,6.12133544921875,0.0246460001524537,-0.0076192428320646,-0.0832195504784584,-0.0013901405036449,0.0066267680376768,-0.0116523718461394
1783205177286272500,6.1312724609375,0.0396601755414158,-0.0039691958919167,-0.0806534993827342,-0.0009781252592802,0.0064880894497036,-0.010231508873403
1783205177296210400,6.14121044921875,0.0353710269801318,0.0005126256972551,-0.0713537561178207,-0.0022963900119066,0.0111875031143426,-0.0070575531572103
1783205177306147300,6.151147216796875,0.0270625597748905,-0.0099631756097078,-0.0757610511660575,0.0016179289668798,0.0101126413792371,-0.0065116113983094
1783205177316084500,6.16108447265625,0.0188482736591249,-0.0008189151674509,-0.0822083276093006,0.0031588338315486,0.0101200984790921,-0.0098149962723255
1783205177326022400,6.1710224609375,-0.0050893590282648,0.0134822896465659,-0.0762608173817396,0.0056603364646434,0.00564706325531,-0.0084285493940114
1783205177335959600,6.18095947265625,-0.0019998685803264,0.0219134333834052,-0.0742331109464168,0.0074497140012681,0.0041477037593722,-0.0117127588018774
1783205177345896400,6.190896484375,-0.0106998193211853,0.0308873056948184,-0.0526350271224975,0.0059709846973419,0.0053298394195735,-0.0119146620854735
1783205177355834400,6.20083447265625,-0.0084170421462506,0.0384402052924037,-0.0434627096295356,0.0042620347812771,0.0065706060267984,-0.0161197930574417
1783205177365771500,6.210771484375,-0.0002291325807571,0.0325233824640512,-0.0484206242978572,0.0035676006227731,0.0016764844767749,-0.016555517911911
1783205177375708400,6.22070849609375,-0.0150917706698179,0.0257674784630537,-0.0381739555716514,0.0006335955113172,0.0043654777109622,-0.0194911193102598
1783205177385646300,6.230646240234375,-0.0142279203820973,0.0271609786480665,-0.0386743063092231,0.0022255452349781,0.001489077694714,-0.0232194624841213
1783205177395583500,6.24058349609375,-0.0058788289055228,0.0264332488954067,-0.0439963781148195,0.0015222039073705,-0.0014646342024207,-0.0255420040339231
1783205177405521400,6.250521484375,-0.003915931334719,0.0182443894818425,-0.0464735818833112,-0.000116872601211,0.0020510063041001,-0.0271902494132518
1783205177415458600,6.26045849609375,0.0159925919670611,0.0096843586683273,-0.046613867136836,0.0007763523608446,0.0030132064130157,-0.0281125009059906
1783205177425395500,6.2703955078125,0.036786154475063,-0.0027142273947596,-0.0416080216735601,-0.0028391424566507,0.0014168983325362,-0.0217659249901771
1783205177435333400,6.28033349609375,0.0532408840611577,-0.0072159227281808,-0.0613747984170913,-0.0043446272611618,0.001330345403403,-0.0199493840336799
1783205177445270500,6.2902705078125,0.0547539189726114,-0.0211216984838247,-0.0479956768840551,-0.0050444416701793,0.0017746738158166,-0.017839778214693
1783205177455207400,6.30020751953125,0.0526917988110333,-0.0313207286760211,-0.0470072503685951,-0.0030116513371467,0.0033278295304626,-0.0104068964719772
1783205177465145300,6.310145263671875,0.0419547892846167,-0.0351861719325184,-0.0609101035147905,-0.0018730899319052,0.0016227192245423,-0.0081367027014493
1783205177475082500,6.32008251953125,0.030421368683502,-0.0220604406386613,-0.0693617055177688,-0.0001550847664475,0.0044667087495327,-0.0079928915947675
1783205177485019400,6.330019287109375,0.0135060358483344,-0.025440438465774,-0.0676543170779943,0.0046273143962025,0.0058890148065984,-0.0088702384382486
1783205177494957600,6.33995751953125,0.0112238431952893,-0.018890578430891,-0.0704740506738424,0.0071605131961405,0.0055984640493988,-0.0106694707646965
1783205177504894500,6.34989453125,0.0105573421105742,0.0023334113836288,-0.0619359394311904,0.0062124035321176,0.0074604861438274,-0.0068132737651467
1783205177514831600,6.35983154296875,0.0097868691947311,0.0080211016312241,-0.0659136108905076,0.0053745731711387,0.0066524832509458,-0.007443644106388
1783205177524769500,6.36976953125,-0.0006729308255016,0.0024152444481849,-0.0616541998803615,0.008128847926855,0.0006076251156628,-0.0111957788467407
1783205177534706400,6.37970654296875,0.0022973902221769,0.0023123685956001,-0.0682493603616952,0.0070132492110133,-0.0011913403868675,-0.0086577869951725
1783205177544644400,6.389644287109375,0.0107119481503963,0.0136769354358315,-0.0614168839931488,0.0057980082929134,-0.0006611570715904,-0.0119971800595521
1783205177554581500,6.39958154296875,0.0262158798176795,0.0003694178342819,-0.0433633409082889,0.0042826700955629,-0.0018414701335132,-0.0119116930291056
1783205177564518400,6.409518310546875,0.0252015882086008,0.004013327294588,-0.0280488673985004,0.0024858610704541,0.0024132567923516,-0.0096106613054871
1783205177574456600,6.41945654296875,0.0230758282262831,-0.0144423668503761,-0.0191577049344778,0.0004410864785313,0.0042692134156823,-0.010766739025712
1783205177584393500,6.4293935546875,0.0196538909535855,-0.0264110370635986,-0.0339993002355098,-0.0005154432728886,0.0048927646130323,-0.0106758140027523
1783205177594330600,6.43933056640625,0.0228684690859168,-0.0272279064044356,-0.0418131888568401,-0.0034433230757713,6.2855426222e-05,-0.0089855063706636
1783205177604268500,6.4492685546875,0.0431895917765796,-0.0281730783000588,-0.0543470917373895,-0.0028509870171546,0.0050322460010647,-0.0065964618697762
1783205177614205400,6.459205322265625,0.0546611261226236,-0.0344043739050626,-0.0565671058744192,-0.0047556795179843,0.0027709561400115,-0.002979090437293
1783205177624142300,6.469142333984375,0.0668077832512557,-0.0162245740920305,-0.0471545498847961,-0.0052718855440616,0.0066027282737195,0.0008090124465525
1783205177634080500,6.47908056640625,0.0608978285551071,-0.0054597267106175,-0.0611006576508283,-0.0028140544891357,0.0042223948985338,0.0032591205090284
1783205177644017400,6.489017333984375,0.0400487364675849,-0.017488018156588,-0.0839163005709648,-0.0022590933367609,0.0021400162950158,0.0055784117430448
1783205177653954600,6.49895458984375,0.0232324070274829,-0.0090516137227416,-0.0753624072372913,0.0023894542828202,0.0024305672850459,0.003767994698137
1783205177663892500,6.508892578125,0.0108094902407377,-0.0146361358568072,-0.080294018420577,0.0040962314233183,0.003053959691897,0.0027546056080609
1783205177673829600,6.51882958984375,-0.0060710635419934,-0.0099187519460916,-0.0922352161049842,0.0076129357330501,-0.0006254636682569,0.000777741195634
1783205177683767600,6.528767578125,-0.0093735391534864,0.0039227264016866,-0.0695756405293941,0.0091305244714021,0.0017040381208062,0.0023370541166514
1783205177693704400,6.538704345703125,0.0045911271825432,0.0162841953247785,-0.0775415048420429,0.0143963936716318,0.0026816844474524,0.002123735146597
1783205177703641300,6.548641357421875,0.0181846951838582,0.0169607794120907,-0.0582148730814456,0.0125290537253022,0.00033202720806,0.0039485869929194
1783205177713579500,6.55857958984375,0.0111475630886852,0.0055959203109145,-0.04407002787292,0.0124893728643655,0.0023054294288158,0.0064937695860862
1783205177723516400,6.568516357421875,0.0106316494558006,0.0263718740969896,-0.0333843832075595,0.0095232781022787,0.0038931670133024,0.0074399565346539
1783205177733453600,6.57845361328125,0.0063767684902995,0.0345493353337049,-0.029278701454401,0.0092412494122982,0.0012057712301611,0.004442302044481
1783205177743391500,6.5883916015625,0.0091624536860734,0.038676352135837,-0.0153933839648962,0.0045436108484864,0.0046929358504712,0.0053741550073027
1783205177753328600,6.59832861328125,-0.0146259067237377,0.0383133640423417,-0.0039805940687656,-0.0021513095125555,0.005790158174932,-0.0008195589762181
1783205177763265300,6.608265380859375,-0.0230411953043192,0.0366103595167398,-0.0051367783665657,-0.0046540442854166,0.0056768213398754,-0.0003605808597058
1783205177773203500,6.618203369140625,-0.0212735280446708,0.0381242712110281,-0.0181797998130321,-0.0050985254347324,0.0027018042746931,-0.0031694169156253
1783205177783140400,6.628140380859375,-0.0144031308185309,0.0346335064858198,-0.0336409883171319,-0.0070894667878746,0.0051172780804336,-0.0046014059334993
1783205177793078500,6.63807861328125,-0.0186519473694264,0.0251642518728971,-0.048394905334711,-0.0058471010997891,0.002519897185266,-0.0062171453610062
1783205177803015400,6.648015380859375,-0.0051129590995609,0.0317637962684035,-0.0464244820445775,-0.007845165207982,0.0023516283836215,-0.0060053872875869
1783205177812952600,6.65795263671875,0.014788549939543,0.0338338805407285,-0.0628121377438306,-0.0024429429322481,0.0022128776181489,-0.0043278620578348
1783205177822890500,6.667890380859375,0.0133902274489402,0.0300903100982308,-0.0782598822444677,-0.00159184448421,0.0015120799653232,-0.0059905927628278
1783205177832827600,6.67782763671875,0.0019355711724609,0.022577742511034,-0.0863046570122241,6.06467947363e-05,0.0025112978182733,-0.0045223920606076
1783205177842764300,6.687764404296875,-0.0112014852330088,0.012805121037364,-0.1107744968801736,0.006508273538202,-0.001706713810563,-0.0042108963243663
1783205177852702500,6.697702392578125,0.0017185674209147,0.0076475921437144,-0.1206523322939872,0.0137384897097945,-0.0037245913408696,-0.0041933194734156
1783205177862639400,6.707639404296875,-0.0040888036835938,0.0102656656876206,-0.0707347474366426,0.0110950879752635,0.0015421970747411,-0.0027630811091512
1783205177872576500,6.717576416015625,0.0014100129283964,0.0180269473388791,-0.0397439813673496,0.0098780235275626,0.000119803007692,-0.0051008039154112
1783205177882514400,6.727514404296875,0.0276969852209091,0.0383045962139964,-0.0260901345461606,0.0033322134986519,0.0035248601343482,-0.0023266491480171
1783205177892451600,6.73745166015625,0.03040887452811,0.0528325955212116,-0.0159229607969522,-0.0007072687149047,0.0024201809428632,-0.0029471658635884
1783205177902388500,6.747388427734375,0.0350824192970991,0.0434290996208786,-0.0012204817056655,-0.0046677961945533,0.0031893386039882,-0.0035849595442414
1783205177912326700,6.75732666015625,0.0060544777333736,0.0234311444699764,0.0004413140267133,-0.0086920987814664,0.0069012525491416,-0.0058023072779178
1783205177922263300,6.76726318359375,-0.0074135641921311,0.0098661449760198,-0.0137976392060518,-0.0119000282138586,0.0041447835974395,-0.0048681641928851
1783205177932201500,6.777201416015625,-0.0035394261725246,-0.0071601008877158,-0.0479869090557098,-0.0117226615548133,0.0016741692088544,-0.0063427565619349
1783205177942138400,6.787138427734375,0.0173078392840921,-0.0013207272097468,-0.0612011954158544,-0.012825914658606,-0.0012239743955433,-0.0057668052613735
1783205177952075500,6.797075439453125,0.0368996978521347,-0.0010419102683663,-0.0637409430265426,-0.0112948631867766,0.00605897186324,-0.0043084579519927
1783205177962013200,6.80701318359375,0.0355448491770774,0.0061485857576131,-0.0656774640470743,-0.0077413814142346,0.0067914021201431,-0.0021805320866405
1783205177971950300,6.816950439453125,0.0384678970169276,0.0060176528543233,-0.113036012071371,-0.0061735799536108,0.0060808709822595,-0.0025341999717056
1783205177981887200,6.82688720703125,0.03717186585702,-0.0024643442869186,-0.1439133808940648,0.000488881021738,0.0042741079814732,0.0013123892713338
1783205177991825400,6.836825439453125,0.0213157597512006,-0.0201236273571848,-0.138517659330368,0.0058250566944479,0.0014650058001279,0.005085289478302
1783205178001762300,6.84676220703125,0.0159469261944293,-0.0151703888639807,-0.1177367371082305,0.0087869055569171,-0.002836300060153,0.005041582044214
1783205178011700500,6.856700439453125,0.0210957603249698,-0.0107215927615761,-0.1054179382830858,0.012544360011816,-0.0032533509656786,0.0050514354370534
1783205178021637000,6.86663720703125,0.0144224200408905,0.0039776714593172,-0.0924339535474777,0.0148915965110063,-0.0036526746116578,0.0055336169898509
1783205178031574300,6.87657421875,0.0038126901559531,0.0067304772987961,-0.0662532181084156,0.0197579897940158,-0.0006273235194385,0.0086686899885535
1783205178041512200,6.88651220703125,0.0043821606069803,0.0266965760067105,-0.0391384166896343,0.0195982381701469,0.0002762018702924,0.0076424879953265
1783205178051449300,6.896449462890625,0.0070651160806417,0.0224029704660177,-0.0231026431679725,0.0143462177366018,0.001598993781954,0.0084060160443186
1783205178061386200,6.90638623046875,0.004581336440891,0.0406155035048723,-0.0094061262488365,0.0151960663497447,0.0031183259561657,0.0032003340311348
1783205178071324400,6.916324462890625,-0.0019064181432127,0.0532452679753303,-0.0116781628340482,0.0074268262833356,0.0018860814161598,0.0054682823829352
1783205178081261300,6.92626123046875,-0.0239230196401476,0.0549105708390474,-0.0037608138382434,0.0071266666054725,0.0038268691860139,0.0046593584120273
1783205178091199500,6.936199462890625,-0.0289331028871238,0.0443865464761853,0.000275894331932,0.0026805195957422,0.0058085271157324,7.2062946856e-05
1783205178101136100,6.94613623046875,-0.0374919646568596,0.0437163921296596,-0.0037602293163537,0.0015035672113299,0.0075031211599707,-0.0026752271223813
1783205178111073300,6.9560732421875,-0.0336219913557171,0.0507400071561336,-0.0248550397932529,0.0020798752084374,0.0067965844646096,-0.0049647465348243
1783205178121011200,6.96601123046875,-0.0232652133185416,0.0606485299691557,-0.0309258841395378,0.0002046506851911,0.006761054508388,-0.0057449000887572
1783205178130948400,6.9759482421875,-0.0151752111695706,0.0667284344047308,-0.0384568641662597,0.0028491700068116,0.003932777326554,-0.0035882722586393
1783205178140885200,6.98588525390625,-0.0094126290548592,0.0540016393005847,-0.0469318470448255,0.0013015829026699,0.007489635143429,-0.008027821779251
1783205178150823400,6.995823486328125,-0.0208859900318086,0.0528331800431013,-0.032555531167984,-0.0016180407255887,0.0101892817765474,-0.0091274408623576
1783205178160760300,7.00576025390625,-0.0324810776922851,0.0468023754462599,-0.045791444838047,-0.0011755684390664,0.0063750720582902,-0.0093535734340548
1783205178170698500,7.015698486328125,-0.0405249026119709,0.040207507225871,-0.063557403153181,0.0027968026697635,0.0038256279658526,-0.0132143581286072
1783205178180635100,7.02563525390625,-0.0539941866464912,0.055467035678029,-0.0713490799427032,0.0029285699129104,0.003064767923206,-0.0133067658171057
1783205178190572300,7.035572265625,-0.0310321940582245,0.0589227290898561,-0.0916267288178205,0.0026212409138679,0.0017347852699458,-0.0219338089227676
1783205178200510200,7.04551025390625,-0.0124378220949321,0.0627285511136055,-0.0979974328935146,0.0030792187899351,-0.0013771536760032,-0.0218022838234901
1783205178210447400,7.055447265625,-0.0095000881426036,0.0563496637314558,-0.0736748925417661,0.0012176688760519,-0.003138568252325,-0.0263203363865613
1783205178220384300,7.06538427734375,-0.0068987465377897,0.0370963894680142,-0.0435766913980245,0.0021841721609234,-0.0029106852598488,-0.0289462972432374
1783205178230322400,7.075322509765625,0.0178287944182753,0.0180503282144665,-0.0426239207178354,0.0025082789361476,-0.0021841744892299,-0.0257334597408771
1783205178240259000,7.085259033203125,0.0327750191375613,0.0029664485901594,-0.035815409746766,0.00598317803815,-0.0008654398843646,-0.022883141413331
1783205178250196200,7.0951962890625,0.0381550316754728,-0.0148857267037034,-0.0289934547722339,0.0019468907266855,-0.0009378781542181,-0.0201403517276048
1783205178260134100,7.105134033203125,0.0405514252927154,-0.0242070972785353,-0.0183633396863937,0.0009603053331375,0.0029016339685767,-0.0177791602909564
1783205178270071300,7.1150712890625,0.029430165689066,-0.0326166137054562,-0.0435275915592908,0.0005784081295132,0.004012438468635,-0.0140408817678689
1783205178280009200,7.12500927734375,0.0347076677005738,-0.0312710443153977,-0.0627174451977014,-0.0004862705245614,0.0070242644287645,-0.0113496994599699
1783205178289946400,7.1349462890625,0.0452050232522189,-0.0256976280972361,-0.0617237579852342,0.0019220253452658,0.0070029590278863,-0.0092921406030654
1783205178299883300,7.14488330078125,0.0345592722058296,-0.0036988545179367,-0.0579448239684104,0.0047278562560677,0.0056402399204671,-0.0064848791807889
1783205178309821400,7.154821533203125,0.0299449833434075,-0.0016638415589928,-0.0614367577373981,0.0035358257591724,0.0068304063752293,-0.0043985587544739
1783205178319758000,7.164758056640625,0.0167480134442448,-0.0052507601350545,-0.0570201103389263,0.0039588660001754,0.0035778414458036,-0.0074396738782525
1783205178329695200,7.1746953125,-0.0058824821673333,-0.0004150105416774,-0.0608183335781097,0.004390831105411,0.0034465475473552,-0.0066247470676898
1783205178339633200,7.184633056640625,-0.0040566549796611,0.0024669746354222,-0.0702303050458431,0.0036259163171052,0.0002846028655767,-0.0082883955910801
1783205178349570300,7.1945703125,-0.0004951631058007,0.0104617727816104,-0.0583358691126108,0.0060323486104607,0.0036982428282499,-0.0092039909213781
1783205178359508200,7.20450830078125,-0.0102632545348256,0.0127639122441411,-0.0537228223592042,0.0083813481032848,0.0069083897396922,-0.0124381612986326
1783205178369445400,7.2144453125,0.005648088889569,0.0118161100000143,-0.049998833400011,0.0053221746347844,0.0052484413608908,-0.0143961180001497
1783205178379382300,7.22438232421875,0.0304833280038088,0.0162383103564381,-0.0572638559669256,0.0065664900466799,0.0083206351846456,-0.0131836095824837
1783205178389320400,7.234320556640625,0.0338010742496699,0.0046902036428451,-0.0527443327158689,0.0042910855263471,0.0033192187547683,-0.0114205973222851
1783205178399257000,7.244257080078125,0.0299918912250548,-0.0074222589552402,-0.0581219341009855,0.0038938531652092,0.0029651341028511,-0.0085027208551764
1783205178409194200,7.2541943359375,0.0227340290512889,-0.0207137022048234,-0.048922728601098,0.0010767616331577,-0.0002714055590331,-0.0101355044171214
1783205178419132200,7.264132080078125,0.0193587804645299,-0.016417466315627,-0.0529570986837148,-0.0027319779619574,0.00042211310938,-0.0039494829252362
1783205178429069300,7.2740693359375,0.0227837134119123,-0.0160404496967792,-0.0525058477848768,-0.0003159586340188,-0.0007355627603828,-0.0041143326088786
1783205178439007200,7.28400732421875,0.0228784790232777,-0.0127601128518581,-0.0511386510848999,0.0025499751791357,-0.0007189363241195,-0.0038417754694819
1783205178448944400,7.2939443359375,0.0196063254848122,-0.0177989838019013,-0.0535679240584373,-0.00015340000391,0.0029916460625827,-0.0024643884971737
1783205178458881300,7.30388134765625,0.0254868348907679,-0.0003743862703442,-0.043258711490035,0.00222082529217,0.0034616675693541,-0.0012998152524232
1783205178468819500,7.3138193359375,0.0327309608001261,0.0009878419935703,-0.044599604704976,0.0008932398632168,0.0037998890038579,-0.0018947655335068
1783205178478756000,7.323756103515625,0.0293063931789249,-0.0009764438167214,-0.0384065952837467,0.000402788631618,0.0028146973345428,-0.0029625156894326
1783205178488693200,7.333693359375,0.0235948836643248,0.0030891981869935,-0.0437479563117027,-0.0002065422013401,-0.0003259684890508,-0.0008327856194227
1783205178498631200,7.343631103515625,0.0092143300037831,0.0118996966302394,-0.0415115755617618,-0.0021847588941454,-0.0007731718942523,-0.0030507252085953
1783205178508568300,7.353568359375,-0.0107933428235352,-0.0010147300004959,-0.0400812504976987,-0.0050830775871872,0.000828452873975,-0.0028051817789673
1783205178518506200,7.36350634765625,-0.0031884207777678,-0.0053597734674811,-0.0416910237818956,-0.0045221550390124,0.0003374246880412,-0.0026847478002309
1783205178528443400,7.373443359375,0.0034013328760862,0.0019832827717065,-0.0287368496626615,-0.004437998868525,0.0028304099105298,-0.0005550179630517
1783205178538380300,7.38338037109375,0.0127446230217814,0.0013055296406149,-0.0357967050462961,-0.0050235232338309,0.0050127189606428,0.0011002526152879
1783205178548318500,7.393318359375,0.023943258710578,-0.0078524670660495,-0.0384679700821638,-0.003136140294373,0.0061602750793099,0.0020299621392041
1783205178558255000,7.403255126953125,0.0160807086419314,0.0102677115142345,-0.0509516040802001,-0.0015249345451593,0.0063060126267373,0.0009903251193463
1783205178568193300,7.413193359375,0.0159100282501429,0.0224850957915186,-0.0557826774984598,1.22422352433e-05,0.0056982790119946,0.0036891726776957
1783205178578130200,7.423130126953125,0.0027755291279405,0.0347682387813925,-0.0649088177621364,0.0006162105128169,0.007091645617038,0.0022486692760139
1783205178588067300,7.4330673828125,0.0023149258788675,0.0534945665612816,-0.0521890369206666,0.0006148787215352,0.0063424981199204,-0.0029231896623969
1783205178598005200,7.443005126953125,-0.0086075962822884,0.0613476181492209,-0.0522884056419134,1.34138390421e-05,0.0040415567345917,-0.0012373789213597
1783205178607942400,7.4529423828125,-0.0119757575411349,0.0617941928729414,-0.0632359161138534,-0.0004923203960061,0.00421306444332,-0.0069360109046101
1783205178617879300,7.46287939453125,-0.0062839025750756,0.0557014289557933,-0.0652343964546918,-0.0002213837578892,0.0036181714385747,-0.0085170716047286
1783205178627817500,7.4728173828125,-0.0046839930977672,0.0561091329738497,-0.0653232437819242,-0.0033519305288791,0.0001584589481353,-0.0105189699679613
1783205178637754000,7.482754150390625,-0.0012146364867687,0.0443704721242189,-0.0618716420233249,-0.0059997169300913,-0.0012514172121882,-0.012940315529704
1783205178647692300,7.4926923828125,-0.0012142711605876,0.0316954072073102,-0.0614133768618106,-0.0037911580875515,-0.0048243142664432,-0.0146002629771828
1783205178657629200,7.502629150390625,0.0041416298493742,0.0125453010573983,-0.0631330402612686,-0.0024475725367665,-0.0059805996716022,-0.0136374710127711
1783205178667566300,7.51256640625,0.0121262719277292,-0.0045557636082172,-0.0661538493871688,-0.0010558050125837,-0.0047531491145491,-0.0145892845466732
1783205178677504300,7.522504150390625,0.0115394119504839,-0.0112561380296945,-0.0502583611190319,0.0020954953506588,-0.0017309673130512,-0.0154808843508362
1783205178687441400,7.53244140625,0.0302338102221488,-0.030434885752201,-0.0294084653139114,0.0019953604787588,0.0009593581780791,-0.0094743911176919
1783205178697379300,7.54237939453125,0.0379299176827073,-0.0376367799550294,-0.0231891524076461,0.003883353434503,-0.0001217355020344,-0.0072734048590064
1783205178707316500,7.55231640625,0.0509706741068512,-0.039834582260251,-0.0150181209117174,-0.00312608666718,-0.0012927274219691,-0.0028754603117704
1783205178717253000,7.562253173828125,0.048526934216544,-0.0518181577816605,-0.0042366146564483,-0.0033787824213504,-0.0008126767352223,0.0008919953834265
1783205178727191300,7.57219140625,0.0569411268185824,-0.044651919414103,0.0045610243052244,-0.0023984732106328,0.0026856516487896,0.0028888334054499
1783205178737128200,7.582128173828125,0.063681467924267,-0.0365416781947016,-0.0068044193178415,-0.0042700776830315,0.0031831599771976,0.006111554801464
1783205178747065300,7.5920654296875,0.0438869994562119,-0.0474321977823972,-0.0147878192871809,-0.0019235666841268,0.0032806317321956,0.0079880179837346
1783205178757003300,7.602003173828125,0.030974837847799,-0.0288522927358746,-0.0248451029211282,-0.000771440565586,0.0077371662482619,0.0147990528494119
1783205178766940400,7.6119404296875,0.0237943517591804,-0.020608196003735,-0.0253963070631027,0.003294407390058,0.005050569307059,0.0166930928826332
1783205178776878300,7.62187841796875,0.0216515675768256,-0.0058422962874174,-0.0407347459703683,-0.0013950625434517,0.0052024265751242,0.0185903869569301
1783205178786815500,7.6318154296875,0.0043620676670223,0.0072080316826701,-0.0219704242676496,-0.0006877267733216,0.0025611033197492,0.0199390091001987
1783205178796752100,7.641752197265625,-0.0134849199950695,0.0284758606389164,-0.0307394216567277,0.0012243725359439,0.0025529279373586,0.0177140235900878
1783205178806690300,7.651690185546875,-0.0230026899248361,0.0477934323102235,-0.0303325944215059,0.0038609020411968,0.0021249579731374,0.0122300432994961
1783205178816627200,7.661627197265625,-0.0365866133149713,0.0778831578865647,-0.0275450095295906,0.0014426819980144,0.00091044139117,0.0047179479151964
1783205178826564400,7.671564453125,-0.0468063209690153,0.0758513597980141,-0.009058335724473,-0.0028937421739101,0.0016377507708966,0.0045491037890315
1783205178836502300,7.681502197265625,-0.0438389955960214,0.0733747405514121,-0.0060194064199924,0.0027816854417324,0.0019664512947201,0.0005147443152964
1783205178846439400,7.691439453125,-0.0362975672405213,0.0779857414782047,-0.009725859722495,-0.0007280940189957,0.0015680422075092,-0.0032339212484657
1783205178856377300,7.70137744140625,-0.0317900266882032,0.0736503426223993,-0.0064846858441829,-0.0035147946327924,0.0005493806675076,-0.0072563611902296
1783205178866314200,7.711314208984375,-0.0272746681556105,0.0650303983151912,0.0049140755265951,-0.006936689838767,0.0022466131485998,-0.0071538295596838
1783205178876251100,7.721251220703125,-0.0051805444430559,0.0694517218887805,0.0168593648642301,-0.0120764449238777,0.0021217411849647,-0.0141022531315684
1783205178886189300,7.731189208984375,0.0068076341882348,0.0508913983255624,-0.0028723405659198,-0.0107467286288738,-0.0011933618225157,-0.0102542517706751
1783205178896126200,7.741126220703125,0.0146611241675913,0.016014730733633,-0.0075023384541273,-0.010926297865808,0.0025190864689648,-0.0078084031119942
1783205178906063400,7.7510634765625,0.0220372058935463,0.0092220018535852,-0.0048749125599861,-0.0148712387308478,-0.0023278668522834,-0.0068238331004977
1783205178916001300,7.761001220703125,0.0050240387070924,0.016143325549364,-7.65723675489e-05,-0.0150200938805937,0.0008895099163055,-0.0065835965797305
1783205178925938400,7.7709384765625,0.0103393885109573,0.0261573545634746,-0.0005307458758354,-0.016090951859951,0.0001922943629324,-0.0059084855020046
1783205178935875000,7.780875,0.0165310096926987,0.022031214544177,-0.004022679644823,-0.014963156543672,0.0024239008780568,-0.0059016812592744
1783205178945813200,7.790813232421875,0.0176624979406595,0.0102148122832179,-0.007808627924323,-0.014747972600162,0.0073147960938513,-0.0080798808485269
1783205178955750100,7.800750244140625,0.0210070591282099,0.008375614157319,-0.0383469740509986,-0.0133626237511634,-0.0010057794861495,-0.0105060804635286
1783205178965688600,7.8106884765625,0.0232907130859792,0.0120604401499032,-0.038689503878355,-0.0130129493772983,0.0016829478554427,-0.010138563811779
1783205178975625500,7.82062548828125,0.01822341975905,-0.0102571901202201,-0.0431722022503614,-0.0112985335290431,0.0017496338114142,-0.0106082474812865
1783205178985562400,7.830562255859375,0.0317486717645078,-0.0245113409221172,-0.0453577295958995,-0.0085781142115592,-3.54829244315e-05,-0.0075762392953038
1783205178995500300,7.840500244140625,0.0440247274264693,-0.0345262467190623,-0.0493617045402526,-0.0092849936336278,-0.0083940736949443,-0.0038675041869282
1783205179005437400,7.8504375,0.0430229299727827,-0.0444055434376001,-0.0469721790552139,-0.0027125794440507,-0.0074004484340548,-0.0027726786211133
1783205179015374300,7.860374267578125,0.0523696541845798,-0.0443210800245404,-0.0436667077690362,0.0027744509279727,-0.0036534122191369,0.0035549621097743
1783205179025312500,7.8703125,0.0494607079353183,-0.0468716412901878,-0.0330120427638292,0.0016215685755014,-0.0003766589798033,0.0105920992791652
