time,seconds_elapsed,ax,ay,az,gx,gy,gz
1783204560980176600,0.0941767578125,0.1210094751685857,0.2869184147715568,-1.1022621534764767,0.374115526676178,-0.2495312243700027,0.0286823958158493
1783204560990114800,0.10411474609375,-0.0129553431630134,0.4372381555765867,-0.814459357085824,0.4633699953556061,-0.1895378530025482,-0.05866040289402
1783204561000051700,0.1140517578125,-0.0614671528756618,0.7349374920815229,-0.3959913684308528,0.5346934199333191,-0.0795263946056366,-0.1870540529489517
1783204561009988900,0.12398876953125,-0.3104921825826168,0.7973305276304483,-0.0668541066110134,0.5851828455924988,0.0864545106887817,-0.3338663578033447
1783204561019925500,0.133925537109375,-0.4122510138362646,0.7595566772922873,0.2395347323060035,0.6078876256942749,0.2487435489892959,-0.4381949007511139
1783204561029862700,0.143862548828125,-0.2412836217999458,0.5620967073887586,0.4647808270186185,0.5735582113265991,0.2782794833183288,-0.4551604986190796
1783204561039799800,0.1537998046875,0.2407727496683597,-0.0134054250180721,0.1977028387486934,0.4823052585124969,-0.0146671738475561,-0.362807422876358
1783204561049737700,0.16373779296875,0.8600403740435838,-0.861811767630279,-0.3296972337901592,0.3458873033523559,-0.277078628540039,-0.1703104972839355
1783204561059674600,0.173674560546875,0.8774883524507283,-1.4692659123539924,-0.2733522462338209,0.2790318429470062,-0.2689218819141388,0.0614689290523529
1783204561069611800,0.18361181640625,0.8317991989433765,-1.1009811737552284,-0.0033954876571893,0.3512503802776336,-0.0643831118941307,0.2799311876296997
1783204561079548700,0.193548583984375,0.7733306433618068,-0.3942541693747043,0.0380360084056854,0.5387574434280396,0.1610026061534881,0.4230433404445648
1783204561089485600,0.203485595703125,0.4788268880277871,-0.0984764485821127,-0.0421837757349014,0.7157946825027466,0.3658008873462677,0.4878614544868469
1783204561099422700,0.213422607421875,0.1626537371993064,0.0464949169322848,0.0746340929627418,0.7961792349815369,0.565836489200592,0.5371314883232117
1783204561109360600,0.223360595703125,-0.0413221904695034,0.163769881747663,0.2779039181888103,0.8397336006164551,0.7407181262969971,0.5494703650474548
1783204561119297800,0.2332978515625,-0.1640261945962906,0.3271247529536485,0.216894445952773,0.8913049101829529,0.9050620794296264,0.5151318311691284
1783204561129234700,0.243234619140625,-0.2659568752855062,0.4677198030799627,0.17976795360744,0.9344066977500916,1.052491545677185,0.463223397731781
1783204561139171600,0.253171630859375,-0.3375876947790384,0.4560211819797754,0.2453179918825626,0.960524559020996,1.164953112602234,0.428773283958435
1783204561149108700,0.263108642578125,-0.2716319983124732,0.457319989618659,0.0548912816166877,0.9880868196487428,1.194674372673035,0.390504777431488
1783204561159045600,0.273045654296875,-0.1878422467306256,0.3858171804189682,-0.2747083370178937,0.962130844593048,1.0736960172653198,0.3500700294971466
1783204561168983800,0.28298388671875,-0.2359898993059992,0.2875917839884758,-0.5181295553684234,0.9031605124473572,0.8621158003807068,0.3109031319618225
1783204561178920700,0.292920654296875,-0.2502437578469514,0.2380143908709287,-0.7106938621848822,0.8292614817619324,0.600147008895874,0.2884241938591003
1783204561188857900,0.30285791015625,-0.16479191827178,0.0209235455632209,-0.8547019356250762,0.7430397868156433,0.3417011499404907,0.3076273202896118
1783204561198794500,0.31279443359375,0.0168289697259664,-0.2269417927145957,-0.9291419673204422,0.6965348720550537,0.137742668390274,0.3277783989906311
1783204561208731600,0.322731689453125,0.1394791978389024,-0.1342740304112434,-0.7885065851837396,0.6014312505722046,-0.0636969059705734,0.348101943731308
1783204561218668800,0.332668701171875,0.1683551637113094,0.0170078334242105,-0.5470166271567344,0.4667173624038696,-0.3374839723110199,0.3330662548542022
1783204561228606700,0.342606689453125,0.1705018203511834,0.1853004532933235,-0.7226601943105458,0.3390507400035858,-0.7588791847229004,0.2795814573764801
1783204561238544000,0.3525439453125,0.2026385415852069,0.1276385379195213,-1.243447570711374,0.2645765244960785,-1.209393858909607,0.2083118110895156
1783204561248480800,0.362480712890625,0.1147930848717689,-0.1230143852502107,-1.454676830509305,0.258844792842865,-1.5446066856384275,0.1378446668386459
1783204561258417700,0.372417724609375,0.0487485410779714,-0.078132456472516,-1.30171855789423,0.2731201350688934,-1.7058597803115845,0.092110201716423
1783204561268354600,0.3823544921875,0.1333937404453754,0.3929337344259023,-0.9101444213837384,0.3044304847717285,-1.7634104490280151,0.0166042223572731
1783204561278291700,0.392291748046875,-0.046692193070054,0.5356009146511554,-0.5944248595416546,0.3509825468063354,-1.752884864807129,-0.0735568329691886
1783204561288229600,0.402229736328125,-0.1123807630330324,0.5494359632581473,-0.3222434106528759,0.3880313336849212,-1.6971759796142578,-0.1478858292102813
1783204561298166800,0.412166748046875,0.0690659374415874,0.4814420389622449,-0.2710293562442064,0.4408537745475769,-1.7157049179077148,-0.1731245964765548
1783204561308103700,0.422103759765625,0.3241039438277482,0.3084276512682438,-0.7176338905811309,0.5267987847328186,-1.7778518199920654,-0.1762481331825256
1783204561318040600,0.43204052734375,0.4536760801583528,0.1519949805408716,-0.8375286825060844,0.5953328609466553,-1.728871464729309,-0.1761780828237533
1783204561327977700,0.441977783203125,0.5243488682746887,0.0921750103503465,-0.0767553229004144,0.6153935790061951,-1.6071563959121704,-0.1545977890491485
1783204561337914600,0.45191455078125,0.4788093523710965,0.0736444974035024,0.467023637509346,0.6095876693725586,-1.421761989593506,-0.1447148025035858
1783204561347851800,0.461851806640625,0.2958610151618719,0.1022895771294832,0.7638403459608555,0.6579775214195251,-1.0997053384780884,-0.1603563129901886
1783204561357789000,0.471788818359375,0.3433668627023696,0.2016711578577756,0.8186907110452651,0.7102159261703491,-0.8630090951919556,-0.1451435387134552
1783204561367725600,0.4817255859375,0.3105623252093791,0.1387175658166408,0.2707587226092815,0.74308842420578,-0.825914740562439,-0.1200115382671356
1783204561377662700,0.491662841796875,0.3660843059450387,0.1117097319036722,0.1079231991022825,0.735846221446991,-0.8675689697265625,-0.0873752981424331
1783204561387599600,0.501599609375,0.4494114084511995,0.1201022971957921,0.0973123732388019,0.6964443325996399,-0.911330223083496,-0.0292839668691158
1783204561397536800,0.511536865234375,0.4891951373070478,0.1719920589089393,-0.0322521643072366,0.6620197296142578,-0.9812954664230348,-0.0095507409423589
1783204561407474700,0.521474609375,0.248148246872425,0.1174783784329891,-0.3933335473984479,0.6607665419578552,-1.0742379426956177,-0.0625117868185043
1783204561417411800,0.531411865234375,-0.0711035807490348,0.2787310166627168,-0.6116676707655191,0.6578474044799805,-1.1867018938064575,-0.1449544727802276
1783204561427348700,0.5413486328125,-0.2332213113754987,0.6588906097114086,-0.5982482172220945,0.6329269409179688,-1.3002002239227295,-0.2508454024791717
1783204561437285600,0.55128564453125,-0.3011415859133005,0.8628940099090338,-0.6261024388313293,0.5823546051979065,-1.5432692766189575,-0.3513339459896087
1783204561447222800,0.561222900390625,-0.5040881705343723,0.8274304823398589,-0.9426765716761352,0.5556134581565857,-1.6758595705032349,-0.4612665772438049
1783204561457159700,0.57115966796875,-0.4415969353079795,0.8144009048968553,-0.4738029223859309,0.5508149266242981,-1.6688241958618164,-0.5565713047981262
1783204561467097900,0.581097900390625,-0.2997428250312805,0.7978045748829841,-0.0351069692164659,0.5739683508872986,-1.484600067138672,-0.6033713221549988
1783204561477034800,0.59103466796875,-0.2401794599503278,0.4898199912071228,0.2727501886874437,0.6236358284950256,-1.2074440717697144,-0.5967267155647278
1783204561486971600,0.6009716796875,-0.0536772296518087,0.424775564366579,0.2959066078692674,0.6982002854347229,-0.9716172814369202,-0.5869382619857788
1783204561496908500,0.610908447265625,-0.0452870024472475,0.3858282863348722,0.0865457722917199,0.7281834483146667,-0.7201288342475891,-0.4874012768268585
1783204561506845700,0.620845703125,0.3706272100716829,0.9870996507704256,0.1404477506101131,0.7465254664421082,-0.5807560682296753,-0.3731841742992401
1783204561516782800,0.630782958984375,0.5142179348826408,0.7741103955626487,-0.110637718757987,0.7536103129386902,-0.5674712061882019,-0.2710612714290619
1783204561526720800,0.640720703125,0.5290227053046226,0.3154571115136146,-0.2147358066141605,0.7064458131790161,-0.5609694123268127,-0.1532763242721557
1783204561536658000,0.650657958984375,0.4629916055142879,0.0419236634939909,0.25489976695925,0.6221472024917603,-0.5091916918754578,-0.0227582585066556
1783204561546594600,0.660594482421875,0.3600035247266292,-0.064760349202156,0.6291863763213157,0.511472761631012,-0.46662038564682,0.1009421870112419
1783204561556531700,0.67053173828125,0.2667214299172163,-0.0554103370547294,0.6864145764529704,0.3988305926322937,-0.4940144419670105,0.206421747803688
1783204561566468600,0.680468505859375,0.2517769587635994,-0.0142787007212638,0.6071008012413979,0.2783587574958801,-0.5567107200622559,0.2910161316394806
1783204561576405800,0.69040576171875,0.2631733820468187,-0.0551098928034305,0.5492670364320278,0.1716978251934051,-0.5974392294883728,0.3811164796352386
1783204561586343700,0.70034375,0.193856100192666,-0.1566916139245033,0.5345604656875134,0.0950829535722732,-0.6101512908935547,0.4536771178245544
1783204561596280800,0.71028076171875,0.1817272709816694,-0.2381739653468131,0.5748270096242427,0.0515453293919563,-0.538313090801239,0.5063968300819397
1783204561606217700,0.7202177734375,0.2240466557949781,-0.3210679371327161,0.7401113875880837,0.0438904017210006,-0.381501704454422,0.5326326489448547
1783204561616154600,0.730154541015625,-0.1031260279536247,-0.4857113868445157,0.7487576353803277,0.0983286127448082,-0.1668650358915329,0.4951403737068176
1783204561626091800,0.740091796875,-0.6263233881056308,-0.5115121830552816,0.5601373900145292,0.1977089792490005,0.023734837770462,0.3711869716644287
1783204561636028700,0.750028564453125,-0.8978297142118215,-0.4343313282191753,0.3165130503073334,0.3094067275524139,0.1546467691659927,0.2138290703296661
1783204561645966800,0.759966796875,-1.020033367601037,-0.399586762574315,0.1116024721369147,0.4061455726623535,0.1971724480390548,0.0588867850601673
1783204561655903700,0.76990380859375,-0.9876280585587024,-0.4444131617724895,-0.0112976390838623,0.4582383334636688,0.2458228170871734,-0.0074903741478919
1783204561665840600,0.779840576171875,-0.3556143498569726,0.2464998951435089,0.1668096878349781,0.4028438925743103,0.2755848467350006,-0.0186780262738466
1783204561675777800,0.78977783203125,-0.0592629208296537,0.356660059517622,0.5664513954669237,0.2929522693157196,0.249034970998764,-0.0254898592829704
1783204561685714700,0.799714599609375,-0.0714162999600172,-0.1332680682390928,0.7415227156907319,0.2170095443725586,0.2327394783496856,0.0277319196611642
1783204561695652600,0.809652587890625,0.34256431414783,-0.3273497938811779,0.7126826979145408,0.1300240457057953,0.1956269890069961,0.1460492312908172
1783204561705589800,0.81958984375,0.6235264508634806,-0.5095476049840449,0.7195657354265451,0.0692304894328117,0.2556048333644867,0.2892999351024627
1783204561715527000,0.82952685546875,0.5996878946363926,-0.5549047500580548,0.5369809708327055,0.0621326304972171,0.3119850158691406,0.3964269161224365
1783204561725463600,0.839463623046875,0.5749965209722518,-0.3392120811104774,0.0930132147401571,0.0868976563215255,0.2789897322654724,0.451834887266159
1783204561735400700,0.849400634765625,0.6057488021105527,-0.0926052184611558,-0.3478498533353209,0.1079446226358413,0.181345984339714,0.4874884784221649
1783204561745338600,0.859338623046875,0.5733598596811295,-0.0118757312327623,-0.5453457713350653,0.1303067952394485,0.0674729496240615,0.51895672082901
1783204561755275800,0.86927587890625,0.5037415490537882,-0.0312608151823282,-0.5060854818314313,0.1643710285425186,0.0037443002220243,0.5490797162055969
1783204561765212700,0.879212646484375,0.4463718946248293,-0.0696755937725305,-0.4015186074197292,0.1915631145238876,-0.0363771319389343,0.5751018524169922
1783204561775149800,0.88914990234375,0.3933621889710426,-0.1175906066358089,-0.3749479958802461,0.2153542041778564,-0.0928196385502815,0.5903801321983337
1783204561785086700,0.899086669921875,0.370914210319519,-0.1285913085997104,-0.3490215274631977,0.2339902967214584,-0.1188405156135559,0.5995444655418396
1783204561795023600,0.909023681640625,0.3097860801398754,-0.0882236423760652,-0.2169812474533915,0.267735481262207,-0.0882991179823875,0.6034103035926819
1783204561804961800,0.9189619140625,0.317229966405034,0.0027402386188507,-0.1230406887352466,0.3108459115028381,-0.0367207154631614,0.6061476469039917
1783204561814898700,0.928898681640625,0.2188052480101585,0.0434931047677993,0.0750485189825296,0.3492479026317596,0.0670701265335083,0.5897590517997742
1783204561824835800,0.9388359375,-0.0763648622781038,0.0374707757383585,0.4697784891754388,0.3820377290248871,0.2499141246080398,0.5774298906326294
1783204561834772500,0.9487724609375,-0.2066600521862506,-0.0526233366847038,0.6298211670935153,0.4238640069961548,0.3554059267044067,0.5614093542098999
1783204561844709600,0.958709716796875,-0.1401683491468429,-0.1814806027442216,0.4195438011929392,0.4178953766822815,0.3389217257499695,0.5477826595306396
1783204561854647600,0.9686474609375,-0.306741305616498,0.0072872343987226,0.5734004839524627,0.3432253897190094,0.3962790369987488,0.4743596017360687
1783204561864584700,0.978584716796875,-0.3103133188843727,0.174096337711811,0.8851070107609033,0.255606472492218,0.4631892144680023,0.4255764782428741
1783204561874521900,0.98852197265625,0.0169458741039037,-0.02969078938663,0.868839182049036,0.1322299391031265,0.4888240098953247,0.407535970211029
1783204561884458800,0.998458740234375,0.0431382999807596,-0.2508019762516021,1.091936574295163,0.0222357772290706,0.5175888538360596,0.427238255739212
1783204561894395600,1.008395751953125,0.0464957937151193,-0.5073556478977203,1.3118144199728965,-0.0791686028242111,0.7332580089569092,0.4573040306568146
1783204561904333600,1.01833349609375,-0.1467477275371551,-0.4806500118017196,2.3133871249929068,-0.2221576869487762,1.1224318742752075,0.4520923793315887
1783204561914270700,1.028270751953125,-0.4010211792916059,-0.2603600781917571,3.133603730431199,-0.3542264997959137,1.570684790611267,0.4647226929664612
1783204561924207600,1.03820751953125,-0.3615881635695696,-0.3970809172332286,3.247774299490452,-0.4099837243556976,2.037792444229126,0.5086715221405029
1783204561934144800,1.048144775390625,-0.375815426364541,-0.4721089779496192,3.294106719337404,-0.425342708826065,2.486261367797852,0.5661953091621399
1783204561944081700,1.05808154296875,-0.4688572826772928,-0.3749871588468551,3.625305882123112,-0.4677895009517669,3.016285181045532,0.5842446088790894
1783204561954019800,1.068019775390625,-0.807141143026948,-0.0443909303903579,4.067905272471904,-0.5070351958274841,3.637815475463867,0.5245589017868042
1783204561963956500,1.07795654296875,-0.8022966256052255,0.4492448197126388,4.066918599522114,-0.448109358549118,4.260447025299072,0.4505481123924255
1783204561973893600,1.0878935546875,-0.1288525898844003,0.7194453239172697,3.434862805244326,-0.3173713386058807,4.705435276031494,0.4303123354911804
1783204561983830800,1.097830810546875,0.1872019030004739,0.8269476672589778,2.557186821267009,-0.1498029232025146,4.900352478027344,0.4350120425224304
1783204561993767700,1.107767578125,0.1489338394045829,1.012442766341567,1.6605536233633755,-0.0275779515504837,4.990240573883057,0.5112029314041138
1783204562003705900,1.117705810546875,1.3862474374055862,1.0522042833656071,0.353178062620759,0.0398712381720542,4.640994071960449,0.6704636812210083
1783204562013642800,1.127642822265625,2.009987823280692,0.7737117516338825,-1.0966466516822575,0.0186564959585666,3.847310543060303,0.7615534067153931
1783204562023579600,1.13757958984375,1.7634043415069578,0.6245423499077558,-2.4990993739575145,-0.1869245171546936,2.817686080932617,0.79595547914505
1783204562033516500,1.1475166015625,1.812813976842165,0.6831248872578144,-3.0466689588218925,-0.5095574259757996,1.7874274253845217,0.639946460723877
1783204562043454700,1.157454833984375,1.5219839415848255,0.8206582117259502,-2.8903894328296182,-0.8180139064788818,0.8781166076660156,0.2880221307277679
1783204562053391600,1.1673916015625,1.008736897560954,1.0317331577450035,-2.4475047957986598,-1.0645177364349363,0.2382236719131469,-0.1313764601945877
1783204562063328800,1.177328857421875,0.0299725289374589,1.2545593318343162,-1.9490742126345637,-1.1904213428497314,-0.1763816028833389,-0.4309163987636566
1783204562073265700,1.187265625,-0.5988835925161838,0.9437924239635468,-1.6429039849042892,-1.2245646715164185,-0.3793541491031647,-0.5800816416740417
1783204562083202600,1.19720263671875,-0.5155757792323827,0.3387283892467618,-1.267766019409895,-1.204717040061951,-0.5252001881599426,-0.6122745871543884
1783204562093140500,1.207140380859375,-0.3663081778287887,-0.0811027044549584,-1.1701368353068828,-1.169182300567627,-0.636946976184845,-0.5318111181259155
1783204562103077600,1.21707763671875,0.2256657814294099,-0.4971577867493033,-1.396400582629442,-1.1036312580108645,-0.7343127727508545,-0.3911574780941009
1783204562113014800,1.227014892578125,0.9624012628436088,-0.6858925984054803,-1.6148457651555537,-1.0347869396209717,-0.8460888266563416,-0.2681146562099457
1783204562122951700,1.23695166015625,1.273558631336689,-0.5693868643969298,-1.6241075144976376,-0.9699877500534058,-0.8979628086090088,-0.1905642449855804
1783204562132888800,1.246888916015625,1.3898907623440029,-0.3775874044731259,-1.7552362326204776,-0.8760932087898254,-0.8975226283073425,-0.2038685977458953
1783204562142826800,1.25682666015625,1.1467559597194197,0.0490220973223447,-1.8009399991750716,-0.7572521567344666,-0.8339639902114868,-0.2999056875705719
1783204562152763600,1.266763671875,0.7293629068195819,0.4370294812619686,-1.7140876451522111,-0.6004215478897095,-0.7310714721679688,-0.4166581332683563
1783204562162700500,1.276700439453125,0.3458791377842426,0.4711804649278521,-1.8326251772493125,-0.3925680220127105,-0.6474102735519409,-0.5300613045692444
1783204562172637700,1.2866376953125,0.0413747974395751,0.3991723365545273,-2.129941651916504,-0.1846736669540405,-0.6978073716163635,-0.5908697843551636
1783204562182575600,1.29657568359375,-0.0764355894267559,0.226165547645092,-2.3871301143348216,-0.0001580193638801,-0.8585290312767029,-0.5673620104789734
1783204562192512800,1.3065126953125,-0.1907896983593702,-0.048187984585762,-2.461590019774437,0.1012873798608779,-1.0876591205596924,-0.4912041425704956
1783204562202450000,1.316449951171875,-0.3702548696279525,-0.2946849571198225,-2.2326760502040384,0.1303240954875946,-1.337079644203186,-0.4004558622837066
1783204562212386600,1.326386474609375,-0.0160568163096904,-0.2541501176357269,-2.098314341509342,0.147923856973648,-1.567129135131836,-0.3525415956974029
1783204562222323700,1.33632373046875,0.1107762504458427,0.0634095191150903,-2.065051538854837,0.1902251094579696,-1.7689858675003052,-0.3365365862846374
1783204562232261600,1.34626171875,0.1510907251775264,0.223507726612687,-1.9056436517089603,0.2803573906421661,-1.856690526008606,-0.2981561720371246
1783204562242198800,1.35619873046875,0.1376373693645,0.355169820959866,-1.6344085437595843,0.3820126950740814,-1.8158215284347532,-0.2942375242710113
1783204562252135700,1.3661357421875,0.1346796886026859,0.8826268843829631,-1.1843845563679931,0.4391058087348938,-1.6562597751617432,-0.3083855509757995
1783204562262072800,1.37607275390625,0.059683776590228,1.2102055185839533,-0.8353682896018028,0.5122531652450562,-1.546077847480774,-0.3210207223892212
1783204562272010800,1.3860107421875,-0.0368266326159238,0.8371139642253518,-0.925222163528204,0.5547308325767517,-1.564510703086853,-0.2973271310329437
1783204562281947600,1.39594775390625,0.1522843188762664,0.8983823796585202,-0.7915735715389252,0.5265393853187561,-1.5682481527328491,-0.3118916153907776
1783204562291884500,1.405884521484375,-0.2589852827072143,0.6946212637841701,-0.3059188833177089,0.5454220175743103,-1.4157354831695557,-0.3994965851306915
1783204562301821700,1.41582177734375,-0.8901087645709514,0.3686252225995063,0.0223608848899602,0.5384851098060608,-1.2374612092971802,-0.5293869972229004
1783204562311759600,1.425759521484375,-1.0009557421654462,0.4224766397744417,0.6992442474097013,0.4657805263996124,-1.0738781690597534,-0.6021331548690796
1783204562321696800,1.43569677734375,-0.5144499900728464,0.1256494099289178,0.911405819621682,0.3815761804580688,-1.0602929592132568,-0.5783965587615967
1783204562331634000,1.445634033203125,-0.118190910616517,-0.3914735987454653,0.5743161374926566,0.3409526348114013,-1.1454046964645386,-0.4741913378238678
1783204562341571000,1.455571044921875,0.1507552096128463,-0.7191939795047044,0.044691082380712,0.3851304352283478,-1.2594698667526243,-0.3364591300487518
1783204562351509000,1.465509033203125,0.374248907700181,-0.7596645215809344,-0.3988976112663746,0.4559835493564605,-1.3229598999023438,-0.1582358330488205
1783204562361446100,1.475446044921875,0.7356780813157558,-0.2103244199126958,-0.5599330996140838,0.4861086010932922,-1.4193894863128662,-0.0560101084411144
1783204562371383300,1.48538330078125,0.6099281336218119,-0.1238660336434841,-0.3610346213400364,0.4770485460758209,-1.4612163305282593,0.042128175497055
1783204562381320200,1.4953203125,0.6657628335684538,-0.2502542792409658,0.1672515863835811,0.444694846868515,-1.3888652324676514,0.136825755238533
1783204562391257000,1.505257080078125,0.5674544350296259,-0.3749894969344139,0.6902233210861682,0.3823864459991455,-1.2549641132354736,0.2022010385990142
1783204562401195000,1.515195068359375,0.4371323571145534,-0.3711497726410627,1.1716069078594449,0.2645104229450226,-1.1172534227371216,0.2565015852451324
1783204562411132200,1.525132080078125,0.4084446072906255,-0.3159311587661504,1.379666305449605,0.1285555213689804,-1.0032610893249512,0.2978876233100891
1783204562421069000,1.535069091796875,0.4076917430967092,-0.2989350157797336,1.2999988944947718,-0.0347600169479846,-0.9636752009391784,0.3274179100990295
1783204562431006200,1.545006103515625,0.3429477605074644,-0.2252671375006437,1.1209867276906966,-0.1419375985860824,-0.9033799171447754,0.3252040147781372
1783204562440944000,1.554944091796875,0.3197650378406048,-0.0362935486525297,1.0705535945266484,-0.2035093456506729,-0.7578362226486206,0.3167701065540313
1783204562450881000,1.564881103515625,0.3993260658115148,0.0772094964087009,0.9804197346150876,-0.1856504529714584,-0.5933505892753601,0.2984265089035034
1783204562460818200,1.574818115234375,0.4379799138545989,-0.0158773680895566,0.7106821717470884,-0.1394295990467071,-0.4708756506443023,0.277108371257782
1783204562470755000,1.584755126953125,0.496205308330059,-0.0851870511591434,0.4683090011447667,-0.0794592052698135,-0.4058223664760589,0.2727898061275482
1783204562480693000,1.59469287109375,0.4790694646120071,-0.1301537356108427,0.2437365679100155,-0.0232776310294866,-0.3987748324871063,0.2770928740501404
1783204562490630100,1.604630126953125,0.4473579830527305,-0.1476601662069559,0.0866726135417818,0.010828941129148,-0.4590706527233124,0.2613498866558075
1783204562500567300,1.6145673828125,0.4638479300826787,-0.0973012673228979,-0.1013531730622053,0.0290889143943786,-0.5479863286018372,0.2289552241563797
1783204562510504000,1.62450390625,0.4179728986144065,-0.0671194795489311,-0.1162324700251221,0.0389383472502231,-0.6072597503662109,0.2016042917966842
1783204562520442000,1.634442138671875,0.383337054041028,-0.1584182915866374,-0.0179702487155795,0.0279935467988252,-0.6291153430938721,0.1734200119972229
1783204562530379000,1.64437890625,0.42716099819839,-0.2189361809134483,0.1507230609089136,-0.0178634226322174,-0.6413328647613525,0.1481796354055404
1783204562540316200,1.654316162109375,0.4475391848385334,-0.2729442499548196,0.2904807834282517,-0.0658981651067733,-0.6347271800041199,0.1389188021421432
1783204562550254000,1.664254150390625,0.5438286447703838,-0.4277355832159519,0.4278168317586183,-0.1040013432502746,-0.5701169967651367,0.1704207956790924
1783204562560191200,1.674191162109375,0.6616922231286764,-0.5445101972937584,0.5544172588020563,-0.1237673163414001,-0.4954495131969452,0.22050541639328
1783204562570128100,1.684128173828125,0.7309732646256685,-0.6032260056346654,0.4471265123844146,-0.1402221918106079,-0.4596464931964874,0.2613711059093475
1783204562580065000,1.69406494140625,0.7397030990481376,-0.4701823938012123,0.1885749449193477,-0.1505998373031616,-0.4835051894187927,0.2700495719909668
1783204562590003000,1.7040029296875,0.6526333028823137,-0.2427542788743972,-0.0837467892229557,-0.1563208401203155,-0.5510887503623962,0.2482164353132248
1783204562599940000,1.713940185546875,0.398354005908966,-0.0851420429736375,-0.2045250859841704,-0.1865836083889007,-0.6183481812477112,0.1997389942407608
1783204562609877000,1.723876953125,0.2432610593527555,0.0595125116765499,-0.1042851348608732,-0.2390049993991851,-0.67238849401474,0.134195938706398
1783204562619814100,1.733814208984375,0.1166021801203489,0.0712920890584588,0.1491281929329037,-0.2892645299434662,-0.6666818261146545,0.077814407646656
1783204562629752000,1.743751953125,0.1111830776810646,-0.0405421460077166,0.34437340939641,-0.3113833963871002,-0.5996357202529907,0.0603936091065406
1783204562639689200,1.753689208984375,0.1970049196124076,-0.179995332622528,0.2327238832473754,-0.2810706496238708,-0.5337443351745605,0.0686070322990417
1783204562649626000,1.763626220703125,0.2604454183876514,-0.2041048147454857,-0.0002083820536732,-0.2180810272693634,-0.4889052510261535,0.0825894251465797
1783204562659563000,1.77356298828125,0.3348924643456936,-0.1261164429187774,-0.3782672034308314,-0.1097725108265876,-0.5209527015686035,0.1049306094646453
1783204562669501200,1.783501220703125,0.36928982398808,-0.0253290870457887,-0.8179854853853583,-0.018292399123311,-0.579493522644043,0.108772225677967
1783204562679438000,1.79343798828125,0.3717529992312193,0.2483621818840503,-0.7939075674444437,0.014065645635128,-0.5429292321205139,0.1408392041921615
1783204562689375200,1.803375244140625,0.7523568289160728,0.9559937338888644,-0.5284527964621782,0.0038955667987465,-0.5298494100570679,0.3492582142353058
1783204562699312000,1.81331201171875,1.2956541432887314,1.488804141038656,-0.455188238286972,0.004424306564033,-0.6512047052383423,0.3642183542251587
1783204562709250300,1.823250244140625,0.1640828932195902,-0.1619204544886946,-0.6162555830776691,0.0303448531776666,-0.7584744691848755,0.3401119709014892
1783204562719187000,1.83318701171875,-0.2556178521007299,-0.9671414431080222,-0.6307546485513449,0.06618632376194,-0.8248516917228699,0.3174888789653778
1783204562729124000,1.8431240234375,-0.1928197428822517,-0.6699173228994012,-0.6867442467987537,0.073192298412323,-0.9135410785675048,0.301974356174469
1783204562739062000,1.85306201171875,-0.0873515357166528,-0.249541454796493,-0.4731561489149928,0.0322231240570545,-0.9518589973449708,0.2896654009819031
1783204562748999200,1.862999267578125,-0.1006137528717517,-0.1092909803241491,0.0281491129025816,-0.0298964399844408,-0.8794087767601013,0.293030321598053
1783204562758936000,1.87293603515625,-0.1939391023010015,-0.1799178834721446,0.4585147523611784,-0.1033138483762741,-0.7593926787376404,0.29488006234169
1783204562768873200,1.882873291015625,-0.2438385669797659,-0.2330655362918972,0.7610223659306764,-0.1742870956659317,-0.6328735947608948,0.2815293669700622
1783204562778811100,1.89281103515625,-0.3954647142082452,-0.3237061766818165,0.8761756624169648,-0.2144988924264907,-0.5114395618438721,0.2565262615680694
1783204562788748000,1.902748046875,-0.4393050249785185,-0.379631185260415,0.7702168952554463,-0.2332872301340103,-0.3817883729934692,0.2841437757015228
1783204562798685200,1.912685302734375,-0.1233639293402433,0.0556824319943785,0.3947938292093574,-0.1785479038953781,-0.3303758800029754,0.290996789932251
1783204562808622000,1.9226220703125,-0.0774514884710311,0.2818558706849813,-0.3725789286613464,-0.1150043457746505,-0.3955460786819458,0.2951057553291321
1783204562818560000,1.93256005859375,0.0467173275113105,0.4665680026963353,-0.6893479995563626,-0.0578702315688133,-0.4910697638988495,0.2666330337524414
1783204562828497200,1.9424970703125,-0.0581365471482276,0.6251034909218549,-0.669762716859579,-0.0436356328427791,-0.5489711761474609,0.2454835325479507
1783204562838434300,1.952434326171875,-0.1887432872235775,0.4285188425481319,-0.4842372226387262,-0.03285763412714,-0.5625032186508179,0.1959638744592666
1783204562848372200,1.962372314453125,-0.2528244219899177,0.46487142791152,-0.2716761297151446,-0.0226785019040107,-0.5462622046470642,0.1440322399139404
1783204562858309000,1.97230908203125,-0.355085942068696,0.3904363646522164,-0.0373930343270301,-0.0176701247692108,-0.4901371896266937,0.0955621376633644
1783204562868246000,1.98224609375,-0.441816131016612,0.2793681455224752,0.2767339976266026,-0.0291563384234905,-0.4142211079597473,0.0661254152655601
1783204562878183200,1.99218310546875,-0.4369342041939497,0.1813297960966825,0.5060013106793165,-0.0461557544767856,-0.3155858814716339,0.0416310057044029
1783204562888121000,2.00212109375,-0.3837427122324705,0.1645709689974784,0.7017915938049555,-0.0710949227213859,-0.178907424211502,0.0269063878804445
1783204562898058200,2.012058349609375,-0.3982593133628368,0.1170487548440694,0.8001531838357449,-0.0673646107316017,-0.0197739396244287,0.0234391838312149
1783204562907995100,2.0219951171875,-0.2921522237718105,0.1469496798500418,0.5766039561688899,-0.0159855745732784,0.0916969329118728,0.025436021387577
1783204562917933300,2.031933349609375,-0.1925917793452739,0.2802352837458253,0.2575762926921248,0.0775897800922393,0.17002534866333,0.0111477058380842
1783204562927870000,2.041869873046875,-0.2180243267655372,0.4505974033653735,-0.0383326532647013,0.1667611896991729,0.2308362275362014,-0.0202419068664312
1783204562937807000,2.05180712890625,-0.2476981650173663,0.4839382396921515,-0.2060882436476647,0.2267452478408813,0.2502306997776031,-0.0560651421546936
1783204562947744300,2.061744140625,-0.2249801372528076,0.4819298224791884,-0.3669248484224081,0.2629538476467132,0.2110236436128616,-0.0916540250182151
1783204562957682200,2.07168212890625,-0.1544768604844808,0.4966472068786621,-0.4063555260568857,0.2716294527053833,0.121741384267807,-0.1108339354395866
1783204562967619000,2.081619140625,-0.2330950546473264,0.3598766834765672,-0.2866512882679701,0.2256190627813339,0.030721990391612,-0.1203382238745689
1783204562977556200,2.09155615234375,-0.2245680493205785,0.2141851869940757,-0.0430737103119492,0.1407150477170944,-0.0334008708596229,-0.1297421753406524
1783204562987494100,2.101494140625,-0.251941793936491,0.1183157060399651,0.2175245605498552,0.0440729223191738,-0.0448231697082519,-0.1263280063867569
1783204562997431000,2.11143115234375,-0.2597287945508957,0.0115916535943746,0.3778426944084465,-0.0104543082416057,-0.009428197517991,-0.1090931072831153
1783204563007368200,2.1213681640625,-0.1845791532814502,-0.0130991355478763,0.2656552619904279,-0.0225621033459901,0.0160460025072097,-0.0894578918814659
1783204563017305000,2.13130517578125,-0.0414414329349994,0.0187149296030402,0.0233913969814777,-0.0141938906162977,0.0062833582051098,-0.0666942968964576
1783204563027243300,2.1412431640625,0.0975520272135734,0.006094809743762,-0.2256555522963404,0.0078610777854919,-0.0336020067334175,-0.0368458554148674
1783204563037180200,2.15118017578125,0.1595177772611379,0.0136918407440185,-0.2809378790572285,0.0289800073951482,-0.041131392121315,-0.0136642381548881
1783204563047117300,2.161117431640625,0.0953138928979635,0.0618897622019052,-0.1787859568327665,0.0514610819518566,-0.0279500745236873,-0.007149614393711
1783204563057055200,2.17105517578125,-0.0607715718269348,0.0947264483988285,-0.1592877678975462,0.0788196548819542,-0.0063561019487679,-0.0231045838445425
1783204563066992000,2.1809921875,-0.1089624790221452,0.1869473437175154,-0.2026163297533988,0.1229884475469589,0.0163249745965003,-0.0435110591351985
1783204563076929000,2.190928955078125,-0.0780897863745689,0.2266194288924336,-0.3007223375879228,0.1548909544944763,0.0264226477593183,-0.0661737099289894
1783204563086866200,2.2008662109375,-0.0410918888449668,0.1791185497879981,-0.3082341745227575,0.1608889251947403,0.0180944092571735,-0.0878142938017845
1783204563096804000,2.21080419921875,0.0043774844318628,0.0758183343112468,-0.1860182461738586,0.1451905071735382,0.010901415720582,-0.0967258885502815
1783204563106741200,2.2207412109375,0.011318681871891,-0.0516229274705052,-0.1023757941082119,0.1312230378389358,0.0055772238411009,-0.0896093845367431
1783204563116678100,2.23067822265625,0.0217740249127149,-0.1464876152962446,-0.1244230830043554,0.1412384510040283,-0.0077266623266041,-0.0648047477006912
1783204563126616300,2.2406162109375,0.1053606551378965,-0.1561152753412723,-0.3114864543169737,0.1701907217502594,-0.0407176353037357,-0.0440073274075984
1783204563136553000,2.250552978515625,0.1023456912308931,-0.0819832866817712,-0.2820274278596043,0.1591382771730423,-0.0811203494668006,-0.0430703312158584
1783204563146490000,2.260489990234375,-0.0744949767529964,0.024843641616404,0.3910024741023779,0.0533202365040779,0.0281483475118875,-0.0816068053245544
1783204563156428000,2.270427978515625,-0.0765811353772878,0.0614770897477865,0.5019413677640259,0.0001978334039449,0.0209862738847732,-0.1115436777472496
1783204563166365200,2.280365234375,0.0473123707950115,0.0528247044757008,0.1805462445035576,-0.027855372056365,0.0117435082793235,-0.1192415431141853
1783204563176302000,2.290302001953125,0.1262076283335685,0.026164076565206,0.106310795469582,-0.0423773676156997,0.0066275084391236,-0.1368568241596222
1783204563186239000,2.300239013671875,0.0933060602068901,0.0243511819243431,0.0569733485877513,-0.0316144675016403,0.0223686546087265,-0.1354783773422241
1783204563196177000,2.310177001953125,0.1449468155950307,0.0146259067237377,-0.0810175103895366,0.0048820050433278,0.0229819416999816,-0.134958878159523
1783204563206114000,2.320114013671875,0.1826081454694271,0.0827040021717548,-0.1583070862971246,0.0299103930592536,0.0115098431706428,-0.144428014755249
1783204563216051200,2.33005126953125,0.1191992108762264,0.1035454224094748,-0.1773204143248498,0.0584226697683334,-0.0013918350450694,-0.1504493951797485
1783204563225989000,2.339989013671875,0.0978986486941576,0.0619520137831568,-0.2041495306700468,0.0782049000263214,-0.0268860105425119,-0.1520683318376541
1783204563235926300,2.34992626953125,0.1922550947368144,0.0861313462719321,-0.2650096575632691,0.099018707871437,-0.0824605226516723,-0.1561535447835922
1783204563245863200,2.35986328125,0.1596744291275739,0.0330997210472822,-0.2963296555869281,0.1091086193919181,-0.1172661706805229,-0.16160848736763
1783204563255801000,2.369801025390625,0.0733966601222753,0.0261523861274123,-0.1338759710043668,0.1073534786701202,-0.1135179102420806,-0.1611260920763015
1783204563265738000,2.379738037109375,0.067947747066617,-0.0337412338212132,0.0162818572372198,0.0891076326370239,-0.0961274653673172,-0.1515128761529922
1783204563275675100,2.389675048828125,0.1112333465635776,-0.0815685684010386,0.1561021235987544,0.0591598525643348,-0.0821570605039596,-0.1351176649332046
1783204563285613000,2.399613037109375,0.1791401770979166,-0.0669493836790323,0.1640273636400699,0.0380191430449485,-0.0655660927295684,-0.1029578670859336
1783204563295550200,2.40955029296875,0.2504968558251857,-0.1355208156019449,0.1466571266442537,0.0209428090602159,-0.033282570540905,-0.0692998990416526
1783204563305487000,2.419487060546875,0.2475450202822685,-0.1544587403059005,0.1837666678547859,0.0017872238531708,-0.0032647494226694,-0.0463767424225807
1783204563315424300,2.42942431640625,0.1808423048406839,-0.092962945857644,0.1654495053976774,0.0068434881977736,0.0312818884849548,-0.0158485174179077
1783204563325362200,2.439362060546875,0.230949274790287,-0.1858788377031683,0.1297407708957791,0.015755757689476,0.0787452757358551,0.0294321458786726
1783204563335299000,2.449299072265625,0.2693441796362399,-0.2027697667494416,0.1320072545230388,0.016824647784233,0.1052617579698562,0.0381240583956241
1783204563345235700,2.459235595703125,0.1672960100471973,-0.1073693646118044,0.1694374059900641,0.0070015788078308,0.1343360096216201,0.0279073752462863
1783204563355173600,2.469173583984375,0.053187984830141,-0.0345692090779542,0.2283224334180355,-0.0158991739153862,0.1679098308086395,0.0035236300900578
1783204563365110500,2.479110595703125,-0.0096913729310035,0.0016401684224605,0.2518599608719348,-0.0290850140154361,0.1909879893064499,-0.020439226180315
1783204563375047700,2.489047607421875,0.0332633871763944,0.0403825715318322,0.0708405458986759,-0.0014654537662863,0.2121714353561401,-0.0191719532012939
1783204563384985600,2.498985595703125,0.2545177819043397,0.0344072965145111,-0.3730585288718342,0.0694135129451751,0.179865688085556,-0.0012744457926601
1783204563394922800,2.5089228515625,0.3384960417956114,0.0890560015469789,-0.6186293264716863,0.1323187500238418,0.1397787630558014,-0.0008653702680021
1783204563404859600,2.518859619140625,0.1950415105849504,0.0434960273772478,-0.4378413821667432,0.1525065898895263,0.132875308394432,-0.0083477878943085
1783204563414797600,2.528797607421875,0.1149210951656103,-0.0571823151633143,-0.232264156781137,0.1556555479764938,0.1308671236038208,-0.0175150763243436
1783204563424734700,2.538734619140625,0.1103384435504674,-0.1076508119016885,-0.0660784460633993,0.1139914467930793,0.1247559785842895,-0.0238062608987092
1783204563434671600,2.548671630859375,0.1168582007080316,-0.2046095493972301,0.1353565649509429,0.0630952045321464,0.1370295286178589,-0.0051528415642678
1783204563444609500,2.558609619140625,0.1403963126838207,-0.2885466004952788,0.2106792246997356,0.0419228114187717,0.1539936065673828,0.0321095772087574
1783204563454546700,2.568546630859375,0.1449398013323545,-0.2689852831959724,0.1151579726614057,0.0285737067461013,0.1617787480354309,0.0485078878700733
1783204563464483800,2.57848388671875,0.112525139939785,-0.1761903873816132,0.0248427648335695,0.0048065911978483,0.136733591556549,0.0521862469613552
1783204563474421800,2.588421875,0.0912123027980327,-0.0672100804418325,-0.0211455177508294,-0.0267571434378623,0.098829261958599,0.0477301925420761
1783204563484358700,2.598358642578125,0.068691843432188,0.01284048461169,-0.0304603124544024,-0.0487809553742408,0.0700186565518379,0.0378120467066764
1783204563494295600,2.608295654296875,0.0626437954396009,0.0461389431014657,-0.0906459010869264,-0.0580419860780239,0.0516130216419696,0.0389162115752697
1783204563504232700,2.618232666015625,0.099134327968955,0.0380453607559204,-0.0982937854915857,-0.0466460548341274,0.0545667335391044,0.0506426431238651
1783204563514170600,2.628170654296875,0.1506879895955324,0.003588087619841,-0.0553359566442668,-0.0310918632894754,0.0547708794474601,0.063526339828968
1783204563524107800,2.638107666015625,0.1353869600892067,0.0016612112104892,-0.0060772740870714,-0.0260105524212121,0.0638163089752197,0.0671325251460075
1783204563534044400,2.64804443359375,0.0530512067079544,0.0599631780534982,0.0636971038848161,-0.0234694071114063,0.085669569671154,0.0527018085122108
1783204563543982600,2.657982666015625,-0.0454576828390359,0.1464525439828634,0.0630193507537245,-0.0175060555338859,0.1039260700345039,0.0291229765862226
1783204563553919500,2.66791943359375,-0.0834691413253545,0.1828983605876565,0.0131809686124324,-0.0043469881638884,0.1251305043697357,0.0063645173795521
1783204563563856600,2.677856689453125,-0.1020686278551816,0.1477268017023801,0.0382851608611643,0.004329590126872,0.1674880981445312,-0.0077877868898212
1783204563573794600,2.687794677734375,-0.0900637172847986,0.0932113676607608,0.1536015389546751,0.0156138930469751,0.2166192233562469,-0.0129284299910068
1783204563583731700,2.697731689453125,-0.0531920764833688,0.0103957218080759,0.122556996871531,0.0272287391126155,0.2505857348442077,0.0007516958285123
1783204563593668600,2.707668701171875,0.0550368275672197,-0.0092176179394125,0.0816784585162997,0.0260843411087989,0.2468167543411255,0.0116093419492244
1783204563603606800,2.717606689453125,0.0834317319244146,0.0169441205382347,0.027245734322071,0.0226161070168018,0.2272395938634872,0.0119411721825599
1783204563613543400,2.72754345703125,0.0471668248444795,0.081970719461143,-0.0344850379258394,0.0224485509097576,0.2101081758737564,-0.0001526209525763
1783204563623480600,2.73748046875,-0.0151402859866619,0.1406590552732348,-0.1755240324273705,0.0459682568907737,0.1781337261199951,-0.0159363783895969
1783204563633418500,2.74741845703125,0.0036024084061384,0.2237958959043025,-0.376156787148118,0.0853524208068847,0.1233935132622718,-0.030830904841423
1783204563643355600,2.757355712890625,-0.0341875162839889,0.2648343009963631,-0.4637070603072643,0.1159539967775344,0.0780851542949676,-0.0609698966145515
1783204563653292500,2.76729248046875,-0.1589613124221563,0.2867752069085836,-0.3857451380960643,0.1187179908156395,0.044429462403059,-0.1052857115864753
1783204563663230700,2.777230712890625,-0.2636971136599779,0.2779699691623449,-0.2588857678554952,0.1041694059967994,0.0184689685702323,-0.1505690217018127
1783204563673167600,2.787167724609375,-0.270862182983756,0.2234913599997758,-0.1871604019463062,0.089082546532154,-0.0033964910544455,-0.1796995997428894
1783204563683104500,2.7971044921875,-0.2072556799918413,0.13564181163311,-0.1797767214357852,0.0911523625254631,-0.0144552681595087,-0.175750657916069
1783204563693042400,2.80704248046875,-0.0839472802311182,0.0244882523074746,-0.2113039324693381,0.1093142703175544,-0.0039015081711113,-0.1549940556287765
1783204563702979600,2.8169794921875,-0.0584703091472387,-0.0524953263908624,-0.1124918221920728,0.1316030621528625,0.037051785737276,-0.1116612330079078
1783204563712916700,2.826916748046875,-0.0705985538363456,-0.0650482262328267,0.032409985217452,0.1441021114587783,0.0820464864373207,-0.0615556575357914
1783204563722854700,2.836854736328125,0.018579028263688,-0.115441904169321,-0.0844470464468002,0.1275100857019424,0.0384191162884235,-0.0144233014434576
1783204563732791600,2.84679150390625,0.1607020186096429,-0.0782376704126596,-0.2171133494004607,0.039261095225811,-0.0670808479189872,0.0051941666752099
1783204563742728700,2.856728759765625,0.1123293251067399,0.0237426946371793,0.0451321041464805,-0.0836120918393135,-0.1614579558372497,-0.0139489015564322
1783204563752666600,2.86666650390625,0.069827569463849,0.0340747035592794,-0.0868365719318389,-0.1408532857894897,-0.2747829258441925,-0.0055753896012902
1783204563762603500,2.876603515625,0.2139706674605608,-0.0656838937878608,-0.1921501730576157,-0.1632051914930343,-0.3298571109771728,0.0342676304280757
1783204563772540700,2.886540771484375,0.2639087105840444,-0.0784367001160979,-0.1042640920728445,-0.1448586136102676,-0.3317046463489532,0.0759131982922554
1783204563782478600,2.896478515625,0.1207172142237424,-0.1365741240471601,0.0479506686985492,-0.1447741836309433,-0.270340085029602,0.0962096825242042
1783204563792415700,2.906415771484375,0.081075524187088,-0.1136523904040455,0.2126332813769579,-0.1462980657815933,-0.195797711610794,0.0971087589859962
1783204563802352600,2.9163525390625,0.1291623864859342,-0.0793006234690547,0.2238059789068996,-0.1145931258797645,-0.1091429814696312,0.1116261780261993
1783204563812290600,2.92629052734375,0.1639583900570869,-0.1009083519041538,0.2461249243512749,-0.1055185943841934,-0.0209322515875101,0.1041095852851867
1783204563822227700,2.936227783203125,0.1102092642128467,-0.1227817455381155,0.3944222194179892,-0.109697625041008,0.0695704817771911,0.0919173657894134
1783204563832164600,2.94616455078125,0.07620411875844,-0.0595516746431589,0.3106552641898393,-0.0631147548556327,0.1278733015060424,0.0766157358884811
1783204563842102500,2.9561025390625,0.1121487078428268,0.0227431622058153,0.0049397944897413,-0.0077460445463657,0.1582469195127487,0.0414574779570102
1783204563852039700,2.966039794921875,-0.0040817163556814,0.1536217049598693,-0.0242342775464057,0.0239329040050506,0.1915773898363113,-0.015315861441195
1783204563861976600,2.9759765625,-0.0518348166555166,0.2178358184561133,0.0254860311731696,0.0468009375035762,0.209752932190895,-0.0714286640286445
1783204563871914800,2.985914794921875,-0.0572264465659856,0.2336409980922937,0.0677244597047567,0.0386696606874465,0.2024274170398712,-0.1293875277042389
1783204563881851600,2.9958515625,0.0205143802404403,0.133219260661304,0.2139417336270213,-0.0122827347368001,0.1978720724582672,-0.1546904891729354
1783204563891788800,3.005788818359375,0.2256733802139759,0.0306704480737447,0.1507131240367889,-0.0156133454293012,0.1922747939825058,-0.1522668749094009
1783204563901726700,3.015726806640625,0.2886825018346309,-0.0430152581229805,-0.0924134952813386,0.0111056165769696,0.1933496445417404,-0.1426259726285934
1783204563911663600,3.02566357421875,0.2798100440710783,-0.1215562953963875,-0.1406388892680406,0.0283221565186977,0.190855860710144,-0.1241689175367355
1783204563921601500,3.0356015625,0.3095154465049505,-0.1918757400304079,-0.1273790102005005,0.0339550077915191,0.1641723215579986,-0.0960299521684646
1783204563931538700,3.04553857421875,0.3452940313726663,-0.2055211112841963,-0.118189157050848,0.0137700149789452,0.1166448220610618,-0.0755629539489746
1783204563941475600,3.0554755859375,0.2568815884262323,-0.1283040160909295,-0.0345189401954412,-0.0042928745970129,0.087778553366661,-0.0526565760374069
1783204563951413500,3.06541357421875,0.2012678377538919,-0.0910296397075057,-0.1152484274238347,0.0071599311195313,0.0621954575181007,-0.0291080754250288
1783204563961350700,3.0753505859375,0.2070627877682447,-0.0727709294393658,-0.2779103479295969,0.0114191249012947,0.0159177090972661,-0.0234230253845453
1783204563971287800,3.085287841796875,0.1755845304429531,0.0097954178273677,-0.319920374532789,0.0003328947350382,-0.0486402921378612,-0.0327063240110874
1783204563981225700,3.095225830078125,0.0940232685655355,0.0288593069985508,-0.2609118668556213,-0.0096390461549162,-0.0688254535198211,-0.0232976451516151
1783204563991162600,3.10516259765625,0.0465004698902368,-0.0363449865788221,-0.1334863871648907,-0.0053356317803263,-0.0781749859452247,0.0022327934857457
1783204564001099500,3.115099609375,0.0444160648316144,-0.1387237032964825,-0.0519498213373124,-0.0341105535626411,-0.0801017805933952,0.0169973596930503
1783204564011037700,3.12503759765625,0.0625794980317354,-0.0884656344383955,0.0368178647875785,-0.0665009468793869,-0.0847366601228714,0.0209604799747467
1783204564020974600,3.134974609375,0.0015402151793241,-0.0390022230893373,0.0338571152858436,-0.0816021263599395,-0.078858271241188,0.0168964937329292
1783204564030911700,3.144911865234375,-0.0328267493247985,0.0065469374254345,-0.0409270536720752,-0.0779478177428245,-0.059957705438137,0.0063323662616312
1783204564040849700,3.154849609375,-0.0797656106323003,0.0398787136629223,-0.1228495500773191,-0.0534406192600727,-0.0324861370027065,-0.001816374133341
1783204564050786800,3.164786865234375,-0.1078378589063882,0.0712763069674372,-0.2219017527207732,-0.0210769698023796,-0.0141111705452203,-0.0073177032172679
1783204564060723500,3.174723388671875,-0.113377372854948,0.0989724154055118,-0.2825555433869361,-0.0054711122065782,-0.0133455116301774,-0.0237155854701995
1783204564070661600,3.18466162109375,-0.0952548561871051,0.1291410514369607,-0.2728174087047577,-0.00583410076797,-0.0367810614407062,-0.0429603829979896
1783204564080598500,3.1945986328125,-0.0801613319516181,0.1356821436434984,-0.2490703301534056,0.0031266370788216,-0.048384454101324,-0.0549326241016387
1783204564090536700,3.20453662109375,-0.0682768328905105,0.0935565278366208,-0.2142465617924928,0.0255131423473358,-0.0347387306392192,-0.0516495369374752
1783204564100473600,3.2144736328125,-0.0331938290715217,0.0314113295689225,-0.176873401209712,0.0634120553731918,-0.0131314415484666,-0.0295037534087896
1783204564110410800,3.22441064453125,0.0146241531580686,-0.0529161821514368,-0.1674585071325302,0.0926381796598434,0.0128187909722328,0.0006619940977543
1783204564120348700,3.2343486328125,0.0709738168895244,-0.0963265770718455,-0.1432405961990356,0.1070293709635734,0.0181208774447441,0.0327203273773193
1783204564130285800,3.244285888671875,0.0644400312066078,-0.0809472216323018,-0.1461507845573127,0.0953514650464057,0.0049271695315837,0.0521838963031768
1783204564140222500,3.254222412109375,-0.0305365925610065,0.0297308291360735,-0.0638508331418037,0.0470491796731948,-0.0436198599636554,0.044469516724348
1783204564150160600,3.26416064453125,-0.0427490084022283,0.1459896026462316,0.012824556390196,-0.0156401973217725,-0.095005564391613,0.0182456169277429
1783204564160097500,3.27409765625,-0.0507540356814861,0.1724658139005303,0.0908154124349355,-0.056647814810276,-0.0998152270913124,-0.0004796010907739
1783204564170034700,3.28403466796875,-0.0779541772961616,0.1286553137466311,0.1459694366410374,-0.0560739822685718,-0.0636611506342887,-0.0092836655676364
1783204564179972600,3.29397265625,-0.0424707759827375,0.0779439481630921,0.2028346486791968,-0.0419704094529151,-0.0128765329718589,-0.0129612246528267
1783204564189909800,3.30390966796875,-0.0183563254237175,0.0860915987834334,0.2703694310307503,-0.0236820243299007,0.0456431321799755,-0.0193063151091337
1783204564199846400,3.313846435546875,0.0005956278055906,0.0828226601153612,0.2992936199590563,-0.0005101272836327,0.1161372736096382,-0.0194996614009141
1783204564209784600,3.32378466796875,0.0135439567059278,0.0739537094831466,0.2635524444922805,0.0363491587340831,0.1899018734693527,-0.0131013067439198
1783204564219721500,3.333721435546875,0.0082335753381252,0.0433516504704952,0.1347828567162156,0.0759596824645996,0.2473579794168472,-0.0121468296274542
1783204564229658600,3.34365869140625,0.0548380901247262,0.0304503755822777,0.1027010805398225,0.0807770192623138,0.2585740387439728,-0.0120603926479816
1783204564239596500,3.353596435546875,0.1261906771987676,-0.0038695349097251,0.129507838922739,0.0656763613224029,0.2394216358661651,-0.0007768450304865
1783204564249533700,3.36353369140625,0.1483078164607286,-0.0409159477561712,0.0519078818917274,0.0635906904935836,0.2002209424972534,0.0103407567366957
1783204564259471600,3.3734716796875,0.1497118380397558,-0.0782820940762758,-0.0768453392714262,0.0608950406312942,0.1580937355756759,0.0210344139486551
1783204564269408800,3.38340869140625,0.0952455038368702,-0.03419482280761,-0.0560816604450345,0.0260152239352464,0.1001388654112815,0.0092856474220752
1783204564279345400,3.393345458984375,0.0363935018956661,0.0783487295717001,0.0317664266169071,-0.0206851698458194,0.0540656447410583,-0.0093892365694046
1783204564289283600,3.40328369140625,0.0307961202800273,0.121458387979865,-0.0181821379005908,-0.0164226237684488,0.0326176360249519,-0.0126859387382864
1783204564299220500,3.413220458984375,0.13965163179636,0.0019046645775437,-0.2064595611780881,0.0262601263821125,0.0238659530878067,0.006816123612225
1783204564309157600,3.42315771484375,0.2077747354298829,-0.0962438672244548,-0.2586220023527741,0.0503060333430767,0.0089556612074375,0.0180053394287824
1783204564319095600,3.433095458984375,0.1658575016766786,-0.0116872229233384,-0.1259495619192719,0.0562310330569744,0.0058493502438068,0.0191113501787185
1783204564329032700,3.44303271484375,0.1381909115940332,0.0208934426859021,-0.0599018032550811,0.064038336277008,0.0227771308273077,0.0151104172691702
1783204564338969600,3.452969482421875,0.1237801089257001,0.0034349428847432,-0.045362405771017,0.0880105197429657,0.0608675219118595,0.0280935950577259
1783204564348908000,3.462907958984375,0.1663631131112575,-0.049513972492516,-0.1166086098611354,0.1349517852067947,0.0917410627007484,0.0559689439833164
1783204564358844700,3.4728447265625,0.2897217817544937,-0.138017893114686,-0.295534267425537,0.1937527805566787,0.0957406014204025,0.0972026586532592
1783204564368782800,3.482782958984375,0.3584884439885616,-0.1437815712079405,-0.4394961636364459,0.2576247453689575,0.105691023170948,0.1497940272092819
1783204564378719700,3.4927197265625,0.2446089668303728,-0.1090051491200923,-0.5123582784906029,0.3361720144748688,0.102422259747982,0.1805314272642135
1783204564388657000,3.502656982421875,0.1131850651532411,-0.0619283406466245,-0.5733949309945107,0.3856692612171173,0.1277617067098617,0.2038205116987228
1783204564398594800,3.5125947265625,0.0538286208212375,0.0162003164336085,-0.2478068860888481,0.365137904882431,0.1150400564074516,0.2096946388483047
1783204564408532000,3.522531982421875,-0.6028267771840096,0.1094987778559327,0.5522621265947818,0.2439270317554474,0.1577499061822891,0.1511692255735397
1783204564418468600,3.532468505859375,-0.7227852819949389,-0.0069333063945174,1.0205483313858508,0.1234424114227294,0.3005587160587311,0.1213868260383606
1783204564428406800,3.54240673828125,-0.5262701917260885,-0.0321855288118124,1.0613070427536964,0.0516489297151565,0.4510842859745025,0.0866927504539489
1783204564438343700,3.55234375,-0.52371232393682,0.0479889548823237,0.8780151528038084,0.0176345072686672,0.5647937655448914,0.0767181441187858
1783204564448280800,3.56228076171875,-0.3441097900241613,0.1060118125230073,0.5282821160703897,0.0315415821969509,0.6491943597793579,0.0868753716349601
1783204564458218800,3.57221875,-0.1269143152981996,0.1735731906205415,0.1371519239351153,0.1027473211288452,0.7130156755447388,0.1053111031651496
1783204564468156000,3.582156005859375,0.0945545989632606,0.2062137697234749,-0.238845580998063,0.1793829202651977,0.7286962866783142,0.1343397051095962
1783204564478093800,3.59209375,0.1304594405591488,0.2041004308313131,-0.3284235605925321,0.2186898440122604,0.6894441843032837,0.1475023776292801
1783204564488031000,3.602031005859375,-0.0202758953094482,0.2261293072879314,-0.3106616939306258,0.2290698438882827,0.625486433506012,0.1421618014574051
1783204564497967600,3.611967529296875,-0.0580833556562662,0.1846925505280494,-0.3271533945262432,0.1839867979288101,0.5241960287094116,0.0917484164237976
1783204564507905800,3.62190576171875,-0.2431809798538684,0.4284443160071969,-0.0962745546236634,-0.0028197569772601,0.4295368492603302,-0.0359682887792587
1783204564517842700,3.6318427734375,-0.2496481300413608,0.6555436373710632,0.3684165482848882,-0.1517961770296096,0.3569593131542206,-0.1030690297484397
1783204564527779800,3.64177978515625,0.2490501641482114,0.2638873755350708,-0.1762248741731047,-0.158915176987648,0.2207977622747421,-0.0622869469225406
1783204564537717800,3.6517177734375,0.4592173476725816,-0.2906944261789321,-0.4374509215444326,-0.1308390647172927,0.1150194108486175,0.0191032495349645
1783204564547655000,3.661655029296875,0.4717448208123445,-0.5448799073889852,-0.4370338651761412,-0.106223240494728,0.0101985894143581,0.1000754684209823
1783204564557592800,3.6715927734375,0.373428238967061,-0.4204883885666727,-0.4111567888587713,-0.1308193951845169,-0.0882243812084198,0.1177697777748107
1783204564567530000,3.681530029296875,0.2271323468506336,-0.2456409402266144,-0.2913879614010453,-0.1788486987352371,-0.1880270838737487,0.1010153591632843
1783204564577466600,3.691466552734375,0.1193207914292812,-0.0303232420712709,-0.261725521326065,-0.2036634981632232,-0.299869179725647,0.0583419390022754
1783204564587404800,3.70140478515625,0.1269879650563001,0.0508200866550207,-0.4812792496159672,-0.1499061584472656,-0.3716954588890075,0.0353633575141429
1783204564597341700,3.711341796875,0.2445569443821907,-0.0232078571081161,-0.7255521163597702,-0.054916001856327,-0.3901737928390503,-0.0062887477688491
1783204564607278800,3.72127880859375,0.0579869095444679,0.0971484148487448,-0.7446534149318933,0.0610466115176677,-0.3856424689292907,-0.0865631029009819
1783204564617216800,3.731216796875,0.0101502226144075,0.3054799073785543,-0.6917340179100633,0.1652957797050476,-0.3587706387042999,-0.1890953332185745
1783204564627154000,3.74115380859375,-0.0434369906663894,0.39136224732548,-0.5325283753380179,0.2408986687660217,-0.3225096762180328,-0.2852185368537903
1783204564637091800,3.751091796875,-0.0752332278996706,0.3984206414043903,-0.3043438890859484,0.2841500043869018,-0.2638700902462005,-0.3801927268505096
1783204564647029000,3.761029052734375,-0.1384492702692747,0.2793319051653146,-0.0441579984173178,0.2966475188732147,-0.1770979464054107,-0.4218115508556366
1783204564656965600,3.770965576171875,0.0599251841306686,0.0290825943604111,0.2498445293962955,0.2916956543922424,-0.0823674276471138,-0.3990777432918548
1783204564666903800,3.78090380859375,0.2376245147705078,-0.2009165400981903,0.4701964223265648,0.2898344695568084,0.0262160710990428,-0.3178204298019409
1783204564676840700,3.7908408203125,0.4475707490205765,-0.5053597979053854,0.5202592608734965,0.2613050937652588,0.081615149974823,-0.223671019077301
1783204564686777900,3.80077783203125,0.4500251564353704,-0.5179141590520739,0.407265042117238,0.1972511559724807,0.0651330798864364,-0.1685025990009308
1783204564696715800,3.8107158203125,0.392874697715044,-0.352014279538393,0.2831950103342533,0.1133275032043457,0.0114759746938943,-0.1317523121833801
1783204564706653000,3.82065283203125,0.3759007665604352,-0.1740951686680316,0.1035033368334174,0.0396328419446945,-0.0669531375169754,-0.105145014822483
1783204564716590800,3.8305908203125,0.3843693196982145,-0.113328857538104,-0.0800578715771436,-0.0125632490962743,-0.162227988243103,-0.0857819691300392
1783204564726528000,3.840528076171875,0.2890221090525388,0.0507154572367668,-0.1554211555972695,-0.0561838522553443,-0.2368148565292358,-0.1159566268324852
1783204564736464600,3.850464599609375,0.0540326189607381,0.3459375899732113,-0.126661801841855,-0.0920587629079818,-0.2929164469242096,-0.1966394931077957
1783204564746402800,3.86040283203125,-0.1695335598409175,0.5593862793862819,-0.191547238728404,-0.0215384662151336,-0.3023573160171509,-0.2976438105106354
1783204564756339700,3.870339599609375,-0.0976876362919807,0.4983364751398563,-0.3151799020074308,0.0231664180755615,-0.2846435606479645,-0.3286477923393249
1783204564766276900,3.88027685546875,-0.0582464372634887,0.5922890165567398,-0.0043552726000547,0.0614216700196266,-0.2615572214126587,-0.3604255020618438
1783204564776214800,3.89021484375,-0.2067261031597852,0.3075555446088314,0.1068096849024295,0.1228570640087127,-0.2126013934612274,-0.3706698715686798
1783204564786152000,3.90015185546875,-0.1455482886195182,0.1942015526294708,0.2580512167274952,0.1460467129945755,-0.145261213183403,-0.3730070292949676
1783204564796089900,3.91008984375,-0.167305946919322,0.1636158602297306,0.5014782802969217,0.110606163740158,-0.0790227949619293,-0.3729844093322754
1783204564806027000,3.920027099609375,-0.2157388461768627,0.0059141924798488,0.7304360890090466,0.0393211618065834,-0.0238445252180099,-0.3570701777935028
1783204564815963600,3.929963623046875,-0.2064531314373016,-0.1615618503093719,0.8483516898155212,-0.0155657902359962,0.0372609086334705,-0.3523774445056915
1783204564825901800,3.93990185546875,-0.21645254740417,-0.1135047986268997,0.7123170794725417,-0.0379066690802574,0.0857917219400405,-0.3169727921485901
1783204564835838700,3.949838623046875,0.073113751527667,-0.1787187368154525,0.3394078959435224,0.0048932610079646,0.0979306772351265,-0.2454576045274734
1783204564845777000,3.95977685546875,0.2772007383555174,-0.2543506086438894,-0.1241694005042314,0.0571547038853168,0.0758306086063385,-0.1519104242324829
1783204564855713800,3.9697138671875,0.3370598715126514,-0.098830376586318,-0.3759269239149987,0.0559807792305946,0.0044054314494132,-0.1449505090713501
1783204564865651000,3.97965087890625,0.0362269131571054,0.0316705650269985,-0.3802133690625429,0.0213124342262744,-0.1029427126049995,-0.151640236377716
1783204564875588900,3.9895888671875,0.0603711743324995,0.3133440648823976,-0.4200881372027099,-0.0289560630917549,-0.2281738668680191,-0.1885202229022979
1783204564885526000,3.999526123046875,-0.0441126979708671,0.409053679099679,-0.4088501193515956,-0.0763408541679382,-0.3436487913131714,-0.2280034571886062
1783204564895462700,4.009462646484375,-0.1470616157919168,0.3633487435013056,-0.3492097435116768,-0.1085509806871414,-0.4187304973602295,-0.2789854109287262
1783204564905400800,4.01940087890625,-0.2233417223960161,0.2360492282778024,-0.2088379807472229,-0.1183556318283081,-0.4407326579093933,-0.2968306541442871
1783204564915337700,4.029337646484375,-0.1187473754554986,0.2081055748194456,-0.0686279844157397,-0.1208486109972,-0.4154379665851593,-0.3127613961696625
1783204564925276000,4.03927587890625,-0.1049684409499168,0.1978337716519832,0.0741103613495826,-0.1236596256494522,-0.3626746833324432,-0.321588784456253
1783204564935212800,4.049212890625,-0.0960042132496833,0.1020446624577045,0.1333835113123059,-0.1092231720685958,-0.2990746796131134,-0.3244570195674896
1783204564945150000,4.05914990234375,-0.0728133072763681,-0.0611579407960176,0.1783376285433769,-0.1048096716403961,-0.2115506529808044,-0.3151721358299255
1783204564955088000,4.069087890625,-0.0119137251555919,0.0012473697125911,0.2475394673243164,-0.127102717757225,-0.119973324239254,-0.260597825050354
1783204564965025000,4.07902490234375,0.4395604610443115,0.5699596958488226,0.2148755073457956,-0.1594415307044983,-0.1103613004088401,-0.2080002576112747
1783204564974962700,4.088962646484375,0.3834194716274738,0.4088777380108833,0.0261941794425249,-0.1542928516864776,-0.1538832187652588,-0.2015263885259628
1783204564984899800,4.09889990234375,0.0502367338091135,-0.1977069304019212,-0.1312356856286525,-0.1357411295175552,-0.1661977618932724,-0.1843006163835525
1783204564994836700,4.108836669921875,0.2630401110559702,-0.2191238124400377,-0.1329851596444845,-0.101404994726181,-0.1695746481418609,-0.1341668665409088
1783204565004775000,4.11877490234375,0.4858125091314315,-0.22143208938241,-0.16164923633188,-0.0710975602269172,-0.1544109433889389,-0.0736828222870826
1783204565014711800,4.1287119140625,0.4804559505343437,-0.2621370247364044,-0.0678977704450488,-0.0545681193470954,-0.1099625155329704,-0.0249895807355642
1783204565024649000,4.13864892578125,0.3673474577486514,-0.2811801633805036,0.0645320934042334,-0.0509482622146606,-0.072110079228878,-0.0082083512097597
1783204565034587000,4.1485869140625,0.1573304963499307,-0.2671463773310184,0.147673025688529,-0.0708769634366035,-0.0654090344905853,-0.0244861226528882
1783204565044523800,4.158523681640625,-0.0649181701123714,-0.2941121256679296,0.2473682024106383,-0.0960882157087326,-0.0485343933105468,-0.0574248395860195
1783204565054461700,4.168461669921875,-0.1218044249385595,-0.3737643390536308,0.2438556642450392,-0.0874387994408607,-0.0346627868711948,-0.1050754562020301
1783204565064398800,4.17839892578125,-0.2100432648837566,-0.4813397476315498,0.1451651345208287,-0.0667406916618347,0.0027496272232383,-0.1151828840374946
1783204565074335700,4.188335693359375,0.0029769699841737,-0.1018009168297052,0.1955479988023638,-0.0403042882680892,0.0586871951818466,-0.117845244705677
1783204565084274000,4.19827392578125,0.1189256546318531,-0.0145651164472103,0.1595364819616079,-0.0091681638732552,0.0985608175396919,-0.1037624776363372
1783204565094210800,4.2082109375,0.1593663860917091,-0.1339133804053068,0.1129712762720882,0.0249964650720357,0.1450849026441574,-0.0674345642328262
1783204565104149000,4.21814892578125,0.2992138327211141,-0.1379290457874536,0.0828467716433107,0.0526709035038948,0.1681102663278579,-0.0284411553293466
1783204565114086000,4.2280859375,0.3589449555844068,-0.1644727693200111,0.0502858336478471,0.0775850415229797,0.1960172653198242,0.0172997005283832
1783204565124022800,4.238022705078125,0.3700380120068788,-0.1564998907446861,0.0491638438805937,0.0910253003239631,0.2333567589521408,0.0540567673742771
1783204565133960700,4.247960693359375,0.2981301291376352,-0.1771820287674665,0.0067243398189544,0.1113558709621429,0.2662721276283264,0.0981451347470283
1783204565143897900,4.25789794921875,0.2218652201026678,-0.1704752246052026,-0.1240932665280997,0.1392797976732254,0.2870084643363952,0.1346354335546493
1783204565153835800,4.267835693359375,0.2587017895907163,-0.1098369237691164,-0.3093995650403201,0.1550824642181396,0.2518757879734039,0.1573841571807861
1783204565163773000,4.27777294921875,0.2803133174180984,-0.0725543640792369,-0.4783621931254863,0.1430310755968094,0.1611417233943939,0.1760412901639938
1783204565173709800,4.287709716796875,0.2616144621670246,-0.0453536379426717,-0.5877218547716736,0.1151032969355583,0.0286079086363315,0.1904604434967041
1783204565183647700,4.297647705078125,0.2203963165938854,-0.0317407076537609,-0.6682949823945761,0.0913880839943885,-0.1256049424409866,0.1962809264659881
1783204565193585000,4.3075849609375,0.1566167951226234,-0.0149275200188159,-0.6779097829580306,0.063280813395977,-0.2612402737140655,0.1863803565502166
1783204565203522800,4.317522705078125,0.010770400339365,0.0424053095310926,-0.5580369106039405,0.039124097675085,-0.3422344028949737,0.1554739028215408
1783204565213459700,4.327459716796875,-0.157426942461729,0.1335217507392168,-0.3760381292045116,0.023850068449974,-0.3394245207309723,0.1145073026418685
1783204565223396900,4.33739697265625,-0.2705009484559297,0.1870931819289922,-0.2233446450054645,0.0231950841844081,-0.3004156649112701,0.0612189583480358
1783204565233334800,4.347334716796875,-0.3224988467186689,0.2194967374056577,-0.0380114584863185,0.0102294832468032,-0.223296120762825,0.0086092744022607
1783204565243272000,4.35727197265625,-0.3338245428532362,0.2179641210108995,0.206511145234853,0.0144717749208211,-0.1182957515120506,-0.0307683125138282
1783204565253208800,4.367208740234375,-0.3311024244129658,0.1619604942381382,0.2606283737391233,0.0365640297532081,-0.0167267806828022,-0.0594700016081333
1783204565263146800,4.377146728515625,-0.2884077765464782,0.1223719956934452,0.2334340773433446,0.0656870231032371,0.0789759010076522,-0.0728903487324714
1783204565273084000,4.387083984375,-0.2170318085968494,0.1195130991309881,0.1411691967524588,0.0821549519896507,0.1156710609793663,-0.0862357094883918
1783204565283021800,4.397021728515625,-0.1829185265928506,0.1405845287322998,0.0578238279372453,0.0771821960806846,0.1210226714611053,-0.0984851941466331
1783204565292958700,4.406958740234375,-0.1329290455430746,0.1860088938236236,0.02000204680413,0.0604740530252456,0.1040937602519989,-0.1069556474685669
1783204565302895900,4.416895751953125,-0.0815296976953744,0.1740092439502477,-0.0600980564795434,0.0412801206111907,0.0584847256541252,-0.1032421365380287
1783204565312833800,4.426833740234375,-0.014791326418519,0.160009944692254,-0.0896612739637494,0.0182304624468088,0.0036726109683513,-0.0905657559633255
1783204565322771000,4.43677099609375,0.0265413854449987,0.1351034669727087,-0.1282680679947137,-0.0046976683661341,-0.0574004761874675,-0.0795454755425453
1783204565332708900,4.446708984375,0.0351788654088974,0.1210959844082593,-0.1664621895715594,-0.0187274664640426,-0.1054233908653259,-0.0720358937978744
1783204565342645800,4.456645751953125,-0.0182031806886196,0.1498994695663452,-0.1412263337671756,-0.0307867936789989,-0.1388095766305923,-0.0751408711075782
1783204565352583200,4.466583251953125,-0.0818967774420976,0.1774088232606649,-0.0806843329124152,-0.0323884189128875,-0.148827850818634,-0.0891128778457641
1783204565362521000,4.47652099609375,-0.1151806228846311,0.187440387931466,-0.0476689291477203,-0.0253578498959541,-0.1440164744853973,-0.1094563826918602
1783204565372458200,4.486458251953125,-0.1453951438844203,0.1979816556900739,0.0004103343665599,-0.0157829895615577,-0.110022023320198,-0.1296987980604171
1783204565382396200,4.496396240234375,-0.1678670879334211,0.1900537853002548,0.1219543548032641,-0.008311491459608,-0.0644474476575851,-0.1545339226722717
1783204565392333300,4.506333251953125,-0.2046528040170669,0.1561205360382795,0.2239160151526331,0.0019424781203269,-0.0046450952067971,-0.1725539416074752
1783204565402270200,4.516270263671875,-0.1351677643805742,0.1368500183790922,0.1957050890602171,0.0158195905387401,0.0339731164276599,-0.1883342713117599
1783204565412208400,4.52620849609375,-0.0993091000139713,0.133206108918786,0.14280337382555,0.0233041383326053,0.0607658475637435,-0.2045353353023529
1783204565422145000,4.53614501953125,-0.0945499227881431,0.1363666187763214,0.156097155162692,0.0236373394727706,0.0952112451195716,-0.2118989080190658
1783204565432083200,4.546083251953125,-0.025679215657711,0.0956757119476795,0.1019606374360621,0.0309748817235231,0.1114780977368354,-0.2160795480012893
1783204565442020000,4.55602001953125,-0.008601239606738,0.0824719469815492,-0.0001927460931241,0.0395937152206897,0.1117661595344543,-0.216585099697113
1783204565451957200,4.565957275390625,0.0527688826352357,0.0920148513525724,-0.0834898918524384,0.0514980442821979,0.1099088713526725,-0.2202240377664566
1783204565461895200,4.575895263671875,0.0788835671007633,0.0505108745753765,-0.1100268933832645,0.0540711246430873,0.1017623394727706,-0.2229193449020385
1783204565471832300,4.585832275390625,0.0802665458917617,0.0259989491313695,-0.0911221402965486,0.0568440109491348,0.0991516411304473,-0.2243627905845642
1783204565481770200,4.595770263671875,0.0445300466001033,0.0384334832906723,-0.1204277297578751,0.0630080699920654,0.0646835565567016,-0.2318240255117416
1783204565491707400,4.605707275390625,0.0001245031625032,0.0726993255078792,-0.1945841222062707,0.052792452275753,0.0187541507184505,-0.2514435350894928
1783204565501644000,4.61564404296875,0.0121142161637544,0.1139753387480974,-0.1878568597778677,0.0398355275392532,-0.0094686588272452,-0.2743352055549621
1783204565511582200,4.625582275390625,0.0015355390042066,0.1010047980159521,-0.1323736036173999,0.0255298260599374,-0.0232587717473506,-0.2910667955875397
1783204565521519000,4.63551904296875,-0.0225929400801658,0.0871335090517997,-0.1122521682173013,0.0308297388255596,-0.0305813048034906,-0.2996591031551361
1783204565531457300,4.645457275390625,0.0173614691674709,0.078953125205636,-0.1744891364216804,0.0395824834704399,-0.0569311566650867,-0.3091495633125305
1783204565541394200,4.655394287109375,0.0413935021400451,0.105971480512619,-0.2343169976577162,0.0393410921096801,-0.0913332551717758,-0.3232381343841553
1783204565551332400,4.665332275390625,0.0325561156898736,0.1223468612521886,-0.2313692537680268,0.0416979901492595,-0.1188474372029304,-0.335063099861145
1783204565561269200,4.675269287109375,0.0464005166471004,0.1180617312788963,-0.2503320206522941,0.0590416230261325,-0.1343451589345932,-0.34964519739151
1783204565571206400,4.685206298828125,0.0011591069072484,0.1266863517612218,-0.230822433540225,0.0780533999204635,-0.1254640519618988,-0.3630244135856628
1783204565581144300,4.695144287109375,-0.0368155267000198,0.1217874738037586,-0.1323494920894503,0.0945388078689575,-0.1029564663767814,-0.3742052614688873
1783204565591081200,4.705081298828125,-0.0281248552441596,0.0828553933411836,-0.0431277785867452,0.0992603227496147,-0.0769799873232841,-0.3823771774768829
1783204565601019100,4.71501904296875,-0.0449532404482364,0.0585071340262889,0.0274193373233079,0.0963298231363296,-0.0499313808977603,-0.3881467282772064
1783204565610956300,4.724956298828125,-0.041369536742568,0.055711365827918,0.0665817194104194,0.096390277147293,-0.0135264992713928,-0.3928157687187195
1783204565620893200,4.73489306640625,-0.0365039765328168,0.0568704727351665,0.0778600692719221,0.0984375774860382,0.0137983029708266,-0.3939878642559051
1783204565630831400,4.744831298828125,-0.0329103359550237,0.0636374826520681,0.0476112076111137,0.1026794612407684,0.0314601212739944,-0.3934994339942932
1783204565640768300,4.754768310546875,0.0091559508800506,0.0827946030646562,0.0357940746977925,0.1024644672870636,0.0434075258672237,-0.3914912343025207
1783204565650706200,4.7647060546875,-0.0003846154034137,0.1201741933882236,0.0288946705728769,0.1060392260551452,0.0510681122541427,-0.3893726468086242
1783204565660643300,4.774643310546875,0.0183060565412044,0.1098854390859603,-0.0209945649728178,0.1052069440484047,0.0437636412680149,-0.3885864317417145
1783204565670580200,4.784580322265625,0.0576256750166416,0.1018488476246595,-0.0646902065753936,0.0962904095649719,0.0150398518890142,-0.3847805261611938
1783204565680518100,4.79451806640625,0.0625029256641864,0.0830833568781614,-0.0274589386813342,0.0797481536865234,-0.0074788816273212,-0.3767376244068146
1783204565690455300,4.804455322265625,0.0639554625600576,0.0314367562711238,0.0008919804036617,0.0688153430819511,-0.0217233318835496,-0.3672099113464355
1783204565700393200,4.814393310546875,0.0754600223928689,0.0163613522142171,0.0206967510700225,0.0526833273470401,-0.0386186316609382,-0.3626225590705871
1783204565710330400,4.824330322265625,0.0703244130700826,0.0250315654039382,0.0440602371312677,0.0398980230093002,-0.0472257025539875,-0.3576834201812744
1783204565720267300,4.834267333984375,0.0677735595434904,0.0425233829528093,0.0642836716011166,0.031338557600975,-0.0541602671146392,-0.3546101152896881
1783204565730205200,4.844205078125,0.0681055679768323,0.0380436071902513,0.0930164296105504,0.0253613591194152,-0.0482669621706008,-0.3499240279197693
1783204565740142300,4.854142333984375,0.0990729531705379,0.0186842422038316,0.0965738298311829,0.0210613757371902,-0.041471317410469,-0.3432804346084595
1783204565750080300,4.864080322265625,0.1158908169806003,0.0063899932980537,0.10040244820863,0.0202602967619895,-0.0268359147012233,-0.3337873518466949
1783204565760017200,4.87401708984375,0.1086661264240741,-0.005175356811285,0.100284959308803,0.0322000347077846,-0.0138535927981138,-0.3209996819496155
1783204565769955000,4.883955078125,0.139761521911621,-0.0054664487123489,0.0307058116480708,0.0392893701791763,-0.0174416713416576,-0.3152296841144562
1783204565779892200,4.893892333984375,0.1648632299423217,0.0306119958847761,-0.011821224566549,0.0339606367051601,-0.0231326352804899,-0.3107276558876037
1783204565789829400,4.903829345703125,0.1428378606170415,0.0365250193208456,-0.0037991000220179,0.0322460941970348,-0.0296411365270614,-0.3202207684516907
1783204565799767300,4.913767333984375,0.0921387699931859,0.0725192927658557,-0.0304892462879419,0.0331960543990135,-0.0408372730016708,-0.3275169730186462
1783204565809704200,4.9237041015625,0.072440382310748,0.0956312882840633,-0.0798228937774896,0.0395700670778751,-0.0523312129080295,-0.3389597833156585
1783204565819642400,4.933642333984375,0.0887169788509607,0.0679302114099264,-0.0779977241769433,0.035835150629282,-0.0656719133257865,-0.346437007188797
1783204565829579300,4.943579345703125,0.111107674357295,0.0549637623310089,-0.0319246859185397,0.0210231803357601,-0.0749138817191124,-0.347929447889328
1783204565839516200,4.95351611328125,0.1047679499417543,0.0260761060208082,0.0295202551253139,0.0089956885203719,-0.0703752934932708,-0.3477744162082672
1783204565849454000,4.9634541015625,0.1080056166887283,0.0050648821741342,0.0648304918289184,0.006840658839792,-0.055542554706335,-0.3478228747844696
1783204565859391200,4.97339111328125,0.1132949552685022,0.0063461541563272,0.0654471624225378,0.0001083835959434,-0.0431964136660099,-0.345995157957077
1783204565869329200,4.9833291015625,0.1046522146075964,0.0031394670695066,0.0925835911512374,-0.0065045105293393,-0.0198889635503292,-0.3484383523464203
1783204565879266300,4.993266357421875,0.0793856714040041,0.0007592939347028,0.151386200992763,-0.0193765498697757,0.0112059079110622,-0.3500340580940246
1783204565889204200,5.003204345703125,0.0714905342400074,-0.0282750773698091,0.1698018553882837,-0.0257098115980625,0.0412136055529117,-0.34123495221138
1783204565899141400,5.013141357421875,0.0796662419110536,-0.0595621960371732,0.1686896563626825,-0.0265280492603778,0.0766201540827751,-0.3245325982570648
1783204565909078300,5.023078369140625,0.1169014553278684,-0.102129418131709,0.1666771474964916,-0.0316935181617736,0.1061572730541229,-0.3027862906455993
1783204565919016400,5.033016357421875,0.140563485944271,-0.1240314533382654,0.1473470086045563,-0.0312354806810617,0.1273902803659439,-0.2734215855598449
1783204565928953000,5.042953125,0.1707721617251634,-0.1391781690657138,0.1210614976167678,-0.0310844797641038,0.1426842808723449,-0.2392987757921219
1783204565938891300,5.052891357421875,0.2159592109292745,-0.143370360058546,0.0605237345457077,-0.0285578947514295,0.146536722779274,-0.2136899083852768
1783204565948828200,5.062828125,0.2149929962456226,-0.0922211875796318,-0.0012003157004714,-0.0249431859701871,0.1397144943475723,-0.1936134099960327
1783204565958766300,5.072766357421875,0.1781330458819866,-0.0394692560791969,-0.0227155435465276,-0.0277340561151504,0.1336896419525146,-0.1850409209728241
1783204565968703200,5.082703125,0.1448129600822925,-0.0321475348889827,-0.0324877266287803,-0.023004014045,0.1314752250909805,-0.1763496994972229
1783204565978640400,5.092640380859375,0.1283826342850923,-0.020408581778407,-0.0324383345291018,-0.0252868440002203,0.1260505467653274,-0.1684633642435073
1783204565988578300,5.102578369140625,0.1219733517646789,0.0061573535859584,-0.01374503223598,-0.0299021024256944,0.1217021271586418,-0.1663008779287338
1783204565998515200,5.11251513671875,0.0971867010325193,0.0032370822250843,0.0125330260977149,-0.0325336381793022,0.119545966386795,-0.1663691252470016
1783204566008453000,5.122453125,0.0651508098244667,0.0069014499515295,0.0180512049973011,-0.0352559238672256,0.1191446259617805,-0.1657565981149673
1783204566018390300,5.132390380859375,0.0745849931240081,0.008638649007678,0.0021902035206556,-0.038107194006443,0.1179567277431488,-0.1692090034484863
1783204566028327200,5.1423271484375,0.0971101286649703,0.0012520458877086,-0.0283048879861831,-0.0380709767341613,0.1192161366343498,-0.165705606341362
1783204566038265300,5.152265380859375,0.0999690252274274,-0.0133697691828012,-0.0244675017803907,-0.038566056638956,0.1292094439268112,-0.1621584743261337
1783204566048202200,5.1622021484375,0.0958352864235639,-0.0293932677447795,-0.014243044885993,-0.0349915623664855,0.1401611566543579,-0.1558955162763595
1783204566058140200,5.17214013671875,0.0960486369132995,-0.0468441687613725,-0.0209612472251057,-0.024190928786993,0.1481758207082748,-0.1530881375074386
1783204566068077300,5.182077392578125,0.0852349819540977,-0.0151180741548538,-0.0578505698136985,-0.035963699221611,0.1553988456726074,-0.1485354751348495
1783204566078015200,5.19201513671875,0.0821376004606485,-0.0062269116908311,-0.0409586178541183,-0.0212467424571514,0.1439001262187957,-0.1452744156122207
1783204566087952100,5.2019521484375,0.107224695444107,0.0083732760697603,-0.2157218950420618,-0.0010703699663281,0.1250247061252594,-0.142524167895317
1783204566097889300,5.21188916015625,0.1218722294777631,0.007651976057887,-0.249382026451081,0.0073581635951995,0.0920916646718978,-0.1356823593378067
1783204566107827200,5.2218271484375,0.1084644663721322,0.0111328039109706,-0.2369018995843827,0.0039879335090518,0.0550228618085384,-0.1291102021932602
1783204566117764400,5.231764404296875,0.1418108556568622,-0.0118704705357551,-0.21068974609375,-0.0038040820509195,0.0168770439922809,-0.1130319386720657
1783204566127702300,5.241702392578125,0.1477940217196941,-0.0574526565372943,-0.2095217252276837,-0.013405043631792,-0.028993509709835,-0.0946854203939437
1783204566137639200,5.25163916015625,0.1820090105324983,-0.0890314516276121,-0.1932321230754256,-0.0264752116054296,-0.0611210167407989,-0.0739316120743751
1783204566147577300,5.261577392578125,0.1735048015594482,-0.1094429560154676,-0.1343970722690224,-0.0394421443343162,-0.0829970240592956,-0.0537283383309841
1783204566157514200,5.27151416015625,0.1739928773373365,-0.1447135913610458,-0.0748635178044438,-0.0509754195809364,-0.1001820042729377,-0.0416528992354869
1783204566167451100,5.281451171875,0.1668997042059898,-0.1199602583765983,-0.0527472553253173,-0.0462813302874565,-0.1023290455341339,-0.027502454817295
1783204566177389000,5.29138916015625,0.1305032797008752,-0.0965782137453556,0.0024777882903814,-0.0508445240557193,-0.0910558626055717,-0.0187488831579685
1783204566187326200,5.301326171875,0.1096972230374813,-0.0507844308197498,0.0225759889453649,-0.0520442761480808,-0.0697095617651939,-0.0163983777165412
1783204566197264100,5.31126416015625,0.114345341104269,-0.0180891989201307,0.0768964849367737,-0.037890538573265,-0.0291186515241861,-0.0172374732792377
1783204566207201300,5.321201171875,0.0666132835924625,-0.0189133747845888,0.035639322527498,-0.0189935490489006,-0.0030819890089333,-0.0157708711922168
1783204566217139200,5.33113916015625,0.0802636232823133,0.0004342997640371,0.0036085458859801,-0.0070413593202829,0.0115116387605667,-0.0228758696466684
1783204566227076400,5.341076416015625,0.0906985080569982,0.0168681326925754,-0.0005856909334659,-0.0069670584052801,0.0121103171259164,-0.0229688137769699
1783204566237013200,5.35101318359375,0.1180488717973232,0.0250847568958997,0.0091717329710721,-0.0177064426243305,0.0054164240136742,-0.0234948359429836
1783204566246951400,5.360951416015625,0.1145867486447095,0.0305851078778505,-0.006588000088185,-0.0285785309970378,-0.0024063452146947,-0.0281178168952465
1783204566256888000,5.37088818359375,0.1276847151488065,0.0174888949394226,-0.0006333294674754,-0.0319098010659217,-0.0051031522452831,-0.025779902935028
1783204566266826200,5.380826171875,0.1235463001698255,-0.0033259295523166,-0.006947042658925,-0.0305784866213798,0.0018945699557662,-0.0269386451691389
1783204566276763100,5.39076318359375,0.1150379995435476,-0.0039501989305019,-0.0131380062535405,-0.0225139819085598,0.0164925102144479,-0.0245361328125
1783204566286701300,5.400701416015625,0.105853991612792,-0.0021586393386125,-0.0097299513757228,-0.0138184940442442,0.0296583790332078,-0.0260828956961631
1783204566296638200,5.41063818359375,0.0831774649024009,-0.0005213935256004,-0.004324877461791,-0.0041721537709236,0.0437162667512893,-0.0257946196943521
1783204566306575400,5.420575439453125,0.0635766923755407,0.0131382985144853,-0.0067117725983262,0.0006308574229478,0.0622737072408199,-0.0277475155889987
1783204566316513300,5.43051318359375,0.0505763410270214,0.0072054013341665,-0.0020411504387855,0.0081721302121877,0.0811672434210777,-0.0266071502119302
1783204566326450400,5.440450439453125,0.0670423226594924,-0.0262298352777957,-0.0227326408118009,0.0136601068079471,0.0845454633235931,-0.0213796310126781
1783204566336388400,5.450388427734375,0.1070037461698055,-0.0351227513074874,-0.0743470927149057,0.0065900371409952,0.0741016715764999,-0.0159965194761753
1783204566346324700,5.46032470703125,0.0937310076206922,-0.0369376917749643,-0.0657936377726495,0.0034752041101455,0.0669457614421844,-0.010349553078413
1783204566356262700,5.4702626953125,0.0696750092506408,-0.0213438168019056,-0.0545651184022426,0.0031018117442727,0.0616072416305542,-0.0094309579581022
1783204566366199800,5.48019970703125,0.0366436772644519,0.001594575715065,-0.1077044417850673,0.0025156503543257,0.030201381072402,-0.007773139514029
1783204566376136700,5.49013671875,0.0395943437635898,0.0347615167796611,-0.1443359902203083,0.0018627904355525,0.007918263785541,-0.0096822744235396
1783204566386075000,5.500074951171875,0.0409077644497156,0.0591202974885702,-0.1248028761021792,-0.0019481927156448,-0.0049549243412911,-0.0143699701875448
1783204566396011500,5.510011474609375,0.0183978264778852,0.0491536147475242,-0.0854297738738358,-0.0062524648383259,-0.0110246576368808,-0.0176447294652462
1783204566405949700,5.51994970703125,0.0163870711773633,0.0585346065551042,-0.0610036270171403,-0.0019085826352238,-0.0083069019019603,-0.0230637267231941
1783204566415886600,5.529886474609375,-0.0057283145189285,0.0593663812041282,-0.0678162296414375,0.007001266349107,-0.0037807044573128,-0.03168236464262
1783204566425824800,5.53982470703125,-0.0188087453663349,0.0764496179521083,-0.0658656800955534,0.0166264623403549,0.0060697961598634,-0.0375144220888614
1783204566435761700,5.54976171875,-0.0186292971462011,0.0655973845481872,-0.0449959105461835,0.0250235721468925,0.0170908942818641,-0.041538581252098
1783204566445699600,5.559699462890625,-0.0105927056849002,0.0489262357324361,-0.0389350030720233,0.0242991913110017,0.0102367168292403,-0.0440067984163761
1783204566455636700,5.56963671875,-0.0067465516507625,0.0437087933450937,-0.0196351131878793,0.0166286379098892,0.0023306745570153,-0.0433276034891605
1783204566465574000,5.579573974609375,0.009569207856059,0.038163434177637,-0.0149675597682595,0.0107696838676929,-0.0062231328338384,-0.0418687239289283
1783204566475511800,5.58951171875,0.0364741659164428,0.026609774506092,-0.0296305836319923,0.0113172596320509,-0.0166026372462511,-0.0334588252007961
1783204566485448700,5.59944873046875,0.0532207180559635,0.0074503160059452,-0.0125189975723624,0.0069744428619742,-0.0231747850775718,-0.0277442131191492
1783204566495386600,5.60938671875,0.0569166499644517,0.0191898536384105,0.0184580322325229,0.0014582471922039,-0.0245486553758382,-0.0284821167588233
1783204566505323800,5.61932373046875,0.040343700826168,0.0447024805575609,0.0342570743888616,0.0010659638792276,-0.0244101695716381,-0.0270796976983547
1783204566515261700,5.62926171875,0.0075268883734941,0.0392751948118209,0.0348179231420159,0.0080347657203674,-0.015484457835555,-0.0348735824227333
1783204566525198600,5.639198486328125,0.0173310740292072,0.0626280133485794,0.0234632931739091,0.010150646790862,-0.0057271686382591,-0.0423514731228351
1783204566535135700,5.6491357421875,0.0140443074434995,0.0585024578511714,0.0230121884055435,0.0135856801643967,0.0032383808866143,-0.0478708334267139
1783204566545073700,5.65907373046875,0.0102460842043161,0.0557552049696445,0.0408846758350729,0.0151233896613121,0.0114917829632759,-0.0540517643094062
1783204566555010800,5.6690107421875,0.032048166167736,0.0644581513851881,0.0541080222845077,0.0135763008147478,0.012917255051434,-0.0599808953702449
1783204566564948700,5.67894873046875,0.0641851796627044,0.0680985537141561,0.051582303199172,0.0184054113924503,0.0055410978384315,-0.060021374374628
1783204566574885600,5.6888857421875,0.097843703636527,0.0692827950626611,-0.0206153563968837,0.0324697047472,0.0042508244514465,-0.0547818392515182
1783204566584823600,5.698823486328125,0.1247860710978508,0.055828854727745,-0.1071469540327787,0.0609865635633468,-0.0025559491477906,-0.0456317514181137
1783204566594760700,5.7087607421875,0.1315507429271936,0.0590618452996015,-0.1992261027932167,0.0894692093133926,-0.0084138102829456,-0.0362882912158966
1783204566604698600,5.71869873046875,0.0694873777240514,0.0593032528400421,-0.1993885998785495,0.0974080935120582,-0.003764197230339,-0.0400340259075164
1783204566614635800,5.7286357421875,0.0219593183517456,0.0078875383794307,-0.2381768879562616,0.1193859651684761,0.0085620041936635,-0.0415160469710826
1783204566624572700,5.73857275390625,0.0274590848118066,-0.0637105478882789,-0.2669740895040333,0.1140873432159423,-0.0072313393466174,-0.0352072827517986
1783204566634510800,5.7485107421875,0.0092418755978345,-0.0848527046382427,-0.2287399281777441,0.090787760913372,-0.0461669377982616,-0.033013816922903
1783204566644447700,5.75844775390625,0.1056979242682456,-0.1419593242168426,-0.2312390515170991,0.045199766755104,-0.0984471887350082,-0.0178630948066711
1783204566654386000,5.768385986328125,0.1770680469989776,-0.1661865875005722,-0.1794938128411769,-0.0020622480660676,-0.1579251587390899,-0.0004840872716158
1783204566664322600,5.778322509765625,0.2195014135807752,-0.1739572215020656,-0.111745387738943,-0.0333045907318592,-0.1888612359762191,0.0175039675086736
1783204566674260700,5.7882607421875,0.2040180132448673,-0.1487818637132644,-0.0652659606367349,-0.0295811109244823,-0.1795741319656372,0.0300214830785989
1783204566684197600,5.79819775390625,0.1495008256375789,-0.084285133883357,-0.0553868100486695,-0.0059029441326856,-0.1517864316701889,0.0298177506774663
1783204566694134800,5.808134765625,0.0902975260406732,-0.0142874685496091,-0.0054182256564497,0.018087850883603,-0.1110303848981857,0.0248875357210636
1783204566704072700,5.81807275390625,0.0431336238056421,0.0322615166574716,0.0482727402597665,0.0362868271768093,-0.068596638739109,0.0123698785901069
1783204566714009900,5.828009765625,0.0224058930754661,0.0696551355063915,0.1084007534861564,0.0458151400089263,-0.0372082404792308,-0.0002895910292863
1783204566723947800,5.83794775390625,0.0058422962874174,0.0952051718264818,0.1375622583016753,0.048758465796709,-0.0191863644868135,-0.0147433653473854
1783204566733885000,5.847885009765625,0.0207803377002477,0.0966670610725879,0.1503311389818787,0.0420809723436832,-0.0061924052424728,-0.0206402782350778
1783204566743822800,5.85782275390625,0.0402414094954729,0.0822013133466243,0.1434606686905026,0.0337420813739299,-0.0129070337861776,-0.0246291607618331
1783204566753759700,5.867759765625,0.0690419720441102,0.0425251365184783,0.1197565524980425,0.0160451494157314,-0.0194503609091043,-0.0191088858991861
1783204566763697700,5.87769775390625,0.1020849944680929,0.0148392572134733,0.1526060981765389,-0.0010054735466837,-0.0260475426912307,-0.0133822914212942
1783204566773634600,5.887634521484375,0.1077566103637218,-0.0091793317556381,0.2135062648192048,-0.0192385297268629,-0.016809994354844,-0.0059833843261003
1783204566783571700,5.89757177734375,0.1062999818146228,-0.0173813429117202,0.2280285650379955,-0.0281523931771516,-0.0046782307326793,0.002618625992909
1783204566793509600,5.907509521484375,0.0879775586605072,-0.0138274498224258,0.1792851385265588,-0.026938360184431,-0.0023932019248604,0.0122440913692116
1783204566803446800,5.91744677734375,0.0982955390572547,0.021288871744275,0.1374551446653902,-0.0291104353964328,-0.0007814574055373,0.0129008265212178
1783204566813384700,5.927384765625,0.0814116242736577,0.0338841494232416,0.1561138140365481,-0.0364085212349891,0.0073411925695836,0.0126774068921804
1783204566823321900,5.93732177734375,0.0546451979011297,0.0413350499510765,0.1808534107565879,-0.0507608279585838,0.0246035363525152,0.0081460382789373
1783204566833259800,5.947259765625,0.051964580515027,0.0473445194989442,0.1960463037133216,-0.0656914487481117,0.0392947830259799,0.002316826255992
1783204566843196700,5.95719677734375,0.047425183519721,0.0273825124442577,0.2128103915095329,-0.0751909464597702,0.0583587549626827,-0.0043570552952587
1783204566853134600,5.967134521484375,0.0292366158783435,0.0507347464591264,0.1922963035300374,-0.0809049978852272,0.0679000169038772,-0.0074929660186171
1783204566863071700,5.97707177734375,0.015468202766776,0.052572483280301,0.1482747909739613,-0.0777427554130554,0.0869453474879264,-0.0128552410751581
1783204566873008600,5.987008544921875,0.0334451734840869,0.0492529834687709,0.1024113038130104,-0.0692720115184784,0.1088226288557052,-0.0095473676919937
1783204566882946800,5.99694677734375,0.0561585250735282,0.0374912340044975,0.0155053199067711,-0.0478937551379203,0.1214886233210563,-0.008730842731893
1783204566892883700,6.0068837890625,0.0883376241445541,0.0174690211951732,-0.1064224391505122,-0.0272538773715496,0.1206567287445068,-0.0031621053349226
1783204566902822000,6.01682177734375,0.1045189436167478,0.0138508306980133,-0.1913239513665437,-0.0096368035301566,0.099182590842247,0.0025695501826703
1783204566912758500,6.026758544921875,0.0900976195544004,-0.0010240823507308,-0.2655371885687113,-0.0064258305355906,0.0686880648136138,0.0015623425133526
1783204566922696700,6.03669677734375,0.0733382079333066,0.0154559278070926,-0.2857695369973778,-0.0113217858597636,0.0267243757843971,-0.0043480107560753
1783204566932633600,6.046633544921875,0.05266776034832,0.0022480711877346,-0.2461515200972557,-0.0244048759341239,-0.0077963792718946,-0.0020572347566485
1783204566942571500,6.056571533203125,0.0546773466050624,-0.02730360198915,-0.2219245490744709,-0.0303826071321964,-0.0213950127363204,0.0053727179765701
1783204566952508700,6.0665087890625,0.0580681580871343,-0.0649041415870189,-0.2080740106374025,-0.0248764753341674,-0.0297820419073104,0.0153511259704828
1783204566962446600,6.076446533203125,0.0592021305531263,-0.0609919365793466,-0.2283575047314167,-0.0115127330645918,-0.0270309969782829,0.0219395197927951
1783204566972383700,6.0863837890625,0.0542722729355096,-0.0428536378204822,-0.2304910096287727,0.0059598069638013,-0.0215607453137636,0.0257516726851463
1783204566982321000,6.09632080078125,0.0394026205837726,-0.0207423437774181,-0.1947118402391672,0.0153767447918653,-0.0174775850027799,0.0260395612567663
1783204566992258800,6.1062587890625,0.0091080200850963,0.0098275665313005,-0.1490384688228368,0.0162233356386423,-0.0169686116278171,0.0204352866858243
1783204567002195700,6.11619580078125,-0.0263087457329034,0.0150906016260385,-0.1044423712491989,0.0137750916182994,-0.0054733431898057,0.0182195361703634
1783204567012133600,6.126133544921875,-0.03950082026124,0.0275491011828184,-0.0588829816013574,0.007982712239027,-0.0044816355220973,0.0104856602847576
1783204567022070500,6.136070556640625,-0.0205529586851596,0.0272124165743589,-0.0477886100046336,-0.000585475936532,-0.0129598081111907,0.0084483418613672
1783204567032008700,6.1460087890625,-0.0090945760816335,0.0339975466698408,-0.0508963667616248,-0.0011380687355995,-0.0184678584337234,0.0096450271084904
1783204567041945600,6.155945556640625,0.004050736695528,0.0256546657383441,-0.038867636924237,0.0033586788922548,-0.0153018925338983,0.0045749014243483
1783204567051883800,6.1658837890625,0.0110679219812154,0.0501706828355789,-0.026474603819102,0.0118500292301177,-0.0133197885006666,0.0033705774694681
1783204567061820700,6.175820556640625,0.0061111763566732,0.0678881258338689,-0.0182538879625499,0.0167598314583301,-0.0064965025521814,0.0019828043878078
1783204567071757800,6.1857578125,-0.0045966801404953,0.0822474905759096,0.0225379950225353,0.0199842192232608,-0.0041466131806373,-0.0047132829204201
1783204567081695700,6.19569580078125,-0.0015565817922353,0.0947843160659074,0.0146665309950709,0.0212561450898647,-0.007458521053195,-0.0139427334070205
1783204567091632600,6.205632568359375,0.0292985751986503,0.0885544817656278,-0.001204699614644,0.0230143703520298,-0.0168205425143241,-0.0178103856742382
1783204567101570600,6.215570556640625,0.0414595531135797,0.0773503661841154,0.0419160647094249,0.0145359300076961,-0.0140071790665388,-0.0193670038133859
1783204567111507700,6.2255078125,0.0384340678125619,0.046369536986947,0.1075517354413866,0.0060903648845851,-0.0104741007089614,-0.0172070544213056
1783204567121445600,6.235445556640625,0.0426198290646076,0.0239309106856584,0.1142550324723124,0.013208195567131,-0.0027155126444995,-0.0154200745746493
1783204567131382800,6.2453828125,0.0846498755425214,0.0200531924694776,0.0737564333453774,0.0170794129371643,0.0028234960045665,-0.0133854988962411
1783204567141320700,6.25532080078125,0.0849357067465782,0.0008627543091773,0.0701309363245964,0.0133262192830443,0.0044890367425978,-0.0074676889926195
1783204567151257900,6.2652578125,0.090898414543271,0.0086281276136636,0.0832382551789283,0.0030943732708692,0.0021830056793987,-0.0066274469718337
1783204567161194800,6.27519482421875,0.0806119983285665,0.0031663550764322,0.1107173598654568,-0.011195883154869,0.0040051406249403,-0.0045768129639327
1783204567171133000,6.2851328125,0.0901975727975368,0.0077729720890522,0.1218120237231254,-0.0191595666110515,0.0041898023337125,-0.0048821954987943
1783204567181069600,6.295069580078125,0.0926595789968967,0.0242220025867223,0.0828337660312652,-0.0239250250160694,0.0042270864360034,-0.0069125895388424
1783204567191007500,6.305007568359375,0.0888736307173967,0.0480167196720838,0.0346042803913354,-0.0184595324099063,0.0089195519685745,-0.0095557896420359
1783204567200944600,6.314944580078125,0.0832464384853839,0.0470341383755207,-0.0043897593915462,-0.0069030122831463,0.0168147590011358,-0.0124924564734101
1783204567210882600,6.324882568359375,0.0755266578882932,0.0294026200950145,-0.0099117376834154,-0.0004375083371996,0.0223165564239025,-0.0130115207284688
1783204567220819700,6.33481982421875,0.0734399147421121,0.0288227743804454,-0.0220971193872392,0.0014040675014257,0.0261461827903985,-0.0175724495202302
1783204567230757600,6.344757568359375,0.0719675041019916,0.007141103926301,-0.0273497792184352,-0.0020159585401415,0.0244993902742862,-0.0177046973258256
1783204567240694800,6.35469482421875,0.0809410841524601,-0.0089811788350343,-0.0258066414296627,-0.0082874363288283,0.0254741068929433,-0.0149051817134022
1783204567250632700,6.3646328125,0.0872924990057945,-0.0280190567821264,-0.0346475350111722,-0.0022004395723342,0.0216602701693773,-0.0156010277569293
1783204567260569900,6.37456982421875,0.0827127700001001,-0.0176198278427124,-0.0984086440429091,0.0061032972298562,0.0133280381560325,-0.0082336589694023
1783204567270506500,6.384506591796875,0.076772858557105,-0.0144721774667501,-0.1343199153795838,0.0085210315883159,-0.0080927014350891,-0.0069445641711354
1783204567280444700,6.394444580078125,0.0872328777730464,-0.0132008423566818,-0.1264320847392082,0.0021440926939249,-0.0244687441736459,-0.0007388663943856
1783204567290381600,6.404381591796875,0.1079044944018125,-0.007974632140994,-0.1023987365923821,-0.0080227255821228,-0.0440087243914604,0.0018904074095189
1783204567300319700,6.41431982421875,0.0886088423013687,-0.001077858364582,-0.0819821176379919,-0.0089971777051687,-0.0500479713082313,0.0069429571740329
1783204567310256600,6.424256591796875,0.0734030898630619,0.0047696986198425,-0.0523790065348148,-0.0073372386395931,-0.0436333753168582,0.0076503902673721
1783204567320194800,6.43419482421875,0.0580681580871343,0.007915010908246,-0.0075892860852181,0.0014826171100139,-0.0164052210748195,0.0074085751548409
1783204567330131700,6.444131591796875,0.026432664373517,0.005294599276781,0.029953824236989,0.0078636519610881,0.0024357638321816,0.005784744862467
1783204567340070000,6.45406982421875,0.0102472532480955,0.0274953251689672,0.0073465633705258,0.016814537346363,0.0106380339711904,0.0038044182583689
1783204567350007800,6.4640078125,0.025248423025012,0.032782910183072,-0.0269229321084916,0.0212826337665319,0.0075150211341679,-0.0027596729341894
1783204567359945700,6.47394580078125,0.0236292973905801,0.0649421355098485,-0.0305447758674621,0.0175283756107091,0.001951677724719,-0.0043570371344685
1783204567369883000,6.4838828125,0.0048176294147968,0.0602238748162984,-0.0077203651189804,0.0112134255468845,-0.0073528415523469,-0.0062802964821457
1783204567379819500,6.493819580078125,0.0059942719787359,0.0508031355202198,0.0011487316437065,0.0020934306085109,-0.0206521358340978,-0.007105610333383
1783204567389757700,6.5037578125,0.0319528890997171,0.0254062439352273,0.0032910043694078,-0.0024133212864398,-0.0231328979134559,-0.0054065561853349
1783204567399694600,6.513694580078125,0.0507680642068386,0.0066793316334486,-0.0024947394251823,0.0021409504115581,-0.0218471214175224,-0.0040078642778098
1783204567409632800,6.5236328125,0.0511842437922954,0.001937690064311,-0.029290830283612,0.0135200638324022,-0.0171140506863594,0.0047806482762098
1783204567419569700,6.533569580078125,0.0533095653831958,0.0285322670012712,-0.0593733954668045,0.0202543996274471,-0.0154301328584551,0.0069945342838764
1783204567429507800,6.5435078125,0.0346346755295991,0.0304477452337741,-0.0532848693333566,0.0174827445298433,-0.0211851932108402,0.0028080896008759
1783204567439444700,6.55344482421875,0.0346007732599973,0.0435451272159814,-0.0444789009347558,0.0120879793539643,-0.0325129479169845,-0.0006577481981366
1783204567449382700,6.563382568359375,0.041596915757656,0.0407826767653226,-0.0085870649509131,-0.0012247413396835,-0.0404075980186462,-0.0001527697313576
1783204567459319800,6.57331982421875,0.0302864171922206,0.023340543577075,0.002971855417639,-0.004132380709052,-0.0354037843644619,-0.0027549443766474
1783204567469257700,6.5832578125,0.0442032988637685,0.0204132579535245,-0.0214057761222124,0.0001253392547369,-0.0357141755521297,-0.0023830411955714
1783204567479194600,6.593194580078125,0.0628939708083868,0.0238245277017354,-0.0723363374143838,0.0162457190454006,-0.0390228852629661,0.0022878772579133
1783204567489132500,6.603132568359375,0.1006108302623033,0.0128723410546779,-0.1253382981531322,0.0310960412025451,-0.0463382713496685,0.0071633821353316
1783204567499069700,6.613069580078125,0.0903279211789369,0.0059796589314937,-0.1326179337672889,0.0355104990303516,-0.0576971843838691,0.0072344886139035
1783204567509006800,6.6230068359375,0.0717465548276901,0.0122147539287805,-0.0864744606211781,0.0367504768073558,-0.0581550411880016,0.0068624033592641
1783204567518944800,6.63294482421875,0.0662947191625833,0.0095505031555891,-0.0339911169290542,0.0309394598007202,-0.05923867598176,0.0050485241226851
1783204567528881700,6.642881591796875,0.0478004465728998,-0.0016132804155349,0.004041384345293,0.0204287469387054,-0.0563225150108337,-0.0002530450001358
1783204567538819800,6.65281982421875,0.0376356109112501,-0.0026490532040596,0.0609261778667569,0.0072311856783926,-0.0434160381555557,-0.0033231370616704
1783204567548756700,6.6627568359375,0.0373696534514427,0.0029962592065334,0.0817746123671531,0.0060432576574385,-0.0325687453150749,-0.0052236127667129
1783204567558695000,6.67269482421875,0.0600707300812006,0.0074497314840555,0.0621067659534513,0.0145613783970475,-0.0203858464956283,-0.0058041820302605
1783204567568631600,6.682631591796875,0.0517775335103273,0.0197977564036846,0.031008447856456,0.0224643312394619,-0.0100551778450608,-0.004535702522844
1783204567578569700,6.69256982421875,0.0658802931427955,0.0420411523938179,0.013081015369296,0.0282351355999708,-0.0120916971936821,-0.0074792942032217
1783204567588506600,6.702506591796875,0.0603407791942358,0.0573363366812467,0.0127580670252442,0.0295515470206737,-0.0155387334525585,-0.0071523562073707
1783204567598444800,6.71244482421875,0.0473690694183111,0.067350950217247,0.0051619128078222,0.0282063856720924,-0.0205374862998724,-0.006895094178617
1783204567608381700,6.722381591796875,0.0537140545308589,0.0457294855177402,0.0227034147173166,0.0233304128050804,-0.0272047650068998,-0.0065579805523157
1783204567618318800,6.73231884765625,0.0471031119585037,0.0342231721192598,0.051002165223658,0.0125739052891731,-0.0268977005034685,-0.0031605856493115
1783204567628256800,6.7422568359375,0.0573386747688055,0.0156482355087995,0.0682249565728008,0.0045745344832539,-0.0313734076917171,-0.0001347314100712
1783204567638194000,6.75219384765625,0.0778168146520853,0.0024894787281751,0.0854804811477661,-0.0036266706883907,-0.0325060524046421,0.0070219817571341
1783204567648131800,6.7621318359375,0.0676215838521718,-0.0108563250571489,0.1063379757374525,-0.0113097261637449,-0.031024882569909,0.0120265390723943
1783204567658068700,6.77206884765625,0.0541308186382055,-0.0034007483541965,0.0925100875236094,-0.019425444304943,-0.0215741209685802,0.0109479594975709
1783204567668006700,6.782006591796875,0.0274281051516532,0.0080880293875932,0.106344405478239,-0.0227779988199472,-0.0035996232181787,0.0126808751374483
1783204567677943800,6.79194384765625,0.0112479547232389,0.0314683204531669,0.1063923362731933,-0.0248520690947771,0.0012595802545547,0.0103697851300239
1783204567687881700,6.8018818359375,-0.0077846625268459,0.0500450106292962,0.0738930653370916,-0.0229434836655855,0.0097522689029574,0.0035836738534271
1783204567697819000,6.81181884765625,-0.0014794249027967,0.0717781190097332,0.0348112011402845,-0.0212832707911729,0.0180946215987205,-0.0033269629348069
1783204567707756800,6.8217568359375,0.0159101013153791,0.0581026448786258,-0.0174045776568353,-0.0136925112456083,0.0146119482815265,-0.0061433436349034
1783204567717693700,6.831693603515625,0.0243096808701753,0.0582604657888412,-0.0433363067708909,-0.0057767983525991,0.0103128077462315,-0.0053641027770936
1783204567727632000,6.8416318359375,0.0282113644838333,0.0602069236814975,-0.0794410548530518,-0.0011393884196877,-0.0068430062383413,-0.0103769395500421
1783204567737568800,6.85156884765625,0.0205085350215435,0.0619394465625286,-0.0479775567054748,-0.0070428187027573,-0.0122082103043794,-0.0136254634708166
1783204567747505700,6.861505615234375,0.0163455701231956,0.05285422283113,0.0141819623485207,-0.015954703092575,-0.0189063008874654,-0.0151708824560046
1783204567757443600,6.871443603515625,0.0153232413381338,0.0244663327366113,0.0521891830511391,-0.0252241045236587,-0.0119732934981584,-0.0168920829892158
1783204567767380700,6.881380615234375,0.0314361717492341,-0.0068991118639707,0.0695975601002573,-0.0257272720336914,0.0039293705485761,-0.012746438384056
1783204567777318700,6.891318603515625,0.0544926376879215,-0.0245253694474697,0.0546107111096382,-0.0186105072498321,0.0183083098381757,-0.007389223203063
1783204567787255800,6.901255859375,0.0905395181030035,-0.0139040221899747,0.0071229837477207,-0.0108796209096908,0.0237268842756748,-0.0044929371215403
1783204567797193700,6.91119384765625,0.0711176092743873,0.0066577043235301,-0.0318295549809932,-0.0111038591712713,0.0277692973613739,-0.0013943491503596
1783204567807131000,6.921130859375,0.0685264237374067,0.0227373169869184,-0.0523741842292249,-0.0157436225563287,0.0201384369283914,-0.0058773602358996
1783204567817068800,6.93106884765625,0.0668880088806152,0.0324281053960323,-0.0585030423730611,-0.0167915765196084,0.0144589804112911,-0.0113679990172386
1783204567827006000,6.941005859375,0.0565472321301698,0.0222504102528095,-0.053836073475331,-0.0174367539584636,0.009513889439404,-0.012182549573481
1783204567836944000,6.95094384765625,0.0489145452946424,0.0168219554632902,-0.038426469027996,-0.0223918333649635,0.0089514292776584,-0.015100042335689
1783204567846880800,6.960880859375,0.0491232196092605,0.0152291333138942,-0.013648001602292,-0.0164016969501972,0.0149341942742466,-0.0118821579962968
1783204567856818700,6.970818603515625,0.0565717820495367,-0.0145446581810712,-0.028081308363378,-0.0084987683221697,0.0223058238625526,-0.0088948905467987
1783204567866755800,6.980755859375,0.0721487058877944,-0.0044026188731193,-0.0280194951735436,0.0008606417104601,0.0224125646054744,-0.0056778481230139
1783204567876692700,6.990692626953125,0.0757686499506235,0.0014642273336648,-0.0531597816489636,0.0022683888673782,0.0248914361000061,-0.0038831436540931
1783204567886630700,7.000630615234375,0.0702601156622171,0.0087152213752269,-0.0576350273668766,0.0049680275842547,0.0201895162463188,-0.0056678405962884
1783204567896567800,7.01056787109375,0.0628518852323293,0.0186830731600523,-0.0243972130231559,-0.0048076370730996,0.0194678008556365,-0.0095169069245457
1783204567906505700,7.020505615234375,0.04847147770226,0.0300286430388689,-0.0105078038804233,-0.0037623429670929,0.0172667503356933,-0.0117421876639127
1783204567916442600,7.030442626953125,0.0375812503755092,0.0373082786530256,-0.0217301857709884,-0.0042949756607413,0.0177794098854064,-0.0116875935345888
1783204567926380500,7.040380615234375,0.0360007031857967,0.0351391179203987,-0.0177799868404865,-0.0001866295933723,0.0211143512278795,-0.0125990388914942
1783204567936317700,7.050317626953125,0.0467512297809123,0.0352665436923503,0.0091553663581609,-0.0035049272701144,0.0220605731010437,-0.0126365898177027
1783204567946255600,7.060255615234375,0.039806525209546,0.0359819984853267,0.0181403445854783,-0.0033576972782611,0.0208564512431621,-0.0129826758056879
1783204567956192800,7.07019287109375,0.0346668242335319,0.0294242474049329,0.007342471717298,0.0060943947173655,0.0240282751619815,-0.0097056562080979
1783204567966130700,7.080130615234375,0.0506435610443353,0.0212882872223854,-0.0290542450487613,0.0101859783753752,0.0145516581833362,-0.0104465456679463
1783204567976067800,7.09006787109375,0.0556803861677646,0.0413338809072971,-0.0308157017633318,0.0047869514673948,0.0072878859937191,-0.0065285032615065
1783204567986005800,7.100005859375,0.0466869323730468,0.040537762093544,0.0200479317724704,-0.0027894647791981,0.0029163039289414,-0.0100899348035454
1783204567995943000,7.10994287109375,0.0322276143878698,0.0406862306535244,0.035375264763832,-0.0104753477498888,-0.0019620740786194,-0.0142271555960178
1783204568005880800,7.119880859375,0.0385556483656168,0.0368880074143409,0.0126265496000647,-0.0070822238922119,-0.0019705933518707,-0.0109229851514101
1783204568015817700,7.129817626953125,0.0544610735058784,0.0207493580400943,0.0048617608174681,-0.0065091121941804,-0.0010472754947841,-0.0122452452778816
1783204568025754600,7.139754638671875,0.0652484249800443,0.0112561380296945,-0.0114034375458955,-0.0007036896422505,0.0083783976733684,-0.0115776462480425
1783204568035692800,7.14969287109375,0.062598787254095,0.0057265609532594,0.0217502056457102,-0.0013678828254342,0.0208116304129362,-0.0082953004166483
1783204568045629700,7.159629638671875,0.0514975475251674,-0.0094277535587549,0.0371001888602972,-0.0052957646548748,0.0107468497008085,-0.005588870961219
1783204568055567600,7.169567626953125,0.0428407783389091,0.0031692776858806,0.0112625677704811,-0.0045293066650629,0.0069180224090814,-0.0075476258061826
1783204568065504800,7.1795048828125,0.0529933390408754,0.032311201018095,-0.0282160406589508,-0.0071115093305706,-0.0004033264704048,-0.0079530142247676
1783204568075442700,7.189442626953125,0.0539887798190116,0.056201779693365,-0.042577012836188,-0.0057077566161751,-0.0027064280584454,-0.0087429080158472
1783204568085379800,7.1993798828125,0.0517208348870277,0.0491945312798023,-0.0224186064265668,-0.0055165514349937,0.0028558534104377,-0.0108582703396677
1783204568095317800,7.20931787109375,0.0599631780534982,0.0320487506896257,-0.013171470131725,-0.0061165615916252,0.001826275140047,-0.0097272265702486
1783204568105254700,7.219254638671875,0.060133273923397,0.0288145910739898,-0.0013940847069025,-0.0020082239061594,0.0006799064576625,-0.0096666077151894
1783204568115192600,7.229192626953125,0.0454343019634485,0.0294523044556379,0.0068799687720835,-0.0061619570478796,0.0134798577055335,-0.0095472987741231
1783204568125129700,7.239129638671875,0.0476852957606315,0.0129787240386009,-0.0081819912813603,0.0006430856883525,0.0180003903806209,-0.008069172501564
1783204568135067600,7.249067626953125,0.0523421816557645,-0.001107668980956,0.0044980420716106,-0.0406135395169258,-0.0095649231225252,-0.023178081959486
1783204568145004800,7.2590048828125,0.0412982250720262,0.0171592245936393,0.0506166730374097,-0.0292017683386802,0.0066392719745635,-0.0080274567008018
1783204568154942700,7.268942626953125,0.1148725798487663,-0.0630599750250578,-0.0928336203895509,-0.0095263356342911,-0.0053630620241165,0.0033141477033495
1783204568164880000,7.2788798828125,0.070502692246437,-0.0193237091511487,-0.0861325153157114,0.0049221152439713,-0.0084147257730364,0.0074263904243707
1783204568174817800,7.28881787109375,0.1030897875964641,0.0093254622280597,-0.0702402419179678,0.0021566888317465,-0.0113122444599866,0.0069275805726647
1783204568184755000,7.2987548828125,0.0616091916948556,0.0331312852293252,-0.0240868318997323,-0.0048890989273786,-0.0126766711473464,0.0070582823827862
1783204568194691600,7.308691650390625,0.055564066311717,0.0466740728914737,0.0162627141453325,-0.0046451538801193,-0.0112755820155143,0.0033564886543899
1783204568204629800,7.318629638671875,0.0440425553441047,0.0276584067761898,0.0102168581098318,-0.0005617337301373,-0.0091580413281917,0.0043309703469276
1783204568214566700,7.328566650390625,0.042641456374526,0.0205734169512987,-0.0038210195928812,0.003111564554274,-0.0064911511726677,-0.0005524682346731
1783204568224504800,7.3385048828125,0.0547989271581172,0.0351274274826049,-0.0090213647149503,0.0070081548765301,0.0007944335229694,0.0042531643994152
1783204568234441700,7.348441650390625,0.0423176312476396,0.0315998378783464,0.0039864392876625,0.0128900120034813,0.0044488231651484,0.0030837701633572
1783204568244379600,7.358379638671875,0.0325631299525499,0.013403671452403,-0.0024817338131368,0.0125978598371148,0.0037978941109031,0.0052224984392523
1783204568254316800,7.36831689453125,0.0479728805303573,0.0217161572456359,-0.00216331551373,0.0076142866164445,3.96412797272e-05,0.0040560336783528
1783204568264254700,7.378254638671875,0.0408756157457828,0.0142471365392208,0.0145617554463446,0.0035037109628319,-0.0010277549736201,0.00729392003268
1783204568274192000,7.38819189453125,0.03886661401093,0.0311696297675371,0.0121942956626415,-0.004824792034924,-0.0044091711752116,0.0068957768380641
1783204568284129800,7.3981298828125,0.0317132351249456,0.0296387669384479,0.0035702597022056,-0.000695951282978,-0.0073555130511522,0.0093018850311636
1783204568294066700,7.408066650390625,0.0188180977165699,0.039336569610238,0.0058763446874916,0.0010076723992824,0.0016781957820057,0.0062893172726035
1783204568304004600,7.418004638671875,0.0049257659643888,0.0632920302152633,0.0294692555904388,0.0020492328330874,0.0078983325511217,-0.0001067540142685
1783204568313941800,7.427941650390625,-0.0059270519614219,0.0595703793436288,0.0179245098777115,0.0080003328621387,0.0132078761234879,-0.0028093298897147
1783204568323879700,7.437879638671875,-0.0096820205807685,0.0516547839134931,-0.0040219489924609,0.0108624305576086,0.0140128452330827,-0.0063791424036026
1783204568333816800,7.44781689453125,-0.0146750065624713,0.0545411530047655,0.0050597676075994,0.0167725179344415,0.019560208544135,-0.0117499390617012
1783204568343754800,7.457754638671875,-0.0241115279495716,0.0731482383191585,0.0047784664481878,0.0210398361086845,0.0178415831178426,-0.011547066271305
1783204568353691100,7.467691162109375,0.0048024318456649,0.0651923108786344,-0.0424105702280998,0.0259720124304294,0.0131959645077586,-0.020726716145873
1783204568363628000,7.4776279296875,0.0121510410428047,0.0900046805739402,-0.0782791714668273,0.0283254422247409,0.0077637638896703,-0.0292948149144649
1783204568373566200,7.487566162109375,0.004490881678462,0.1027566101193428,-0.0599478343538939,0.0316890142858028,0.0086252968758344,-0.0363372825086116
1783204568383503000,7.497503173828125,-0.00954874958992,0.0893441708385944,-0.0511947651863098,0.0383216142654418,0.0108579322695732,-0.0419710986316204
1783204568393441000,7.50744091796875,-0.0216664728850126,0.0895166047960519,-0.0425935255795717,0.0490770563483238,0.0196325164288282,-0.05425626039505
1783204568403378000,7.5173779296875,-0.0158165778130292,0.0847960060149431,-0.0613828355930745,0.0564292520284652,0.0275374688208103,-0.0600902810692787
1783204568413316000,7.527316162109375,-0.0213502465426921,0.0747094962865114,-0.0552946017205715,0.0591771006584167,0.0267792660742998,-0.0645835623145103
1783204568423253000,7.5372529296875,-0.0316144509255886,0.0475379962444305,-0.0392775328993797,0.0611310638487339,0.0223362073302268,-0.0728770121932029
1783204568433191200,7.547191162109375,-0.0290291106075048,0.0734837538838386,-0.0307423442661762,0.05856803804636,0.0273298993706703,-0.0755652114748954
1783204568443128000,7.557128173828125,0.0020920038431882,0.0350368265897035,-0.0218546889334917,0.0550517328083515,0.0227289386093616,-0.0724653601646423
1783204568453066000,7.56706591796875,0.026990298256278,-0.0170259536027908,-0.0094739307880401,0.0465373396873474,0.0134310442954301,-0.0618595890700817
1783204568463003100,7.577003173828125,0.0545452446579933,-0.0324152459144592,-0.0072799278751015,0.0373976342380046,-0.0072167692705988,-0.0456274002790451
1783204568472941000,7.586941162109375,0.0802145234435796,-0.0628869565457105,-0.0353764338076114,0.0322289727628231,-0.020538967102766,-0.0300029013305902
1783204568482878000,7.5968779296875,0.1125187101989984,-0.0571001898378133,-0.0197105165116488,0.0277840234339237,-0.0272793881595134,-0.0137994242832064
1783204568492816000,7.60681591796875,0.1153355211853981,-0.0617944851338863,-0.0250023393094539,0.025874538347125,-0.0421092025935649,-0.0009352911729365
1783204568502753000,7.6167529296875,0.1282791739106178,-0.0499041408538818,-0.0139442080698907,0.0144899245351552,-0.0446572341024875,0.0026781691703945
1783204568512691000,7.62669091796875,0.0454150127410888,-0.0137187287509441,0.1108019694089889,0.0031792130321264,-0.0221753604710102,0.0061946073547005
1783204568522628000,7.636628173828125,0.0417301867485046,-0.0152495915800333,0.1434010474577546,-0.0084522757679224,-0.0171508006751537,0.0036430049221962
1783204568532566000,7.64656591796875,0.0691442633748054,0.0320218626827001,0.0863181010156869,-0.0077694412320852,-0.021403070539236,0.0007260448765009
1783204568542503200,7.656503173828125,0.0854407336592674,0.0625321517586708,0.0234808288305997,-0.0048535456880927,-0.0106667513027787,-0.0067139728926122
1783204568552440000,7.666440185546875,0.0799497350275516,0.0776776984423398,-0.0007581248909235,0.0013540163636207,-0.0071505801752209,-0.013674677349627
1783204568562378200,7.676378173828125,0.0597825607895851,0.0766968707114458,-0.0060720133900642,0.0059232022613286,-0.0016440716572105,-0.0149501636624336
1783204568572315000,7.68631494140625,0.0717734428346157,0.0534697243809699,0.0223901109844446,0.0035870773717761,-0.0009247516281902,-0.0193526353687047
1783204568582253000,7.696253173828125,0.0860235019832849,0.0197960028380155,0.0758791245877742,-0.0009821206331253,0.008875879459083,-0.0196773093193769
1783204568592190000,7.70618994140625,0.0931207667678594,-0.0140595050126314,0.0998328316271305,-0.0084735918790102,0.0162355247884988,-0.0138732157647609
1783204568602128100,7.716128173828125,0.1117751983553171,-0.0361333896547555,0.0770595665439963,-0.0072364211082458,0.0308456774801015,-0.008150634355843
1783204568612065000,7.72606494140625,0.1308493166595697,-0.042816812941432,0.0499820283956825,-0.0052784662693738,0.0369288697838783,-0.0036642733030021
1783204568622003200,7.736003173828125,0.1244879649341106,-0.0246118786871433,0.0113560912728309,-0.0044234441593289,0.0340659357607364,-0.0006783395074307
1783204568631940000,7.745940185546875,0.1132289042949676,-0.0168693017363548,-0.0012575988456606,-0.0026140930131077,0.0355170927941799,0.0014223617035895
1783204568641878000,7.7558779296875,0.0901537336558103,-0.0136398182958364,-0.022359423585236,-0.0030953288078308,0.0333932153880596,0.0070562902837991
1783204568651815200,7.765815185546875,0.1004693759649991,-0.0019669161587953,-0.0465425554662942,-0.0069217588752508,0.0132826212793588,0.0106036206707358
1783204568661753000,7.775753173828125,0.106773444545269,0.0082844287425279,-0.0622070114575326,-0.0144493198022246,-0.0087285935878753,0.0132314451038837
1783204568671690000,7.78568994140625,0.0944330184102058,0.0041734862923622,-0.0492120669364929,-0.0176168829202651,-0.0138431945815682,0.0186597649008035
1783204568681628000,7.7956279296875,0.0553045385926961,-0.0147884038090705,-0.0173091544583439,-0.0121771059930324,-0.0005143848247826,0.027127219364047
1783204568691565000,7.80556494140625,0.0479834019243717,-0.0284662160277366,-0.0153816935271024,-0.0180693492293357,-0.0069933226332068,0.0315885469317436
1783204568701503000,7.8155029296875,0.0719289256572723,9.06008929014e-05,-0.0254717103868722,-0.0432620570063591,-0.0391608923673629,0.032118447124958
1783204568711440100,7.825440185546875,0.1110018758952617,-0.0076554831892251,0.0296213774122297,-0.0669719129800796,-0.0663094222545623,0.0352039858698844
1783204568721378000,7.8353779296875,0.1383487325042486,-0.010967968738079,0.0578064384110271,-0.0740530043840408,-0.0729958415031433,0.0405266135931015
1783204568731315200,7.845315185546875,0.1303986502826213,-0.0131254390329122,0.0702000560380518,-0.0656627118587493,-0.0559574700891971,0.0469690673053264
1783204568741253000,7.855253173828125,0.08414894028306,-0.0034784897655248,0.0850987883538007,-0.0383613035082817,-0.0156623348593711,0.0502129308879375
1783204568751190300,7.865190185546875,0.0173486096858978,0.0362719213426113,0.0809507287636399,-0.0100580295547842,0.0216035433113574,0.0448818132281303
