time,seconds_elapsed,ax,ay,az,gx,gy,gz
1783205119974303700,0.0803037109375,1.414163033813238,0.4805050503730774,1.1487386579692362,0.4423394203186035,-0.4466664791107178,0.3537745773792267
1783205119984239900,0.090239990234375,1.646207118102908,0.8033467191800475,1.538059462594986,0.2233519405126571,-0.6369173526763916,0.3885453641414642
1783205119994176500,0.100176513671875,1.91552908590734,1.079713637059927,1.7249556606471537,-0.0524224415421485,-0.8699889779090881,0.3948309421539306
1783205120004112600,0.110112548828125,2.098060659009218,1.3228230129823089,2.034611392405629,-0.3546693921089172,-1.0599546432495115,0.3836382031440735
1783205120014049800,0.1200498046875,2.0988281362503765,1.3206763563424349,2.464849313831329,-0.6800243854522705,-1.186500906944275,0.3957009315490722
1783205120023985700,0.129985595703125,1.9414099616169929,1.03311540588364,2.928027966350317,-1.0272473096847534,-1.2072497606277466,0.4408993124961853
1783205120033922600,0.139922607421875,1.6302891257420182,1.2130085933059451,3.5066040993750094,-1.4569199085235596,-1.0541912317276,0.4426018297672272
1783205120043858700,0.149858642578125,1.2572408260032537,1.4778542924791571,4.102556899136305,-1.9206284284591677,-0.8188268542289734,0.5084213018417358
1783205120053795800,0.1597958984375,1.3864166564926503,0.0447625401817262,4.165015985658765,-2.246642827987671,-0.816411554813385,0.6993346810340881
1783205120063731700,0.169731689453125,1.317218909364939,-0.3809644796907901,3.745951200154424,-2.502293586730957,-0.6723699569702148,1.0020843744277954
1783205120073667800,0.179667724609375,1.166501693674922,-0.7344651983946562,3.715509884661436,-2.7537667751312256,-0.313363641500473,1.3799421787261963
1783205120083604700,0.189604736328125,0.7974670134916901,-1.033318527240306,3.723836983501911,-2.973975896835327,0.0913175344467163,1.7590466737747192
1783205120093540600,0.19954052734375,0.2210351990193128,-0.9307814050905406,3.3414532846629617,-3.1145663261413574,0.5776447653770447,1.997024774551392
1783205120103477800,0.209477783203125,-0.7046861462026834,-0.4356916567869484,2.675211143144965,-3.1106550693511963,1.2069278955459597,2.065531015396118
1783205120113414000,0.219413818359375,-1.5669477034270762,0.2499042967595159,1.6148387508928774,-2.961410999298096,1.772478699684143,1.9846816062927248
1783205120123350500,0.2293505859375,-2.1791741771191355,1.0346342860139903,0.1033124904364347,-2.682032823562622,2.1290574073791504,1.781126856803894
1783205120133286700,0.23928662109375,-2.539367671459913,1.6659119355261325,-1.7860253386378286,-2.322481632232666,2.153706312179565,1.5199013948440552
1783205120143223800,0.249223876953125,-2.704378200918436,2.02605413807109,-3.602655658897757,-1.9098503589630127,2.001243829727173,1.21610689163208
1783205120153159700,0.25915966796875,-2.743307651032507,2.32909892725721,-4.664382972890138,-1.5470383167266846,1.7254307270050049,0.9009701609611512
1783205120163095800,0.269095703125,-2.7462229539573197,2.31824859354943,-5.13439936247468,-1.2464483976364136,1.393459677696228,0.62168288230896
1783205120173032700,0.27903271484375,-2.598734637185931,2.0833966122321783,-5.1162674934566015,-1.0061450004577637,1.0984101295471191,0.3926247060298919
1783205120182968600,0.288968505859375,-2.321800148551166,1.682597112867236,-4.782153612267971,-0.7834663391113281,0.8574215769767761,0.2193482369184494
1783205120192905700,0.29890576171875,-1.9568506918549535,1.2463872774250804,-4.359792707827687,-0.5834299325942993,0.6546386480331421,0.0855509489774704
1783205120202841900,0.308841796875,-1.6030761246457694,0.904049465509504,-3.796700559660792,-0.4002127051353454,0.5290488004684448,-0.0199749413877725
1783205120212778800,0.31877880859375,-1.228948066846281,0.660764002367854,-3.1989982858836647,-0.2099932432174682,0.4367668628692627,-0.1090549677610397
1783205120222714600,0.328714599609375,-0.8792144455909728,0.442880106986314,-2.707785379013419,0.0092152766883373,0.378123790025711,-0.1942212581634521
1783205120232651800,0.33865185546875,-0.5671490223422646,0.2677873055830598,-2.1056915922790767,0.2476725876331329,0.3947720527648926,-0.2575351893901825
1783205120242588000,0.348587890625,-0.3075409315615892,0.106060912361741,-1.4654653510272502,0.4925949871540069,0.4892346560955047,-0.2981185615062713
1783205120252523800,0.358523681640625,-0.0521354070372879,-0.0413366573862731,-0.9836778596282004,0.7277026772499084,0.5399508476257324,-0.3119818866252899
1783205120262460700,0.368460693359375,0.2115592224046587,-0.1384992468908429,-0.6971995898395776,0.8836578726768494,0.5094531178474426,-0.2998727560043335
1783205120272396800,0.378396728515625,0.3973519892595708,-0.1804554974801838,-0.2829775681912899,0.9390205144882202,0.4608955979347229,-0.2573242485523224
1783205120282333700,0.388333740234375,0.5782198669329285,-0.2495266225535422,0.1448515385270118,0.9159878492355348,0.39767986536026,-0.1799397319555282
1783205120292269800,0.398269775390625,0.7257647361971438,-0.3926125396475196,0.4579869290947914,0.8428714275360107,0.3344783782958984,-0.057017546147108
1783205120302206700,0.408206787109375,0.7779242547623813,-0.5313869502179325,0.7655003881275654,0.7144402265548706,0.3084864616394043,0.0916488841176033
1783205120312142600,0.418142578125,0.8270436749793588,-0.5610680219281464,1.050419738036394,0.5540058016777039,0.2946797609329223,0.2416345477104187
1783205120322078700,0.42807861328125,0.8663336289688944,-0.4868316230461001,1.206986848798394,0.3704127967357635,0.2757135331630707,0.3862828016281128
1783205120332015900,0.438015869140625,0.8245598953396082,-0.3633537119373679,1.3632961854070424,0.172894537448883,0.2681175470352173,0.5095273852348328
1783205120341951500,0.447951416015625,0.7208652737177907,-0.2170104735478758,1.51324709289968,-0.0245181340724229,0.2698557674884796,0.6047050356864929
1783205120351888600,0.457888671875,0.562912992207706,-0.0621430063106119,1.6823966218590736,-0.2220751941204071,0.3091630935668945,0.6807786822319031
1783205120361824800,0.46782470703125,0.3158937493652105,0.0743226158607751,1.8440788836777209,-0.4157743752002716,0.3847697079181671,0.7324581146240234
1783205120371762000,0.477761962890625,0.0077785250470042,0.1608630543902516,2.018760912322998,-0.589347243309021,0.5540404319763184,0.7792329788208008
1783205120381697500,0.487697509765625,-0.3567319557100534,0.2165908598963171,2.276753092339635,-0.7486698031425476,0.8055898547172546,0.7893511056900024
1783205120391634700,0.497634765625,-0.555900483097136,0.2669705093074589,2.3582564865499736,-0.8822709918022156,1.0381895303726196,0.7992072701454163
1783205120401570800,0.50757080078125,-0.6229620949789881,0.2597748256497085,2.216568380489945,-0.9661286473274232,1.2028285264968872,0.8231645226478577
1783205120411507700,0.5175078125,-0.6683661479346453,0.2520550450526178,2.044240806016326,-1.0626699924468994,1.351917028427124,0.8593268990516663
1783205120421443600,0.527443603515625,-0.6482670704968273,0.2161651087649166,1.892985830187797,-1.185752511024475,1.4849739074707031,0.8848796486854553
1783205120431379700,0.537379638671875,-0.5865981845039874,0.1636969626419246,1.787744417515397,-1.2947734594345093,1.5806804895401,0.8974393606185913
1783205120441316900,0.54731689453125,-0.5031451905958354,-0.0042138183027505,1.483362242245674,-1.3500491380691528,1.7785714864730835,0.920754849910736
1783205120451252700,0.557252685546875,-0.1524920433428138,-0.1473959623128175,0.899369344869256,-1.3287752866744995,1.8678234815597532,0.9403046369552612
1783205120461189600,0.567189697265625,0.2190468747463077,-0.1671618622735142,0.1780617342114448,-1.2595126628875732,1.8677207231521609,0.9499021768569946
1783205120471125800,0.577125732421875,0.5094830153152347,-0.0790393421843647,-0.413419473093748,-1.146742582321167,1.8456652164459229,0.9388043880462646
1783205120481062700,0.587062744140625,0.8325996286060661,0.0023109072908759,-0.9341472282618284,-1.0117002725601196,1.7161349058151243,0.9053007364273072
1783205120490998800,0.596998779296875,1.0601200249262153,0.1230536943472921,-1.5321107833236456,-0.8564224243164062,1.4807533025741575,0.8462311625480652
1783205120500935700,0.606935791015625,1.182279400782287,0.2529711369842291,-1.980009449124336,-0.7184131741523743,1.2841509580612185,0.7575385570526123
1783205120510871600,0.61687158203125,1.1215032989107072,0.3615596681274473,-2.282256950452924,-0.5857201218605042,1.0769059658050537,0.655379593372345
1783205120520808700,0.62680859375,0.98310729319863,0.3688457334823906,-2.8892998840272424,-0.4428367018699646,0.7297531366348267,0.5558348894119263
1783205120530744800,0.636744873046875,0.7610233157787472,0.2364911268264055,-3.5164264052093026,-0.3249561190605163,0.3142619132995605,0.4810668528079986
1783205120540680700,0.6466806640625,0.3404154655508696,0.0486649544477462,-3.695377197214961,-0.2302040308713913,-0.0849150419235229,0.4507853984832763
1783205120550617600,0.65661767578125,-0.1123666614424437,-0.1843424219161271,-3.516594162991643,-0.1673106700181961,-0.3626240789890289,0.456687718629837
1783205120560553700,0.6665537109375,-0.5366132334988564,-0.390996628883481,-3.1384500014185903,-0.1209695264697074,-0.529874324798584,0.4729149043560028
1783205120570491000,0.676490966796875,-0.8831530271489173,-0.4861375033020973,-2.7204829480230805,-0.0545634366571903,-0.5785112380981445,0.4657705426216125
1783205120580426800,0.6864267578125,-1.096972084244341,-0.3946452145189046,-2.2871809628516435,0.0485379099845886,-0.5501392483711243,0.4279491305351257
1783205120590363600,0.69636376953125,-1.181728269705549,-0.2396948913037777,-2.032056447225809,0.1802188605070114,-0.5185606479644775,0.3487545251846313
1783205120600299800,0.7062998046875,-1.0833340195141732,-0.0010410334855318,-1.830470045042038,0.3353815376758575,-0.5001725554466248,0.2481719851493835
1783205120610236700,0.716236572265625,-0.8634597540330141,0.2686570741549134,-1.6407155349493026,0.4891209006309509,-0.4980244040489197,0.145651713013649
1783205120620172800,0.7261728515625,-0.5957300969213247,0.4725324640586972,-1.3577028954446315,0.6176669597625732,-0.5043272972106934,0.0634716302156448
1783205120630109700,0.736109619140625,-0.3629321620570495,0.6130239076800644,-1.0135556960195302,0.7290318012237549,-0.5133295655250549,-0.0032408211845904
1783205120640045600,0.746045654296875,-0.1691019634906202,0.6868498991303146,-0.6160726277261972,0.7990322113037109,-0.5172916054725647,-0.0449190251529216
1783205120649982700,0.755982666015625,-0.0047425548845902,0.7086619179658591,-0.2053869635105133,0.8318570256233215,-0.5138949155807495,-0.0682987198233604
1783205120659918800,0.7659189453125,0.082262542014569,0.7197986673995852,0.1899450642287731,0.8383743166923523,-0.4984731078147888,-0.0730529949069023
1783205120669855700,0.775855712890625,0.1239678135175257,0.6955144132316112,0.4511182123690843,0.8112344741821289,-0.5225744247436523,-0.0509489811956882
1783205120679791600,0.78579150390625,0.2399761193979531,0.6834039964601397,0.4817372225165366,0.7634592056274414,-0.5958869457244873,-0.0125901391729712
1783205120689728800,0.795728759765625,0.2211340562839061,0.7563324545487761,0.6839940713077783,0.6689206957817078,-0.6264618039131165,0.0164520666003227
1783205120699665000,0.805664794921875,0.046658564795088,0.8547454825058579,1.0497872853517531,0.54360431432724,-0.6065391898155212,0.0083968034014105
1783205120709600800,0.815600830078125,-0.2176695950437337,0.8877826597109436,1.3714356527209282,0.4115759432315826,-0.5332692861557007,-0.0299270059913396
1783205120719537700,0.82553759765625,-0.4808575170725583,0.91465941459015,1.5948814200133083,0.2815226018428802,-0.4233273863792419,-0.0933320820331573
1783205120729473800,0.835473876953125,-0.6435024864435196,0.9581449205733836,1.6485872912377115,0.1692492663860321,-0.30490642786026,-0.178008422255516
1783205120739410700,0.84541064453125,-0.7012199313968419,0.9935263228170572,1.5105471862912176,0.079305000603199,-0.2101362347602844,-0.2760215103626251
1783205120749346800,0.855346923828125,-0.6872384600564837,1.012932741815597,1.363457513448596,0.0117784393951296,-0.1291323453187942,-0.3747218549251556
1783205120759283700,0.86528369140625,-0.6363211235720664,1.0044535211533308,1.215899638572335,-0.0431505888700485,-0.0632681176066398,-0.4678757488727569
1783205120769219600,0.875219482421875,-0.5353257509715855,0.9659504797577856,1.0622656586527823,-0.0885627269744873,-0.001115710940212,-0.5428529977798462
1783205120779156700,0.88515673828125,-0.498267063165456,0.8700603944070636,0.9221505009979007,-0.1282190531492233,0.0543534085154533,-0.6081835627555847
1783205120789092900,0.8950927734375,-0.4734804124332964,0.793222507789731,0.6258832431226968,-0.1478511244058609,0.0736365690827369,-0.6648486256599426
1783205120799029800,0.90502978515625,-0.4838558951709419,0.7746868802763521,0.1220972704052925,-0.1411221176385879,0.0474212169647216,-0.714504063129425
1783205120808965600,0.914965576171875,-0.5410622487969696,0.6550755814678967,-0.360701443862915,-0.1248281151056289,-0.0296111069619655,-0.7387670278549194
1783205120818902800,0.92490283203125,-0.6580233253575861,0.5016831552192569,-0.6339467225909232,-0.1238411515951156,-0.1028235405683517,-0.751656711101532
1783205120828839000,0.9348388671875,-0.7541480962470173,0.4051796141453087,-0.7975573221236467,-0.1179548874497413,-0.1659321635961532,-0.7559579610824585
1783205120838775600,0.944775634765625,-0.7669737486157566,0.2571221191838383,-1.0357564219117164,-0.1797391772270202,-0.2902610301971435,-0.7486566305160522
1783205120848711700,0.954711669921875,-0.6728736884869635,-0.0565390488237142,-1.2660603845357894,-0.2161112427711486,-0.5623372197151184,-0.7229947447776794
1783205120858648800,0.96464892578125,-0.3583748275462537,-0.24955636010468,-1.9614765980899331,-0.18716561794281,-0.9087961316108704,-0.718309760093689
1783205120868584700,0.974584716796875,0.1724072155810892,-0.0818649209991097,-2.690412219408154,-0.068295381963253,-1.261024832725525,-0.725568950176239
1783205120878521600,0.984521484375,0.5398704451965168,0.1433608615778386,-3.048703094998002,0.1080136075615882,-1.461477518081665,-0.7222335934638977
1783205120888457700,0.994457763671875,0.8213787810854614,0.1834483956858515,-2.8518431368142365,0.2864334285259247,-1.5473780632019043,-0.7015789747238159
1783205120898395000,1.004394775390625,0.982854268285632,-0.0096545480519533,-2.2070547022134064,0.4623416066169739,-1.494352102279663,-0.6643344163894653
1783205120908331300,1.014331298828125,1.1708373847916722,-0.3153251556970179,-1.482190860378742,0.6155891418457031,-1.29990553855896,-0.6214271783828735
1783205120918268200,1.02426806640625,1.4770897378474472,-0.7843230158887803,-1.0122013588011265,0.7930381894111633,-1.1585183143615725,-0.4752092063426971
1783205120928204000,1.0342041015625,2.658111247523129,-1.8265515564240515,-0.6818763485014439,1.0388174057006836,-1.0540106296539309,0.0259370356798172
1783205120938141200,1.04414111328125,3.821744400024414,-2.7308453520834446,-1.029675640693307,1.2356982231140137,-1.1164401769638062,0.4078258275985718
1783205120948077300,1.054077392578125,1.9735965133421125,-2.403567746655643,-1.0232798021763565,1.310853123664856,-1.1497236490249634,0.6508651375770569
1783205120958014000,1.064013916015625,1.74236754482761,-1.821744010011852,-0.4452437673777341,1.3106924295425415,-1.1165555715560913,0.829046368598938
1783205120967950000,1.0739501953125,2.1636497141204774,-1.3919140848651528,0.0448679002523422,1.2422245740890503,-1.238836646080017,0.9861958622932434
1783205120977887200,1.08388720703125,1.9828611852936449,-1.1201917779207229,0.5057704245328903,1.106917381286621,-1.3507485389709473,1.0860729217529297
1783205120987823000,1.093822998046875,1.6101939938269554,-0.9836942262411116,1.1376029314488172,0.9118010997772216,-1.3331022262573242,1.128218412399292
1783205120997760000,1.103760009765625,1.309314419850707,-0.8309444818101823,1.9278245038568973,0.6841477155685425,-1.2431145906448364,1.1331274509429932
1783205121007696100,1.113696044921875,0.7352370595499873,-0.6480587615083903,2.4395313327014443,0.4706471264362335,-1.0886609554290771,1.070149540901184
1783205121017633300,1.12363330078125,0.1168918107166886,-0.5574119105733931,2.734764571353793,0.3028173744678497,-0.7950922846794128,0.9303620457649232
1783205121027569200,1.133569091796875,-0.231998345451802,-0.4519146234437823,2.8413579831570384,0.2499049007892608,-0.313784509897232,0.7871612310409546
1783205121037506000,1.143506103515625,-0.3640060383662581,-0.2218614207103848,2.5724206307560205,0.3415818214416504,0.2559870779514313,0.7062943577766418
1783205121047442200,1.153442138671875,-0.6352336936615407,0.0847883341651409,2.012071643817425,0.5183463096618652,0.7258970737457275,0.6491978168487549
1783205121057379000,1.163379150390625,-0.6907558205276727,0.5427489597748965,1.290419749766588,0.7187550663948059,1.0253357887268066,0.5821530222892761
1783205121067315200,1.173315185546875,-0.6216387374207377,1.0308396429713815,0.7823901481300592,0.8878771066665649,1.194588303565979,0.5106900930404663
1783205121077252000,1.183252197265625,-0.6081544019475579,1.3663038427904248,0.6320253991395235,1.004813551902771,1.307478666305542,0.4205274581909179
1783205121087188000,1.19318798828125,-0.5796145361617208,1.5710992701485753,0.7499813319563865,1.059281587600708,1.3769856691360474,0.3150686621665954
1783205121097125000,1.203125,-0.8287352813281118,1.86619953007102,-0.0231149181276559,1.057037115097046,0.9156534671783448,0.1246412023901939
1783205121107061200,1.213061279296875,-0.8207683941021561,1.8988896474041044,0.3533195169180631,0.85496985912323,0.6516141891479492,0.0016205497086048
1783205121116998100,1.222998046875,-0.441608187354356,1.7182609853141009,1.0698504146933554,0.6283659934997559,0.7204097509384155,-0.09579548984766
1783205121126935000,1.23293505859375,-0.5901518583975732,1.7863789743810892,1.197553834542632,0.4301925897598266,0.8707689046859741,-0.1812458932399749
1783205121136871200,1.24287109375,-0.6675666681200265,1.5647656832128762,1.2401274863779543,0.2655386626720428,1.0339421033859253,-0.2382271438837051
1783205121146808000,1.25280810546875,-0.8242592318926006,1.1881232314396648,1.2166916657328606,0.1448131948709488,1.1599799394607544,-0.2560841739177704
1783205121156744000,1.262743896484375,-0.8065108092341572,0.8194358303241431,1.0453186155050993,0.0909555554389953,1.2284796237945557,-0.2299540340900421
1783205121166681000,1.27268115234375,-0.6679959263827652,0.4725699099922552,0.8085410729527474,0.0744263678789138,1.312337875366211,-0.1765955835580825
1783205121176617200,1.2826171875,-0.5543204473640769,0.2234659332975745,0.747619279000163,0.0920186713337898,1.353438138961792,-0.1077179834246635
1783205121186554000,1.29255419921875,-0.5029667652890086,0.0252572456522844,0.7378612705737352,0.1252384930849075,1.3735244274139404,-0.0268190037459135
1783205121196490000,1.302489990234375,-0.3438068980874493,-0.1053929317059926,0.7639823847800493,0.1732100248336792,1.4280123710632324,0.0637191534042358
1783205121206427100,1.31242724609375,-0.1858950581856071,-0.1579007522522471,0.8335995263636111,0.23112653195858,1.479598045349121,0.1581680327653885
1783205121216363300,1.32236328125,0.0559075825197622,-0.2397277341274544,0.761051007503271,0.2898806631565094,1.6201444864273071,0.2224567383527755
1783205121226300000,1.3322998046875,0.4685136568713933,-0.3277428848519921,0.3281786459207534,0.3257426917552948,1.7018753290176392,0.2149232476949691
1783205121236236000,1.342236083984375,0.5923574056178331,-0.3827594002835452,-0.1048047748208046,0.3049162328243255,1.6634948253631592,0.1504087001085281
1783205121246173200,1.352173095703125,0.4368051709868014,-0.3722060036957264,-0.2949491610139608,0.2514133751392364,1.6114306449890137,0.0699162259697914
1783205121256109000,1.362109130859375,0.3234095318228006,-0.3686752357536926,-0.2199713691800832,0.1283979564905166,1.643839955329895,-0.0349462740123271
1783205121266046000,1.3720458984375,0.1343881217775866,-0.3911989830551668,-0.2231985145330429,-0.0112261595204472,1.539401292800903,-0.115820899605751
1783205121275982000,1.381982177734375,0.1924141577560454,-0.4897026484377682,-0.7182645897001028,-0.1508016437292099,1.293640375137329,-0.1323178559541702
1783205121285919200,1.391919189453125,0.3918042920045554,-0.57632879248932,-1.3074667461574077,-0.2805574834346771,0.9957438111305236,-0.0866525620222091
1783205121295855900,1.40185595703125,0.3859391993634402,-0.5703079978298395,-1.680467115101218,-0.3934667110443115,0.7046099901199341,-0.0119088124483823
1783205121305792000,1.4117919921875,0.2620337835576385,-0.5076703398700804,-1.7979016543924808,-0.4579398334026336,0.4703357517719269,0.0355190485715866
1783205121315729200,1.421729248046875,0.0405053211286664,-0.4780201382221654,-1.7940876490622757,-0.4353735446929931,0.3418299853801727,0.051882579922676
1783205121325665000,1.4316650390625,-0.0091407533109188,-0.5066033316930756,-1.981686442425847,-0.3152161836624145,0.1921817064285278,0.0559169128537178
1783205121335602000,1.441601806640625,-0.0151709003206342,-0.4478038271240889,-2.1370979534119368,-0.123378574848175,0.0497933998703956,0.0601100623607635
1783205121345538000,1.4515380859375,0.0173803930636495,-0.3175292050799355,-2.1266507936775683,0.1004971265792846,-0.0396126434206962,0.0526068732142448
1783205121355475200,1.46147509765625,0.0623800299368798,-0.2305233044631779,-1.9586837525010108,0.2929491400718689,-0.1446341276168823,0.0324020013213157
1783205121365411000,1.4714111328125,0.0875686855986714,-0.2252261844357475,-1.6300830817759036,0.4833861291408539,-0.2029502242803573,0.0298231355845928
1783205121375348000,1.481347900390625,0.1027362249184399,-0.2606506586361676,-1.2360165439277886,0.6572796702384949,-0.190216064453125,0.0416925810277462
1783205121385285000,1.49128515625,-0.0013389935187995,-0.2558416509192436,-0.8339613454133271,0.8113027811050415,-0.1492577642202377,0.0565782263875007
1783205121395221000,1.501220947265625,-0.1370529205400496,-0.1772042771318927,-0.4793418518126011,0.9089997410774232,-0.087270550429821,0.0554719492793083
1783205121405158100,1.511158203125,-0.200403183748573,-0.0444200103543698,-0.1983727008342742,0.9712925553321838,-0.0563724301755428,0.0483029671013355
1783205121415094000,1.521093994140625,-0.1521218217909336,0.0644926381766796,-0.0244634101271629,0.9737823009490968,-0.0283021815121173,0.0462174452841281
1783205121425031200,1.53103125,-0.0867856454622,0.2243898797420784,0.1764864477187395,0.9312551617622375,-0.0502888448536396,0.0470605120062828
1783205121434967000,1.540967041015625,0.0364922860950231,0.3477654264548793,0.3449865728586912,0.8128379583358765,-0.0529778376221656,0.0359575264155864
1783205121444904200,1.550904296875,0.1499468158394098,0.4534584553522989,0.471035211238265,0.6514883041381836,-0.1038540303707122,0.0224052127450704
1783205121454840000,1.560840087890625,0.2535198569081723,0.5176859763193875,0.4705670092046261,0.4653375744819641,-0.2157723158597946,0.0162852685898542
1783205121464777000,1.57077685546875,0.2788703520681709,0.5467167674273252,0.5131435836493968,0.2544471323490143,-0.3339914977550506,0.0203335564583539
1783205121474714000,1.580714111328125,0.2197634985830634,0.5655024241790175,0.6857096430540084,0.0476191155612468,-0.4186666905879974,0.0287070665508508
1783205121484650200,1.590650146484375,0.1594427392635494,0.5550617672506719,0.7880044808804988,-0.1314017176628112,-0.4724462032318115,0.0412394478917121
1783205121494587100,1.600587158203125,0.1074686602678149,0.5132712286170572,0.7965829241335391,-0.2824561893939972,-0.4917485415935516,0.0499288104474544
1783205121504523000,1.61052294921875,-0.0168605339080095,0.4869977733932435,0.7927689188033342,-0.405583381652832,-0.4846744239330292,0.0502129048109054
1783205121514460200,1.620460205078125,-0.131198057032004,0.4712700063748284,0.7890981213361025,-0.5024247169494629,-0.4453842639923095,0.0393051318824291
1783205121524396300,1.630396240234375,-0.2113741481613367,0.4454605519335716,0.7510252880513668,-0.5697643756866455,-0.3795613944530487,0.0141352545469999
1783205121534333000,1.6403330078125,-0.2692103971887379,0.39086321176216,0.6616290947645902,-0.6089924573898315,-0.3042227029800415,-0.0215175487101078
1783205121544270000,1.65027001953125,-0.2990760316856205,0.3151943689242005,0.5016442845135927,-0.6262441873550415,-0.2398905605077743,-0.0497953109443187
1783205121554206200,1.660206298828125,-0.2665551699722185,0.2225243415985256,0.3368354151070117,-0.6327388286590576,-0.2083246558904647,-0.0760929584503173
1783205121564143000,1.67014306640625,-0.1938322443930432,0.130453978932742,0.1616021823197603,-0.6291723847389221,-0.1910481303930282,-0.0986212044954299
1783205121574079000,1.680078857421875,-0.1024360363954678,0.0553243027390912,0.0232715699940919,-0.6210324168205261,-0.1824447810649871,-0.1151394620537757
1783205121584016100,1.69001611328125,-0.0197682745808735,-0.0046531595680862,-0.0686813220381736,-0.6048390865325928,-0.1754803508520126,-0.1228796765208244
1783205121593952300,1.6999521484375,0.0402825452234596,-0.0812346785378642,-0.1073562128692865,-0.5844624638557434,-0.1715229004621505,-0.1255617439746856
1783205121603889000,1.709888916015625,0.0561305045554414,-0.1766614572257734,-0.1495832432240247,-0.5620407462120056,-0.1640498638153076,-0.1165573745965957
1783205121613826000,1.719825927734375,0.0835665007526055,-0.3110228919258341,-0.2702829217910766,-0.5276100635528564,-0.1701200008392334,-0.0926131606101989
1783205121623762200,1.72976220703125,0.0610607640318572,-0.4131451861970126,-0.3939350204229355,-0.4914867281913757,-0.1806813031435012,-0.0607186071574687
1783205121633699000,1.739698974609375,0.0292761807037517,-0.4329042180255055,-0.469168248322606,-0.4562703967094421,-0.1850044131278991,-0.0332470387220382
1783205121643635000,1.749635009765625,0.0066237289886921,-0.4772796585857868,-0.5254401706427335,-0.419253945350647,-0.1847350895404815,-0.0038319774903357
1783205121653572000,1.759572021484375,-0.0480101803334429,-0.4605180550076067,-0.5067927533179521,-0.403900533914566,-0.1662421077489853,0.0146066844463348
1783205121663508200,1.76950830078125,-0.117817656857334,-0.4552976900108158,-0.4576666110992431,-0.3851496279239654,-0.1692834943532943,0.0323950611054897
1783205121673444900,1.77944482421875,-0.1244748131915926,-0.4792084346912801,-0.5056085119694471,-0.3423912227153778,-0.1560979187488556,0.0442903377115726
1783205121683382000,1.789382080078125,-0.1386516427072696,-0.4569115914808586,-0.5492652828663587,-0.2920843064785003,-0.1433503776788711,0.0368890613317489
1783205121693318100,1.799318115234375,-0.1618043172957375,-0.3582050604699179,-0.5640145237088203,-0.2445356845855713,-0.1526418775320053,0.0144822895526885
1783205121703255300,1.80925537109375,-0.1180152435223571,-0.2700621917124837,-0.5855196685522794,-0.1872476041316986,-0.1741957068443298,0.0086597725749015
1783205121713191000,1.81919091796875,-0.0149169438258744,-0.2184600878342986,-0.582903933095932,-0.125611662864685,-0.1795627772808075,0.0175957437604665
1783205121723128000,1.829128173828125,0.0517222048602066,-0.1513484993308782,-0.5515197837948799,-0.0601012483239173,-0.1914300173521042,0.0246303956955671
1783205121733065200,1.839065185546875,0.1112326159112155,-0.0707744949251413,-0.4834317514747381,-0.0130605055019259,-0.2076489329338073,0.0210654884576797
1783205121743001000,1.8490009765625,0.1095053171945735,0.0102619393605738,-0.3365022376298904,0.0169567000120878,-0.2155894041061401,0.0118306297808885
1783205121752938000,1.85893798828125,0.0961487910858355,0.1121441412655636,-0.1335749422311782,0.0315774530172348,-0.2119544595479965,-0.004728905390948
1783205121762874000,1.8688740234375,0.0902331281681079,0.1684753560248762,-0.0122089087098836,0.0454959943890571,-0.2048000693321228,-0.025037245824933
1783205121772811300,1.878811279296875,0.1474758774149231,0.1882471012044698,0.0376379489988088,0.0577808916568756,-0.2122188359498977,-0.0320512130856514
1783205121782748000,1.888747802734375,0.1382192791719921,0.2290802660480141,0.1320592769712209,0.0610069632530212,-0.2037433236837387,-0.0398615449666976
1783205121792684000,1.89868408203125,0.1047352167159318,0.2703551102444529,0.279685540908575,0.0564790591597557,-0.1782206594944,-0.0515842474997043
1783205121802621200,1.90862109375,0.0851575876026414,0.3077014924181625,0.4115232840836048,0.0483806692063808,-0.1390026956796646,-0.0684302970767021
1783205121812557000,1.91855712890625,0.0484345523585099,0.3478255956768989,0.5386135404706001,0.0219445377588272,-0.0983122587203979,-0.0931361764669418
1783205121822494000,1.928493896484375,0.0244511534337885,0.3597909779544919,0.6381979502946138,0.0015121828764677,-0.044354610145092,-0.1175141409039497
1783205121832431000,1.93843115234375,0.0268898700891062,0.3349931482411921,0.6583692161858081,-0.0179816242307424,0.0086103342473506,-0.1299998462200164
1783205121842367200,1.9483671875,0.0293655486207921,0.3097096904354169,0.6624205374032258,-0.0469433702528476,0.0554804429411888,-0.1415085047483444
1783205121852304000,1.958303955078125,0.0308678246762137,0.2871761158596724,0.6675239980220794,-0.085751749575138,0.0918650776147842,-0.1540908813476562
1783205121862240000,1.968239990234375,0.0477872400314547,0.2908944057304412,0.663168140900135,-0.1316844075918197,0.1235001683235168,-0.1657774746417999
1783205121872177200,1.97817724609375,0.0498883770291693,0.2973085470890626,0.6584305909842252,-0.1810199916362762,0.1550527662038803,-0.178716704249382
1783205121882114000,1.988114013671875,0.0464844138045795,0.2873203101033345,0.6466805319577456,-0.2350271940231323,0.1894016116857528,-0.19622503221035
1783205121892050000,1.9980498046875,0.050788842133386,0.2402525982517749,0.5456155281871556,-0.2652921378612518,0.2195818871259689,-0.1949781477451324
1783205121901987000,2.007987060546875,0.16278806763608,0.1156281109238043,0.2824450687497854,-0.2794745564460754,0.1994793564081192,-0.1779506802558899
1783205121911923200,2.017923095703125,0.1966183862465433,0.0843701087530702,0.1116103631824255,-0.2946449816226959,0.17513407766819,-0.1536346822977066
1783205121921860000,2.027860107421875,0.1721597801586613,0.0960643459390848,0.0957826794534921,-0.311173141002655,0.1671656817197799,-0.1408352255821228
1783205121931797000,2.037796875,0.1338359312549233,0.0611931947724893,0.1237713410973548,-0.3252055943012237,0.1648338288068771,-0.1463865786790847
1783205121941733000,2.047733154296875,0.1155169239006005,0.0323665479345247,0.1744306842327117,-0.344809740781784,0.1701561361551284,-0.1517142951488495
1783205121951670300,2.057670166015625,0.0969312467004172,-0.0058552653668448,0.1941904467135667,-0.3481565415859222,0.1825302541255951,-0.1541787832975387
1783205121961606100,2.067606201171875,0.1149569519302807,-0.1527010099183768,0.0415735348820686,-0.3376138806343078,0.1851105988025665,-0.124685600399971
1783205121971543000,2.07754296875,0.1166396808528341,-0.3196449185922742,-0.2295861697435378,-0.3221113681793213,0.1677116304636001,-0.0712727084755897
1783205121981480200,2.087480224609375,0.0448267097254283,-0.4160718142334371,-0.3756447459727525,-0.3136250078678131,0.1465445458889007,-0.0278739221394062
1783205121991416300,2.097416259765625,-0.00533376224339,-0.441319506606087,-0.4266857819020748,-0.3057175576686859,0.1297149658203125,0.0072784731164574
1783205122001353000,2.10735302734375,-0.0248299418846145,-0.3848452666468918,-0.451862893256545,-0.3017799258232116,0.1177620440721511,0.0263086147606372
1783205122011290000,2.1172900390625,-0.0522897025498561,-0.3444149104505777,-0.4766027822375297,-0.2868528962135315,0.1094915941357612,0.023774616420269
1783205122021226200,2.127226318359375,-0.1168748961145058,-0.3226594441078603,-0.5256447533041239,-0.260684072971344,0.1114454939961433,0.0143172340467572
1783205122031163100,2.1371630859375,-0.2314806051880121,-0.3444210479304194,-0.6295464418053627,-0.2142675518989563,0.1181172505021095,0.0101397987455129
1783205122041099000,2.14709912109375,-0.3136911978196353,-0.4068039274115115,-0.7839689417541027,-0.1501933485269546,0.1214622408151626,0.0150538282468914
1783205122051036200,2.1570361328125,-0.3050707420557737,-0.4335761990029365,-0.9952145681649446,-0.0758940726518631,0.0763557478785514,0.0273815989494323
1783205122060973000,2.16697314453125,-0.2244983450852334,-0.3308636472210288,-1.0968874747008084,-0.0041820313781499,0.0242629423737525,0.0364181101322174
1783205122070909000,2.176908935546875,-0.1517526962175965,-0.2292035271015018,-1.0681985558331013,0.0593522042036056,-0.029382973909378,0.032786089926958
1783205122080846000,2.18684619140625,-0.1172507071569562,-0.1337999831587076,-0.9541466447174548,0.1111550703644752,-0.0762617737054824,0.0201702304184436
1783205122090783200,2.196783203125,-0.1278811145037412,-0.0693457772962748,-0.7617612015992402,0.1546916216611862,-0.1037152335047721,0.0004793494008481
1783205122100719000,2.206718994140625,-0.1258212593644857,-0.0354735375065356,-0.5632593214273452,0.2003081738948822,-0.1197657734155654,-0.0145050641149282
1783205122110656000,2.216656005859375,-0.0274889684934169,-0.0482450485352426,-0.4800222352921962,0.2459576874971389,-0.1574697494506836,-0.0135484561324119
1783205122120592100,2.226592041015625,0.0782608320925384,-0.0233853325668722,-0.3557774314641952,0.2703165113925934,-0.1798541843891143,-0.0036771493032574
1783205122130529300,2.236529296875,0.0806846251733601,0.0463624496590346,-0.0886257934361696,0.2664634585380554,-0.1721616387367248,0.0036516033578664
1783205122140466200,2.246466064453125,0.0798611068960279,0.0941868616294115,0.2002402482718229,0.2392230480909347,-0.1431096345186233,0.0052614081650972
1783205122150402000,2.256402099609375,0.0704318189673125,0.1174465219900011,0.4268874419540167,0.1966369748115539,-0.1037363931536674,0.0079432120546698
1783205122160339200,2.266339111328125,0.0440960756296291,0.1586041695475578,0.5456067603588104,0.1463816612958908,-0.0643369406461715,0.0073414342477917
1783205122170276000,2.276276123046875,0.0400561525890603,0.176530652186647,0.4969137488603591,0.1063655391335487,-0.0479465201497077,0.0107340347021818
1783205122180212000,2.2862119140625,0.0281224075587466,0.1553104617644101,0.3726595926821232,0.0722241774201393,-0.0432735458016395,0.007963603362441
1783205122190149000,2.296149169921875,-0.0086207662911154,0.181080789771676,0.2835170818954706,0.0441504679620265,-0.0454107373952865,0.0067297611385583
1783205122200085200,2.306085205078125,-0.0114430206376127,0.2770652754075825,0.2608873169362545,0.0130613688379526,-0.0340440608561039,0.0025144868995994
1783205122210022100,2.316022216796875,-0.0286284939173609,0.3046813774120062,0.2715495807260275,-0.0115446420386433,-0.0137254735454916,-0.0165577419102191
1783205122219959000,2.325958984375,-0.0764789901770651,0.2919425996091216,0.2710714418202638,-0.0351274311542511,0.0083644054830074,-0.0413158312439918
1783205122229895200,2.335895263671875,-0.1100671705947257,0.2713607070904225,0.2535170804291963,-0.0461856760084629,0.0286611542105674,-0.0618453435599803
1783205122239832000,2.34583203125,-0.1023042449756525,0.2149761181760579,0.1758434736400842,-0.052327174693346,0.0405411012470722,-0.0714519768953323
1783205122249769200,2.355769287109375,-0.0914492898916825,0.1674285503856837,0.0855564689934253,-0.049340970814228,0.0451635494828224,-0.0755447223782539
1783205122259705000,2.365705078125,-0.0604591631432063,0.1179977991972118,-0.0147515789300203,-0.0473691672086715,0.0360448844730854,-0.0792960524559021
1783205122269642200,2.375642333984375,-0.03195804019887,0.1002997184865176,-0.0659720630794763,-0.0556832887232303,0.0279009360820055,-0.0823632106184959
1783205122279579100,2.3855791015625,-0.0502331353462301,0.0972963719520717,-0.0701361970216035,-0.0634273588657379,0.0303388517349958,-0.0898278281092643
1783205122289515000,2.395514892578125,-0.0673664583136327,0.0726547557137906,-0.0737584791719913,-0.0685874968767166,0.0303100906312465,-0.097923032939434
1783205122299452200,2.4054521484375,-0.0820285140629857,0.0378540029022842,-0.0784317316800355,-0.0607475973665714,0.0283086169511079,-0.1060484424233436
1783205122309389000,2.41538916015625,-0.0691208277002908,-0.0151770378004759,-0.1675403401970863,-0.042667131870985,0.019569719210267,-0.1068141013383865
1783205122319325200,2.4253251953125,-0.0366966312943957,-0.065590735611692,-0.2319382858276367,-0.0219342373311519,-0.0036215586587786,-0.1033049076795578
1783205122329262000,2.435261962890625,-0.0281277230546809,-0.0909092281982302,-0.2212871279537677,-0.001293140463531,-0.01055643055588,-0.1029493734240531
1783205122339198200,2.4451982421875,-0.0175384149032644,-0.1113482781801372,-0.1464759248584508,0.0062381043098866,-0.0018300949595868,-0.103448785841465
1783205122349135000,2.455135009765625,-0.0119777851014398,-0.1113808652754873,-0.0725268915504217,0.0131396865472197,0.0118718687444925,-0.1039257571101188
1783205122359072300,2.465072265625,0.0122681098175235,-0.1279360595613718,-0.0301490545481443,0.0161272343248128,0.0201907306909561,-0.1068062707781791
1783205122369008000,2.475008056640625,0.0264161150975152,-0.1253930240150541,-0.0078027827054262,0.0214884430170059,0.0314716137945652,-0.1006730124354362
1783205122378945000,2.484945068359375,0.0386192881863564,-0.1562264806307852,-0.0373334130942821,0.0287285838276147,0.0334581956267356,-0.0903019607067108
1783205122388882200,2.494882080078125,0.0544159922551363,-0.180593517711386,-0.1092559090107679,0.0333768650889396,0.0232694745063781,-0.0748471096158027
1783205122398818000,2.504818115234375,0.0778919805138371,-0.163131510778889,-0.1136503445774316,0.0310547538101673,0.0274499878287315,-0.0608471408486366
1783205122408755000,2.5147548828125,0.0862602698812261,-0.1595969799771905,-0.0937976431161165,0.0278610922396183,0.0171526111662387,-0.0477907285094261
1783205122418692000,2.524692138671875,0.0991386753505095,-0.0873806887459009,-0.0676654229938983,0.0271460376679897,0.0211890563368797,-0.0311605390161275
1783205122428628200,2.534628173828125,0.0925488851640373,-0.0551087237596511,-0.0305196414262056,0.0199693515896797,0.0297111719846725,-0.0356152094900608
1783205122438565000,2.544565185546875,0.0521060530786402,-0.0380727602194994,-0.0212409409493207,0.0231672022491693,0.0326244756579399,-0.0406766161322593
1783205122448502000,2.554501953125,0.056703938795533,-0.0150258658267557,-0.0471235702246427,0.025760855525732,0.0242720041424036,-0.0435280613601207
1783205122458438100,2.564438232421875,0.0944909956751391,-0.0109682609990239,-0.0863899972081184,0.028682243078947,0.0113640800118446,-0.04214908182621
1783205122468375300,2.574375244140625,0.0823069291455671,-0.0116662532005459,-0.0849105723053216,0.0328066833317279,0.0094921439886093,-0.0443666949868202
1783205122478312000,2.58431201171875,0.0203477732355706,-0.0130780927598476,-0.0482592962563037,0.029320016503334,-0.0009409287013113,-0.0387100540101528
1783205122488248000,2.594248046875,0.009944525708165,0.0085936408221721,0.0136100076794624,0.021610964089632,0.0244587026536464,-0.0314425528049469
1783205122498185200,2.604185302734375,-0.0158397760255262,0.0014789865113794,0.0262725053757429,0.0216158404946327,0.0315033718943595,-0.0266087837517261
1783205122508122000,2.6141220703125,-0.0239363357794471,-0.0080796999506652,-0.0561041645377874,0.0243266709148883,0.0236270744353532,-0.0202534161508083
1783205122518058000,2.62405810546875,-0.0321929266669787,-0.0127859048802405,-0.1584475176811218,0.0295746251940727,-0.0015827119350433,-0.0129078766331076
1783205122527995100,2.6339951171875,-0.0211403301190584,-0.0243178641766309,-0.195038587975502,0.0313632041215896,-0.0248603373765945,-0.0006781080737709
1783205122537932000,2.64393212890625,-0.0406099505469203,-0.0305896379224956,-0.1845996115475893,0.0290810167789459,-0.035084530711174,0.0044288104400038
1783205122547868000,2.653867919921875,-0.0863510899698361,-0.0165675423108041,-0.1164227319002151,0.0231403037905693,-0.033521257340908,0.0016343549359589
1783205122557805000,2.66380517578125,-0.1023782965925522,0.0074730392944067,-0.0560837062716484,0.0117183681577444,-0.0266660414636135,-0.0079629346728324
1783205122567742200,2.6737421875,-0.0940311778773553,0.0074549921810626,-0.041007717692852,0.0106243416666984,-0.0234425514936447,-0.0206326562911272
1783205122577678000,2.683677978515625,-0.0516205345840193,-0.0080402447231113,-0.0764630619555711,0.0232292041182518,-0.0322962999343872,-0.0229455921798944
1783205122587615000,2.693614990234375,0.0242738241055049,-0.0506762942701578,-0.1324316174149513,0.0384989716112613,-0.0430080667138099,-0.0188264809548854
1783205122597552000,2.70355224609375,0.0340708128354512,-0.0908325827654451,-0.1553454600125551,0.0558729916810989,-0.04747274518013,-0.0069999117404222
1783205122607488300,2.71348828125,0.0219900240172632,-0.1313783820349723,-0.1257943713575601,0.0611122287809848,-0.0463464967906475,-0.003947396762669
1783205122617425200,2.723425048828125,-0.0046807234284467,-0.1346204326961189,-0.0534925207346677,0.0586137473583221,-0.0169708263128995,-0.0121187008917331
1783205122627362000,2.733362060546875,-0.0263867611388675,-0.1226212942793965,-0.0054570963621139,0.0576752498745918,-0.0261957496404647,-0.0059476243332028
1783205122637298200,2.743298095703125,-0.0066249528313986,-0.0630696927014738,0.0057002574682235,0.0435490310192108,-0.0165251772850751,0.0015139398165047
1783205122647235000,2.753235107421875,-0.0084851937453262,-0.0669171619098633,0.039648119777441,0.0363662168383598,-0.0093479566276073,-0.0009846379980444
1783205122657172200,2.763172119140625,-0.0555499099222011,-0.1033485846631228,0.0280307472199201,0.0291773490607738,0.0018862672150135,-0.007350736297667
1783205122667108000,2.773108154296875,-0.014925455925893,-0.0921180194661021,0.0168377375543117,0.0266372263431549,0.0037715188227593,-0.0031157778576016
1783205122677045000,2.783044921875,0.0497656822312623,-0.0658184799529612,0.009069441640377,0.0204104147851467,0.003780763130635,0.0005160730797797
1783205122686982100,2.792982177734375,0.0948134142962284,-0.0252763339452445,0.0252490075469017,0.0178577732294797,0.0076085245236754,0.0034514092840254
1783205122696918000,2.80291796875,0.0888098812988027,-0.0096991178460419,0.0654711278200149,0.0102368276566267,0.0192303210496902,0.0028920886106789
1783205122706855200,2.812855224609375,0.0560828112225048,-0.0037881402365863,0.0833259334623813,0.0086711551994085,0.0356215462088584,0.0034050131216645
1783205122716792000,2.8227919921875,0.0445834207551553,-0.0176785722926259,0.0282487738847732,0.0074755633249878,0.0365123599767684,0.0074441079050302
1783205122726728200,2.832728271484375,0.0210795946414582,-0.0016138649374246,-0.0109498485594987,0.0123566053807735,0.0346721149981021,0.0108084790408611
1783205122736665000,2.8426650390625,0.0090163780125789,0.0204334239587187,-0.0294686710685491,0.008083009161055,0.0333745889365673,0.0168532188981771
1783205122746602000,2.85260205078125,0.0034105208295397,0.0422001058151945,-0.0231827226668596,0.003529536537826,0.0313167609274387,0.0186921320855617
1783205122756538000,2.8625380859375,-0.0091351090214215,0.0753696772282943,-0.0293757320880889,-0.0009605316445231,0.0308885630220174,0.0187420360743999
1783205122766475300,2.872475341796875,-0.0050199470538645,0.116602216652967,-0.0783726949691772,0.0022789370268583,0.018722977489233,0.0216171853244304
1783205122776412000,2.882411865234375,-0.0071618544533848,0.116698553166911,-0.116546066018939,0.0051334239542484,0.0002151187509298,0.0178293287754058
1783205122786348000,2.89234814453125,-0.0304414068245328,0.1347102664040401,-0.1130699143409729,0.0100035462528467,-0.0024171494878828,0.011869172565639
1783205122796285200,2.90228515625,-0.0563355621408671,0.1292552524011582,-0.0845692115217447,0.0114904372021555,0.0028022835031151,0.0115813324227929
1783205122806222000,2.91222216796875,-0.102690157287009,0.1097797502217814,-0.0469651647925376,0.0098611153662204,0.0117270685732364,0.0079498458653688
1783205122816159000,2.922158935546875,-0.1418641932792961,0.1174074320886284,-0.03470774076581,0.0013000825420022,0.0142800416797399,0.0001511280424892
1783205122826095000,2.93209521484375,-0.1466844895752146,0.1209142346331849,-0.0711304687559604,-0.0030536530539393,0.0141439530998468,-0.0116892866790294
1783205122836032300,2.9420322265625,-0.1126439440138638,0.1290456282384693,-0.0982943700134754,-0.0024665417149662,0.0051791626028716,-0.0210929438471794
1783205122845969200,2.95196923828125,-0.0906455540270544,0.1266101812524721,-0.1224666882395744,-0.0016968883574008,0.0029522273689508,-0.0262221936136484
1783205122855905000,2.961905029296875,-0.0752753865409642,0.0978833049945533,-0.1389572197914123,0.0104631287977099,-0.0042817420326173,-0.0312280040234327
1783205122865842200,2.97184228515625,-0.0157361877868883,0.07458148599267,-0.1925993781298398,0.020685140043497,-0.0218213200569152,-0.034445371478796
1783205122875779000,2.981779052734375,0.0141499232424423,0.0694582246948033,-0.1846469578206539,0.0280403494834899,-0.0317092910408973,-0.0358737185597419
1783205122885715000,2.99171484375,-0.0074094908052124,0.0556112664543092,-0.0725064332842826,0.0264227464795112,-0.0268034804612398,-0.0393656566739082
1783205122895652000,3.001652099609375,-0.0240616609258577,0.0328107480380684,0.0219242470383644,0.0189133081585168,-0.0087334141135215,-0.0482708215713501
1783205122905589000,3.011589111328125,-0.0227565148777328,0.0136185197794809,0.0586608632832765,0.014985411427915,0.0045501664280891,-0.0502474196255207
1783205122915524400,3.0215244140625,-0.0198234936331398,0.0003499094162136,0.0389309114187955,0.0124973468482494,0.008845324628055,-0.0483290925621986
1783205122925461200,3.031461181640625,0.0025471819984726,-0.0249011439573019,0.0115419692337512,0.0088781099766492,0.0068815099075436,-0.0468568988144397
1783205122935398400,3.0413984375,0.0046005343317054,-0.0385559406265616,0.0044873745471239,0.0008417712524533,0.009673761203885,-0.0419439859688282
1783205122945334300,3.051334228515625,-1.77731187082e-05,-0.0467295294057577,-0.0036596915513277,-0.0057679284363985,0.0104527361690998,-0.0338863246142864
1783205122955271200,3.061271240234375,0.0054417343962006,-0.0548164262821897,-0.0164870244204998,-0.0106254406273365,0.0109277004376053,-0.0279689654707908
1783205122965208300,3.071208251953125,0.0337790268146432,-0.0531545940171927,-0.0661322220772504,-0.0093311443924903,0.0014444501139223,-0.021088421344757
1783205122975145200,3.081145263671875,0.0546462756133638,-0.0428652551930397,-0.1016542018353939,-0.0065393466502428,-0.0050683519802987,-0.0194348152726888
1783205122985081000,3.0910810546875,0.0204405660855583,-0.0346357349755242,-0.1072071597874164,-0.0013033058494329,-0.0045245350338518,-0.02209691144526
1783205122995018200,3.101018310546875,-0.016813242433872,-0.0373556979913264,-0.0995399861603975,0.0061171576380729,-0.002218157518655,-0.0219995714724063
1783205123004955400,3.110955322265625,-0.017136592636723,-0.0211143919602036,-0.0622252777665853,0.0055238050408661,0.003212560666725,-0.0260300002992153
1783205123014891300,3.120891357421875,-0.0177171142047271,-0.0069729808177798,-0.0518511832684278,0.008726293221116,0.0066793644800782,-0.0284294635057449
1783205123024828200,3.130828125,-0.0121700197379104,-0.0083030603777617,-0.0507581273347139,0.0056452825665473,0.007369655650109,-0.0345051996409893
1783205123034765300,3.140765380859375,0.0044397542794235,0.0005837912373244,-0.0290256034761667,0.0044721541926264,0.0081441411748528,-0.033850684762001
1783205123044701400,3.150701416015625,-0.0140854431714862,-0.0028899858204647,-0.0109013332426548,0.0053946734406054,0.0129242483526468,-0.0335151255130767
1783205123054638000,3.16063818359375,-0.0019284107793122,-0.0312624226175248,-0.0741594611883163,0.0116076003760099,0.0043085566721856,-0.0201358925551176
1783205123064575200,3.1705751953125,0.0350175008347257,-0.0558317042719572,-0.1635194141179323,0.0198543444275856,-0.0137316975742578,-0.0146761452779173
1783205123074512100,3.18051220703125,0.0018185937292873,-0.0290707212595269,-0.1422375566363334,0.0217544715851545,-0.0167241897433996,-0.0110034253448247
1783205123084448300,3.1904482421875,-0.0389057404449209,-0.0181690957559272,-0.0854939251512289,0.0250717066228389,-0.0147731583565473,-0.0070081511512398
1783205123094385200,3.20038525390625,-0.05156325143883,-0.0100397114446386,-0.0628857875019311,0.0226064547896385,-0.0091008059680461,-0.01483522541821
1783205123104322300,3.210322265625,-0.0388480554409325,0.0160300013680011,-0.1004138463854789,0.0280054807662963,-0.0110150855034589,-0.0209810007363557
1783205123114258200,3.220258056640625,-0.0227278915714472,0.0287916485898196,-0.1413409000575542,0.0381754860281944,-0.0201429910957813,-0.0221126694232225
1783205123124195300,3.2301953125,-0.0260616391040384,0.0422302452251315,-0.1524234350860119,0.0465252920985221,-0.0265960972756147,-0.0298459567129611
1783205123134132200,3.24013232421875,-0.0150790573187172,0.0429409873103722,-0.1644645860135555,0.0560847222805023,-0.0365847311913967,-0.0299683716148138
1783205123144069000,3.250069091796875,0.0070659928634762,0.0242526899859309,-0.1348462773412466,0.0567987151443958,-0.0460354909300804,-0.0313412323594093
1783205123154005200,3.260005126953125,0.0095410960064269,0.0282788767620921,-0.089841014444828,0.0536277554929256,-0.0471674986183643,-0.0279100146144628
1783205123163942400,3.2699423828125,-0.0093961893767118,0.0124250356785953,-0.0641658904403448,0.0439871102571487,-0.0565474182367324,-0.0314813144505023
1783205123173879000,3.279879150390625,-0.0148315853636711,-0.0173231829836964,-0.0680102909088134,0.0355121716856956,-0.0613773465156555,-0.0261836200952529
1783205123183815200,3.289815185546875,0.0073329732365906,-0.0252937965366989,-0.040323242560029,0.0323166437447071,-0.0597632005810737,-0.0213356018066406
1783205123193752300,3.29975244140625,0.0114486101281829,-0.0366814519915729,-0.0068348144561052,0.030203491449356,-0.0521259531378746,-0.0238166023045778
1783205123203689200,3.309689208984375,0.0098042404546402,-0.0094916125752031,0.0351554845333099,0.0316285490989685,-0.0447668395936489,-0.0278302524238824
1783205123213625000,3.319625,0.0304099522403441,0.0274616055624559,0.0792202517092227,0.031417328864336,-0.0340988785028457,-0.0282529015094041
1783205123223562200,3.329562255859375,0.0343884639498777,0.0202894854433834,0.0791366650789976,0.0333166942000389,-0.0251799561083316,-0.0371558479964733
1783205123233499400,3.33949951171875,0.0367560515977442,0.0161532989541068,0.0560088874697685,0.0392103865742683,-0.0168284196406602,-0.0401712991297245
1783205123243436300,3.349436279296875,0.0323908238592557,0.003319134485349,0.0387234061479568,0.037059087306261,-0.0120994448661804,-0.0369877554476261
1783205123253372200,3.3593720703125,0.0129931544227525,-0.0005027984229847,0.0090162501484155,0.0322592929005622,-0.0119743831455707,-0.0289961006492376
1783205123263309300,3.369309326171875,0.0145991465809755,-0.0274730037393048,-0.0110141459673643,0.0217994637787342,-0.0154793690890073,-0.025635190308094
1783205123273246200,3.37924609375,-0.0047321248221211,-0.0306107903083786,-0.0215150817155838,0.0096792662516236,-0.0148097220808267,-0.0174296777695417
1783205123283183400,3.389183349609375,-0.0133412006754428,-0.0174369820890948,-0.0247550865501165,0.0018077613785862,-0.0164659414440393,-0.0171151589602231
1783205123293119200,3.399119140625,-0.0142652749841101,-0.0219143832314759,-0.054379824963212,-0.0015215594321489,-0.0178910829126834,-0.0194820445030927
1783205123303056100,3.40905615234375,-0.0182501433691941,-0.0036815380569547,-0.065737669801712,0.0024345656856894,-0.0208605080842971,-0.0213963240385055
1783205123312993300,3.4189931640625,-0.0065429919026792,0.0076447791321203,-0.0805015236914157,0.013669665902853,-0.0180708393454551,-0.0226782001554965
1783205123322929200,3.42892919921875,0.0005503456254489,0.0077115242253988,-0.0711322223216295,0.0188511125743389,-0.0108914896845817,-0.0303510334342718
1783205123332866300,3.4388662109375,-0.0104676545331254,-0.0069715195130556,-0.0499082325071096,0.0241587925702333,-0.0120614152401685,-0.0298306513577699
1783205123342803200,3.44880322265625,0.0081932433277368,-0.0208474115870893,-0.0524386277675628,0.026088785380125,-0.0127141568809747,-0.0335739888250827
1783205123352740400,3.458740234375,0.0154000329013913,-0.0268817963805049,-0.0418137733787298,0.02186737395823,-0.0164785869419574,-0.0292275287210941
1783205123362676200,3.46867626953125,0.0242360311120748,-0.0358682724451646,-0.0358498965382576,0.0166675522923469,-0.0183808822184801,-0.0197855569422245
1783205123372613000,3.478613037109375,0.0471274426821619,-0.0482082236561924,-0.0236216986060142,0.0092753889039158,-0.0225111152976751,-0.0146989729255437
1783205123382550300,3.48855029296875,0.0511696855439804,-0.048953233337216,-0.0060240825951099,0.009204814210534,-0.0227761007845401,-0.0105215385556221
1783205123392487200,3.498487060546875,0.0384029968208633,-0.0414956108076497,-0.0020516718327999,0.0123995896428823,-0.0176230538636446,-0.0028451471589505
1783205123402423000,3.508423095703125,0.020355207623355,-0.0358050710158422,-0.0460918890893459,0.0210234373807907,-0.0126458723098039,-0.0016696278471499
1783205123412360200,3.518360107421875,-0.0120843872810713,-0.0294121185757219,-0.0705079529434442,0.0267684794962406,-0.0063758469186723,-0.0041288789361715
1783205123422297300,3.52829736328125,-0.0192620238254778,-0.0218779236786067,-0.1068546930879354,0.0319949313998222,-0.010110130533576,-0.0062972242012619
1783205123432233200,3.538233154296875,-0.0288416617440059,-0.0164191468160599,-0.1415215173214674,0.0384274050593376,-0.0111984312534332,-0.0059276265092194
1783205123442170000,3.548170166015625,-0.0560573845203034,-0.0297986702078953,-0.1964911248713731,0.0482898876070976,-0.0264410339295864,-0.0059238979592919
1783205123452107300,3.558107177734375,-0.06807842424158,-0.0386728084718808,-0.2893722376644611,0.0640755668282508,-0.0423568971455097,-0.0028984104283154
1783205123462044200,3.568044189453125,-0.0638385399158112,-0.0282975083973258,-0.3504273026078939,0.0828191563487052,-0.0687581375241279,-0.004043037071824
1783205123471980300,3.577980224609375,-0.0544944277862086,-0.0014348551087081,-0.3914525559574365,0.1062910929322242,-0.0891468599438667,-0.0057654376141726
1783205123481917200,3.587917236328125,-0.0383939732641913,0.0107722269702702,-0.3918032690912484,0.1278890520334243,-0.1067844405770301,-0.0098262261599302
1783205123491854000,3.59785400390625,-0.047133032172732,0.0018470526387915,-0.3308633549600839,0.1482781171798706,-0.1149087622761726,-0.0100500658154487
1783205123501791200,3.607791259765625,-0.03234224461033,-0.0273307457244023,-0.2640443196624517,0.1626815497875213,-0.1195333376526832,-0.0127545055001974
1783205123511727400,3.617727294921875,-0.0041241124589927,-0.0420232879435643,-0.2194932302743196,0.1738949716091156,-0.1326583921909332,-0.0123913437128067
1783205123521664300,3.627664306640625,0.0239885591570287,-0.0376986296774819,-0.2613946819365024,0.1926558762788772,-0.1649598777294159,-0.0065422430634498
1783205123531601200,3.63760107421875,0.0660151852685725,-0.0657717547344043,-0.3002724018633365,0.2022467255592346,-0.1947102695703506,0.006287982687354
1783205123541537300,3.647537353515625,0.0786261217409744,-0.0950240796385333,-0.3026660190016031,0.2095616310834884,-0.2197016328573227,0.0210725218057632
1783205123551474400,3.657474365234375,0.0807299438861198,-0.0924666867733001,-0.2789385219335555,0.2081806510686874,-0.2434734106063842,0.0332234129309654
1783205123561411000,3.6674111328125,0.0789408137133345,-0.0864277719352394,-0.2164052011311054,0.2054722160100937,-0.2571974992752075,0.036942783743143
1783205123571348200,3.67734814453125,0.067865795271052,-0.0703514472074806,-0.1087964748054742,0.1992232948541641,-0.2532156407833099,0.0389905720949173
1783205123581284400,3.687284423828125,0.0324853200425626,-0.0322643844679929,0.0091834234088659,0.1992400735616684,-0.2337873727083206,0.030691098421812
1783205123591221200,3.69722119140625,0.0084294632364064,0.0004139510957524,0.0862315917760133,0.2036251872777938,-0.2133222967386245,0.0187734141945838
1783205123601158100,3.707158203125,0.0290074467649683,0.0477189423019066,0.1106996780782938,0.2040843069553375,-0.200211301445961,0.0088664554059505
1783205123611095300,3.71709521484375,0.0745586531063541,0.0896118453314527,0.1536579453170299,0.1987439393997192,-0.1848700195550918,0.004022775683552
1783205123621031200,3.72703125,0.084823716005776,0.1217662118200212,0.2258756247878074,0.1868910044431686,-0.1634795069694519,-0.0031573730520904
1783205123630968300,3.73696826171875,0.0694238475011661,0.142908368569985,0.3445774075359106,0.1607199609279632,-0.1262662708759308,-0.006753304041922
1783205123640905200,3.7469052734375,0.0349267812108155,0.1559492893909104,0.464707177260518,0.1220950856804847,-0.0918124169111251,-0.0091658625751733
1783205123650842000,3.756842041015625,0.0391636333292815,0.1536357152189128,0.5036889420837164,0.0804422125220298,-0.0630175843834877,-0.0054446710273623
1783205123660778200,3.7667783203125,0.0596790090835653,0.1477156227212399,0.5017670341104269,0.0359455868601799,-0.042337067425251,-0.0033719325438141
1783205123670715400,3.77671533203125,0.0427975602516904,0.1572743639822117,0.5078717807263136,-0.0089241890236735,-0.0253913141787052,0.0008715922012925
1783205123680652000,3.786652099609375,0.0543717147219926,0.1592698669146746,0.5152724123716355,-0.0558845065534114,-0.0056514334864914,0.0023930561728775
1783205123690589200,3.796589111328125,0.0572540286926552,0.1719622117599472,0.5144026437997817,-0.0988213196396827,0.0264499317854642,0.0030498311389237
1783205123700525300,3.806525390625,0.0643676235575228,0.1799448628106154,0.52891573779881,-0.1357345879077911,0.0614513233304023,-0.0017931272741407
1783205123710462200,3.816462158203125,0.0662076893331017,0.196083840978425,0.4869774612575769,-0.1646251678466797,0.0929462537169456,-0.0099098216742277
1783205123720399000,3.826399169921875,0.0594198010249529,0.1709409972197376,0.3845429226994514,-0.1870567202568054,0.1153857856988906,-0.015696071088314
1783205123730335200,3.836335205078125,0.0019570340855978,0.1607368707273155,0.2802595414042472,-0.1951325237751007,0.1393430978059768,-0.0256442669779062
1783205123740272400,3.8462724609375,-0.034017557411408,0.12205412538331,0.1781733778923749,-0.1995866596698761,0.1449043154716491,-0.0254924669861793
1783205123750209300,3.856209228515625,-0.0579510345134884,0.0567143871243111,0.0158820442646741,-0.1912326365709304,0.1421212255954742,-0.0263729039579629
1783205123760146200,3.866146240234375,-0.0933439262655563,0.0161986541994847,-0.1482394273996353,-0.1809214055538177,0.1341612935066223,-0.0228783041238784
1783205123770082300,3.876082275390625,-0.1389070422404445,-0.0220136058222502,-0.2917413048833608,-0.171645238995552,0.1211823150515556,-0.0262202098965644
1783205123780019200,3.886019287109375,-0.1842471813807263,-0.0494362310811877,-0.4161000904798507,-0.1541703790426254,0.0962157174944877,-0.0299920439720153
1783205123789956400,3.895956298828125,-0.1946986519640311,-0.1002942385938018,-0.5709650734990834,-0.1277555078268051,0.0617058426141738,-0.0336058028042316
1783205123799893200,3.905893310546875,-0.1839898456187918,-0.1320124421548098,-0.6849164468497038,-0.0968391448259353,0.0284267161041498,-0.0374825671315193
1783205123809829000,3.9158291015625,-0.1666858057269826,-0.1471845115192234,-0.7270937928438186,-0.0579588524997234,-0.0045397565700113,-0.0412722453474998
1783205123819766300,3.925766357421875,-0.1494199424210935,-0.1628367290833965,-0.7143792726993561,-0.0175618939101696,-0.0339181534945964,-0.0454755127429962
1783205123829703400,3.935703369140625,-0.136500949213095,-0.1725361757230013,-0.6446586707413197,0.0250343792140483,-0.0536184683442115,-0.0545063763856887
1783205123839640000,3.94564013671875,-0.1025894185925833,-0.187033852957189,-0.5331891773343086,0.0677006170153617,-0.0643059983849525,-0.0624900013208389
1783205123849576200,3.955576171875,-0.0259868659679312,-0.1982801271799951,-0.4109761715948581,0.1003016307950019,-0.0691723152995109,-0.0612130053341388
1783205123859513300,3.965513427734375,0.0163574706235434,-0.1864270461704582,-0.2579986097574234,0.1229334399104118,-0.0639245510101318,-0.0593325458467006
1783205123869450200,3.9754501953125,0.057366951015219,-0.174189203627035,-0.1075274777829647,0.1315250694751739,-0.0549111999571323,-0.0554176606237888
1783205123879387100,3.98538720703125,0.1002492121419869,-0.1655177117956802,0.0131681091308593,0.1317663490772247,-0.0487792715430259,-0.0429695136845111
1783205123889323300,3.9953232421875,0.1118871525635011,-0.155762370250374,0.1009200423419475,0.1225981414318084,-0.0354586765170097,-0.0272921789437532
1783205123899260200,4.00526025390625,0.1215390428674872,-0.1369410211307928,0.1739531298488378,0.1002012193202972,-0.025869432836771,-0.012590198777616
1783205123909197300,4.015197265625,0.1312237942614592,-0.0886676050175912,0.2487047117114067,0.0695457234978675,-0.0112494137138128,-0.0028011547401547
1783205123919134200,4.02513427734375,0.134497445637267,-0.0459904745414853,0.3108218529284,0.0478766486048698,0.0082249520346522,0.0046213408932089
1783205123929070300,4.0350703125,0.0911843462120275,-0.0090564542946405,0.3094575788378715,0.0320300869643688,0.0252727046608924,0.0092490352690219
1783205123939007200,4.04500732421875,0.0886902552408166,0.0207633135002106,0.2092997530400752,0.0247269012033939,0.0130570493638515,0.0192707777023315
1783205123948944400,4.0549443359375,0.1278090813139919,0.0349284891107119,0.0355038595795631,0.0272598937153816,-0.0048669115640223,0.0284344367682933
1783205123958881000,4.064881103515625,0.0970568549746181,0.0433663913819007,0.001460135680437,0.0272601600736379,-0.0034876600839197,0.0348217599093914
1783205123968818200,4.074818115234375,0.0055796724290121,0.0988977427341043,0.0706610976785421,0.0144149214029312,0.0133260525763034,0.0301399882882833
1783205123978754300,4.08475439453125,-0.0822266395841259,0.1160263347274623,0.1308721130132675,0.0001094853505492,0.0368971601128578,0.0191597770899534
1783205123988691500,4.09469140625,-0.1426755187953356,0.1223349150860682,0.11309387973845,-0.0152830285951495,0.0484555475413799,0.0024038637056946
1783205123998628000,4.104628173828125,-0.1572842095227912,0.1374610994821414,0.0505401006698608,-0.0246075540781021,0.0524598769843578,-0.0143021456897258
1783205124008565200,4.114565185546875,-0.1113894687070511,0.1293242259841412,-0.1093085159808397,-0.0241141356527805,0.0259937401860952,-0.0205743052065372
1783205124018501400,4.12450146484375,-0.0163489493903703,0.1013177912215702,-0.2643833423584699,-0.0162173304706811,-0.0100931581109762,-0.0157912671566009
1783205124028438300,4.134438232421875,-0.0010574640305247,0.0685850768557749,-0.241251473096013,-0.0173300243914127,-0.0275505315512418,-0.0075173527002334
1783205124038375200,4.144375244140625,-0.0218442406047135,0.0372161251238547,-0.1434621299952268,-0.0216118544340133,-0.0271478649228811,-0.0112258046865463
1783205124048312000,4.15431201171875,-0.0590412728690309,0.0058544251166284,-0.0268412451744079,-0.0236752070486545,-0.0073504280298948,-0.0187687259167432
1783205124058248200,4.164248291015625,-0.1009288193034473,-0.0142267330720089,0.0170575177848339,-0.0234773345291614,0.0134485932067036,-0.026649285107851
1783205124068185300,4.174185302734375,-0.139860287844669,-0.0443496667982079,-0.0111439098268747,-0.0126180136576294,0.0244339853525161,-0.0358105972409248
1783205124078122200,4.184122314453125,-0.1080035160631872,-0.0526275196694768,-0.1085959837973117,-8.384604007e-05,0.018291937187314,-0.0379927903413772
1783205124088059100,4.19405908203125,-0.0070292821488576,-0.0671407050000503,-0.2226274366468191,0.0127382352948188,-0.0074178650975227,-0.0334382578730583
1783205124097995300,4.203995361328125,0.0601556455854093,-0.0726467002714984,-0.2079483384311199,0.0161026064306497,-0.0215382128953933,-0.0210108831524848
1783205124107932400,4.213932373046875,0.0638432617567014,-0.0721705341271124,-0.1106745436370372,0.0096218977123498,-0.0217259638011455,-0.0186908617615699
1783205124117869000,4.223869140625,0.0387772095612715,-0.0903277567821554,-0.0021907880425453,0.0038798563182353,-0.0108086001127958,-0.0123615926131606
1783205124127806200,4.23380615234375,0.0235599676145706,-0.0949607138124294,0.0759165339887142,-0.0018596556037664,0.008726542815566,-0.0152461621910333
1783205124137742300,4.243742431640625,0.0192359212698414,-0.0963673657399602,0.086702131897211,0.0042051607742905,0.0164126902818679,-0.0130623709410429
1783205124147679200,4.25367919921875,0.0525161499831825,-0.0845491916470229,-0.0072381345599889,0.0145638147369027,0.0091165155172348,-0.0058265686966478
1783205124157616000,4.2636162109375,0.0848383564524818,-0.0733477064140141,-0.0749585026115179,0.0243812911212444,0.0008463351987302,1.96024775505e-05
1783205124167553300,4.27355322265625,0.0636555845643393,-0.060749140799418,-0.0512403578937053,0.0215878784656524,0.0003831251524388,0.0026449537836015
1783205124177490200,4.283490234375,0.0231085797184146,-0.0468181210046634,0.0148263977319002,0.0167936570942401,0.0119351185858249,0.0056362166069447
1783205124187426300,4.29342626953125,-0.0127728901350405,-0.0284802810857072,0.0546907906085252,0.0043777655810117,0.0289648361504077,0.0069190738722682
1783205124197363200,4.30336328125,-0.0328532263397704,-0.0094779128434136,0.042613399323821,-0.0029706954956054,0.0347518846392631,0.0042676301673054
1783205124207300000,4.313300048828125,-0.0369673379945568,0.0181477607069537,0.0029945056408643,-0.002795597538352,0.0294073484838008,-0.0020319963805377
1783205124217237200,4.3232373046875,-0.0041718879903201,0.0384268343541771,-0.0741892718046903,0.0034622987732291,0.0152188260108232,-0.0029625047463923
1783205124227173400,4.33317333984375,0.0184264589173253,0.0599108633443713,-0.0795469994455575,-0.0002791760489344,0.0100842518731951,-0.003796340432018
1783205124237110000,4.343110107421875,-0.0021413913762895,0.0683937555347569,-0.0222246912896633,-0.006179142743349,0.017822066321969,-0.0088012190535664
1783205124247047200,4.353047119140625,-0.0505998862993903,0.0444438113550655,0.0395744700193405,-0.0152912260964512,0.0259858034551143,-0.0151103986427187
1783205124256984300,4.362984375,-0.0804968018505256,0.0383789583581499,0.0491366636127233,-0.0188590623438358,0.0408286675810813,-0.0227925516664981
1783205124266920400,4.37292041015625,-0.0980189597387332,0.0355300899993628,0.0322001418590545,-0.0217034555971622,0.0476424992084503,-0.0304204877465963
1783205124276857000,4.382857177734375,-0.0867226175628136,0.0613745426887646,-0.0106195936918258,-0.0136202275753021,0.0524258017539978,-0.0319858938455581
1783205124286794200,4.392794189453125,-0.0275543253472074,0.0261251693269237,-0.1391606334090232,4.56981360912e-05,0.0282249748706817,-0.0272674858570098
1783205124296731100,4.402731201171875,0.0330156549264444,0.0080833714787848,-0.2269850473344326,0.0085076261311769,0.0052349716424942,-0.0157439894974231
1783205124306668300,4.412668212890625,0.0379752089960034,0.0272802576461806,-0.1819306845992803,0.0094375051558017,-0.00287352129817,-0.0110663184896111
1783205124316604200,4.422604248046875,0.0141485167366452,0.021662454297021,-0.097979897236824,0.0037607103586196,-0.000484399497509,-0.0115494159981608
1783205124326541300,4.432541259765625,-0.0283953244823031,0.0017437566610984,-0.0366378320455551,-0.005178527906537,0.0071521047502756,-0.0136127742007374
1783205124336478200,4.442478271484375,-0.0461112331106327,-0.0071657817098312,-0.0394996512174606,-0.0049822535365819,0.0063872449100017,-0.0211639013141393
1783205124346415400,4.452415283203125,-0.0291621532694902,-0.0212622577319853,-0.1019137295544147,-0.0005375798791646,0.0013339878059923,-0.0206604246050119
1783205124356351200,4.462351318359375,-0.0060495823625475,-0.0503889286961406,-0.1240630175203084,0.0077144908718764,-0.0059580137021839,-0.017133068293333
1783205124366288100,4.4722880859375,-0.00263969172067,-0.0491770686883479,-0.0998006829231977,0.0129096368327736,-0.0096054263412952,-0.0173297114670276
1783205124376225300,4.482225341796875,-0.0008160838895477,-0.0616829145181924,-0.0663917497962713,0.0156204681843519,0.0048435535281896,-0.0124329589307308
1783205124386162200,4.492162109375,-0.0053197337180376,-0.0583600171731784,-0.0272930805951356,0.0141068678349256,0.009953536093235,-0.0124927498400211
1783205124396099300,4.502099365234375,-0.010463188420562,-0.0441217032612301,-0.0238145908296108,0.0084710866212844,0.0152761302888393,-0.0119276279583573
1783205124406035200,4.51203515625,-0.010035501060402,-0.0454501205870881,-0.0215419697225093,0.0060804085806012,0.0184923708438873,-0.0097864894196391
1783205124415972400,4.521972412109375,-0.0071922039258759,-0.0390425916323438,-0.0183808753430843,0.0029796902090311,0.0196567047387361,-0.0106384344398975
1783205124425909200,4.5319091796875,8.23536543641e-05,-0.036474567775242,-0.0294435366272926,-0.000796384178102,0.0097789391875267,-0.0045155780389904
1783205124435846400,4.541846435546875,0.039150088861119,-0.0301813311162404,-0.0574105709612369,0.0034268563613295,0.0012831888161599,0.0068984637036919
1783205124445782300,4.5517822265625,0.0479328042482957,-0.0231487473320215,-0.0891091930389404,0.0078148264437913,-0.0016235173679888,0.0110717490315437
1783205124455719200,4.56171923828125,0.0310092698403634,-0.0050261575989425,-0.0786076727688312,0.0052944114431738,-0.0072816694155335,0.0112461866810917
1783205124465656300,4.57165625,0.0016506761167431,0.0062850350862368,-0.0479115057319402,0.0011143377050757,-0.006273805629462,0.0107137849554419
1783205124475593200,4.58159326171875,-0.0269159863444743,0.0127088575886562,-0.0432598805338144,0.0030094431713223,-0.0075649064965546,0.0079840449616312
1783205124485530000,4.591530029296875,-0.0501747744888067,0.0081086337842047,-0.0390554145812988,0.0044572334736585,-0.0026396475732326,0.0003638654015958
1783205124495466200,4.60146630859375,-0.0674648041215725,0.024423954899609,0.0001665887385606,0.0024015391245484,0.0057762078940868,-0.0075712893158197
1783205124505403400,4.6114033203125,-0.0692903801474953,0.0116817247643135,-0.0245090028345584,0.0037936782464385,0.0101988464593887,-0.0122748091816902
1783205124515340300,4.62134033203125,-0.0255873269900213,0.0023946217852644,-0.0656394701242446,0.0063274092972278,0.0042139240540564,-0.0071599422954022
1783205124525277200,4.631277099609375,0.0209208786820992,-0.0009372077848762,-0.1033235963523387,0.0071209855377674,-0.0037374864332377,-0.004769982304424
1783205124535213300,4.64121337890625,0.0356449394175317,0.002197619642131,-0.0925298151373863,0.008575071580708,0.0005110544152557,-0.0072781471535563
1783205124545150200,4.651150146484375,0.0100724446704611,-0.0188602928904816,-0.0561380668073892,0.0129035441204905,0.0035620210692286,-0.0064669717103242
1783205124555087400,4.66108740234375,-0.0057835061717312,-0.0209945284401997,-0.0436789827287197,0.0166444852948188,0.0007566474378108,-0.007425975985825
1783205124565024300,4.671024169921875,-0.0151918700434267,-0.0140640167909674,-0.0467851320505142,0.0143931154161691,0.0049918587319552,-0.0062108431011438
1783205124574961200,4.680961181640625,-0.0171709515640512,-0.0090433573510497,-0.0177291334360837,0.0117531232535839,0.0062081241048872,-0.0089075602591037
1783205124584897300,4.690897216796875,-0.0079899393079802,-0.0313227014373987,-0.0120224462270736,0.0062520820647478,0.0054318495094776,-0.0063794059678912
1783205124594834400,4.70083447265625,0.0089981984684942,-0.0410866829468868,-0.0094698391348123,0.001534292474389,0.0047415578737854,-0.0041785696521401
1783205124604771000,4.71077099609375,0.0274167891731951,-0.0401851127309724,-0.0162058693915605,-0.001243564300239,0.0003544171340763,0.0004797461442649
1783205124614708200,4.720708251953125,0.0642025874552316,-0.0472603666131384,-0.0576613308519124,0.000230761244893,-0.0077274776995182,0.0108751291409134
1783205124624645000,4.73064501953125,0.0673045126930577,-0.0343467802326194,-0.0581114127069711,-0.0029200306162238,-0.0058444375172257,0.0148107577115297
1783205124634581200,4.740581298828125,0.0328467326669022,-0.0121804863329976,-0.0284884278595447,-0.0020590312778949,0.0007194555364549,0.0148397870361804
1783205124644518100,4.75051806640625,0.009275823533209,-0.0060067661341279,0.0075654668182134,-0.0094910822808742,0.0123693142086267,0.0094023765996098
1783205124654455300,4.760455322265625,-0.0181615700365975,0.0051590267309918,0.0241594587445259,-0.0069256592541933,0.0179188102483749,0.0066241677850484
1783205124664392200,4.77039208984375,-0.0351701158468611,-0.0125541236846707,-0.046319268104434,0.001314265653491,0.0140748489648103,0.003254365408793
1783205124674329300,4.780329345703125,-0.016177264351584,-0.0221028550082817,-0.1547802273452282,0.0122814290225505,-0.0039773876778781,0.0083524547517299
1783205124684265200,4.79026513671875,-0.0164089176829904,0.0004562376012094,-0.1928945616841316,0.0178078897297382,-0.0160394702106714,0.0055386871099472
1783205124694202000,4.8002021484375,-0.0280057680422905,0.0184183212766423,-0.1602238797038793,0.0195019282400608,-0.0174549389630556,0.0040371967479586
1783205124704139300,4.81013916015625,-0.0459336571871768,0.0269374903568066,-0.0838625245571136,0.0144555298611521,-0.0106033803895115,0.0006789264734834
1783205124714076200,4.820076171875,-0.0610802541836164,0.0167926928361877,-0.0372878203868865,0.0160656776279211,-0.0076984036713838,-0.0044047818519175
1783205124724012000,4.830011962890625,-0.047648813374876,0.0140291646732948,-0.0508750317126512,0.0122483698651194,-0.0083894953131675,-0.0078139752149581
1783205124733949200,4.83994921875,-0.0351212078043725,0.0147974273657426,-0.0291512756824493,0.011379113420844,-0.0057841255329549,-0.0125629249960184
1783205124743886300,4.84988623046875,-0.0151542871125508,0.0163573153599165,-0.0048889410853385,0.0087139885872602,-0.0048300391063094,-0.0093044312670826
1783205124753823200,4.8598232421875,0.0235948836643248,0.0142852400599047,0.0368739788889884,0.0006129182875156,-0.0050886319950222,-0.0075970795005559
1783205124763760400,4.869760498046875,0.0417855884638614,0.010538564344868,0.0787567258507013,-0.0108952587470412,0.0062241973355412,-0.0051332702860236
1783205124773696300,4.8796962890625,0.0430260352453216,-0.0054073754688724,0.0851584095865488,-0.0181129574775695,0.0133835729211568,0.0020812330767512
1783205124783633200,4.889633056640625,0.0495351888104807,-0.0069161725966259,0.060269467523694,-0.022433578968048,0.0152473738417029,0.0021130742970854
1783205124793570300,4.8995703125,0.0359690842048265,0.0219393350096419,0.066343819001317,-0.0291282311081886,0.0219588056206703,0.0012576670851558
1783205124803507500,4.909507568359375,0.0166902553750202,0.0252608806477859,0.0858656810730695,-0.0387787744402885,0.0291488654911518,-0.0005481799598783
1783205124813444000,4.919444091796875,0.0050110604945104,0.0183068054598756,0.0676654229938983,-0.0428946875035762,0.0330181717872619,-0.0050984569825232
1783205124823380200,4.929380126953125,0.013589222903049,0.0112021793527528,-0.0100888478159904,-0.0374235063791275,0.0313011184334754,-0.0010360938031226
1783205124833317400,4.9393173828125,0.0057877553718746,0.0030384361141361,-0.0764706607401371,-0.0382754504680633,0.0210652574896812,-0.0018978927982971
1783205124843254300,4.949254150390625,-0.0251502872796263,-0.0047686391739174,-0.103047117498517,-0.0303106307983398,0.0172087345272302,0.0002530803903937
1783205124853191200,4.959191162109375,-0.0496818124732468,-0.0211756023618392,-0.1296013624250888,-0.0265110991895198,0.0200937371701002,-0.003501177765429
1783205124863128000,4.969128173828125,-0.0590339983114507,-0.008731186129339,-0.1799199292987585,-0.0110884252935647,0.0208005588501691,-0.0076389852911233
1783205124873064200,4.979064208984375,-0.0466200411492958,-0.0037601014521904,-0.2173410206764936,-0.0006933091208338,0.013556495308876,-0.0113913789391517
1783205124883001300,4.98900146484375,-0.0633068350587505,-0.012739618053101,-0.2185200013279915,0.0124458828940987,0.0025142880622297,-0.0115439351648092
1783205124892938200,4.998938232421875,-0.0566252932019066,-0.0332816534854471,-0.2186287223994731,0.0183993801474571,-0.0060472418554127,-0.011441670358181
1783205124902875100,5.008875244140625,-0.0394928378841839,-0.0446663863308727,-0.2030196498572826,0.0213953517377376,-0.0186262689530849,-0.0062308115884661
1783205124912812300,5.018812255859375,-0.0154629146703053,-0.0594785728743299,-0.180071904990077,0.0219357069581747,-0.0288560036569833,-0.0006629407871514
1783205124922748400,5.02874853515625,0.0083135840550647,-0.0561213166019879,-0.1310889706343412,0.0229181870818138,-0.0308505371212959,0.0026707290671765
1783205124932685300,5.038685302734375,0.0223390589339309,-0.046118978025671,-0.0828460409909486,0.0268961489200592,-0.027142085134983,0.0035999058745801
1783205124942622500,5.04862255859375,0.0245350528745562,-0.0243597122906707,-0.0417757794559001,0.0306919999420642,-0.0265591759234666,-0.0015978282317519
1783205124952559400,5.058559326171875,0.0401845282090827,-0.0222236501100473,-0.0093774846762418,0.0349567830562591,-0.0193665102124214,-0.0010132645256817
1783205124962496300,5.068496337890625,0.0358314041836303,-0.0137431508061476,0.0604337181746959,0.0274663046002388,-0.0094169247895479,-0.0020612117368727
1783205124972432400,5.078432373046875,0.0377263579346239,-0.006843417887669,0.1178022035598754,0.0155814150348305,0.0064672324806451,-0.0019163357792422
1783205124982369500,5.08836962890625,0.0286934945781249,-0.0084585979993455,0.138332950413227,0.0033096009865403,0.0087410565465688,0.0057204896584153
1783205124992306200,5.09830615234375,0.0424189453308004,-0.0194625148336403,0.0739934569716453,-0.0097188502550125,0.0037151384167373,0.0137254185974597
1783205125002243300,5.108243408203125,0.0469919888673815,-0.0126345867760479,0.000941664764285,-0.015336356125772,-0.005883477628231,0.0233300067484378
1783205125012180200,5.11818017578125,0.0236726342088077,0.0132495038039982,0.0007522796720266,-0.020108476281166,-0.0006700735539197,0.0212716497480869
1783205125022116400,5.128116455078125,-0.0143293143803603,0.0329686968124471,0.0282370834469795,-0.0220976267009973,0.0128537062555551,0.015202360227704
1783205125032053200,5.13805322265625,-0.0540592421061825,0.0641228915488347,0.0358212549656629,-0.0218012165278196,0.0254576485604047,0.0030468949116766
1783205125041990400,5.147990478515625,-0.0791404827375896,0.0521975124880671,-0.0183931503027677,-0.0223294049501419,0.0259841177612543,-0.0051403534598648
1783205125051927300,5.15792724609375,-0.0538315799633041,0.0474783750116825,-0.1098573820352554,-0.0087273092940449,0.0151250772178173,-0.0066200057044625
1783205125061864400,5.167864501953125,-0.0176157453226391,0.040852801125776,-0.1710813738048076,-0.0106309913098812,0.0040452051907777,-0.0073323817923665
1783205125071801300,5.17780126953125,-0.0156093077209196,0.0299962934055365,-0.1589788480788469,-0.0081798173487186,-0.0031261551193892,-0.0066996146924793
1783205125081737200,5.1877373046875,-0.0439686772571411,0.0072402899844571,-0.1172474922865629,-0.0068565402179956,-0.0045474269427359,-0.0076809469610452
1783205125091674400,5.19767431640625,-0.0654676389549858,-0.0127722416810691,-0.0894388633847236,-0.0094115771353244,-0.0079301744699478,-0.0094101373106241
1783205125101611300,5.207611328125,-0.036896336851269,-0.0287916851224377,-0.1220890870988369,-0.0057313460856676,-0.018053188920021,-0.0089480672031641
1783205125111548400,5.21754833984375,-0.0010831921268254,-0.0240446001932024,-0.1297451548099517,-0.0002444358542561,-0.0193690583109855,-0.0062377685680985
1783205125121485300,5.2274853515625,0.0186699670833069,-0.0115973161501809,-0.0845616127371788,0.0052067702636122,-0.0162050724029541,-0.0086732534691691
1783205125131421400,5.23742138671875,0.0294384426103555,-0.0253796481892466,-0.0151262574613094,0.0045292619615793,-0.0062762759625911,-0.0098695456981658
1783205125141358300,5.2473583984375,0.0300557411083485,-0.0395871103052049,0.0166080204516649,0.0091413427144289,-0.0015386892482638,-0.0063337343744933
1783205125151295500,5.25729541015625,0.0582134483093395,-0.0367283416069112,-0.0203314248889684,0.0095647852867841,-3.24053689837e-05,-0.0056226700544357
1783205125161232100,5.267232177734375,0.0734531852156389,-0.0374746299295686,-0.0351227513074874,0.0081807570531964,-0.0017310422845184,-0.0019594789482653
1783205125171169300,5.277169189453125,0.0310295089107938,-0.0555017416652292,-0.0011415712505578,-0.0009773215278983,0.0040501477196812,0.0014562911819666
1783205125181105400,5.28710546875,-0.0200266880550421,-0.0630040435867384,0.0120282914459705,-0.0048000235110521,0.0101072415709495,0.0060931211337447
1783205125191042300,5.297042236328125,-0.019820988865511,-0.0717150819771923,-0.0153606507390737,-0.0035547278821468,0.0072709745727479,0.0040078656747937
1783205125200979200,5.306979248046875,-0.0108454383369535,-0.0594752849387004,-0.0803068779021501,-0.0012697139754891,-0.0016033593565225,0.0073999585583806
1783205125210916400,5.316916259765625,0.0119264773225993,-0.028741872897651,-0.1208493161708116,0.0049876496195793,-0.0060985083691775,0.0083616264164447
1783205125220853200,5.326853271484375,-0.0042825452905613,-0.0190477052213624,-0.1163385607481002,0.009244579821825,-0.0073559861630201,0.0094455797225236
1783205125230790400,5.336790283203125,-0.0156501169386319,-0.0032015359876677,-0.1049316160708665,0.0127461040392518,-0.0110327461734414,0.0099555747583508
1783205125240726300,5.346726318359375,-0.0072517703596968,0.0290437967199832,-0.0929167686283588,0.01499945204705,-0.0115891369059681,0.0028667307924479
1783205125250663200,5.3566630859375,-0.0060025260671391,0.0291809584346599,-0.0934714799016714,0.0161984078586101,-0.0130509445443749,-0.000444111181423
1783205125260600300,5.366600341796875,-0.0275996212270809,0.0200370998512022,-0.0681406392902135,0.0147120440378785,-0.0093897376209497,-0.0041662887670099
1783205125270537500,5.376537353515625,-0.0251289065648801,0.01304912239369,-0.0540314499169588,0.0165232606232166,-0.0124478470534086,0.0023834893945604
1783205125280474400,5.386474365234375,-0.0126682470170548,0.0052219176330603,-0.0696954675167799,0.0172249302268028,-0.0144838970154523,-2.95841600745e-05
1783205125290410200,5.39641015625,-0.0108715591588988,0.0127727166051045,-0.0406260248988866,0.0153420753777027,-0.0084686148911714,-0.002746807411313
1783205125300347400,5.406347412109375,-0.0125247605928685,0.0194038251826539,-0.0015326163947582,0.0177288595587015,0.0003539375029504,-0.0025881940964609
1783205125310284300,5.4162841796875,-0.0047061044648755,0.0280304549589753,-0.0086865798026323,0.009274655021727,-0.0016700653359293,-0.0057986350730061
1783205125320221400,5.426221435546875,0.0202678627000423,0.0254615360527299,-0.0195966808736324,0.0063346005044877,-0.0036419117823243,-0.0046245451085269
1783205125330158300,5.436158447265625,0.0191499143536668,0.0167578772511333,-0.0047767128825187,0.0031361440196633,0.0008921204134821,-0.0018846848979592
1783205125340094200,5.44609423828125,0.0126981352652423,0.0196836650373414,0.0164700732856988,-0.0003969734534621,0.0053755464032292,-0.000558964908123
1783205125350031400,5.45603125,0.0047663376189768,0.022670644958876,0.0169102182686328,-0.0051435241475701,0.013236666098237,-0.0032359743490815
1783205125359968500,5.465968505859375,-0.0154078782811295,0.0182421061932109,0.0023825112223625,-0.0083525152876973,0.0126255312934517,-0.0054998840205371
1783205125369905200,5.4759052734375,-0.0200311815670691,0.0022692601062357,-0.0413262821227312,-0.0059852311387658,0.0067071882076561,-0.0056836418807506
1783205125379842300,5.48584228515625,-0.0192920308046741,0.0063623563724569,-0.0790472332298755,-0.0018444331362843,0.0056257615797221,-0.0083697764202952
1783205125389779500,5.495779541015625,-0.01136825663466,0.0037928164117038,-0.0678355188637971,0.0008285818621516,0.0009841378778219,-0.0087159872055053
1783205125399715300,5.50571533203125,-0.0008813585449475,-0.0105968704033643,-0.0819020381391048,0.0038561401888728,-0.0019174166955053,-0.0059261578135192
1783205125409652200,5.51565234375,-0.002468376574642,-0.0249839816688559,-0.064387424236536,0.0037751793861389,0.0005657146684825,-0.003280307399109
1783205125419589400,5.52558935546875,-0.0048158393165096,-0.0333767478903755,-0.0540454784423112,0.0098443711176514,0.0069419373758137,-0.0050678914412856
1783205125429526300,5.5355263671875,0.0008000552033539,-0.017743783015944,-0.0995043303251266,0.0166724491864442,0.0009993598796427,-0.006803473457694
1783205125439463400,5.54546337890625,0.0214875726541504,-0.0170127287950366,-0.1292377898097038,0.0227437373250722,-0.0022375872358679,-0.0008166607003659
1783205125449400300,5.555400390625,0.0180281803147401,-0.0111695922574028,-0.0982031845986843,0.0254375245422124,-0.0022130860015749,-0.0033535880502313
1783205125459336200,5.565336181640625,-0.0084696765157859,-0.0304169117040932,-0.0616425094425678,0.0179324969649314,-0.0013756738044321,-0.0046712341718375
1783205125469273300,5.5752734375,-0.0203062995808664,-0.034176465167012,-0.0445528429538011,0.0097685763612389,-0.0046859825961291,-0.0032389862462878
1783205125479210500,5.58521044921875,-0.0088449487021192,-0.0294424771813675,-0.0180430216908454,0.0104123577475547,0.0021268036216497,-0.0049102040939033
1783205125489147400,5.5951474609375,0.0053680846381001,-0.029231939703226,0.0048714054286479,0.0046210475265979,0.0021867246832698,-0.0023258728906512
1783205125499084300,5.605084228515625,0.0124145690835081,-0.0139118036376312,0.0102682960361242,-0.0008055763319134,0.0057590608485043,-0.0016205555293709
1783205125509021200,5.615021240234375,0.016275025637634,-0.0012183262811973,0.0147621003240346,0.0018698349595069,0.0043776789680123,0.0006055808626115
1783205125518957300,5.624957275390625,0.0324936357797589,-0.0034272893012501,-0.0031879823863506,6.5164640545e-06,0.0011919755488634,0.0046619530767202
1783205125528894500,5.63489453125,0.0399939101409632,0.0014099763957783,-0.0112695820331573,-0.0069097140803933,0.0011658766306936,0.0090252757072448
1783205125538831400,5.644831298828125,0.014930661823973,0.0079201254747807,0.0190928230047225,-0.0120447482913732,0.0123309716582298,0.0080553954467177
1783205125548768300,5.654768310546875,-0.0287826706989202,0.0114614148108288,0.028045944789052,-0.0159204471856355,0.019628832116723,0.0055030211806297
1783205125558705400,5.664705322265625,-0.0319462287467788,0.0156109174394048,-0.0529302106767892,-0.0114704715088009,0.0061212508007884,0.0029606139287352
1783205125568641500,5.6746416015625,-0.0183465438152197,0.0273781650627031,-0.1267138242900371,-0.0045241480693221,-0.0018815482035279,0.0016937484033405
1783205125578578200,5.684578125,-0.0126356987376115,0.0239182156008668,-0.1270212828040123,-0.0019252710044384,-0.0018102494068443,-0.0004218549001961
1783205125588515300,5.694515380859375,-0.0220843786366749,0.0114357323803007,-0.0988911668628454,-0.0019154176115989,-0.0008405926637351,-0.0007723269518464
1783205125598452200,5.7044521484375,-0.0386073420202359,0.011578958509583,-0.0762988113045692,-0.0036823963746428,0.0012427307665348,-0.0064773350022733
1783205125608389400,5.714389404296875,-0.0430544758885167,0.0006286532923579,-0.0671732555627822,-6.26277178525e-05,0.0052984585054218,-0.0114159006625413
1783205125618326500,5.724326416015625,-0.017557729241799,0.0020963329584337,-0.1132476089954376,0.0106793548911809,-0.006124020088464,-0.0119307590648531
1783205125628262400,5.734262451171875,0.0145765694229863,-0.0080314038295298,-0.1379120946526527,0.0180296786129474,-0.0162086114287376,-0.0066289380192756
1783205125638199300,5.74419921875,0.0153880410694982,-0.0205136130554601,-0.0851987415969371,0.0209611859172582,-0.0110642565414309,-0.0110433818772435
1783205125648136400,5.754136474609375,0.0066169704543426,-0.0283488367257639,-0.022764204993844,0.0158705525100231,-5.34174032509e-05,-0.0074614295735955
1783205125658073300,5.7640732421875,-0.0017239651152398,-0.0442082672998309,0.032186113333702,0.0126654878258705,0.0064808586612343,-0.0043626176193356
1783205125668010200,5.77401025390625,0.0029413620979641,-0.0397694080695509,0.0126075526386499,0.0082699414342641,0.0105451084673404,-0.0034193261526525
1783205125677947400,5.783947509765625,0.006758844876755,-0.0228124097834341,-0.0116162035137414,0.0073913424275815,0.0065492894500494,0.0012995856814086
1783205125687883300,5.79388330078125,0.0498530134548433,-0.0256088173026219,-0.0603799421608448,0.0101589001715183,-0.0078136716037988,0.010391617193818
1783205125697820400,5.8038203125,0.0811669835965149,-0.0193139914747327,-0.0938818142682313,0.009526272304356,-0.0148413069546222,0.0140250362455844
1783205125707757300,5.81375732421875,0.0335981720887124,-0.0068106481292285,-0.0428396092951297,0.0061869346536695,-0.0077525051310658,0.014604540541768
1783205125717694200,5.823694091796875,-0.0241792685566935,0.0067085211953148,0.014479776251316,-0.0022367425262928,0.0064467820338904,0.0086481980979442
1783205125727631400,5.83363134765625,-0.0487750454924069,0.0113112657504156,0.0233083948731422,-0.004359814338386,0.0138506367802619,0.0010222364217042
1783205125737568300,5.843568359375,-0.0373388085053185,0.021983375080768,-0.0057230538219213,-0.0027364017441868,0.0083478018641471,-0.0038390557747334
1783205125747504000,5.853504150390625,-0.0167531280107796,0.0250014625266194,-0.0462719218313694,-0.0002892231568694,0.0043032588437199,-0.0043245498090982
1783205125757441300,5.863441162109375,0.0022784138103597,0.0421563945376314,-0.058096799659729,-0.0043776100501418,0.0015451782383024,-0.0065630204044282
1783205125767378400,5.87337841796875,0.0006877562185865,0.0435011236774735,-0.0244335995107889,-0.0054471353068947,0.0047697336412966,-0.0069310693070292
1783205125777315300,5.8833154296875,-0.0193382126005366,0.0281081233050674,0.0053343467652797,-0.0103638628497719,0.0106326825916767,-0.0088757090270519
1783205125787252500,5.89325244140625,-0.0263532607280649,0.0176420396745204,0.0066577043235301,-0.013850207440555,0.0166916400194168,-0.0144073609262704
1783205125797189000,5.903189208984375,-0.0037983967691194,0.0091896704865619,-0.0357236398100852,-0.017266621813178,0.0132777532562613,-0.0145243275910615
1783205125807125200,5.913125244140625,0.0234749288127757,0.0188134398077614,-0.0646475364774465,-0.0207558963447809,0.0108598694205284,-0.0086733633652329
1783205125817062400,5.9230625,0.0185808731609024,0.0100323135894723,-0.0670873308449983,-0.0186104588210582,0.0029450359288603,-0.0112047689035534
1783205125826999600,5.93299951171875,0.0090501889506354,-0.0097985596325248,-0.0859749866664409,-0.0097093759104609,0.0157516449689865,-0.0037050412502139
1783205125836936200,5.942936279296875,-0.0165999558762181,-0.0349635786904022,-0.0475432569414377,-0.0114465663209557,0.0115072727203369,-0.000325282337144
1783205125846873300,5.952873291015625,-0.0121759106225799,-0.028739808804728,-0.1054892499536275,-0.0143531402572989,-0.0099937580525875,-0.0114035001024603
1783205125856810200,5.962810302734375,0.0184428711960092,-0.005240165675804,-0.1092553244888782,-0.0023936536163091,-0.0054923803545534,-0.0085147675126791
1783205125866747400,5.972747314453125,0.0173711320449598,-0.0271157147342339,-0.0679576839387416,0.0024303970858454,0.0007221060805022,-0.0009729617740958
1783205125876683300,5.982683349609375,-0.0138439990984275,-0.0398187453703023,-0.0471487046658992,0.0043246541172266,0.0054415492340922,-0.0055221319198608
1783205125886620200,5.9926201171875,-0.0242988580820616,-0.0309523702876642,-0.0333791225105524,-0.0020970264449715,0.0063677965663373,-0.0062574306502938
1783205125896557300,6.002557373046875,-0.0057178844564594,-0.0265096933987922,-0.0290460617423057,-0.0036556264385581,0.008092027157545,-0.0041161077097058
1783205125906494500,6.012494384765625,0.0199503622826654,-0.0356511956283822,-0.0404284565001726,-0.0073574194684624,0.0028005924541503,-0.0028369915671646
1783205125916432100,6.02243212890625,0.0208812133919913,-0.0384387439876794,-0.0610877981692552,-0.0056430054828524,0.0004703341983258,0.0032777083106338
1783205125926369300,6.032369384765625,0.0187963174263131,-0.0279789257011376,-0.0459855061054229,-0.0076017612591385,0.0012975120916962,0.0089816665276885
1783205125936305200,6.04230517578125,-0.0016202855450566,-0.0344217268986627,-0.0151817870408296,-0.0122571848332881,0.0072516552172601,0.0065123275853693
1783205125946242000,6.052241943359375,-0.0256073011989705,-0.0270310686580836,-0.023135376393795,-0.0085244979709386,0.009955296292901,0.0082119572907686
1783205125956179200,6.06217919921875,-0.0270744420089293,-0.0183726737703196,-0.0560690932244062,-0.007794676348567,0.0105115305632352,0.007174514234066
1783205125966116000,6.0721162109375,-0.0171419263989664,-0.0007180120762437,-0.0966302361935377,-0.0075765643268823,0.0066158585250377,0.0026503363624215
1783205125976053000,6.082052978515625,-0.0131396502213552,0.007416304138489,-0.1264139645606279,-6.34202733635e-05,0.0006942097097635,0.0015943094622343
1783205125985990100,6.091990234375,-0.0036328948759473,0.0140254931451752,-0.1094932248979806,0.0039387783035635,-0.003701071254909,0.0024561083409935
1783205125995927000,6.101927001953125,0.0023160857894923,0.0067607628392055,-0.0892716901242733,0.0067756166681647,-0.002424590755254,-0.0012205603998154
1783205126005863200,6.11186328125,-0.0091456737979198,0.0003706051443703,-0.0635100568801164,0.0081814993172883,-0.0069927112199366,-0.0034331146162003
1783205126015800000,6.121800048828125,0.0070800487882923,-0.0132275842331349,-0.0540577534019947,0.0094984583556652,-0.00985515024513,0.0007073772139847
1783205126025737000,6.131737060546875,0.0196783974904683,-0.0145374247226864,-0.0534381601989269,0.0089304065331816,-0.0088125225156545,0.0058581973426043
1783205126035674000,6.141674072265625,0.017604075434443,-0.0183119930916465,-0.0220025729715824,0.001942272298038,-0.0084173092618584,0.0050523248501122
1783205126045611300,6.151611328125,0.0025498032138217,-0.0091331179937347,0.0077723875671625,-0.0024753799661993,0.0041248481720685,0.0043828058987855
1783205126055548200,6.161548095703125,-0.0032210352725815,0.001534991014935,0.009559855505824,-0.0046756323426961,0.0122825875878334,0.0022801987361162
1783205126065484000,6.171484130859375,-0.0013413567225332,0.0003966529010795,-0.0094546415656805,-0.0051989443600177,0.0104929432272911,0.0026461167726665
1783205126075421200,6.181421142578125,0.0154450136874336,0.0170128566592,-0.0595884995222091,0.0004257392138242,0.0079623786732554,0.0014203134924173
1783205126085358000,6.191358154296875,0.012881711671222,0.0240228084865026,-0.0859241332620382,-0.0010770820081233,0.0032765469513833,0.0040038460865616
1783205126095295200,6.201295166015625,-0.0225479684272781,0.0072604011907242,-0.0760433752387762,0.0008531035855412,0.0062859575264155,0.0026332754641771
1783205126105232100,6.211232177734375,-0.0423117129635065,0.0022779000704176,-0.079630001553893,-2.06800177693e-05,0.0032121371477842,0.0021568359807133
1783205126115169000,6.2211689453125,-0.0311787811883725,0.0058871583424508,-0.0913011501252651,0.0039460081607103,-0.0031782654114067,0.0028511467389762
1783205126125106200,6.231106201171875,-0.0216654499717056,0.0134889020504429,-0.1346867028653621,0.007633154746145,-0.0110550969839096,0.0024306336417794
1783205126135042300,6.241042236328125,-0.0113145810855086,0.0041490825034677,-0.142596453076601,0.0150013826787471,-0.0165684204548597,0.0010664619039744
1783205126144979000,6.25097900390625,-0.0080865840658894,0.0130139962813816,-0.1139776768356561,0.0184485781937837,-0.0136549230664968,-0.001095226034522
1783205126154916000,6.260916015625,-0.0198392757241614,0.0189679727823473,-0.0859475141376256,0.0239222906529903,-0.0105404499918222,-0.0041988086886703
1783205126164853000,6.27085302734375,-0.004854956617346,0.0139657805808819,-0.0749661013960838,0.0285255648195743,-0.0120379459112882,-0.0079232389107346
1783205126174790100,6.2807900390625,-0.0035003887867904,0.0093053510217927,-0.0485708464235067,0.0243157781660556,-0.0077791977673769,-0.0040166545659303
1783205126184727300,6.290727294921875,5.91554418671e-05,0.0032826566661708,-0.0141074358075857,0.018369473516941,-0.0058854240924119,-0.0055495700798928
1783205126194663200,6.3006630859375,0.0183844395566382,0.0050375009768642,0.0028314240336418,0.0118052195757627,-0.0033185519278049,-6.4426567405e-06
1783205126204600000,6.31060009765625,0.0175014530268963,-0.0003998495051637,0.0031464813321828,0.0052812742069363,0.0008085486479103,0.0003397683613002
1783205126214537200,6.320537109375,0.0221054488241672,0.0008777326826006,0.0024070611417293,0.0025421669706702,-0.0025643790140748,0.0013365573249757
1783205126224474000,6.33047412109375,0.0172881230867584,-0.007997483293619,1.92892223596e-05,0.0044125048443675,0.003496176097542,0.0014105928130447
1783205126234411000,6.340410888671875,0.0161107567203231,-0.0102212420240044,-0.0155278239995241,0.0103486394509673,0.0054422989487648,-0.0001608822494745
1783205126244348200,6.35034814453125,0.017293356384302,-0.0167547537122853,-0.0144552263319492,0.0112541140988469,0.0110879335552454,-0.0004415793810039
1783205126254285000,6.36028515625,0.013570022728946,-0.0108675405709072,0.0201385326653718,0.0103545505553483,0.0236396230757236,0.0042756367474794
1783205126264221200,6.37022119140625,0.0049561611026525,-0.0265122324157506,0.0125374100118875,0.0119212884455919,0.0349194407463073,0.002230328740552
1783205126274158000,6.380157958984375,0.0408840821800287,-0.0481287652118131,-0.063723407369852,0.0297869853675365,0.0517746843397617,0.0007839004974812
1783205126284095000,6.390094970703125,0.0968290193018037,-0.1030244307426735,-0.1881038202762603,0.065832071006298,0.0600786879658699,0.0084463469684124
1783205126294032100,6.4000322265625,0.1078095917931292,-0.1550593365475535,-0.2716916195452213,0.1209067329764366,0.0707511305809021,0.0179563835263252
1783205126303969000,6.409968994140625,0.0848656097855884,-0.190854434158653,-0.3195581170916557,0.1877384930849075,0.0931626930832862,0.0243543609976768
1783205126313906200,6.41990625,0.0521866440341807,-0.2039375866861082,-0.3453367014706134,0.2531963884830475,0.1130204871296882,0.023367267102003
1783205126323843000,6.429843017578125,0.0524728953633457,-0.2352017446029931,-0.413719917345047,0.3213650584220886,0.1271229833364486,0.0211344733834266
1783205126333779200,6.439779296875,0.0847100630308501,-0.2539689158499241,-0.4381342276334762,0.3771839141845703,0.1357012540102005,0.0266680344939231
1783205126343716000,6.449716064453125,0.0803226599931716,-0.2524811432438902,-0.4351046506792306,0.4229511320590973,0.1247519329190254,0.0336732119321823
1783205126353653200,6.4596533203125,0.0781928083576262,-0.2750688043607399,-0.4100800995379686,0.4516916275024414,0.1091354489326477,0.0456057004630565
1783205126363590000,6.46958984375,0.0882534621255937,-0.2979188610071316,-0.3300274886578321,0.4601261019706726,0.0964774414896965,0.0670766308903694
1783205126373527000,6.479527099609375,0.1189714848012663,-0.310886296466738,-0.2247375606685876,0.4544142484664917,0.0879213884472847,0.0910751596093177
1783205126383464200,6.489464111328125,0.1498212166983634,-0.3031475919734686,-0.1151572420090436,0.4456886649131775,0.0932985767722129,0.1195760443806648
1783205126393401000,6.499401123046875,0.2080424464553594,-0.2860352752614766,-0.0499158312916755,0.4363567531108856,0.1014201939105987,0.1469769477844238
1783205126403337000,6.5093369140625,0.2825295869617722,-0.2729646351557225,-0.0365045610547065,0.4388766288757324,0.1100919768214225,0.1818590313196182
1783205126413274000,6.519274169921875,0.3070654960695654,-0.2492736341731622,-0.0417132356137037,0.4392540156841278,0.120768517255783,0.215733990073204
1783205126423211000,6.5292109375,0.2256511318495496,-0.1777853649554774,-0.0384445892065763,0.4355437159538269,0.1208902299404144,0.233311116695404
1783205126433148200,6.539148193359375,0.1438693499560933,-0.1351774820569902,-0.0609393296092748,0.4272146224975586,0.1077241376042366,0.2512058019638061
1783205126443085300,6.549085205078125,0.1080509536677971,-0.1337877081990242,-0.0919499694228172,0.4160338640213012,0.0917773991823196,0.2595683932304382
1783205126453022000,6.55902197265625,0.1152589579510036,-0.1097606801951304,-0.0677045859605074,0.3971679508686065,0.0886581465601921,0.2634241282939911
1783205126462959000,6.568958984375,0.1012585170486942,-0.1060371661599725,-0.0252618670284748,0.3745292127132416,0.0781871303915977,0.2678175270557403
1783205126472895200,6.578895263671875,0.06406339818025,-0.1313009328845888,-0.0548445198655128,0.3603683710098266,0.0678855031728744,0.2681746184825897
1783205126482832100,6.58883203125,0.038725214512553,-0.1545913171770051,-0.109335988509655,0.3537174165248871,0.0521028116345405,0.2718101143836975
1783205126492769000,6.59876904296875,-0.000370513812825,-0.1504850143693387,-0.1407329972922802,0.3572539389133453,0.0446274876594543,0.2717541754245758
1783205126502706200,6.6087060546875,-0.0684447185370139,-0.1378589762259274,-0.1322843178987503,0.3524621129035949,0.0299814343452453,0.2638131380081177
1783205126512643000,6.61864306640625,-0.0861703083091415,-0.138246295043081,-0.1481365515470504,0.3501937687397003,0.0037259650416672,0.2568435370922088
1783205126522580200,6.628580322265625,-0.0343761341912671,-0.1882898443676531,-0.1230249066442251,0.3366928696632385,-0.0130668636411428,0.2635552585124969
1783205126532517000,6.63851708984375,0.0535746095275506,-0.2981660041686147,-0.0604752192288637,0.310628205537796,-0.0234917569905519,0.2906047999858856
1783205126542454000,6.6484541015625,0.165584182894323,-0.4701689497977495,-0.0559656328499317,0.2690187096595764,-0.056196704506874,0.3228735327720642
1783205126552390100,6.65839013671875,0.2063638822512701,-0.6255082723304629,-0.1113087498873472,0.2241456657648086,-0.1111775562167167,0.3408359289169311
1783205126562327000,6.6683271484375,0.2177899334877729,-0.7392292709913104,-0.2899082442373037,0.1899967491626739,-0.1995327025651931,0.3463127315044403
1783205126572264200,6.67826416015625,0.261870373156853,-0.8354441313169896,-0.4620382503122091,0.1773824840784073,-0.2599101066589355,0.359260618686676
1783205126582201000,6.688201171875,0.2047716811563819,-0.9087962947104126,-0.528986464947462,0.1792901009321212,-0.3126569390296936,0.3618436157703399
1783205126592138000,6.698137939453125,0.1138859799642115,-0.94524357261993,-0.7000789446681738,0.194779098033905,-0.367268830537796,0.3618831932544708
1783205126602075100,6.7080751953125,0.050720060346648,-0.9362775182887912,-0.9078677086234092,0.2250685691833496,-0.4281827807426452,0.3525749146938324
1783205126612012000,6.718011962890625,0.0094095603149384,-0.9271570771135388,-1.0982751296669244,0.276388943195343,-0.4617516100406647,0.3501255810260772
1783205126621948000,6.727947998046875,-0.1104629375798162,-0.939074309400469,-1.182960076522827,0.345764547586441,-0.4890495240688324,0.3452802300453186
1783205126631885000,6.737885009765625,-0.2755108855724335,-0.9946654829148204,-1.2674240741044285,0.4085959792137146,-0.5033131837844849,0.3298495411872864
1783205126641822200,6.747822265625,-0.323224969036132,-0.9882728592682628,-1.2696388275444508,0.4613361656665802,-0.5424771308898926,0.2914944291114807
1783205126651759000,6.757759033203125,-0.3322856428481638,-0.9826575036045164,-1.4083143077850342,0.5240067839622498,-0.6251248717308044,0.2751290202140808
1783205126661696300,6.7676962890625,-0.2325210176190361,-0.9944909300655126,-1.5405682305455206,0.595125138759613,-0.6894298195838928,0.2845619320869446
1783205126671633000,6.7776328125,-0.3202005431810393,-0.9555269931599496,-1.6194325084239245,0.6755483150482178,-0.750850260257721,0.3056170344352722
1783205126681570000,6.787570068359375,-0.4995584546828642,-0.8702959567286074,-1.6820757193416356,0.7528790235519409,-0.7788408398628235,0.3296033143997192
1783205126691507200,6.797507080078125,-0.6181013570748269,-0.6780467072106897,-1.7386551001757382,0.8403595089912415,-0.7782279253005981,0.3391740918159485
1783205126701443000,6.807443115234375,-0.5916744648549705,-0.2875261714063584,-1.804790244862437,0.9321451187133788,-0.7806063890457153,0.3375639617443084
1783205126711380000,6.8173798828125,-0.402574546213448,0.189760647572577,-1.8722358876258132,1.024754285812378,-0.8187000155448914,0.3333659768104553
1783205126721317000,6.827317138671875,-0.1468244460351765,0.7060118418484925,-1.950583448153734,1.1138067245483398,-0.9022926092147828,0.3295211791992187
1783205126731254000,6.83725390625,0.051327597785741,1.2100437521509826,-1.8873089535951613,1.190086007118225,-0.9983119964599608,0.3137412369251251
1783205126741191200,6.847191162109375,0.0466848865464329,1.6717600770324468,-1.6651093869715927,1.2575979232788086,-1.1276609897613523,0.2570880949497223
1783205126751128300,6.85712841796875,-0.0721027478542178,2.024255418086052,-1.397982298862934,1.3145337104797363,-1.2716559171676636,0.1645008027553558
1783205126761065000,6.86706494140625,-0.0875100872792303,2.2040749557502566,-1.063197386544943,1.3607912063598633,-1.4253089427947998,0.0436649434268474
1783205126771002000,6.877002197265625,0.0112307113274931,2.254154599301517,-0.6592752251148224,1.3947833776474,-1.5463446378707886,-0.0989869385957717
1783205126780938200,6.886938232421875,0.1981153650723397,2.145121100869775,-0.1856008975446224,1.3997163772583008,-1.617301106452942,-0.2277534306049347
1783205126790875100,6.896875244140625,0.5042372236162423,1.9337467335127287,0.2789718396812677,1.352770447731018,-1.6661622524261477,-0.3253935873508453
1783205126800812000,6.90681201171875,0.8502452484771609,1.7209803272753952,0.7367869193404912,1.2634323835372925,-1.7000857591629028,-0.3754684627056122
1783205126810749000,6.9167490234375,1.170645661611855,1.4325821953400968,1.2162246327430009,1.1422834396362305,-1.6756150722503662,-0.3699387609958648
1783205126820686000,6.92668603515625,1.4396296296335755,1.104044652979076,1.6966992879778149,0.9897875189781188,-1.5725057125091553,-0.3197123408317566
1783205126830623200,6.936623291015625,1.5414086268924176,0.7678177251592277,2.1215701294124125,0.8198667764663696,-1.4510183334350586,-0.2521131634712219
1783205126840560000,6.94656005859375,1.4656154270224273,0.3972361077949404,2.446967035660148,0.642466127872467,-1.2968682050704956,-0.179051473736763
1783205126850497000,6.9564970703125,1.3162027180597184,0.0567217119142413,2.733673853507638,0.4722287654876709,-1.1034458875656128,-0.0936010181903839
1783205126860433200,6.96643310546875,1.090519400973618,-0.2785010072991252,2.9064024099975825,0.3251272141933441,-0.8997705578804016,0.0012669037096202
1783205126870370000,6.9763701171875,0.93366879709512,-0.5569269035354256,2.9138720152258872,0.2142249941825866,-0.6822459697723389,0.0923888459801673
1783205126880307200,6.98630712890625,0.9115782535791396,-0.7188593407228588,2.828589102476835,0.1394325196743011,-0.4481099545955658,0.1886368244886398
1783205126890244000,6.996244140625,0.963119055724144,-0.8352700899243354,2.6336574820071457,0.0998892039060592,-0.2330001294612884,0.2917151153087616
1783205126900181000,7.006180908203125,0.992052597002685,-0.9856927065819502,2.267535182139277,0.0847302228212356,-0.0611197054386138,0.422701895236969
1783205126910118100,7.0161181640625,0.8434174482837319,-1.1774456970155238,1.819234949800372,0.0896803438663482,0.0870518088340759,0.560875415802002
1783205126920055000,7.026054931640625,0.6762181766092776,-1.2583610622048378,1.3491332200199364,0.1106263771653175,0.184512048959732,0.687822163105011
1783205126929992000,7.035991943359375,0.5737599649146199,-1.1867696979388591,0.9323480698853732,0.1462050974369049,0.2692893147468567,0.7731841206550598
1783205126939928000,7.045927978515625,0.3938414969205856,-0.9714654437869786,0.6863777515739202,0.1898809373378753,0.3781255185604095,0.7929365038871765
1783205126949865200,7.055865234375,0.2657046540901064,-0.7263073186412453,0.5199117626100779,0.2348203659057617,0.4819689393043518,0.7557421922683716
1783205126959801900,7.0658017578125,0.1291898590147495,-0.5884893320128322,0.3248509628027677,0.292329728603363,0.564234733581543,0.6925011873245239
1783205126969739000,7.075739013671875,-0.0263218974754214,-0.7433294728517532,-0.0100181206673383,0.37327840924263,0.610055685043335,0.6703087687492371
1783205126979676000,7.085676025390625,-0.113073421472311,-1.0906900813654063,-0.3927987098693847,0.4600311517715454,0.6167847514152527,0.6803366541862488
1783205126989613000,7.095613037109375,-0.200279118977487,-1.316459323169291,-0.6437345416337251,0.5540710091590881,0.5048191547393799,0.7106221914291382
1783205126999550200,7.10555029296875,-0.2678279298543929,-1.4035054461985823,-0.7210270401507616,0.6263257265090942,0.3893210589885711,0.7410754561424255
1783205127009486800,7.11548681640625,-0.2473480364054441,-1.2338351082354784,-0.5566629919022321,0.683756411075592,0.3298559784889221,0.7634194493293762
1783205127019424000,7.125424072265625,-0.1924997171476483,-0.9289771321475504,-0.3461094394087791,0.7327814698219299,0.3446415960788727,0.7633571028709412
1783205127029360000,7.135360107421875,-0.1302875911235809,-0.6925459188148378,-0.2217196741521358,0.7723127007484436,0.3637198805809021,0.7389020323753357
1783205127039297000,7.145297119140625,-0.1489367620140314,-0.5536988813996314,-0.2237847899883985,0.8077237010002136,0.3717828691005707,0.7174883484840393
1783205127049234000,7.15523388671875,-0.1512789412260055,-0.5170806308373809,-0.2907522938460111,0.8392161726951599,0.3922390937805176,0.7169991135597229
1783205127059171000,7.165171142578125,-0.1198874854013323,-0.468681633849442,-0.3755249189853668,0.8536033630371094,0.3978708684444427,0.7434301376342773
1783205127069108000,7.17510791015625,0.0103004447400569,-0.2942956655412912,-0.4325140496641397,0.8401398658752441,0.3808867335319519,0.793987512588501
1783205127079045000,7.185045166015625,0.157132343429327,0.044677930638194,-0.3702174602270126,0.7751312851905823,0.3803985714912414,0.8330102562904358
1783205127088982000,7.19498193359375,0.2440425651192665,0.5862228483855724,-0.2248959661006927,0.6607882380485535,0.38164222240448,0.823602020740509
1783205127098919000,7.2049189453125,0.3018985417604446,1.1892355035305022,-0.0695966833174228,0.5235792398452759,0.3631228804588318,0.7647823691368103
1783205127108855000,7.21485498046875,0.3332549262717366,1.7003645324870944,0.0409188703656196,0.3820061981678009,0.339335173368454,0.6818689107894897
1783205127118792000,7.2247919921875,0.3378492683246731,2.000509216317534,0.0867220056414604,0.2531076073646545,0.3060536682605743,0.6027562022209167
1783205127128729000,7.23472900390625,0.242333130852878,2.094387231193483,0.0624824673980474,0.1362605690956115,0.2542522549629211,0.5281947255134583
1783205127138666000,7.244666015625,0.128983815048635,2.115497239239514,0.1707517034590244,0.0276131890714168,0.2090578824281692,0.445057213306427
1783205127148603000,7.254602783203125,0.0544815317720174,2.144471697050333,0.42233050930202,-0.0887310355901718,0.2092542648315429,0.3480080068111419
1783205127158540000,7.2645400390625,0.0298339972496032,2.150619113764167,0.6837333745449781,-0.2174717038869857,0.2599270343780517,0.236819714307785
1783205127168477200,7.274477294921875,0.044810324846208,2.132486367963254,0.8985042524725199,-0.3576187491416931,0.3312670588493347,0.116935096681118
1783205127178414000,7.2844140625,0.0837356833070516,2.0820465127974748,1.0499439372181891,-0.4977318942546844,0.4299081265926361,-0.0034728054888546
1783205127188350000,7.294349853515625,0.202221631347388,1.987912185072899,1.1404366935700176,-0.6279473900794983,0.5631415247917175,-0.1246528625488281
1783205127198287000,7.304287109375,0.3181573103830218,1.7760145244941117,1.145199377927184,-0.7437554597854614,0.7113759517669678,-0.2327476292848587
1783205127208224000,7.31422412109375,0.3518839311569929,1.4236162140741944,1.0277280137568712,-0.8440139889717102,0.8343687653541565,-0.3198279738426208
1783205127218161200,7.3241611328125,0.3433998881891369,1.0826105275452136,0.6871697787344455,-0.930781900882721,0.901663899421692,-0.3897306323051452
1783205127228097800,7.334097900390625,0.4463514363586902,0.7204246903434396,-0.0298778363913297,-1.0092697143554688,0.8679130673408508,-0.4254761338233948
1783205127238035000,7.344034912109375,0.5594245655700564,0.4356958945706486,-0.754378105610609,-1.062752366065979,0.757839024066925,-0.4171990156173706
1783205127247972000,7.35397216796875,0.5916393204763531,0.2923521302580833,-1.2315320919901132,-1.099983811378479,0.6104656457901001,-0.3931638896465301
1783205127257909000,7.363908935546875,0.4952547296069562,0.2248322532147169,-1.4691554377168417,-1.1147706508636477,0.4104681015014648,-0.372925728559494
1783205127267846100,7.37384619140625,0.2858487397134304,0.1759533637553453,-1.5376643257975575,-1.1130642890930176,0.1782674640417099,-0.3721626698970794
1783205127277782000,7.383781982421875,0.0276537306010723,0.1577618735045194,-1.3258791856825352,-1.1067661046981812,-0.010961040854454,-0.3919126689434051
1783205127287719000,7.393718994140625,-0.3363417863711714,0.2126215909391641,-0.9802256733477116,-1.0663853883743286,-0.0796130746603012,-0.4360484182834625
1783205127297656000,7.403656005859375,-0.7040206680312753,0.2402943185016512,-0.6476882476955652,-0.9909412264823914,-0.0371468402445316,-0.4954949915409088
1783205127307593200,7.41359326171875,-1.031276500018686,0.2893193384334445,-0.3479401619672775,-0.8839471936225891,0.0866017267107963,-0.5580959320068359
1783205127317529900,7.42352978515625,-1.2860171308934687,0.3620210020288825,-0.09992693965137,-0.762011706829071,0.2748909592628479,-0.5860303640365601
1783205127327467000,7.433467041015625,-1.296667996506393,0.411808238504827,-0.0490735352486371,-0.6211597323417664,0.3870674967765808,-0.5704483389854431
1783205127337404000,7.44340380859375,-1.021910413519293,0.3841553846865892,-0.1549953314006328,-0.4769463539123535,0.4050257205963135,-0.5156401991844177
1783205127347341000,7.453341064453125,-0.5739408744394778,0.375531933248043,-0.2318482694566249,-0.3318796753883362,0.3656399548053741,-0.4326272010803222
1783205127357278200,7.4632783203125,-0.1017028632827103,0.447595883461833,-0.3031383126884698,-0.2045493870973587,0.2784368991851806,-0.366301953792572
1783205127367214000,7.473214111328125,0.1784197538688778,0.5720093218550085,-0.241007142946124,-0.0951503813266754,0.1715984940528869,-0.3393873870372772
1783205127377151000,7.48315087890625,0.2745294733196496,0.679080580303073,-0.0552326424002647,-0.0022047217935323,0.0977551564574241,-0.3514608144760132
1783205127387088100,7.493088134765625,0.4567429203830659,0.7164053716994822,0.2794265977114439,0.0592569261789321,0.0698557198047638,-0.3803334236145019
1783205127397025000,7.50302490234375,0.6462744353748857,0.6905060835503042,0.6974222926795483,0.0866747051477432,0.0674764513969421,-0.3986450433731079
1783205127406962000,7.5129619140625,0.6875391965687274,0.5758462696693837,1.0288017804682257,0.0874131023883819,0.1501929461956024,-0.3920495510101318
1783205127416899000,7.522899169921875,0.4795286065563559,0.3067594257950782,1.298667353630066,0.0685571208596229,0.3650732934474945,-0.364209920167923
1783205127426836000,7.5328359375,0.1449903624758124,0.0638860505856573,1.4628922856688498,0.024628534913063,0.6413398385047913,-0.3194449245929718
1783205127436773000,7.542773193359375,-0.1885895579665899,-0.0489811807900667,1.3639917664557697,-0.0519509278237819,0.9019967317581176,-0.2452383339405059
1783205127446710000,7.5527099609375,-0.3511927340224385,-0.0023857260927557,1.0673159277796744,-0.1871706694364547,1.046269774436951,-0.1884216666221618
1783205127456647000,7.56264697265625,-0.3205634947419166,0.1742629264503717,0.6456371603846549,-0.3382190465927124,1.0175215005874634,-0.1797589361667633
1783205127466583000,7.5725830078125,-0.2901340888824313,0.2972565611734986,0.1069610760718584,-0.4750182628631592,0.8741911053657532,-0.2014314979314804
1783205127476520000,7.58252001953125,-0.2379741319257766,0.4352576492838561,-0.3865384804308414,-0.578967809677124,0.6778572797775269,-0.2368696480989456
1783205127486457000,7.59245703125,-0.1629607573218643,0.4503916516602039,-0.8707435543656349,-0.6491975784301758,0.4455764889717102,-0.2400531470775604
1783205127496394000,7.60239404296875,-0.0621099077586084,0.3189557672843336,-1.3301602240025996,-0.70289146900177,0.197253793478012,-0.1999052017927169
1783205127506331000,7.612330810546875,0.009349135364592,0.1703935376711189,-1.5793752233237026,-0.7509458065032959,-0.0089955227449536,-0.1406276226043701
1783205127516268000,7.62226806640625,-0.0501836884476244,0.0809478061541914,-1.6165169132381676,-0.7961545586585999,-0.1769451200962066,-0.0982793718576431
1783205127526205200,7.632205078125,-0.0867347920577973,0.0773084267385303,-1.6540426340341567,-0.8179122805595398,-0.3259775042533874,-0.0922141969203949
1783205127536142000,7.64214208984375,-0.0098592037785798,0.1609251598410308,-1.6215093146979809,-0.8052257895469666,-0.4130194783210754,-0.1178708225488662
1783205127546079000,7.652078857421875,0.0884393309533596,0.2462438745558261,-1.5120622670292854,-0.7481757402420044,-0.4645951688289642,-0.1605399399995803
1783205127556015000,7.66201513671875,0.1211157120220363,0.2176464333638548,-1.405349028238654,-0.6241986751556396,-0.4972593486309051,-0.2057255208492279
1783205127565952000,7.671951904296875,0.1871554335102438,0.0390416783168911,-1.28896195217371,-0.4533742666244507,-0.5021706819534302,-0.2366525381803512
1783205127575889200,7.68188916015625,0.2620704623062163,-0.1366791918568313,-1.0093372015416622,-0.2784024477005005,-0.4593185186386108,-0.2351590394973755
1783205127585826000,7.691825927734375,0.3170806941274553,-0.2221675640501081,-0.6609399434566497,-0.1290435642004013,-0.3776907622814178,-0.2061409652233123
1783205127595763000,7.701762939453125,0.2258678068075329,-0.2678649008639157,-0.2985977466493845,-0.0387291200459003,-0.2349573373794555,-0.1635540872812271
1783205127605700000,7.7117001953125,0.0878985751401632,-0.3144463270358741,-0.1263520052403211,-0.0198076665401458,-0.1588782221078872,-0.1238678246736526
1783205127615637000,7.721636962890625,0.0492941191967576,-0.24379355879426,-0.2319575750499963,-0.0709875002503395,-0.1630205065011978,-0.1005971208214759
1783205127625574100,7.73157421875,0.1809114245541393,-0.0557039131738245,-0.3110702747315168,-0.1734790802001953,-0.2012448757886886,-0.0881636813282966
1783205127635511000,7.741510986328125,0.3937484848748892,0.1224739947631955,-0.3366343395769596,-0.3007736504077911,-0.2732447683811188,-0.0685806572437286
1783205127645447000,7.751447021484375,0.5243436806429177,0.3050533525295555,-0.3714227443635463,-0.4376378953456878,-0.3739064931869507,-0.0450393296778202
1783205127655384000,7.761384033203125,0.4080038777858019,0.3962115870527923,-0.3739923025906085,-0.5479366779327393,-0.4533581733703613,-0.030268371105194
1783205127665321200,7.7713212890625,0.1225059973366558,0.3192870450653136,-0.3013455840528011,-0.6092157363891602,-0.4588783681392669,-0.0377629771828651
1783205127675257900,7.7812578125,-0.207361624584347,0.1260723115161061,-0.2167056453824043,-0.6128943562507629,-0.3986738920211792,-0.0586584024131298
1783205127685195000,7.791195068359375,-0.4177840980440378,-0.0065919456109404,-0.2972662057846784,-0.546726644039154,-0.3256442248821258,-0.0860355943441391
1783205127695132000,7.8011318359375,-0.3988059874601662,0.0318698139261454,-0.4995516961485147,-0.4245610237121582,-0.2505191266536712,-0.1258293390274047
1783205127705069000,7.811069091796875,-0.3100419545970857,0.1565077817901969,-0.7406821732133626,-0.2781948447227478,-0.2016421556472778,-0.1698170900344848
1783205127715006200,7.821006103515625,-0.2932850271940231,0.227586155032739,-0.8737930050641298,-0.132435530424118,-0.1717508286237716,-0.2149757742881775
1783205127724942800,7.83094287109375,-0.3546322069518268,0.1782484158899634,-0.9203232855707406,0.0088058114051818,-0.1586483418941497,-0.2431166768074035
1783205127734880000,7.8408798828125,-0.4338099346935749,0.1016694724697619,-0.8950392067104578,0.1445713639259338,-0.1546658426523208,-0.2589845955371856
