time,seconds_elapsed,ax,ay,az,gx,gy,gz
1783203535766563600,0.0975634765625,-0.1826193975158035,0.9054495415657758,-0.5509001905918121,1.7900924682617188,-0.925174117088318,1.0282506942749023
1783203535776500700,0.107500732421875,-0.7429924229171126,1.0222373073861002,0.4374368930190801,2.091454029083252,-0.5192425847053528,0.925976037979126
1783203535786438700,0.117438720703125,-1.032436775969714,1.335409815093875,1.5528309152692557,2.3566722869873047,-0.0643759444355964,0.8257992267608643
1783203535796375800,0.127375732421875,-1.1972715835351495,1.623407549534738,2.4315637148231266,2.542292833328247,0.3311796486377716,0.7428497672080994
1783203535806312700,0.137312744140625,-1.2285884397536515,1.7832821774095295,2.953624764421582,2.623772144317627,0.6446033716201782,0.6845244765281677
1783203535816249600,0.14724951171875,-1.1894712119825184,1.9026105676233769,3.391937271231413,2.580958127975464,0.8346865177154541,0.6440976858139038
1783203535826186800,0.157186767578125,-1.2080034054297952,1.955854082033038,3.770031163921952,2.4293408393859863,0.9032703042030334,0.60748291015625
1783203535836124700,0.167124755859375,-1.1847045821025968,2.097781257545948,4.094292344138026,2.202645778656006,0.8445662260055542,0.5517030358314514
1783203535846061800,0.177061767578125,-1.2125856917187572,2.2339596602737903,4.292625297483801,1.932576894760132,0.6470876336097717,0.5123162865638733
1783203535855998700,0.186998779296875,-1.2129082016713917,2.180225147476792,4.263766867268085,1.616870641708374,0.369010180234909,0.5270217657089233
1783203535865936000,0.196935791015625,-1.0647301490701735,2.194875604119897,4.335204210016131,1.2482519149780271,0.0728258341550827,0.5348070859909058
1783203535875872500,0.20687255859375,-1.093375447991863,2.360584637236595,4.724406941220164,0.8135220408439636,-0.2931002080440521,0.4695262908935547
1783203535885810700,0.216810791015625,-1.3479840499848126,2.713822321090102,5.31920180311799,0.3458798825740814,-0.5876548290252686,0.3334897458553314
1783203535895747600,0.22674755859375,-1.6241159900650382,3.0914480117470022,6.098123398354649,-0.0922870710492134,-0.6988548636436462,0.1358847618103027
1783203535905684700,0.236684814453125,-2.026054868723452,3.112013829913735,7.020156994974613,-0.4457132220268249,-0.5054072141647339,-0.1019980907440185
1783203535915621600,0.24662158203125,-2.59098709179908,3.059079527583718,7.662218050438165,-0.7483538389205933,-0.0372496247291564,-0.344944417476654
1783203535925558800,0.256558837890625,-2.8519109413534403,2.934627803006768,8.001991272562742,-0.9419410228729248,0.4789336323738098,-0.5340200066566467
1783203535935496700,0.26649658203125,-2.737000367581844,2.681283156535029,7.728814382895827,-1.0202209949493408,0.8602705597877502,-0.6630213856697083
1783203535945433600,0.27643359375,-2.3662181130789217,2.529951023817062,7.003482923549413,-1.074000120162964,1.155521035194397,-0.8372711539268494
1783203535955370800,0.286370849609375,-2.541564889243245,2.775329805976152,6.531583788958192,-1.1554079055786133,1.5155268907546997,-0.9854393005371094
1783203535965307600,0.2963076171875,-1.8486226645871997,2.4461592264086005,5.8389615900367495,-1.2643686532974243,1.7130653858184814,-1.0573956966400146
1783203535975244800,0.306244873046875,-0.5890023961015045,2.008025583297014,4.632787811186909,-1.4525175094604492,1.706254959106445,-1.1201237440109253
1783203535985182700,0.3161826171875,-0.0834752788051962,1.755211098179221,3.619661154234409,-1.6913608312606812,1.5832972526550293,-1.2136101722717283
1783203535995119900,0.326119873046875,0.3392925990007817,1.6524118179619312,2.4030162502527235,-1.9514217376708984,1.3309038877487185,-1.3226532936096191
1783203536005056500,0.336056396484375,0.8425373044483363,1.4957275105610488,0.9131973792135716,-2.225207090377808,1.1233283281326294,-1.4067035913467407
1783203536014993700,0.34599365234375,1.1390732962623238,1.186602524678409,-0.2493827571034431,-2.4833855628967285,0.9800020456314088,-1.462260127067566
1783203536024930800,0.355930908203125,1.216285276889056,0.725032184138894,-1.3811071519076823,-2.688675165176392,0.8445809483528137,-1.4391016960144043
1783203536034868700,0.36586865234375,1.4812870434068142,0.0814957954257726,-2.538388597294688,-2.822688579559326,0.8020510673522949,-1.320002794265747
1783203536044806000,0.375805908203125,2.0253587031528357,-0.5427057782202959,-3.4938562614828346,-2.861512422561645,0.8670663237571716,-1.1261205673217771
1783203536054742800,0.38574267578125,2.422203327412158,-1.120265427678823,-4.545962345170975,-2.751650810241699,0.8163831830024719,-0.837367057800293
1783203536064679700,0.3956796875,2.569111067816615,-1.7246943793624638,-6.2960015936702485,-2.5543646812438965,0.5554328560829163,-0.5190075635910034
1783203536074616600,0.405616455078125,2.6934745295882223,-2.019810129114985,-7.976895409750938,-2.33179783821106,0.1698167622089386,-0.2601725459098816
1783203536084554800,0.4155546875,2.521267074362933,-1.974078890031576,-8.957683393156527,-2.00278639793396,-0.2056667655706405,-0.0486513450741767
1783203536094491600,0.42549169921875,2.1952724944829938,-1.518525033302605,-9.75672364731431,-1.482671856880188,-0.6338122487068176,0.0811758935451507
1783203536104428800,0.4354287109375,1.807832096776366,-1.1552867644384504,-10.607857661324738,-0.832392156124115,-0.9892674684524536,0.10076654702425
1783203536114365700,0.44536572265625,1.1155634605329483,-0.6886436506792902,-10.647607487910983,-0.1034138649702072,-1.1363333463668823,0.06465595215559
1783203536124304000,0.455303955078125,0.3354747212130576,-0.4662145130835473,-9.928492418861389,0.6828224658966064,-1.0268168449401855,0.0107172951102256
1783203536134240500,0.465240478515625,-0.269134847734496,-0.3690262046158313,-8.660960792729258,1.4196206331253052,-0.8259039521217346,-0.0778069794178009
1783203536144177700,0.475177734375,-0.5124493908401578,-0.0344473362639546,-7.303004214784503,2.0513622760772705,-0.5765988826751709,-0.1643334925174713
1783203536154114800,0.48511474609375,-0.4089559908788651,0.3949702086895704,-5.803231520485878,2.56315541267395,-0.3550774157047272,-0.2428077906370163
1783203536164051700,0.4950517578125,-0.2865405579024925,0.6706316086485982,-4.403575150930881,2.9181437492370605,-0.1874035447835922,-0.2786551117897033
1783203536173990000,0.504989990234375,-0.0753504245385527,0.8604606452822685,-2.954304563379288,3.079221248626709,-0.103625550866127,-0.2791406214237213
1783203536183926800,0.5149267578125,0.0790275056160986,0.9915502004384994,-1.4693009836673736,3.0364737510681152,-0.1139771491289138,-0.2481292188167572
1783203536193863700,0.52486376953125,0.2580751455923542,1.1091872765645383,-0.0102156890660524,2.7976319789886475,-0.1790168583393097,-0.197594404220581
1783203536203800600,0.534800537109375,0.4200828765057027,1.1802379580825566,1.4805197122961282,2.407917022705078,-0.2638551592826843,-0.1400572955608368
1783203536213738800,0.54473876953125,0.4955129421517252,1.1612822054609655,2.8730314707934856,1.935524821281433,-0.3429134786128998,-0.0656248778104782
1783203536223675600,0.554675537109375,0.5218989909045398,1.1283838522046803,3.988935196131468,1.394156813621521,-0.3925781846046448,-0.0282568279653787
1783203536233612800,0.56461279296875,0.4861331193879246,1.2428840916097164,4.83066425293684,0.8309054374694824,-0.4700357019901275,-0.0184263028204441
1783203536243549700,0.5745498046875,0.292375949525088,1.3815034577488898,5.389749503549933,0.2896232306957245,-0.5345922708511353,-0.0299057252705097
1783203536253486600,0.584486572265625,-0.0236748900979757,1.4470260234951973,5.766087492483854,-0.1832553744316101,-0.5105697512626648,-0.0511207357048988
1783203536263424500,0.594424560546875,-0.3260052474044263,1.4752847342520952,6.0026247965395445,-0.5442306399345398,-0.394749641418457,-0.0867793932557106
1783203536273361700,0.604361572265625,-0.5034177239269018,1.5038208006456493,6.068186525252461,-0.811260998249054,-0.2113007307052612,-0.1348622292280197
1783203536283298800,0.614298828125,-0.6629891310714184,1.5275906755506992,5.992732932600378,-1.0264365673065186,-0.0043510100804269,-0.2218647748231887
1783203536293236500,0.624236572265625,-0.9069802582643924,1.558411930271983,5.790615784540772,-1.19651460647583,0.203509509563446,-0.3386843502521515
1783203536303174400,0.63417431640625,-1.1395229397259652,1.6574521502166986,5.531843852323293,-1.314914345741272,0.4107529520988464,-0.4636161923408508
1783203536313111600,0.644111572265625,-1.2360757267691194,1.6423329070180654,5.233951039072871,-1.4076019525527954,0.6057376265525818,-0.5765073299407959
1783203536323048700,0.654048583984375,-1.104952707734704,1.5077438193082808,5.050220611575246,-1.5594298839569092,0.790524423122406,-0.6836920380592346
1783203536332985600,0.663985595703125,-0.7940180420815944,1.326708914504945,5.154826648953557,-1.793149709701538,0.972394585609436,-0.7708756923675537
1783203536342923500,0.673923583984375,-0.4114616170242428,1.1175503235012292,5.248155505514145,-2.0715208053588867,1.1326078176498413,-0.8169213533401489
1783203536352860700,0.683860595703125,0.0898209945701062,0.8884346938788891,4.9399540642172095,-2.351109027862549,1.308449387550354,-0.780160129070282
1783203536362797600,0.693797607421875,0.3844379279550164,0.4241968876957893,4.121646799531579,-2.5737617015838623,1.431488037109375,-0.7166317105293274
1783203536372734500,0.703734375,0.4576694606434554,-0.0932122444435954,2.569538937839865,-2.705206632614136,1.364527702331543,-0.6732322573661804
1783203536382671600,0.713671630859375,0.6951509867466986,-0.3873065421938896,0.359409065964818,-2.757179021835327,1.157379984855652,-0.6346698999404907
1783203536392609500,0.723609619140625,1.1685504428982734,-0.6613961627915501,-1.862356298646331,-2.7429540157318115,0.8966039419174194,-0.5605354905128479
1783203536402546700,0.733546630859375,1.6193192573077977,-1.203900573220849,-3.8611803383558985,-2.670341968536377,0.6122120022773743,-0.4402302503585815
1783203536412483600,0.743483642578125,2.121540611056983,-1.7800386654436586,-5.729195393416285,-2.519844055175781,0.3656765222549438,-0.2451353222131729
1783203536422420500,0.75342041015625,2.704402166315913,-2.222454515919089,-7.4320941205561155,-2.272085666656494,0.0301272254437208,-0.0273362733423709
1783203536432358400,0.7633583984375,3.184014651763439,-2.4449989504575727,-9.231814222547412,-1.917111873626709,-0.2952775061130523,0.1747771501541137
1783203536442295600,0.773295654296875,3.5692420495957133,-2.331590013420582,-10.8272182051301,-1.448938250541687,-0.5722178220748901,0.3673273026943207
1783203536452232700,0.783232666015625,3.711253980782628,-2.1042948772236705,-11.879670910298824,-0.9275986552238464,-0.7942320108413696,0.4926823079586029
1783203536462169600,0.793169677734375,3.3605589671492573,-1.903300011192262,-12.468618799734116,-0.3329834342002868,-1.0357458591461182,0.5081192851066589
1783203536472107800,0.803107666015625,2.66460908510983,-1.6771984686940908,-12.768747409212589,0.3839685618877411,-1.2866742610931396,0.4968466460704803
1783203536482044700,0.813044677734375,2.1004978230282663,-1.162302634549886,-12.649764471435546,1.1731219291687012,-1.486015558242798,0.5147667527198792
1783203536491981600,0.822981689453125,1.8678744775459168,-0.6393459512859583,-11.972680033385751,1.9341391324996948,-1.578212857246399,0.567974328994751
1783203536501918500,0.83291845703125,1.6349316908508538,-0.1680912520781159,-10.568628059220313,2.6017935276031494,-1.4950296878814695,0.6070101261138916
1783203536511856600,0.842856689453125,1.4378285715609789,0.4212298545837402,-8.771696126642823,3.19402289390564,-1.3252304792404177,0.6335586309432983
1783203536521793500,0.85279345703125,1.5451779162980614,1.1184781058706343,-7.142763383945822,3.719485521316528,-1.137096285820007,0.6789059638977051
1783203536531730700,0.862730712890625,1.754259496542811,1.6943439570233223,-5.730287864828109,4.141842365264893,-0.9514769911766052,0.739429235458374
1783203536541667600,0.87266748046875,1.910362058532983,2.0402488137707118,-4.416403652843833,4.45081901550293,-0.7555174231529236,0.8059287071228027
1783203536551605500,0.88260546875,1.8060868605442344,2.304081828770041,-3.120587596991658,4.644031047821045,-0.573779821395874,0.8709977269172668
1783203536561542400,0.89254248046875,1.4985425679817794,2.5997669028431174,-1.9360434661477803,4.748689651489258,-0.4841882884502411,0.929992973804474
1783203536571479600,0.9024794921875,1.1850414128415283,2.969856060515344,-1.00628249014616,4.749642848968506,-0.536987841129303,0.9888413548469543
1783203536581416700,0.912416748046875,0.959510948229581,3.3757705648064613,-0.1014402668237686,4.576931953430176,-0.6780475378036499,1.0208405256271362
1783203536591354600,0.922354736328125,0.7126660390406847,3.713993050357699,1.206798632749915,4.246917247772217,-0.7891455292701721,1.0003442764282229
1783203536601291800,0.932291748046875,0.3490083757206797,4.026966528362036,2.6878216183930634,3.830305814743042,-0.8631688356399536,0.9383658170700072
1783203536611228400,0.942228515625,-0.0001017068088054,4.280349753278494,3.837559808793664,3.3803110122680664,-0.9609819650650024,0.8549816608428955
1783203536621166600,0.95216650390625,-0.2488220544807612,4.457175808215141,4.693472289252281,2.9045722484588623,-1.01483154296875,0.7583408355712891
1783203536631103500,0.962103515625,-0.4480900236543267,4.596849067321419,5.608925338438153,2.430989980697632,-0.9662439823150636,0.6692942976951599
1783203536641040600,0.97204052734375,-0.6865446325734257,4.52702266690135,6.533294684529304,1.9933831691741943,-0.8163777589797974,0.6037734746932983
1783203536650977500,0.9819775390625,-0.8765250603765249,4.401311297652125,7.285692429977655,1.5948184728622437,-0.597334086894989,0.5650785565376282
1783203536660915700,0.991915771484375,-1.006601931358874,4.303747580000758,7.830119625163078,1.2177093029022217,-0.3661430180072784,0.5238965749740601
1783203536670852600,1.0018525390625,-1.2145691936861722,4.201947832214832,8.089720409420131,0.8433685302734375,-0.1968700885772705,0.4792849123477936
1783203536680789500,1.01178955078125,-1.4677537542253731,4.185172638502717,8.156413772511481,0.4617340266704559,-0.0885150581598281,0.4318940937519073
1783203536690726400,1.021726318359375,-1.6072668543338775,4.26506333681941,8.236803652521967,0.0628814548254013,-0.0181149281561374,0.3704014420509338
1783203536700664600,1.03166455078125,-1.8498960455238815,4.247143064725399,8.333472467160224,-0.3320319056510925,0.0129499081522226,0.2977099120616913
1783203536710601500,1.0416015625,-2.1357032841831445,4.226490152797103,8.388845979335903,-0.7179447412490845,0.0391610078513622,0.1960216611623764
1783203536720538600,1.05153857421875,-2.3749554001554847,4.307198012715578,8.377310439842939,-1.049320936203003,0.059316262602806,0.0564995817840099
1783203536730475800,1.061475830078125,-2.6372347559720275,4.408302763974667,8.28114899020493,-1.3060473203659058,0.1301246583461761,-0.1091093569993972
1783203536740413700,1.07141357421875,-2.8483745839208363,4.520125308603048,8.198053358367085,-1.460275411605835,0.2954810857772827,-0.2964170575141907
1783203536750350600,1.0813505859375,-2.9820798745334147,4.592983039543032,8.102894363769888,-1.551074504852295,0.5528990626335144,-0.5323033332824707
1783203536760287500,1.09128759765625,-3.1496026790738103,4.61797836458981,7.978996765944361,-1.5831443071365356,0.8174757361412048,-0.8077986836433411
1783203536770225400,1.101225341796875,-3.2091534769341346,4.581758465695381,7.532558235824108,-1.5598605871200562,1.0277999639511108,-1.1104321479797363
1783203536780162600,1.11116259765625,-2.993396218317747,4.480276113295555,6.76392890202105,-1.5094623565673828,1.247458577156067,-1.40611732006073
1783203536790099700,1.121099609375,-2.468900927309692,4.215488866311311,5.98219166484177,-1.4430208206176758,1.5154087543487549,-1.6361744403839111
1783203536800036600,1.13103662109375,-1.6300868811681866,3.623156595134735,5.204024102842808,-1.3916960954666138,1.778211236000061,-1.791440725326538
1783203536809974800,1.140974853515625,-0.5420888153657317,2.908225533771515,4.184199994078278,-1.4206292629241943,1.973803162574768,-1.843346357345581
1783203536819911400,1.150911376953125,0.7059903606690466,2.173691361793876,2.7925527434557678,-1.5766730308532717,2.115906238555908,-1.7829320430755615
1783203536829848600,1.1608486328125,2.1284515594892204,1.1949135491669178,0.9546002337038516,-1.8946291208267207,2.1378092765808105,-1.6417169570922852
1783203536839785500,1.170785400390625,3.159008805322647,-0.0008674304842948,-1.4071557853996752,-2.2930939197540283,1.9323621988296509,-1.4607844352722168
1783203536849723600,1.1807236328125,3.695255032140016,-1.3036933650985358,-4.1887160101979966,-2.6958203315734863,1.5470030307769775,-1.2621030807495115
1783203536859660500,1.19066064453125,3.849927415196597,-2.4181720260694624,-7.08213560450375,-3.0032660961151123,0.9901025891304016,-1.050716519355774
1783203536869597700,1.20059765625,3.8118697794809937,-3.257953163677454,-9.89864906926155,-3.126868724822998,0.3142836093902588,-0.8221112489700317
1783203536879535600,1.21053564453125,3.608715689589083,-3.822624689990282,-12.331012994551658,-2.9930222034454346,-0.3930065333843231,-0.59413743019104
1783203536889472500,1.220472412109375,3.329330300670862,-3.9896050582170486,-14.12262636245489,-2.55527663230896,-1.0700057744979858,-0.4161285758018493
1783203536899409400,1.230409423828125,2.8728473463982342,-3.7859906573370097,-15.120407566237448,-1.8366386890411377,-1.5603406429290771,-0.3131954669952392
1783203536909346600,1.2403466796875,2.424854572573304,-3.253247762465477,-15.007932695180177,-0.8901674747467041,-1.7575032711029053,-0.2685267925262451
1783203536919284500,1.250284423828125,1.888413699966669,-2.622679576396942,-13.85566937021613,0.1894154101610183,-1.6419305801391602,-0.2621967494487762
1783203536929221600,1.2602216796875,1.4360139233544469,-1.949951872251928,-11.911111173701286,1.302665948867798,-1.2886199951171875,-0.2949751913547516
1783203536939158800,1.27015869140625,1.1374639613695443,-1.2980249640733004,-9.73491981178522,2.306643009185791,-0.8587011694908142,-0.34383425116539
1783203536949096700,1.2800966796875,0.9573550853699444,-0.5552051943093538,-7.485733940806984,3.1757566928863525,-0.3921603858470917,-0.359152227640152
1783203536959033600,1.29003369140625,0.8353772035606205,0.1067082703545689,-5.28221968767941,3.745023012161255,-0.0201340597122907,-0.367540031671524
1783203536968970500,1.299970458984375,0.652538464205712,0.6000456220328807,-3.15946882404983,3.971440315246582,0.1113605797290802,-0.3587803542613983
1783203536978907600,1.30990771484375,0.5941777529127895,1.0925041450500488,-1.229913550877571,3.834874153137207,0.0229526292532682,-0.3371710777282715
1783203536988845600,1.319845458984375,0.6182010180570184,1.5469079549610614,0.6567582738578319,3.401522159576416,-0.1862264275550842,-0.3058714866638183
1783203536998782700,1.32978271484375,0.6631861149482429,1.766930762067437,2.421473113441467,2.791982412338257,-0.3930832147598266,-0.265842467546463
1783203537008719600,1.3397197265625,0.6715770728051662,1.7932851005077362,3.9373885487675664,2.1152913570404053,-0.559314489364624,-0.2512190639972687
1783203537018657800,1.34965771484375,0.6218219850331544,1.825087767481804,5.011808755594491,1.4395171403884888,-0.7139586210250854,-0.2471238225698471
1783203537028594400,1.359594482421875,0.5468497096246108,1.8634230510950087,5.610950122264027,0.8460953831672668,-0.8401967287063599,-0.1948566287755966
1783203537038531600,1.369531494140625,0.5752504957333207,1.701004876217246,5.929011278796196,0.3247340619564056,-0.8300554752349854,-0.1095893010497093
1783203537048468500,1.379468505859375,0.578811987607181,1.4879583378642796,6.25823388081193,-0.1201323717832565,-0.7117706537246704,-0.035173662006855
1783203537058406700,1.38940673828125,0.4060623883292079,1.2771329826921225,6.5509934228271245,-0.5001742839813232,-0.5453976988792419,0.009886760264635
1783203537068343600,1.399343505859375,0.1622232368275523,1.24338093521595,6.568417435836792,-0.8021639585494995,-0.309552401304245,0.0240134969353675
1783203537078280700,1.40928076171875,-0.1943123560601845,1.2137637955874203,6.431105060642957,-1.0153090953826904,-0.0024112914688885,0.0253974087536335
1783203537088218600,1.419218505859375,-0.547372052998282,1.0627572415620088,6.0339241901665925,-1.1317243576049805,0.2551438212394714,0.0016071246936917
1783203537098155500,1.429155517578125,-0.7162598257489502,0.8959697655588388,5.184055666047335,-1.19094717502594,0.4721103310585022,-0.0587675794959068
1783203537108092700,1.4390927734375,-0.6797780610479414,0.7893611561864614,4.209126930063963,-1.1619242429733276,0.6570096015930176,-0.0971996560692787
1783203537118030600,1.449030517578125,-0.5251411876961588,0.5308884991765022,3.178056035619974,-1.046897292137146,0.7901960015296936,-0.1000629067420959
1783203537127967500,1.458967529296875,-0.3056917965635657,0.180543614155054,2.05924606744647,-0.9189653992652892,0.9241844415664672,-0.1012967526912689
1783203537137904600,1.468904541015625,-0.1041039330750703,-0.0514092847198247,1.2510884408533571,-0.838094174861908,1.0846500396728516,-0.0935479328036308
1783203537147842600,1.478842529296875,0.1373745537098497,-0.2844277669996023,0.5192559290498495,-0.7773370742797852,1.144162654876709,-0.0782757699489593
1783203537157779700,1.48877978515625,0.416766299303621,-0.63943596765697,-0.5913023436069488,-0.74684739112854,1.1332701444625854,-0.0541380308568477
1783203537167716600,1.498716552734375,0.7244185822851955,-0.9266483969390392,-1.6591799969226122,-0.7500868439674377,1.0582016706466677,-0.0248049069195985
1783203537177653500,1.508653564453125,1.0455550546094774,-1.2039689622819425,-2.6341303602159023,-0.7529865503311157,0.916645348072052,0.0121035780757665
1783203537187591700,1.518591796875,1.2423409246437251,-1.4755834249377249,-3.6487078004986047,-0.7330969572067261,0.7092021107673645,0.074538454413414
1783203537197528600,1.528528564453125,1.3383613583758474,-1.68770904905349,-4.653331417521834,-0.66013103723526,0.4976853430271148,0.1637238562107086
1783203537207465700,1.5384658203125,1.417882054336369,-1.8322092899248004,-5.525549720615148,-0.4926541447639465,0.2884777784347534,0.2990156412124634
1783203537217403600,1.548403564453125,1.5665847153335808,-1.988514242619276,-6.391725236412882,-0.2324267923831939,0.049844741821289,0.4458381831645965
1783203537227340500,1.558340576171875,1.7192916435360908,-2.0935387976706026,-7.100482577577233,0.0668632462620735,-0.1966923326253891,0.529809832572937
1783203537237277400,1.56827734375,1.6631506541192531,-1.874391604354977,-7.34193161907196,0.3778043985366821,-0.4011984467506408,0.5516014695167542
1783203537247215600,1.578215576171875,1.5006757806181907,-1.4882774868160484,-7.185123685291409,0.7368440628051758,-0.5731992721557617,0.5646200776100159
1783203537257152500,1.588152587890625,1.2257897489458325,-1.1719336555957791,-6.889095496869087,1.1285146474838257,-0.6445349454879761,0.5860152840614319
1783203537267089700,1.598089599609375,0.8813111256092786,-0.834895995914936,-6.269838978409767,1.5216646194458008,-0.6221209764480591,0.5826293230056763
1783203537277027600,1.608027587890625,0.4934127550020813,-0.3778384566247463,-5.433357759130001,1.9276018142700195,-0.5767099857330322,0.56001216173172
1783203537286964700,1.61796484375,0.217042768382281,0.1551437999606132,-4.617952061104774,2.268599033355713,-0.5378488898277283,0.5147602558135986
1783203537296900900,1.62790087890625,0.0282569571912288,0.6977221524089574,-3.716244628676772,2.4520423412323,-0.5770320892333984,0.4569034874439239
1783203537306838000,1.637838134765625,-0.1683031412631273,1.1206792691767216,-2.53506500582993,2.4582338333129883,-0.6913586854934692,0.4064539074897766
1783203537316776000,1.64777587890625,-0.1880319240838289,1.4849731845736502,-1.2168611770808695,2.3478031158447266,-0.8159914612770081,0.3923760056495666
1783203537326713000,1.657713134765625,-0.1362187347382307,1.7478069594025611,0.0727507634341716,2.1309831142425537,-0.9279316067695618,0.3995385766029358
1783203537336650200,1.667650146484375,-0.0990200539395213,1.935389386153221,1.3257897538334131,1.847459435462952,-0.9922001957893372,0.4145818650722503
1783203537346588200,1.677588134765625,-0.035517011322081,2.044257172629237,2.423869653189182,1.528484582901001,-1.0869749784469604,0.4462255537509918
1783203537356525000,1.687525146484375,0.0402738458937732,2.049232622954249,3.12159063655436,1.200855374336243,-1.1713879108428955,0.4584040939807892
1783203537366462000,1.6974619140625,-0.0127943028158275,2.2040707179665566,3.783765090242028,0.8936706781387329,-1.166946291923523,0.4530695080757141
1783203537376400000,1.70739990234375,-0.211918703366816,2.432393735906482,4.480212984931469,0.6176723837852478,-1.0750643014907837,0.4201157689094543
1783203537386337000,1.7173369140625,-0.4897670919761061,2.584329095214605,4.999601600450277,0.3714956045150757,-0.922698140144348,0.3661340475082397
1783203537396274200,1.727274169921875,-0.7691942742094398,2.726954189863801,5.454943567994237,0.1225695013999939,-0.7602506279945374,0.2859791815280914
1783203537406212000,1.737212158203125,-1.0141349572122096,2.8831664958387613,5.874487076926231,-0.130140796303749,-0.5970295071601868,0.2029700279235839
1783203537416149200,1.747149169921875,-1.1490779729261993,2.941463201984763,6.283849968105554,-0.4030435085296631,-0.4131812155246734,0.1189366430044174
1783203537426086100,1.757086181640625,-1.286059216469526,2.9176392588049174,6.6725979412794105,-0.7091888189315796,-0.2209435999393463,-8.69515351951e-05
1783203537436024000,1.767024169921875,-1.50727006431669,2.913703672921657,6.983898517635464,-1.0171350240707395,-0.0559475757181644,-0.1371246874332428
1783203537445961000,1.7769609375,-1.656463139179349,2.953338933217525,7.091243040066957,-1.3036216497421265,0.0887105390429496,-0.2650935649871826
1783203537455898000,1.786898193359375,-1.6210697542369366,2.965254996460676,7.039028868705034,-1.558890700340271,0.2618933022022247,-0.3796077370643616
1783203537465836000,1.7968359375,-1.500184782230854,2.924063154372573,7.06376641959846,-1.8296793699264529,0.446953147649765,-0.5046079754829407
1783203537475773200,1.806773193359375,-1.3508806482091544,2.9290444499164816,7.069744324964285,-2.126240968704224,0.622739851474762,-0.6520634889602661
1783203537485710000,1.8167099609375,-1.1760770390108226,2.980156797516346,7.093490526732802,-2.472726583480835,0.7788429260253906,-0.8155820965766907
1783203537495648300,1.826648193359375,-1.0307190122663974,3.076850746595859,7.137081246656179,-2.9010071754455566,0.9657633900642396,-0.9956587553024292
1783203537505585200,1.836585205078125,-0.6800830353438854,3.195229288738966,7.187306290027498,-3.367825746536255,1.231157898902893,-1.13518488407135
1783203537515522000,1.84652197265625,-0.2578235454514622,3.1242905431628225,7.021233684295416,-3.84033727645874,1.5209426879882812,-1.225608468055725
1783203537525460000,1.8564599609375,0.108368020260334,2.903032056781649,6.279262640315294,-4.2768425941467285,1.8408637046813965,-1.2454785108566284
1783203537535397000,1.866397216796875,0.6363797949567437,2.586495041076839,4.865328739082813,-4.607184886932373,1.9857972860336304,-1.194676160812378
1783203537545334000,1.876333984375,1.3183172259956597,2.038844792191684,2.386883446097374,-4.812877178192139,1.843916058540344,-1.1209827661514282
1783203537555272200,1.886272216796875,2.0747021413840354,1.5186302472427486,-0.7339695238322019,-4.8544440269470215,1.5069540739059448,-1.006480693817139
1783203537565209000,1.896208984375,2.8206191465109587,0.9350924001574517,-3.936514688542485,-4.6920552253723145,1.0490344762802124,-0.8225758075714111
1783203537575146000,1.90614599609375,3.2864404224932198,0.2491922029674053,-6.798297035568952,-4.348367691040039,0.5335264801979065,-0.5878158211708069
1783203537585083000,1.916082763671875,3.366194342687726,-0.5500650549419224,-9.11876125934124,-3.873533964157105,0.0437503829598426,-0.3419674634933471
1783203537595021000,1.92602099609375,2.997337064898014,-1.1726653308711943,-10.698873564767837,-3.296872854232788,-0.2873855829238891,-0.1393691301345825
1783203537604958000,1.9359580078125,2.205132209718227,-1.3503154155418275,-11.399012715190649,-2.5877387523651123,-0.4677257835865021,0.0004345856141299
1783203537614895000,1.94589501953125,1.199890606927127,-1.416275057531148,-11.657167976814508,-1.7979847192764282,-0.4993532598018646,0.0475919842720031
1783203537624833000,1.9558330078125,0.2422488135702908,-1.3755777209617197,-11.622708073329925,-0.983572244644165,-0.4706965982913971,0.0186338368803262
1783203537634770200,1.965770263671875,-0.5058777573648839,-1.2318486105933786,-11.24426989724636,-0.1607238352298736,-0.431672066450119,-0.05738365650177
1783203537644707000,1.97570703125,-0.8652949335709214,-1.0641694464474916,-10.62137765263319,0.6101518273353577,-0.3956805169582367,-0.1492603123188018
1783203537654645000,1.98564501953125,-0.8748534739024937,-0.805825238122791,-9.592797405961155,1.2735050916671753,-0.3674289286136627,-0.2372563034296035
1783203537664582000,1.995581787109375,-0.641847412712872,-0.5698378230348229,-8.157859879666566,1.8187763690948489,-0.3079927563667297,-0.2947558462619781
1783203537674520000,2.00552001953125,-0.2852240319438278,-0.3507403140798211,-6.557437192139029,2.2479686737060547,-0.2697503268718719,-0.3046515882015228
1783203537684457000,2.01545703125,0.2020539466302841,-0.1845968350686132,-5.008889068755507,2.5316503047943115,-0.3019338250160217,-0.2444931864738464
1783203537694394000,2.02539404296875,0.8208926050037145,-0.0920265417903661,-3.4915573368906974,2.644694566726685,-0.3742642402648926,-0.1360793560743332
1783203537704332000,2.03533203125,1.3107698793560263,-0.0503977695897221,-1.885921883150935,2.596510410308838,-0.440095990896225,-0.0229376181960105
1783203537714269200,2.045269287109375,1.5232482624322174,0.0749988346219062,-0.3187187436580658,2.452598094940185,-0.4634606838226318,0.0724333301186561
1783203537724206000,2.0552060546875,1.531166195949912,0.2517027244836092,0.9416016359210014,2.2681610584259038,-0.4847992658615112,0.1425120085477829
1783203537734144000,2.06514404296875,1.3454426949389278,0.4565796926453709,1.8676403765290972,2.0542328357696533,-0.4727753102779388,0.1735837459564209
1783203537744081000,2.075080810546875,1.0188951573513447,0.671982146474719,2.649074831369519,1.8204798698425293,-0.4181442856788635,0.1529093533754348
1783203537754018000,2.08501806640625,0.6476151824593543,0.889393309777975,3.3081203393816945,1.589668035507202,-0.3198072016239166,0.1074751168489456
1783203537763956000,2.0949560546875,0.314998407960683,1.021197150683403,3.785519824954867,1.3974837064743042,-0.1711995899677276,0.0597757697105407
1783203537773893000,2.10489306640625,0.0818418323844671,1.024608420431614,4.00705712827742,1.2586950063705444,0.0306503735482692,0.0411787815392017
1783203537783830300,2.114830322265625,0.0264502000302076,0.9212582283332944,4.020421636763214,1.1892794370651243,0.2834938168525696,0.0634582489728927
1783203537793768200,2.124768310546875,-0.0191743638083338,0.6639288961395621,3.734441964146495,1.1780555248260498,0.4943713545799255,0.1011908054351806
1783203537803705000,2.134705078125,-0.1412519796650856,0.4888759883552789,3.239154355183244,1.1772685050964355,0.6401554346084595,0.1058816984295845
1783203537813642000,2.14464208984375,-0.210895643929392,0.5440685910061002,2.7616122462689874,1.124400019645691,0.7244345545768738,0.0756225511431694
1783203537823580000,2.154579833984375,-0.3369010276891291,0.6547066020250321,2.487746789816022,1.0166701078414917,0.7696888446807861,0.0441152304410934
1783203537833517000,2.16451708984375,-0.5092801862195134,0.6959738474369048,2.358219077149033,0.8689043521881104,0.7877322435379028,0.0092870341613888
1783203537843454200,2.1744541015625,-0.6386643987625837,0.6837333745449781,2.2363632142841814,0.6862227320671082,0.7854059338569641,-0.022920437157154
1783203537853392100,2.18439208984375,-0.6958807623259723,0.6795002670198679,2.1398130575895307,0.4773374497890472,0.7702862024307251,-0.0532640479505062
1783203537863329300,2.194329345703125,-0.6334596697263419,0.6801864957183599,2.041269681251049,0.2462035715579986,0.7156554460525513,-0.0754532441496849
1783203537873266000,2.204265869140625,-0.4950764504306018,0.5997019231617451,1.8515327068150045,0.0024350378662347,0.6467124223709106,-0.0807745456695556
1783203537883204000,2.2142041015625,-0.3495291847243905,0.4978659350186586,1.6355664816230535,-0.2459974139928817,0.5741143822669983,-0.0643969029188156
1783203537893141000,2.22414111328125,-0.1824922640047967,0.4104097698837518,1.3458862009227277,-0.4834008514881134,0.4762627780437469,-0.0408189184963703
1783203537903078100,2.234078125,-0.013397095581144,0.2987564443424343,0.9252537277102468,-0.6841358542442322,0.3644520938396454,-0.0083427364006638
1783203537913016000,2.24401611328125,0.1459331962838768,0.1935927730813622,0.4582482103794812,-0.8218453526496887,0.2816357910633087,0.013355323113501
1783203537922953200,2.253953125,0.2436635026738047,0.1167331130236387,0.0247124164521694,-0.878523588180542,0.2622157335281372,0.0233879834413528
1783203537932890000,2.26389013671875,0.1793313157558441,0.0601157382667064,-0.3987462200969457,-0.8506242036819458,0.3171649277210235,0.034496072679758
1783203537942828300,2.273828369140625,0.1580827760219574,-0.0077592358246445,-0.8378226970165967,-0.7722769379615784,0.3968680202960968,0.045176412910223
1783203537952765000,2.283764892578125,0.1907742085292935,-0.0940408042222261,-1.340306939485669,-0.6846862435340881,0.4116774797439575,0.0481915585696697
1783203537962702000,2.2937021484375,0.2247097958788275,-0.22093787612468,-1.9328759420275687,-0.6308733224868774,0.344022274017334,0.0507497899234294
1783203537972640000,2.303639892578125,0.2943039949782192,-0.3814537245124578,-2.395350245669484,-0.6182214021682739,0.2289118319749832,0.059925802052021
1783203537982577200,2.3135771484375,0.4480171776138246,-0.4902732879325747,-2.632255213993788,-0.62807697057724,0.1340002417564392,0.0940464884042739
1783203537992515000,2.32351513671875,0.6256134862706065,-0.6361877795159816,-2.7378023316144944,-0.6134678721427917,0.0880403742194175,0.1679409593343734
1783203538002452200,2.3334521484375,0.8599728617653251,-0.8553595227509736,-2.958824086630344,-0.560103714466095,0.0298495106399059,0.2845647633075714
1783203538012389000,2.34338916015625,1.151982754456997,-1.0477952347517012,-3.4275738172799346,-0.4933055937290191,-0.0911160111427307,0.3766258955001831
1783203538022327300,2.353327392578125,1.2381139545984563,-1.1290256572395565,-3.992036084756255,-0.3828427195549011,-0.3147083520889282,0.427885890007019
1783203538032264000,2.363263916015625,1.1715328197099268,-0.9183578307166697,-4.561855495351553,-0.2227446585893631,-0.5852165222167969,0.4449716210365295
1783203538042201000,2.373201171875,1.1299781356588006,-0.5979921966344117,-4.986419462794065,-0.0061439108103513,-0.7705551981925964,0.4695363640785217
1783203538052139000,2.383138916015625,1.0647430085517466,-0.4822399113416671,-5.068509716981649,0.283667117357254,-0.8731744885444641,0.5054235458374023
1783203538062076200,2.393076171875,0.8590921334080398,-0.654417555950582,-5.164863474321365,0.6309220790863037,-0.9340197443962096,0.5248811841011047
1783203538072013000,2.403012939453125,0.6474316425859927,-0.6025196109309792,-5.254927776128054,1.0301717519760132,-1.004767894744873,0.5178973078727722
1783203538081951200,2.412951171875,0.4888737963981926,-0.3843213889032602,-5.284515105140209,1.4455649852752686,-1.0761659145355225,0.5014173984527588
1783203538091888000,2.42288818359375,0.4122533519238233,-0.1822171003252267,-5.066567935264111,1.83512020111084,-1.100374460220337,0.4993571937084198
1783203538101825000,2.432824951171875,0.3926464419171214,0.0468704722464084,-4.406683638340234,2.1732633113861084,-1.091406226158142,0.5290858149528503
1783203538111763000,2.442762939453125,0.5173464421667159,0.2932359273552894,-3.6010195821285245,2.440491199493408,-1.1431034803390503,0.5731068849563599
1783203538121700000,2.4527001953125,0.6895923297062516,0.5555749044045806,-2.89385564763546,2.6084980964660645,-1.2001715898513794,0.5981515049934387
1783203538131637000,2.462636962890625,0.6285895794719457,0.8959387858986854,-1.9925538733989,2.687152862548828,-1.2524629831314087,0.6225636005401611
1783203538141575200,2.4725751953125,0.5306035447552799,1.2707950118422509,-1.0369722274422646,2.705582618713379,-1.3724392652511597,0.6373159289360046
1783203538151512000,2.482511962890625,0.492423159442842,1.6130822626143693,-0.2427946108847856,2.620666265487671,-1.4944695234298706,0.5934145450592041
1783203538161450200,2.4924501953125,0.3674059099376201,2.105599237820506,0.7930044811248779,2.4476020336151123,-1.5481023788452148,0.503835916519165
1783203538171387100,2.50238720703125,0.1093362807705998,2.554038001847267,2.0752268959105016,2.2290780544281006,-1.5219359397888184,0.4115028083324432
1783203538181324000,2.512323974609375,-0.0508941748045384,2.745627910673618,3.252827491226792,1.9779677391052248,-1.4296514987945557,0.3434518277645111
1783203538191262000,2.522261962890625,-0.1444424828020855,2.778686715188622,4.24014809127152,1.6982126235961914,-1.2949117422103882,0.2743951082229614
1783203538201199000,2.53219921875,-0.308626680971682,2.8144717297971247,5.090378434440494,1.3941198587417605,-1.1165657043457031,0.205108180642128
1783203538211136000,2.542135986328125,-0.5070929053083062,2.8096564384698866,5.768707904115319,1.0622533559799194,-0.9290010333061218,0.1539629101753235
1783203538221074200,2.55207421875,-0.6658543112441897,2.762624053660035,6.357616630584001,0.6931975483894348,-0.759218692779541,0.1086463034152984
1783203538231011000,2.562010986328125,-0.7708291819348931,2.7471599425464865,6.854374896621704,0.2974939942359924,-0.6232182383537292,0.0672503933310508
1783203538240948000,2.571947998046875,-0.8057122062023728,2.746952437275648,7.218469490054249,-0.1243555098772049,-0.5251899361610413,0.0208240430802106
1783203538250886000,2.581885986328125,-0.7802736674327403,2.731754868143797,7.52265000527203,-0.5763024091720581,-0.4571958780288696,-0.035577904433012
1783203538260823000,2.591822998046875,-0.7636708346128463,2.705777546322345,7.844529843309521,-1.045582294464111,-0.3911012709140777,-0.104205697774887
1783203538270761000,2.601760986328125,-0.8342104978688061,2.6744699693888423,8.186655766040086,-1.4864563941955566,-0.2409791499376297,-0.1613152176141739
1783203538280698000,2.611697998046875,-0.7949566381059586,2.649852830004692,8.414435178622602,-1.869361400604248,-0.047647513449192,-0.2131432592868805
1783203538290635000,2.621635009765625,-0.7634777962587773,2.609140295866132,8.525026720151304,-2.2205557823181152,0.1771336197853088,-0.2745334804058075
1783203538300573400,2.631573486328125,-0.6645329995125532,2.723226693773269,8.580740424066782,-2.583660125732422,0.4166439771652221,-0.3382091522216797
1783203538310510300,2.64151025390625,-0.5009427121154963,2.809131537812948,8.635967805770038,-2.9947259426116943,0.6464452147483826,-0.4162468910217285
1783203538320447500,2.651447509765625,-0.3175179895661771,2.962542230370641,8.720422451001404,-3.427442073822021,0.8584240078926086,-0.4920154213905334
1783203538330385400,2.661385498046875,-0.0597373699409887,3.233257113838196,8.676208046221733,-3.874731779098511,1.1000767946243286,-0.5699564814567566
1783203538340322300,2.671322265625,0.2722276261180639,3.4140345367491243,8.352769872826338,-4.283936500549316,1.3097472190856934,-0.6021064519882202
1783203538350259200,2.68125927734375,0.6361807652533054,3.33460239585489,7.361137839323282,-4.602138042449951,1.4202970266342163,-0.56703120470047
1783203538360197400,2.691197265625,0.8191454690754413,2.9430700526595115,5.750848422297835,-4.850895404815674,1.4441512823104858,-0.5299522876739502
1783203538370134300,2.70113427734375,0.8035913415908813,2.599042972482741,4.035378967398405,-5.020204067230225,1.4423211812973022,-0.5541478991508484
1783203538380072400,2.711072509765625,0.7852807550050318,2.465290043336153,2.19585818541646,-5.083452224731445,1.486444354057312,-0.6039354205131531
1783203538390009300,2.72100927734375,1.0391486946985125,2.405308745104074,0.1900444329500198,-5.038998126983643,1.641602873802185,-0.6157845854759216
1783203538399946200,2.7309462890625,1.6091921233080326,2.1296135890059174,-2.117259280475974,-4.842358589172363,1.7834609746932983,-0.5243561267852783
1783203538409884200,2.74088427734375,2.235973776575178,1.4662354586169122,-5.002562788343429,-4.507641315460205,1.7518980503082275,-0.3523435890674591
1783203538419821300,2.7508212890625,2.704158420687914,0.8740154156431555,-8.178115316709876,-4.044407844543457,1.5206400156021118,-0.1572337448596954
1783203538429758200,2.76075830078125,2.8358102859020238,0.5065213890306651,-11.149437065863609,-3.458940267562866,1.1233909130096436,-0.0043211672455072
1783203538439696400,2.7706962890625,2.362327389250696,0.324963008342497,-13.605607398676872,-2.75710678100586,0.6673387289047241,0.0577696338295936
1783203538449633300,2.78063330078125,1.4969725421860811,0.2591574792026542,-15.287207901722192,-1.9552547931671145,0.2266521453857422,0.044845312833786
1783203538459570400,2.7905703125,0.6484203613623977,0.0636807098724413,-16.120193680101632,-1.070386528968811,-0.1763451099395752,0.0004078077618032
1783203538469508400,2.80050830078125,0.091758246243,-0.3232050587592646,-16.237626465827226,-0.1796918362379074,-0.4806612730026245,-0.0728886425495147
1783203538479445200,2.8104453125,-0.2639551800742745,-0.6135246237438172,-15.466892268699407,0.7067679762840271,-0.6660348176956177,-0.1204348504543304
1783203538489383200,2.820383056640625,-0.3431544620607048,-0.8315624675780534,-14.0149644446373,1.5374420881271362,-0.7430852055549622,-0.1236704662442207
1783203538499320300,2.8303203125,-0.0553165943566709,-0.9063855803068728,-12.014204468429089,2.249382495880127,-0.7146924734115601,-0.1211689561605453
1783203538509257200,2.84025732421875,0.3723280226401984,-0.7263884210534394,-9.816080676168204,2.8416223526000977,-0.6728876233100891,-0.0911646336317062
1783203538519195400,2.8501953125,0.8921620438389479,-0.4674192126981913,-7.731610735616087,3.3115479946136475,-0.6297765970230103,-0.0403025150299072
1783203538529132300,2.86013232421875,1.3495216348156331,-0.1639395392261445,-5.72008561976552,3.6426615715026855,-0.5616805553436279,0.0176463536918163
1783203538539069400,2.8700693359375,1.612364761994779,0.2289857196323573,-3.714254916164279,3.823495388031006,-0.4909859001636505,0.0810223966836929
1783203538549007400,2.88000732421875,1.756976938807964,0.6042325523287058,-1.788660363316536,3.838897466659546,-0.4418463110923767,0.1451076418161392
1783203538558944300,2.8899443359375,1.7755778866425156,0.944142260314524,0.0349544090032577,3.6951003074646,-0.4127259850502014,0.2053717821836471
1783203538568882200,2.899882080078125,1.7123108447380362,1.229995676203072,1.6718337267905472,3.405689477920532,-0.4359561204910278,0.2549667656421661
1783203538578819300,2.9098193359375,1.5149864839129148,1.4407272156119346,3.072720514923334,2.9788520336151123,-0.5126895308494568,0.2883564233779907
1783203538588756200,2.919756103515625,1.2926353799894452,1.6251567312896251,4.317407856562733,2.4542665481567383,-0.6038143634796143,0.317670077085495
1783203538598694400,2.9296943359375,1.1070067176550626,1.6711109654739498,5.437634705796837,1.880905508995056,-0.623717725276947,0.3452804088592529
1783203538608631300,2.93963134765625,0.9561875028952956,1.6059373592957853,6.428428534910083,1.3049750328063965,-0.5826779007911682,0.359752357006073
1783203538618568400,2.949568359375,0.7346880473650992,1.5393766826733946,7.111766188135743,0.773776113986969,-0.5171478986740112,0.3667910993099212
1783203538628506400,2.95950634765625,0.4533861573010683,1.4734820687443018,7.425981775155663,0.2871338725090027,-0.4213815927505493,0.365857720375061
1783203538638443300,2.969443359375,0.1574247505046427,1.4118489116519688,7.630865465319155,-0.1524930298328399,-0.2686077654361725,0.3594429790973663
1783203538648381200,2.979381103515625,-0.1407213068544864,1.39515496648252,7.838839522713422,-0.5463377237319946,-0.0255204290151596,0.3460502326488495
1783203538658318300,2.989318359375,-0.4106234126344323,1.3073062948986889,7.954430479964613,-0.8869256973266602,0.2361620366573333,0.3257907629013061
1783203538668255200,2.999255126953125,-0.6218504804752767,1.3207736792370677,7.792390490749478,-1.185232162475586,0.5088227987289429,0.2833927869796753
1783203538678193400,3.009193359375,-0.8087361571334302,1.4438359952822326,7.454236978781223,-1.4247573614120483,0.7471243143081665,0.2275018095970153
1783203538688130300,3.01913037109375,-0.8753795436032116,1.4956369096681474,6.863266643607616,-1.6421648263931274,0.9372310042381288,0.186869129538536
1783203538698067500,3.0290673828125,-0.730451140447706,1.3778300299331545,6.0661623259484765,-1.843325972557068,1.091944694519043,0.1805371940135955
1783203538708005400,3.03900537109375,-0.5969605885643512,1.1669225494354962,5.125424028858542,-1.994865655899048,1.1976088285446167,0.2051525115966797
1783203538717942300,3.0489423828125,-0.5417346681658178,1.0471253726661205,4.0610488307058805,-2.100302219390869,1.2783803939819336,0.2093001157045364
1783203538727880200,3.058880126953125,-0.4847325318749994,1.1214639898136258,2.80519244479835,-2.1772916316986084,1.316143274307251,0.1719454377889633
1783203538737817300,3.0688173828125,-0.3927374081362038,1.3315430566631257,1.478528246217966,-2.24685287475586,1.3127402067184448,0.1011245176196098
1783203538747754200,3.078754150390625,-0.2911407086417079,1.531296544331312,0.1359054310053586,-2.33551025390625,1.2958358526229858,0.0207536984235048
1783203538757692400,3.0886923828125,-0.230136570167914,1.6269195031784474,-1.1565092919707298,-2.4160866737365723,1.1966661214828491,-0.0560707747936248
1783203538767629300,3.09862939453125,-0.1634632269512861,1.5817485283263026,-2.690907309448719,-2.452775239944458,0.9832540154457092,-0.1062302589416503
1783203538777566500,3.10856640625,-0.0666840838063508,1.3612617569699883,-4.340580057835579,-2.4191761016845703,0.6817149519920349,-0.1203553974628448
1783203538787504400,3.11850439453125,0.0375287895359098,1.010963633699715,-5.804167340031266,-2.31362533569336,0.3054033815860748,-0.0908780544996261
1783203538797441300,3.128441162109375,0.1990378867447376,0.5202158601231873,-6.987542427095771,-2.1132731437683105,-0.0781040713191032,0.0018619981128722
1783203538807379200,3.138379150390625,0.5312410389412194,-0.0295119987536221,-7.917392834946512,-1.8038289546966555,-0.426622062921524,0.1170719340443611
1783203538817316400,3.14831640625,0.6941281465049832,-0.4489285933703184,-8.507251994007826,-1.3756622076034546,-0.67950040102005,0.1937035918235778
1783203538827253200,3.158253173828125,0.6395594479061663,-0.6668696257665753,-8.780797716987133,-0.8572717905044556,-0.8121919631958008,0.2299719899892807
1783203538837191400,3.16819140625,0.653504313563183,-0.7083209955736994,-8.739386679190396,-0.2793285250663757,-0.858198881149292,0.2471570968627929
1783203538847128300,3.17812841796875,0.7207961540043354,-0.7640795615442096,-8.556912973755598,0.3291952610015869,-0.8621018528938293,0.2512229681015014
1783203538857066500,3.18806640625,0.6858820039462298,-0.8059281870406121,-8.182870986804366,0.9390006065368652,-0.8050247430801392,0.26309534907341
1783203538867003400,3.19800341796875,0.6610164427589624,-0.8289828994136303,-7.490660291293263,1.5062298774719238,-0.7341734766960144,0.3109689652919769
1783203538876940300,3.207940185546875,0.8354477115135639,-0.847014888253808,-6.643373015838861,1.9890002012252808,-0.6296193599700928,0.3851028382778168
1783203538886878200,3.217878173828125,1.1683181685123591,-0.7798769962653517,-5.694297683036327,2.3968567848205566,-0.5720314979553223,0.4828914999961853
1783203538896815400,3.2278154296875,1.5620637307778,-0.7095937919884919,-4.912639356312155,2.728144645690918,-0.582060694694519,0.5926762819290161
1783203538906752300,3.237752197265625,1.8345934085823596,-0.6016584640569984,-4.207163521036505,2.9877545833587646,-0.6001756191253662,0.6881838440895081
1783203538916690400,3.2476904296875,1.864627458448708,-0.3447413659259676,-3.297697729566693,3.1870131492614746,-0.576806902885437,0.7563163042068481
1783203538926627300,3.25762744140625,1.7152365229263902,-0.0488917489409446,-2.297939088231325,3.34789776802063,-0.5363227725028992,0.792313277721405
1783203538936565500,3.2675654296875,1.463589620283246,0.3126335785254835,-1.3446464299947023,3.451127052307129,-0.4626658856868744,0.8066847324371338
1783203538946502100,3.277502197265625,1.1844253267697988,0.7237590954631566,-0.4303717769384383,3.503216505050659,-0.397253006696701,0.8070003986358643
1783203538956439300,3.287439208984375,0.9344878583930432,1.061656002321839,0.452732077306509,3.470583438873291,-0.3328862488269806,0.8019638061523438
1783203538966377200,3.297377197265625,0.6997616954125464,1.369269999119639,1.3602671929746866,3.3552091121673584,-0.2762949466705322,0.7808212637901306
1783203538976314400,3.307314453125,0.4607600470699369,1.6515943640992043,2.30990366679132,3.139245748519897,-0.2328340262174606,0.7545155882835388
1783203538986251300,3.317251220703125,0.2396203647628426,1.8670155226290224,3.2321792554736137,2.824094533920288,-0.2429393529891967,0.7368965744972229
1783203538996189400,3.327189453125,0.0920163126572966,1.9684277324020865,3.97723715955317,2.416938543319702,-0.3328000009059906,0.7140207886695862
1783203539006126300,3.337126220703125,-0.0253211960002779,2.07663822401315,4.621929148042201,1.9063916206359863,-0.4722835719585418,0.6829882860183716
1783203539016064500,3.347064453125,-0.2279904249846935,2.1898808645725247,5.340861846262216,1.3282794952392578,-0.6155714988708496,0.6274035573005676
1783203539026001200,3.357001220703125,-0.4462934225611388,2.2760636487707493,6.083749420565367,0.7039967775344849,-0.7342680096626282,0.5563227534294128
1783203539035938300,3.366938232421875,-0.6179802149131893,2.3335993074163794,6.738495185557007,0.0972327589988708,-0.7946892976760864,0.4842778146266937
1783203539045876200,3.376876220703125,-0.7324078274734318,2.3860174769178037,7.269086163091659,-0.4608433842658996,-0.7507616281509399,0.4199066162109375
1783203539055813400,3.3868134765625,-0.7277781218461692,2.4075462948977946,7.731752774435281,-0.9578102827072144,-0.5812035202980042,0.3457426130771637
1783203539065751300,3.396751220703125,-0.80781348933056,2.3741437915116546,8.128949427002668,-1.377684235572815,-0.2787487804889679,0.2616409361362457
1783203539075688400,3.4066884765625,-0.9595489421524108,2.3555779149904845,8.304369706794619,-1.7384974956512451,0.0822006091475486,0.1641516387462616
1783203539085625300,3.416625244140625,-1.028004200349748,2.31717745718658,8.186330187347531,-2.064375162124634,0.4474295079708099,0.0559033192694187
1783203539095563500,3.4265634765625,-1.004146208769828,2.305237428545952,7.853515698319673,-2.312281847000122,0.6831520199775696,-0.0171772837638854
1783203539105500200,3.436500244140625,-0.8443873162291944,2.115188903942704,7.020038921552896,-2.516183853149414,0.8237206935882568,-0.0725792571902275
1783203539115438300,3.446438232421875,-0.6478187422074377,1.8429291291207075,6.135411803263425,-2.6836631298065186,0.9175071120262146,-0.1259479373693466
1783203539125375200,3.456375244140625,-0.4954613580949604,1.6233876757904886,5.419075551277399,-2.805224895477295,0.9887136816978456,-0.1633832305669784
1783203539135312400,3.4663125,-0.3503013381406664,1.4072694749072194,4.656069318053126,-2.833099842071533,1.072039246559143,-0.1740193665027618
1783203539145250300,3.476250244140625,-0.1552440454646945,1.1543109051436184,3.500428041088581,-2.7571842670440674,1.0614913702011108,-0.2071403563022613
1783203539155187500,3.4861875,0.0588454991351813,1.0663011977791783,2.008811180716753,-2.606210470199585,1.0138734579086304,-0.2483098953962326
1783203539165124400,3.496124267578125,0.2601774151012301,0.9806211024060844,0.6548007100492715,-2.4314091205596924,1.0343976020812988,-0.271280825138092
1783203539175062500,3.5060625,0.3167878486607223,0.6237877321481704,-0.1962327661961317,-2.254277467727661,1.192271709442139,-0.2601125836372375
1783203539184999200,3.515999267578125,0.3134257883490994,0.2123873437918722,-0.8213760046064853,-2.07314133644104,1.3870508670806885,-0.239187866449356
1783203539194937300,3.525937255859375,0.3404840738076716,0.0315991072259843,-1.634815955516696,-1.909919500350952,1.563936471939087,-0.2394589632749557
1783203539204874200,3.535874267578125,0.3156329064719378,0.0293973593980073,-2.6582109085053203,-1.7675095796585083,1.6689165830612185,-0.273637980222702
1783203539214811400,3.545811279296875,0.2211542953543364,0.1592380835369229,-3.8335657707214352,-1.6144740581512451,1.643174171447754,-0.2980448007583618
1783203539224749300,3.555749267578125,0.2038214677594602,0.2136423853542655,-5.207555199578404,-1.4792288541793823,1.4510324001312256,-0.3158926367759704
1783203539234686500,3.5656865234375,0.2216648752249777,0.1258245473001152,-6.524041118493676,-1.3911879062652588,1.1146661043167114,-0.3129626512527466
1783203539244624400,3.575624267578125,0.3864247178580611,0.100619744221121,-7.483153276664018,-1.3284070491790771,0.7272377014160156,-0.263819009065628
1783203539254561500,3.5855615234375,0.7509950390435755,-0.1127824757017195,-8.130017348495125,-1.2612344026565552,0.2309749275445938,-0.1430203914642334
1783203539264498200,3.595498291015625,1.1826350823521614,-0.5901062656901777,-8.705556305781005,-1.1315054893493652,-0.2888906300067901,0.0303554311394691
1783203539274436400,3.605436279296875,1.4533547881253064,-0.8648330882128328,-9.0788126953125,-0.8419309854507446,-0.7404703497886658,0.1959974020719528
1783203539284373200,3.615373291015625,1.5987196830019357,-0.853593535991758,-9.2165804130584,-0.3619322180747986,-1.071496605873108,0.279103010892868
1783203539294312400,3.6253125,1.3755866349205377,-0.5035576438542455,-8.966635930418967,0.239829808473587,-1.196993708610535,0.2172582894563675
1783203539304249600,3.63524951171875,0.8043803730767219,-0.0736059920240193,-7.975904645147919,0.8707439303398132,-1.1181083917617798,0.0784726291894912
1783203539314186500,3.6451865234375,0.3596354220665991,0.0969211819641292,-6.56870151347518,1.475378155708313,-0.8837915658950806,-0.0320208594202995
1783203539324124700,3.655124755859375,0.2274647936753928,-0.1205252718482166,-5.0921016049712895,2.0319957733154297,-0.5530755519866943,-0.0549812614917755
1783203539334061600,3.6650615234375,0.3150309950560331,-0.4856351798031479,-3.737279817920923,2.502726554870605,-0.2431717216968536,0.0102352919057011
1783203539343998700,3.674998779296875,0.6041692778341472,-0.6567392768964171,-2.627155260506272,2.8700191974639893,0.0017451853491365,0.1242189779877662
1783203539353936600,3.6849365234375,0.9238773978557436,-0.6131131933987141,-1.791569528761506,3.13040828704834,0.137513667345047,0.2844797670841217
1783203539363873500,3.69487353515625,1.2432698760569094,-0.4220113603502511,-1.1623802298307415,3.280820369720459,0.1303223669528961,0.4642475843429565
1783203539373811500,3.7048115234375,1.5245076148435472,-0.2104740575164556,-0.7203238603174686,3.294987678527832,-0.0060008498840034,0.613132894039154
1783203539383748600,3.71474853515625,1.5966116048067809,0.15121464381814,-0.1762128914743661,3.1837990283966064,-0.1953235417604446,0.7009809017181396
1783203539393685500,3.724685546875,1.31817664848119,0.5563935273110866,0.5218365931928157,2.982844829559326,-0.3505426943302154,0.7245439887046814
1783203539403623700,3.734623779296875,0.8560885676778852,0.9067126933693884,1.326228145250678,2.743119478225708,-0.3949514031410217,0.7224964499473572
1783203539413560600,3.744560546875,0.4097546669758856,1.1993752047508954,2.1600977207273244,2.4870169162750244,-0.3396929502487182,0.6967918872833252
1783203539423498800,3.754498779296875,-0.0018653554804623,1.4910504586607216,2.947653288796544,2.221334457397461,-0.2271275222301483,0.6391451358795166
1783203539433435600,3.764435546875,-0.339765769470483,1.8583154988229276,3.5100966176658868,1.96122407913208,-0.0881384760141372,0.565879225730896
1783203539443372500,3.77437255859375,-0.6095360655643045,2.1604051792412995,3.8720162051469087,1.693606972694397,0.0388500764966011,0.4780745804309845
1783203539453310500,3.784310546875,-0.8709107276260852,2.344337851312756,4.107784278395772,1.3982951641082764,0.1141839772462844,0.4009648859500885
1783203539463247600,3.79424755859375,-1.0788143501326442,2.417732173347473,4.345647278097272,1.0372577905654907,0.1459649354219436,0.348268061876297
1783203539473185500,3.804185546875,-1.1859997364796695,2.4512644405931234,4.7110061923772095,0.5991834402084351,0.1471833288669586,0.2928679287433624
1783203539483122700,3.814122802734375,-1.3283496674492954,2.493222590878606,5.14683915733099,0.1132143959403038,0.1272790282964706,0.2254465967416763
1783203539493059600,3.8240595703125,-1.5230026171080768,2.600753283531964,5.490721568340063,-0.3997700810432434,0.0772478282451629,0.1441679894924163
1783203539502997800,3.833997802734375,-1.6625386597007512,2.7282661492452025,5.694989172431827,-0.9253312945365906,0.0068171303719282,0.0483285821974277
1783203539512934700,3.8439345703125,-1.7792862396411595,2.8022283342957497,5.806526470378041,-1.449933409690857,-0.0669327229261398,-0.0617089718580246
1783203539522872600,3.85387255859375,-1.8394627681843936,2.82447757550478,5.8736816057622425,-1.9522294998168943,-0.101867951452732,-0.1637171953916549
1783203539532809500,3.8638095703125,-1.7477669196531176,2.830296198655665,5.958144434300065,-2.4144175052642822,-0.0919250398874282,-0.2389126121997833
1783203539542746600,3.87374658203125,-1.602206356073916,2.71335937975347,5.896455163106322,-2.8228626251220703,-0.0700991973280906,-0.2926823198795318
1783203539552684500,3.8836845703125,-1.44933795369938,2.5126491758823395,5.547208594715595,-3.167388439178467,-0.0179110970348119,-0.3437207341194153
1783203539562621700,3.89362158203125,-1.4185757356889546,2.3411656510174272,4.848406830376386,-3.4376819133758545,-0.0045104487799108,-0.4318996071815491
1783203539572559600,3.9035595703125,-1.459299083482474,2.352762857569754,3.7170372403591863,-3.615328788757324,-0.0347953811287879,-0.5619081854820251
1783203539582496800,3.913496826171875,-1.4181401207506656,2.387831686732918,2.3948703531980517,-3.692808151245117,-0.0536670573055744,-0.6945972442626953
1783203539592433700,3.92343359375,-1.3550374756276606,2.2900850137300788,1.1204273402422666,-3.6902613639831534,-0.0656507462263107,-0.8357519507408142
1783203539602371600,3.93337158203125,-1.2123290866091847,2.1108419607795774,-0.1151245087832212,-3.632167339324951,-0.0562341026961803,-0.951369285583496
1783203539612308500,3.94330859375,-0.8874068121358751,1.896694913838804,-1.1432499974250794,-3.503735065460205,-0.0376569554209709,-1.0100986957550049
1783203539622246400,3.953246337890625,-0.4455430425852537,1.5043310882553458,-2.1614900518685576,-3.3420801162719727,-0.0205995757132768,-1.020455241203308
1783203539632183600,3.96318359375,-0.006904774419777,1.051992028854415,-3.053627107396722,-3.1773934364318848,0.0004748166538774,-1.0172759294509888
1783203539642120700,3.97312060546875,0.3101738008158281,0.7155893060762435,-3.763976101666689,-2.9707350730896,-0.0052889315411448,-1.008146047592163
1783203539652058600,3.98305859375,0.572202141013369,0.400890209855698,-4.5780555195242165,-2.67423415184021,-0.0483921952545642,-0.9596260190010072
1783203539661995800,3.992995849609375,0.8251768581941723,0.0014633505508303,-5.465177961760759,-2.319094181060791,-0.1220053657889366,-0.8911768794059753
1783203539671933700,4.00293359375,1.109061750488728,-0.3778467495290562,-6.164562494423985,-1.8955241441726685,-0.2124465703964233,-0.801101565361023
1783203539681870300,4.012870361328125,1.3533648662403226,-0.6615377632193267,-6.584823796236515,-1.4126662015914917,-0.2262646108865738,-0.6973444223403931
1783203539691807500,4.022807373046875,1.533489670461416,-0.9928321300078184,-6.67940762129426,-0.8987696170806885,-0.2097319662570953,-0.5533960461616516
1783203539701745400,4.032745361328125,1.77825981920287,-1.456414614087343,-6.67263651972413,-0.3851306140422821,-0.2329108566045761,-0.3900814652442932
1783203539711682600,4.0426826171875,1.9262088853538035,-1.9437778597921127,-6.605697072917223,0.0909861326217651,-0.2482405453920364,-0.2272954434156417
1783203539721620500,4.052620361328125,1.815590309687704,-2.2255767395928503,-6.188382930472493,0.5027197599411011,-0.2407509535551071,-0.0999295562505722
1783203539731557600,4.0625576171875,1.623162488732487,-2.246963518753648,-5.447524816170335,0.8527888059616089,-0.1995470523834228,0.0058706449344754
1783203539741494500,4.07249462890625,1.4738409651845692,-2.1828099032729864,-4.639197093707323,1.1353700160980225,-0.2158310860395431,0.1028083264827728
1783203539751432700,4.0824326171875,1.507235431394726,-2.206965708755701,-4.031033047148585,1.3286948204040527,-0.3185209631919861,0.1800011247396469
1783203539761369300,4.092369384765625,1.668508235629648,-2.2494567968741057,-3.467926285934448,1.4530175924301147,-0.4337553977966308,0.2458611130714416
1783203539771307500,4.1023076171875,1.839128129402548,-2.240809672299027,-2.7343776178628203,1.5479395389556885,-0.5184715986251831,0.3067492246627807
1783203539781244400,4.112244384765625,1.997165751108527,-2.3142928416609765,-2.019432527974248,1.639370679855347,-0.5575823783874512,0.3910658955574035
1783203539791181600,4.122181640625,2.191290731370449,-2.34581406134516,-1.354445939475298,1.7123743295669556,-0.5538854002952576,0.5260937809944153
1783203539801119500,4.132119384765625,2.6227386131078005,-2.327330310149491,-0.7423223416358232,1.7578617334365845,-0.5409544110298157,0.7078673243522644
1783203539811056600,4.142056640625,3.082206136149168,-2.441525867519528,-0.1923041945755481,1.7541708946228027,-0.5083360075950623,0.9063266515731812
1783203539820994600,4.15199462890625,3.289602685916424,-2.4328715825513005,0.3128904758960008,1.714109182357788,-0.4604447484016418,1.103750228881836
1783203539830931700,4.161931640625,3.3155937440022822,-2.297586037009954,0.7526672100394963,1.6597477197647097,-0.4448447525501251,1.287545084953308
1783203539840868400,4.171868408203125,3.1844001439496874,-2.057637170945108,1.02709614559412,1.6030488014221191,-0.4396304190158844,1.4243464469909668
1783203539850806500,4.181806640625,2.800755046872794,-1.7091783919312058,1.289694358101487,1.5497629642486572,-0.3996752798557281,1.5086920261383057
1783203539860743400,4.191743408203125,2.242089775237441,-1.3129428394809364,1.6074650072544812,1.498010754585266,-0.2842898666858673,1.55308198928833
1783203539870681600,4.201681640625,1.6947276956439017,-0.8620299404256045,1.9713836595982317,1.4350298643112185,-0.110130600631237,1.5784189701080322
1783203539880618500,4.211618408203125,1.2469582091808318,-0.3276090293392539,2.27707750198841,1.335401177406311,0.0628178864717483,1.597505807876587
1783203539890555600,4.2215556640625,0.9105509563580156,0.2696608443699776,2.4366402874350546,1.1780802011489868,0.2129826247692108,1.6110860109329224
1783203539900493600,4.23149365234375,0.5970598476877436,0.8425016486130654,2.4454466942250725,0.9656802415847778,0.272791177034378,1.6002949476242063
1783203539910430700,4.2414306640625,0.2426331732453778,1.39232967992872,2.2872014211177825,0.7039746046066284,0.242721140384674,1.5537368059158323
1783203539920368600,4.25136865234375,-0.1134107636678963,2.0162464452840387,2.0229192010462285,0.4063732624053955,0.1425089687108993,1.4655439853668213
1783203539930305500,4.261305419921875,-0.5357953412447124,2.575157946765423,1.8160586578518152,0.1323313415050506,-0.0140665229409933,1.354325532913208
1783203539940242400,4.271242431640625,-1.0059152642689644,2.942273933845758,1.5535937163352966,-0.1125370487570762,-0.1655475795269012,1.2259142398834229
1783203539950180600,4.2811806640625,-1.4375931553699075,3.238656634794176,1.4126426923781632,-0.3211621642112732,-0.2604178786277771,1.0762137174606323
1783203539960117500,4.291117431640625,-1.8894173240512608,3.486901035517454,1.5167770205914974,-0.4856712818145752,-0.2805334031581878,0.8974885940551758
1783203539970055700,4.3010556640625,-2.402110095193237,3.6958155886322257,1.700309295168519,-0.6059014797210693,-0.1893065422773361,0.6816266179084778
1783203539979992600,4.31099267578125,-2.9048166021108623,3.852961083804071,1.8926146587878463,-0.6669517159461975,-0.0282596480101346,0.4482405185699463
1783203539989929700,4.3209296875,-3.3056519034415484,3.941808411036432,1.9250228904396292,-0.6852010488510132,0.1568793207406997,0.2246777266263961
1783203539999867600,4.33086767578125,-3.504715216888487,3.969335008126497,1.8107699037939309,-0.7048017978668213,0.3219714760780334,0.0183416604995727
1783203540009804500,4.340804443359375,-3.410702469716966,3.910819690793753,1.584986633464694,-0.7564431428909302,0.3922855854034424,-0.1527158468961715
1783203540019742500,4.350742431640625,-3.0823019977390764,3.71672422888726,1.1576672298341988,-0.8550470471382141,0.3266832530498504,-0.2901500761508941
1783203540029679600,4.3606796875,-2.64741303563714,3.4824639298528437,0.6539414628714323,-1.0068525075912476,0.1923699229955673,-0.3986832201480865
1783203540039617500,4.370617431640625,-2.158730377896875,3.0193875686645506,0.2181172657459974,-1.1700799465179443,-0.0218123905360698,-0.460524708032608
1783203540049554700,4.3805546875,-1.818056553670764,2.4337255690321324,-0.2858955014646053,-1.3510315418243408,-0.2359528988599777,-0.5364741086959839
1783203540059491600,4.39049169921875,-1.6270082043752074,2.0736976405166088,-0.663589581182599,-1.493403673171997,-0.4295807182788849,-0.6339205503463745
1783203540069429800,4.4004296875,-1.439456465023756,1.691257535315305,-1.0799556291222572,-1.5511785745620728,-0.6123012900352478,-0.7278960347175598
1783203540079366700,4.41036669921875,-1.056520027672872,1.1560391171757132,-1.6893927643567324,-1.5290870666503906,-0.7600134611129761,-0.7771508097648621
1783203540089304600,4.4203046875,-0.3182647893454879,0.4287315719833597,-2.254571655669808,-1.446736216545105,-0.8664858341217041,-0.7676947116851807
1783203540099241500,4.430241455078125,0.7208821517873555,-0.5446159226905555,-2.735616804268956,-1.281578540802002,-0.945134162902832,-0.6562490463256836
1783203540109178600,4.4401787109375,1.8876548444233836,-1.689075515101105,-3.2443542619138954,-1.0247734785079956,-0.9742236137390136,-0.4350074827671051
1783203540119116500,4.450116455078125,3.0345687711834906,-2.684548588071763,-3.680332772818208,-0.6785352230072021,-1.000069499015808,-0.1236890628933906
1783203540129053700,4.4600537109375,3.9269761680856345,-3.530005140967667,-4.070899778112769,-0.2855411171913147,-0.9654741287231444,0.206592172384262
1783203540138991600,4.46999169921875,4.302385059475898,-3.8960342095941294,-4.025357924121618,0.1156654357910156,-0.8341428637504578,0.4927009344100952
1783203540148928800,4.4799287109375,4.014203492900729,-3.763534203118086,-3.632713528031111,0.4910521209239959,-0.6403380036354065,0.6901849508285522
1783203540158865700,4.48986572265625,3.334977366647124,-3.446254260091484,-3.16901815816164,0.8308048248291016,-0.4278837442398071,0.8085757493972778
1783203540168803600,4.499803466796875,2.579318573576212,-2.966133532860875,-2.6802006219953296,1.1029458045959473,-0.2324870973825454,0.8770789504051208
1783203540178740500,4.509740478515625,1.9972920078366996,-2.4333738329850134,-2.1814812850177288,1.3070268630981443,-0.0909811481833458,0.9233574867248536
1783203540188678400,4.519678466796875,1.5979050056181847,-1.9010665530517696,-1.7526047150731086,1.4501429796218872,-0.0061874324455857,0.9903761744499208
1783203540198615600,4.529615478515625,1.376706286600232,-1.3024863273963332,-1.3742898731082678,1.5459851026535034,-0.0274676866829395,1.0593459606170654
1783203540208552700,4.539552734375,1.0747907937049863,-0.6391541550409049,-1.1101292335897683,1.5747262239456177,-0.0941303372383117,1.0801318883895874
1783203540218490600,4.54949072265625,0.4961746209308504,0.0033275369875133,-0.617592969161272,1.5412070751190186,-0.130499392747879,1.0632692575454712
1783203540228427800,4.559427734375,-0.0959099590949714,0.738335683152452,0.0571153874069452,1.479169845581055,-0.1547091156244278,1.032034397125244
1783203540238365700,4.56936572265625,-0.5360368218503893,1.570883581571281,0.686115301245451,1.3944697380065918,-0.1461344063282013,0.9765279293060304
1783203540248302300,4.57930224609375,-1.054421959415078,2.5014561662167307,1.3432114287555217,1.2771135568618774,-0.0780456364154815,0.8907184600830078
1783203540258239500,4.589239501953125,-1.683303069179505,3.3769787715524435,2.124779154586792,1.1329022645950315,0.0363371074199676,0.7722893357276917
1783203540268177400,4.599177490234375,-2.3452792238160964,4.179847644087672,2.943042580130696,0.9368361234664916,0.1804263591766357,0.5802051424980164
1783203540278114600,4.609114501953125,-3.223469002534449,4.980481304916739,3.8037089771181343,0.6726919412612915,0.3963499367237091,0.2916512489318847
1783203540288052500,4.619052490234375,-4.2139322845190765,5.627340116050839,4.7936061496526,0.3300869166851043,0.6591495871543884,-0.0850835219025611
1783203540297988900,4.62898876953125,-5.026261059316992,5.9964575060814616,5.68106878362894,-0.0702539160847663,0.8963598608970642,-0.5230382680892944
1783203540307926800,4.6389267578125,-5.507311468613147,6.058645958968997,6.22205197584033,-0.49552983045578,1.0808398723602295,-0.9996444582939148
1783203540317864000,4.648864013671875,-5.570640323707461,5.940825635230541,6.379407606631517,-0.9172300696372986,1.2042275667190552,-1.5047019720077517
1783203540327800800,4.65880078125,-5.288163690775632,5.829678797906637,6.255129485055804,-1.313767910003662,1.3463850021362305,-1.9914755821228027
1783203540337738800,4.66873876953125,-4.778494505238533,5.516368050771951,5.956228371545672,-1.6648743152618408,1.5270262956619265,-2.417731046676636
1783203540347676000,4.678676025390625,-4.048146971295774,5.027306768977642,5.534877520930767,-1.9559508562088013,1.7332122325897217,-2.7387819290161133
1783203540357613800,4.68861376953125,-2.8270293058142064,4.456779502373934,4.7956864630579945,-2.176382541656494,1.9226949214935305,-2.9238758087158203
1783203540367551000,4.698551025390625,-1.3433992064125837,3.703328156219423,3.827173439335823,-2.3339014053344727,2.069364309310913,-2.979151725769043
1783203540377488000,4.70848779296875,0.2242158200831152,2.892768144659698,2.6929338468402624,-2.3956637382507324,2.1826624870300293,-2.885758638381958
1783203540387425800,4.71842578125,1.9522602953247723,1.86699243401438,1.0934580847740172,-2.30938720703125,1.9962910413742063,-2.539020538330078
1783203540397362700,4.72836279296875,3.80884692452848,0.1266862421633675,-1.5053940413117408,-2.1742000579833984,1.374813437461853,-1.9658435583114624
1783203540407300600,4.738300537109375,5.435301294413208,-1.8669747522272169,-4.130457882496715,-2.152874231338501,0.5720493793487549,-1.3261687755584717
1783203540417237800,4.74823779296875,6.076648064127564,-3.2249823297068474,-5.379080810019373,-2.254858493804932,-0.0764143615961074,-0.7957828044891357
1783203540427175000,4.7581748046875,5.687677972635626,-3.5798522909373043,-5.586431767079234,-2.321375846862793,-0.4828979671001434,-0.4571411311626434
1783203540437112800,4.76811279296875,4.811880057489872,-3.4509868415713307,-5.720671895220876,-2.158819913864136,-0.6570619344711304,-0.2379938960075378
1783203540447050000,4.778050048828125,3.909199396115541,-3.265369869674742,-6.226683727294207,-1.7182844877243042,-0.6531012654304504,-0.1058715432882309
1783203540456988000,4.78798779296875,3.059211921791732,-3.0742355956614014,-7.064162725439667,-1.0480949878692627,-0.5743395090103149,-0.052274290472269
1783203540466924800,4.7979248046875,2.3796561251923443,-3.0061048932433128,-7.913653063896298,-0.2286406010389328,-0.3552101552486419,0.020746387541294
1783203540476863000,4.807863037109375,2.1653414665997026,-2.96729906950891,-8.470313133189082,0.6512078642845154,-0.162604808807373,0.111368678510189
1783203540486799600,4.817799560546875,2.210629638090729,-2.8231059948906303,-8.622785668113828,1.4720865488052368,0.0190933607518672,0.1774467676877975
1783203540496736800,4.82773681640625,2.0738049002833665,-2.452247606411576,-8.167262498784066,2.158709049224853,0.2366913259029388,0.2411198019981384
1783203540506674700,4.8376748046875,1.8324995050430295,-2.036920253869891,-7.1528867185533045,2.6990180015563965,0.4607044458389282,0.3180457353591919
1783203540516611800,4.84761181640625,1.7162481841869652,-1.58806209538728,-6.058783321613073,3.1230390071868896,0.5943378210067749,0.428025871515274
1783203540526549800,4.8575498046875,1.6712841300837695,-1.2477126808099448,-5.279621487879753,3.444694757461548,0.5619484782218933,0.6200674772262573
1783203540536487000,4.86748681640625,1.7742616894774137,-1.1749392671525478,-4.989826640889048,3.6357922554016113,0.3071118295192718,0.8740963935852051
1783203540546423800,4.877423828125,1.996026517945528,-0.9472373767856508,-4.752599016481637,3.66819167137146,0.061059720814228,1.085175395011902
1783203540556362000,4.887362060546875,1.8057805710740389,-0.1599832028158009,-3.9501767186701295,3.630257368087769,-0.142005980014801,1.1734672784805298
1783203540566298600,4.897298583984375,1.2174686414547264,0.7600828931234777,-3.160086663687229,3.587202310562134,-0.3187524974346161,1.1656208038330078
1783203540576236800,4.90723681640625,0.6320312443584203,1.710639258264005,-2.488219083502889,3.5406620502471924,-0.4552900791168213,1.0713871717453003
1783203540586173700,4.917173583984375,0.0630545681975781,2.5880375943437217,-1.742178598126769,3.4799184799194336,-0.5556238889694214,0.913838505744934
1783203540596110800,4.92711083984375,-0.4503294000789523,3.3017578186124563,-0.9379203170597552,3.419644594192505,-0.6289450526237488,0.7408445477485657
1783203540606048800,4.937048828125,-0.8012652367308736,3.843181740328669,-0.1258124915361404,3.358412504196167,-0.6403724551200867,0.5713873505592346
1783203540615986000,4.94698583984375,-1.0574385307572782,4.194040127830207,0.7062626017391681,3.2935214042663574,-0.6137927174568176,0.4040451049804687
1783203540625923800,4.956923828125,-1.2993584046341478,4.453737065938115,1.526820860221982,3.20139741897583,-0.6181253790855408,0.2534028887748718
1783203540635861000,4.966861083984375,-1.582888492141664,4.611817503872514,2.3417326372504235,2.995203733444214,-0.6715222597122192,0.1171410456299781
1783203540645799000,4.976798828125,-1.8194582371622323,4.751171321766078,3.372598364511132,2.631864309310913,-0.7657116055488586,-0.0126925846561789
1783203540655735800,4.98673583984375,-2.0432026951402427,4.75930932777524,4.56956417003274,2.111898183822632,-0.8498134613037109,-0.13834248483181
1783203540665672700,4.996672607421875,-2.151466962765157,4.627646941167116,5.823695631843805,1.48989737033844,-0.8972110748291016,-0.2613200545310974
1783203540675611000,5.00661083984375,-2.2099534923948347,4.377012430436909,6.973894425493478,0.8489161729812622,-0.8826329708099365,-0.3549141585826874
1783203540685547800,5.0165478515625,-2.196343192454427,4.090390952785313,7.871682638651132,0.2169917225837707,-0.748775064945221,-0.430488258600235
1783203540695486000,5.02648583984375,-2.183304701052606,3.7755671707391736,8.586906545481085,-0.3631225228309631,-0.5231050252914429,-0.5122777223587036
1783203540705422800,5.0364228515625,-2.278700134754181,3.552038401338458,9.03697787914574,-0.8956322073936462,-0.239024817943573,-0.6191415786743164
1783203540715360000,5.046360107421875,-2.291118886822462,3.434457439313829,9.201046743839978,-1.3600236177444458,0.0607235357165336,-0.7297139763832092
1783203540725298000,5.0562978515625,-2.154726695213467,3.280054520848393,9.071358872175216,-1.77642560005188,0.4046763777732849,-0.8398184180259705
1783203540735234800,5.06623486328125,-1.97787170644328,3.1084707504794,8.919787670004368,-2.1584315299987797,0.7802718877792358,-0.9874149560928344
1783203540745172700,5.0761728515625,-1.8543319821447133,3.0084517486304043,8.775109734478592,-2.537662982940674,1.195106029510498,-1.1793380975723269
1783203540755110000,5.08610986328125,-1.657186485017836,2.865144516935944,8.539212481892108,-2.9301483631134038,1.6268436908721924,-1.384535551071167
1783203540765047800,5.0960478515625,-1.2285517610050738,2.7285648399308324,8.113269627311825,-3.30340313911438,1.970953345298767,-1.5553699731826782
1783203540774985000,5.10598486328125,-0.5186976375799626,2.399121288640797,6.936027343913913,-3.603198289871216,2.150122165679932,-1.6269135475158691
1783203540784921900,5.115921875,0.5137883112937212,1.7330413519471883,4.723875026300549,-3.800295114517212,2.072898626327514,-1.5504422187805176
1783203540794859800,5.12585986328125,1.9137648527137932,0.7216038171254098,1.7849048101752996,-3.897366523742676,1.730124592781067,-1.2805979251861572
1783203540804797000,5.135796875,3.5274081102117893,-0.5997286650381982,-1.4910843609303237,-3.8998053073883057,1.1945163011550903,-0.865537703037262
1783203540814734800,5.14573486328125,4.707512505042553,-1.8923874259032307,-4.411660257709026,-3.824006319046021,0.6990737915039062,-0.3994219601154327
1783203540824671700,5.155671630859375,5.198749377310276,-2.603415488478541,-6.499927836978436,-3.654421806335449,0.315086156129837,-0.0147949196398258
1783203540834609700,5.165609619140625,4.850441551074385,-2.628461082407832,-7.978470696243643,-3.338569164276123,0.0337725207209587,0.246035486459732
1783203540844546800,5.175546875,3.8994431412547823,-2.2435531257882717,-9.180467481669783,-2.882870674133301,-0.1287897527217865,0.3631482422351837
1783203540854484000,5.18548388671875,2.81550516449809,-1.661135661035031,-10.21008934634924,-2.296711206436157,-0.2317023873329162,0.3569284677505493
1783203540864422000,5.195421875,1.724648348263651,-1.3110318912930785,-11.183481958806514,-1.5899784564971924,-0.3666276931762695,0.3164297938346863
1783203540874358800,5.20535888671875,1.1958482727337627,-1.180117108181864,-12.17125380975008,-0.8570727109909058,-0.5003347992897034,0.2903919219970703
1783203540884297000,5.215296875,1.3427584242910149,-0.8934411238640546,-12.585014643627405,-0.2116575241088867,-0.5446074604988098,0.2949035763740539
1783203540894233900,5.22523388671875,1.956301533539593,-0.3892353182993829,-12.119729374217986,0.3105044662952423,-0.5091761350631714,0.3782053887844085
1783203540904170800,5.235170654296875,2.7612971889704463,-0.0536566252551972,-11.48416469503641,0.7402481436729431,-0.524959921836853,0.5838608741760254
1783203540914108700,5.245108642578125,3.6451395866230127,0.2048957459274679,-11.235210976999998,1.0606948137283323,-0.6694957613945007,0.8651378750801086
1783203540924045800,5.2550458984375,4.099004467351734,0.7797121610924601,-11.10543776513934,1.3398576974868774,-0.95983624458313,1.0365830659866333
1783203540933983700,5.264983642578125,3.2346681496798992,1.3445046834364534,-11.040933436524869,1.5984487533569336,-1.3586632013320925,1.0295255184173584
1783203540943921000,5.2749208984375,1.8772618990942835,1.7797618943288922,-10.74920557564497,1.8662817478179927,-1.7960381507873535,0.8554120659828186
1783203540953857800,5.28485791015625,0.551158695397526,2.153198316602409,-10.096217467975617,2.200522899627685,-2.1753854751586914,0.5686952471733093
1783203540963796000,5.2947958984375,-0.5328185539236292,2.261880078987032,-9.13482099826038,2.5886266231536865,-2.3531110286712646,0.2605746686458587
1783203540973732600,5.304732666015625,-0.9807043967753648,2.260701828987896,-7.716993596720695,3.010798931121826,-2.367816686630249,-0.0099318111315369
1783203540983670800,5.3146708984375,-0.8330180001486093,2.260245317392051,-6.10373539301753,3.451793670654297,-2.173368215560913,-0.1745332777500152
1783203540993607700,5.324607666015625,0.0004358706666156,2.4107772396430374,-4.391960700982809,3.862400770187378,-1.8115092515945437,-0.2077772468328476
1783203541003545900,5.3345458984375,1.098703730342537,2.774436656528711,-2.6709114001244303,4.203664779663086,-1.3738940954208374,-0.1188875883817672
1783203541013482800,5.344482666015625,2.0498232823237776,2.970342967249453,-1.3411550807476045,4.509877681732178,-1.0316342115402222,0.0899557396769523
1783203541023420000,5.354419921875,2.6344395722955465,2.658506092059612,-0.8673597571462393,4.779707908630371,-0.8658953309059143,0.3652642667293548
1783203541033357800,5.36435791015625,2.821164505434036,2.559812493595481,-0.8640618846446275,4.975212097167969,-0.7925477623939514,0.5878852009773254
1783203541043295000,5.374294921875,2.429066198918968,2.9367291592001914,-0.4560656056433916,5.143372535705566,-0.7644527554512024,0.7115211486816406
1783203541053233000,5.38423291015625,2.058639479855448,3.7115269525051113,-0.0010597381860017,5.330650329589844,-0.7605317831039429,0.7342008948326111
1783203541063169800,5.394169677734375,1.710823967181146,4.618221817956864,0.6114788701951503,5.505585670471191,-0.7537857294082642,0.6816303133964539
1783203541073107700,5.404107666015625,1.2162019825197756,5.3637867947757245,1.4372159926205872,5.558936595916748,-0.7153528928756714,0.579731822013855
1783203541083044900,5.414044921875,0.7018702119991183,5.909665357813239,2.720545491865277,5.425108432769775,-0.6779802441596985,0.458244264125824
1783203541092981800,5.423981689453125,0.323976664186269,6.322477512663602,4.224899084213376,5.140624523162842,-0.6881760358810425,0.3515962362289428
1783203541102920000,5.433919921875,0.1137071893312036,6.586699526980519,5.502783762055636,4.738295078277588,-0.7454971075057983,0.2692297399044037
1783203541112856800,5.44385693359375,0.0430162810362875,6.735247581937909,6.539857111784816,4.220564842224121,-0.8461889028549194,0.2253542840480804
1783203541122794800,5.453794677734375,-0.0605836480394005,6.773676973575353,7.5639891468763345,3.565048694610596,-0.9936071634292604,0.2174345701932907
1783203541132732000,5.46373193359375,-0.1933215549245476,6.630874768793583,8.64717601300478,2.751116991043091,-1.1392942667007446,0.2418815940618515
1783203541142669800,5.473669921875,-0.3923157486580312,6.384508144640922,9.8389495105803,1.8175641298294067,-1.2599977254867554,0.2594073116779327
1783203541152606700,5.483606689453125,-0.6748381204277276,6.203375332421064,10.999603062748909,0.8604095578193665,-1.331985354423523,0.2478880882263183
1783203541162543900,5.4935439453125,-0.944012642585486,6.0905281209200615,11.84558626986742,-0.0720118805766105,-1.4140030145645142,0.2132108062505722
1783203541172481800,5.503481689453125,-1.305472357469797,6.02633826508224,12.227644974535703,-0.8215190768241882,-1.3434535264968872,0.1333758234977722
1783203541182419000,5.5134189453125,-1.5513500290617346,5.984092530027032,12.305062560737133,-1.442009210586548,-1.0219687223434448,0.0243167113512754
1783203541192356900,5.52335693359375,-1.6439049786403774,6.019563656380773,12.884122677886486,-1.9265319108963013,-0.6367363929748535,-0.0875889211893081
1783203541202293800,5.533293701171875,-2.0236657816298305,5.789487657293677,12.611363721370696,-2.273066997528076,-0.1863172799348831,-0.2086269408464431
1783203541212231000,5.54323095703125,-2.08797254184559,5.64016920248568,12.108480834972855,-2.4589500427246094,0.2039540261030197,-0.3377411961555481
1783203541222168800,5.5531689453125,-1.9841472795814277,5.3831186872333285,11.25973050122857,-2.558512687683105,0.4770289659500122,-0.5181711912155151
1783203541232105700,5.563105712890625,-1.9644713959917424,5.2003720100760455,10.399656809437277,-2.609464645385742,0.751926064491272,-0.7594724893569946
1783203541242043600,5.573043701171875,-1.83250856513232,5.192654567566514,9.845469267737863,-2.6252641677856445,1.0859202146530151,-1.018352508544922
1783203541251980800,5.582980712890625,-1.5561059914171695,5.009380067142844,9.38543709655106,-2.623340129852295,1.4976236820220947,-1.2158029079437256
1783203541261918700,5.592918701171875,-0.8664512639991938,4.436945505613088,8.803992714613676,-2.615777015686035,1.8832597732543943,-1.353271722793579
1783203541271855900,5.60285595703125,0.0629250965990126,3.6506203561216592,7.86829299621284,-2.658254861831665,2.0575292110443115,-1.4675475358963013
1783203541281792800,5.612792724609375,0.9968164504036306,3.1540672572672364,6.43085780788362,-2.771486520767212,2.073084592819214,-1.5844942331314087
1783203541291731000,5.62273095703125,2.1888344242595137,2.8711124854296446,4.773599718934297,-2.882236957550049,2.001962184906006,-1.6840680837631226
1783203541301667800,5.632667724609375,3.0853046866863965,2.19304195895195,2.923674447315931,-2.9753947257995605,2.0143840312957764,-1.7058104276657104
1783203541311606000,5.64260595703125,3.340070890393853,1.0593863038241862,1.281025898477435,-3.08025336265564,2.265779972076416,-1.6386997699737549
1783203541321543000,5.65254296875,3.213313811483979,-0.1836199528604745,-0.3179682175517082,-3.158487558364868,2.5368456840515137,-1.526331663131714
1783203541331481000,5.662481201171875,3.165256759801507,-1.266542322833836,-2.6094313877671955,-3.24822735786438,2.61316990852356,-1.441138505935669
1783203541341418000,5.67241796875,3.2238656006366013,-1.9602467640340329,-5.447567486268282,-3.3779892921447754,2.236610651016236,-1.3546302318572998
1783203541351355000,5.68235498046875,3.651265083765984,-2.4461378913596272,-9.083557259491084,-3.454164505004883,1.5891090631484983,-1.2551802396774292
1783203541361292800,5.692292724609375,4.001159594671428,-2.916321161943674,-12.316561275351049,-3.5502641201019287,0.8582702279090881,-1.0699838399887085
1783203541371230000,5.70222998046875,3.829078396174312,-3.615689620254934,-14.310241522431372,-3.5429580211639404,0.0995741337537765,-0.8271578550338745
1783203541381167900,5.71216796875,3.446890512168407,-4.317605717222392,-15.860094298672674,-3.2339444160461426,-0.6965534090995789,-0.5273774862289429
1783203541391105000,5.72210498046875,3.4797979255139824,-4.342500796765089,-17.164751832628248,-2.790837049484253,-1.4133522510528564,-0.3816043734550476
1783203541401043000,5.73204296875,3.2286984276205297,-3.833335761357844,-17.440363255965707,-2.001871109008789,-1.9673230648040767,-0.1269145905971527
1783203541410980000,5.74197998046875,2.731311508290469,-3.4209581985324617,-16.74363186815977,-0.9749484658241272,-2.0306053161621094,0.039959367364645
1783203541420917000,5.7519169921875,1.930988813106716,-3.0478871024399994,-15.170026460409163,0.087397925555706,-1.8390356302261357,-0.0160202793776989
1783203541430855000,5.76185498046875,1.053344101050496,-2.0154656701698896,-12.924782020533083,1.196285843849182,-1.4487292766571045,-0.1422307342290878
1783203541440791800,5.771791748046875,0.7081388439398258,-0.8753376041576266,-10.813783554017544,2.1240041255950928,-0.9804813861846924,-0.3192550539970398
1783203541450729700,5.781729736328125,0.5448660980593413,-0.1352379070073366,-8.553377200844883,2.934748649597168,-0.5676310062408447,-0.4535087645053863
1783203541460667000,5.7916669921875,0.5281652116924525,0.3603828794330358,-6.659369041872024,3.632448673248291,-0.235968142747879,-0.4904292225837707
1783203541470604800,5.801604736328125,0.837777396570146,0.771691059461236,-5.000340436118841,4.094441890716553,-0.0399746820330619,-0.4480792582035064
1783203541480542000,5.8115419921875,1.1682368469044566,1.025155825181305,-3.120601040995121,4.267843723297119,0.0684785544872284,-0.3234950006008148
1783203541490479000,5.82147900390625,1.4749671927355228,1.200119885638356,-0.9393599944740532,4.102080345153809,0.1012428924441337,-0.214443489909172
1783203541500417000,5.8314169921875,1.6200120618775486,1.4121405880749225,1.2933914590537547,3.637131452560425,0.0355432368814945,-0.1393884122371673
1783203541510354000,5.84135400390625,1.7167216469176112,1.6596823934867977,3.184649442535638,3.0341036319732666,-0.1077076867222786,-0.0510984510183334
1783203541520292000,5.8512919921875,1.7715812182217836,1.7356202625244854,4.463514363586903,2.426243782043457,-0.2694691717624664,0.0786201357841491
1783203541530228700,5.861228759765625,1.6959337104327976,1.6669553070992231,5.217769135078788,1.8335540294647217,-0.3871678709983825,0.2218886762857437
1783203541540166000,5.871165771484375,1.436174813004583,1.6552718835681677,5.840840827912092,1.258293628692627,-0.4071647524833679,0.3449160754680633
1783203541550103800,5.881103759765625,1.034517966157943,1.7272130841851234,6.509843081793188,0.7340070605278015,-0.3378435671329498,0.4148354232311249
1783203541560041000,5.891041015625,0.4930617496073246,1.7913877424538134,6.917592108035088,0.3016865253448486,-0.1972473114728927,0.4429578781127929
1783203541569979000,5.900978759765625,-0.0309800985448062,1.9153940613508225,6.958905530676245,-0.0044285431504249,-0.0292109902948141,0.4836815297603607
1783203541579916000,5.910916015625,-0.3882248260825872,1.9067478135585785,6.574972848829627,-0.2098730355501175,0.0744474977254867,0.5276628732681274
1783203541589854000,5.92085400390625,-0.646508098000288,1.7681658568203449,5.927794304221869,-0.393898993730545,0.1824571639299392,0.5331788063049316
1783203541599791000,5.930791015625,-1.0144682808198031,1.819921178498864,5.60122835419476,-0.576339602470398,0.3354725539684295,0.4825587868690491
1783203541609727700,5.940727783203125,-1.4195610934644938,1.96782392129004,5.498688601696491,-0.7288506031036377,0.5204635858535767,0.4036355912685394
1783203541619666000,5.950666015625,-1.7757088195458053,1.933223732551932,5.141047714447975,-0.8652920722961426,0.719853937625885,0.2988974452018738
1783203541629602800,5.960602783203125,-2.146035585366189,1.8165075706630944,4.612807099431753,-1.003737211227417,0.886817991733551,0.1760421693325042
1783203541639541000,5.970541015625,-2.33652001716867,1.7444845369815825,4.036912752836942,-1.141116976737976,0.9922969937324524,0.0342799872159957
1783203541649478000,5.980477783203125,-2.2676959256589413,1.6780442718684672,3.372871336233616,-1.2808398008346558,1.06109356880188,-0.0795201957225799
1783203541659416000,5.990416015625,-1.9389936942555008,1.6216291416853663,2.7532658582061527,-1.4248621463775637,1.103404521942139,-0.1781341135501861
1783203541669353000,6.00035302734375,-1.3637724246166645,1.468560394433141,2.187498937872052,-1.572198510169983,1.1083544492721558,-0.226468414068222
1783203541679290000,6.0102900390625,-0.7831536798484623,1.1598261614337564,1.5507763208270071,-1.725648283958435,1.0754576921463013,-0.2087165862321853
1783203541689228000,6.02022802734375,-0.3054627005154267,0.7332268887713551,0.8186597313851117,-1.8715766668319704,0.9750465154647828,-0.1526278853416443
1783203541699165000,6.0301650390625,0.0814398274548351,0.2250795059740543,-0.0574392125338315,-1.99141788482666,0.7448484301567078,-0.0914430916309356
1783203541709102800,6.040102783203125,0.391634342265129,-0.1834893122181296,-1.1778957788705826,-2.0916168689727783,0.3796250820159912,-0.0729340314865112
1783203541719040000,6.0500400390625,0.7261788699559867,-0.3903174144476652,-2.365212297037244,-2.211695432662964,-0.0440771803259849,-0.0940726026892662
1783203541728978000,6.05997802734375,0.9823566940270364,-0.6144371354788541,-3.261108997359872,-2.317321538925171,-0.416522353887558,-0.1047192960977554
1783203541738915000,6.0699150390625,1.3259652565307911,-0.991067969879508,-3.8766041174590575,-2.36834979057312,-0.6681638956069946,-0.0873677358031272
1783203541748852000,6.07985205078125,1.573162340158224,-1.5502368071228263,-4.5110938608855005,-2.3177452087402344,-0.8578473925590515,-0.0182907152920961
1783203541758790100,6.0897900390625,1.8938347021020947,-2.0285192130103704,-5.310110734167695,-2.179047107696533,-0.8587952256202698,0.1130289584398269
1783203541768727000,6.09972705078125,2.3860677458003163,-2.45395557937324,-6.1440393463552,-1.944026589393616,-0.6974183917045593,0.2962172925472259
1783203541778665000,6.1096650390625,2.809931456018984,-2.995300006112456,-7.041216149616241,-1.6273351907730105,-0.5158203840255737,0.5322018265724182
1783203541788601900,6.119601806640625,3.128867641820013,-3.4259251732900737,-8.245123152577877,-1.2332874536514282,-0.4502444565296173,0.8004488348960876
1783203541798539800,6.129539794921875,3.2583599909126755,-3.4125706016764044,-9.711381115287542,-0.7673647403717041,-0.5473321080207825,1.0225062370300293
1783203541808477000,6.139476806640625,3.0052605513736603,-2.764334656970203,-11.102630891025065,-0.3184437155723572,-0.7939392328262329,1.1483315229415894
1783203541818414000,6.1494140625,2.4341662985369563,-1.6711451600044964,-11.838450426638126,0.0747419223189354,-1.1236164569854736,1.1316057443618774
1783203541828352000,6.15935205078125,1.8500275629490608,-0.4037950279191136,-11.946124034893511,0.4816862344741821,-1.5470999479293823,1.0252482891082764
1783203541838289000,6.169288818359375,1.3621417546749115,0.7231120297312736,-11.804763261091708,0.9977453351020812,-1.9557535648345947,0.8975730538368225
1783203541848227000,6.17922705078125,1.015331473520398,1.4305647180378436,-11.445157211250066,1.6055269241333008,-2.238945960998535,0.7479186058044434
1783203541858164000,6.1891640625,0.9260277808226643,1.9176798342004415,-10.54300963383913,2.267024040222168,-2.350445032119751,0.6366376280784607
1783203541868102000,6.199101806640625,0.8614990484192967,2.186266473467648,-9.14725787050724,2.9366343021392822,-2.228346109390259,0.5422446727752686
1783203541878038800,6.209038818359375,0.8406637656614184,2.615145673760772,-7.464451498803496,3.600353956222534,-1.908961296081543,0.4618063271045685
1783203541887976000,6.218975830078125,0.9034202276952564,3.198093738259375,-5.676516527152061,4.244543552398682,-1.468140959739685,0.4052723348140716
1783203541897913900,6.228913818359375,0.8877316601760685,3.6523043636858463,-4.11532110364139,4.818912029266357,-0.9868438839912416,0.3854299187660217
1783203541907851000,6.23885107421875,0.985726316590607,4.065204489080608,-2.6611294263005254,5.255941867828369,-0.560564398765564,0.3992350101470947
1783203541917789000,6.248788818359375,1.0857254446953537,4.5361599130809305,-1.3508271644562482,5.549784183502197,-0.2455343157052993,0.408630907535553
1783203541927726000,6.25872607421875,0.9988102545693516,4.91548422434926,-0.1396767662376165,5.610063552856445,-0.0743472576141357,0.4292781054973602
1783203541937664000,6.2686640625,0.964570861967653,5.257032639452815,1.115980297705531,5.425020217895508,-0.1021402701735496,0.4294887483119964
1783203541947601000,6.278600830078125,0.9084814566075802,5.487728816264868,2.373472175860405,5.017367362976074,-0.2966878712177276,0.4280258417129516
1783203541957537800,6.288537841796875,0.8180300551794469,5.6305567400097845,3.569365383714437,4.464293003082275,-0.5566272735595703,0.4396984875202179
1783203541967476000,6.29847607421875,0.6704533294722438,5.615578366586566,4.813764556062221,3.839376449584961,-0.7705601453781128,0.454865425825119
1783203541977412900,6.308412841796875,0.4869035192385315,5.498758159801364,6.11102788811326,3.1707496643066406,-0.8780408501625061,0.4583088755607605
1783203541987351000,6.31835107421875,0.2181872622422873,5.381204962566494,7.309923200392722,2.5163345336914062,-0.912061870098114,0.445614606142044
1783203541997288000,6.328287841796875,-0.083256521487981,5.2431859004080295,8.23166862772107,1.899692416191101,-0.8965345621109009,0.4230043590068817
1783203542007226000,6.33822607421875,-0.3175496998786926,5.164592256164551,8.869623416909574,1.337241530418396,-0.8420671820640564,0.4063323140144348
1783203542017163000,6.3481630859375,-0.4627333929695189,5.116640418422222,9.40528044566214,0.8120416402816772,-0.7449073195457458,0.4015026688575744
1783203542027100000,6.358099853515625,-0.5980600011736155,5.127104529291391,9.810086988711356,0.3172242939472198,-0.6054695248603821,0.4064739048480987
1783203542037037800,6.368037841796875,-0.8693325185239315,5.170927304404974,10.132722029030322,-0.1622991561889648,-0.3899697363376617,0.3759085536003113
1783203542046975000,6.37797509765625,-1.2123802322745325,5.23980853292942,10.474363383114335,-0.6428066492080688,-0.1887685060501098,0.3317680954933166
1783203542056913000,6.387912841796875,-1.519351254993677,5.326956655028462,10.540133786141872,-1.1249333620071411,-0.0471296235918998,0.2978895008563995
1783203542066850000,6.39785009765625,-1.7650833806350823,5.286255811327695,10.340431882530453,-1.5814625024795532,0.0767624601721763,0.2589356005191803
1783203542076788000,6.4077880859375,-2.052477888485789,5.0140457208663225,10.142487051719426,-1.9689090251922607,0.2257053256034851,0.1946125477552414
1783203542086725000,6.41772509765625,-2.2190578592181205,4.894220487046241,9.955672686731814,-2.2718698978424072,0.3850499093532562,0.0804395154118537
1783203542096662000,6.427662109375,-2.286220593386888,4.977447051787376,9.62969827285707,-2.5024046897888184,0.5281623005867004,-0.0817653685808181
1783203542106600000,6.437599853515625,-2.2573031264603136,5.103720731094479,9.29977599813938,-2.702061891555786,0.6993178725242615,-0.2686698734760284
1783203542116536800,6.447536865234375,-2.0799621077388526,5.256728103548288,9.17611104002595,-2.914750337600708,0.9508587718009948,-0.4678045511245727
1783203542126474800,6.457474853515625,-1.793275748157501,5.485509386649728,9.324332931768891,-3.1569385528564453,1.2809436321258545,-0.6760659217834473
1783203542136412000,6.467411865234375,-1.5232180134244262,5.600355078491568,9.45675519683361,-3.4019269943237305,1.6112483739852903,-0.9002779722213745
1783203542146349800,6.477349853515625,-1.3892568483546377,5.513182990995049,9.20878522913754,-3.613452434539795,1.8717678785324097,-1.1582592725753784
1783203542156287000,6.487286865234375,-1.2630718702442942,5.330194906297326,8.501205115059017,-3.790595293045044,1.9588556289672847,-1.4323424100875854
1783203542166224100,6.49722412109375,-1.0549345851123333,4.98083435613811,7.194027122715115,-3.926268815994263,1.879374861717224,-1.6860278844833374
1783203542176162000,6.507162109375,-0.6277491831250488,4.434071411481499,5.6211003448784345,-4.025263786315918,1.6737068891525269,-1.9283288717269895
1783203542186099000,6.517098876953125,-0.0201068223528563,3.639368602006137,4.09424792047441,-4.067095279693604,1.5182539224624634,-2.0989158153533936
1783203542196037000,6.527037109375,1.0654695692606269,2.598622408983111,2.482489599940181,-3.987103939056397,1.471089005470276,-2.1135830879211426
1783203542205973800,6.536973876953125,2.8703230886176225,1.3550097108379004,0.5856394955396652,-3.838302135467529,1.579067945480347,-1.956689953804016
1783203542215912000,6.546911865234375,4.747683187389374,0.1459559926375746,-1.2978332408934832,-3.739485263824463,1.8612561225891116,-1.6992640495300293
1783203542225848800,6.556848876953125,6.064789284029603,-0.8651157776117324,-2.905881016471982,-3.8039915561676025,2.209531784057617,-1.360391616821289
1783203542235786000,6.566785888671875,6.54380205001831,-1.4936828529909252,-4.452555162677169,-4.027966499328613,2.419962882995605,-0.9975453019142152
1783203542245724000,6.576723876953125,6.422152523380517,-1.5920055723160504,-6.537083555418253,-4.310569763183594,2.236119270324707,-0.6885684132575989
1783203542255661000,6.5866611328125,5.926985325926542,-1.3655731904283166,-9.637031099963188,-4.535627365112305,1.698365330696106,-0.497291624546051
1783203542265599000,6.596598876953125,4.991293790832161,-0.7338213475331664,-12.76846450061798,-4.5912604331970215,0.8508261442184448,-0.4402154386043548
1783203542275536100,6.6065361328125,3.564590424397588,-0.0025417934373021,-15.510186636024711,-4.355976104736328,-0.1520281136035919,-0.503993034362793
1783203542285474000,6.61647412109375,2.055500012785941,0.5329178861122578,-17.54379557338953,-3.705089807510376,-0.9687828421592712,-0.6486515402793884
1783203542295411000,6.626410888671875,0.5187011447113007,0.745121178574115,-18.32090105911493,-2.7594683170318604,-1.379881501197815,-0.8926048278808594
1783203542305348000,6.63634814453125,-0.6084824648581445,0.6942204278983175,-17.67516453000903,-1.5679720640182495,-1.4636210203170776,-1.0665719509124756
1783203542315286300,6.646286376953125,-0.996642189815268,0.4055273681370541,-16.15759489773512,-0.2466471642255783,-1.150051832199097,-1.1784206628799438
1783203542325223200,6.65622314453125,-0.8177587639573961,0.0062786784106865,-14.060370105028152,1.0121718645095823,-0.6972410082817078,-1.2547672986984253
1783203542335161000,6.6661611328125,-0.6373876568250357,-0.1736713172327727,-11.637084973728657,2.199012041091919,-0.2120098769664764,-1.2253966331481934
1783203542345098000,6.676097900390625,-0.2043293442163616,-0.1779294861339032,-9.568540916582942,3.0148394107818604,0.1618943512439727,-1.2077938318252563
1783203542355036000,6.686035888671875,0.1151484376480802,-0.0938445509977638,-7.403253810518979,3.6338894367218018,0.2755676507949829,-1.1061593294143677
1783203542364973000,6.69597314453125,0.6091039212247357,0.047735710773617,-5.821271619567275,4.098403930664063,0.3069828152656555,-0.952838659286499
1783203542374911000,6.705910888671875,1.0753335953447969,0.2485714407205581,-4.271165745347738,4.391411304473877,0.3135365843772888,-0.7625142931938171
1783203542384848100,6.71584814453125,1.2790025759562849,0.5031482593357562,-2.39979611916244,4.456343173980713,0.3415564000606537,-0.5872812271118164
1783203542394785300,6.725785400390625,1.2509655451260506,0.8179752562522887,-0.2741507031351328,4.211426734924316,0.3250083029270172,-0.5139774680137634
1783203542404723200,6.73572314453125,1.0296515291653572,1.2767752552956342,1.814014584803581,3.70588755607605,0.1943624168634414,-0.4962854981422424
1783203542414660000,6.74566015625,0.8365938858740031,1.7170909186214207,3.555176699364185,3.055238008499145,-0.0314818993210792,-0.4445232450962066
1783203542424598300,6.755598388671875,0.845073398797214,1.7760569023311137,4.785843698957562,2.323894023895264,-0.2913075387477875,-0.3165934383869171
1783203542434535000,6.765534912109375,1.066552980583161,1.524504399973154,5.714089009699225,1.5319766998291016,-0.5104268193244934,-0.1805658191442489
1783203542444473000,6.77547314453125,1.1187097226694225,1.198462181559205,6.533779837697744,0.7664983868598938,-0.6357080936431885,-0.0776317045092582
1783203542454410000,6.785409912109375,0.9948444196783004,1.0053010778933762,7.0874021467298265,0.1595150083303451,-0.6094937920570374,0.027019077911973
1783203542464347100,6.79534716796875,0.9381193467631936,0.8899199640005826,7.123572945785522,-0.2629004120826721,-0.4912891983985901,0.1500729024410247
1783203542474285000,6.80528515625,0.8761188176631927,0.7017059613481164,6.68138447432518,-0.5390550494194031,-0.3257734775543213,0.2760886549949646
1783203542484222200,6.81522216796875,0.7001911728709935,0.5051958395153284,6.043424424439668,-0.6968259215354919,-0.1220901310443878,0.3548957407474518
1783203542494160100,6.82516015625,0.2798885161347687,0.3998001130640506,5.241943791392445,-0.7483519911766052,0.1254477649927139,0.3803670108318329
1783203542504097300,6.83509716796875,-0.2423100422382354,0.4411567903250455,4.44956767129898,-0.7337620854377747,0.3705824017524719,0.3534190654754638
1783203542514035200,6.84503515625,-0.7196794249340891,0.5579752435445785,3.713028589239716,-0.6949675679206848,0.6073510050773621,0.2658412754535675
1783203542523972000,6.85497216796875,-1.083482634204626,0.6842386937186121,3.1057682135224343,-0.6435350179672241,0.8150789737701416,0.137809470295906
1783203542533909000,6.864908935546875,-1.247132981225848,0.7829924979373812,2.5997803468465803,-0.6146215796470642,1.0269060134887695,0.0046855080872774
1783203542543847200,6.87484716796875,-1.2158930627010762,0.7613876921117305,2.196474271488189,-0.59340900182724,1.2569845914840698,-0.1104209497570991
1783203542553784000,6.8847841796875,-1.1060568695843218,0.5909612750843167,1.823556320130825,-0.5884591937065125,1.4833900928497314,-0.1973822116851806
1783203542563722200,6.89472216796875,-0.9448927864208816,0.3604167817026376,1.3706342732101675,-0.6075243949890137,1.6423406600952148,-0.2586950361728668
1783203542573659100,6.9046591796875,-0.7321849785029888,0.0843216665014624,0.786814394313097,-0.6685637831687927,1.7182793617248535,-0.3068625926971435
1783203542583597000,6.91459716796875,-0.4376033356271684,-0.1280126319289207,0.2583195122748613,-0.7607629895210266,1.7449806928634644,-0.3642588555812835
1783203542593534200,6.9245341796875,0.0031347908943891,-0.2877478513330221,-0.1203694236993789,-0.8502728939056396,1.6685463190078735,-0.4163596034049988
1783203542603471000,6.93447119140625,0.8209355673626064,-0.3226017225712537,-0.6268178936243057,-0.8766434788703918,1.4818018674850464,-0.4741206467151642
1783203542613409000,6.944408935546875,1.6482850934207438,-0.2531301269382238,-1.5570593466192484,-0.7919443249702454,1.2667652368545532,-0.4976427555084228
1783203542623346200,6.95434619140625,2.0139722167417404,-0.4602244788885116,-2.6933020956307647,-0.6312997937202454,1.1250135898590088,-0.4307697713375091
1783203542633284000,6.9642841796875,2.127113588883728,-1.1168474359288811,-3.4984552797108885,-0.4641121029853821,1.0326451063156128,-0.2832666039466858
1783203542643221200,6.97422119140625,2.397144143348932,-1.8396914623737333,-4.01571331294179,-0.2961950004100799,0.9345226883888244,-0.089562140405178
1783203542653159200,6.9841591796875,2.737515623627603,-2.330983279699087,-4.612063587588072,-0.1218064278364181,0.8570553064346313,0.1527493000030517
1783203542663096000,6.994095947265625,2.9764670030876994,-2.7901877678900955,-5.3365176795780656,0.1080403476953506,0.7302536368370056,0.4468856751918793
1783203542673033200,7.004033203125,3.306026581972837,-3.1900019094794985,-6.281048354688286,0.3739966452121734,0.5314074158668518,0.7485262155532837
1783203542682971000,7.013970947265625,3.4938188520818945,-3.2816657554373143,-7.172199906310438,0.6257563233375549,0.3023645877838135,0.9610425233840942
1783203542692908000,7.023907958984375,3.3576141458690163,-2.8473320891305804,-7.615172221624851,0.8614239692687988,0.1046677753329277,1.0746426582336426
1783203542702846000,7.033845947265625,3.123637047690153,-2.194983448408544,-7.694309471225738,1.1500542163848877,-0.0302809514105319,1.1704421043395996
1783203542712783000,7.043783203125,3.0045442197978494,-1.6586995199292898,-7.714899254789948,1.5095000267028809,-0.0768628343939781,1.2960491180419922
1783203542722721000,7.053720947265625,3.0199510477662086,-1.2698755589097737,-7.669882885977626,1.9303799867630005,0.0138805713504552,1.478123664855957
1783203542732658200,7.063658203125,3.4011657028257845,-0.8624044728264212,-7.523703898239135,2.4113049507141118,0.1131573542952537,1.6985710859298706
1783203542742596000,7.07359619140625,3.6216385917872183,-0.3873515503793954,-7.679763644000888,2.938101291656494,0.1415772140026092,1.8967363834381104
1783203542752533200,7.083533203125,3.161649675220251,0.2901628035202622,-7.85687728370726,3.45425033569336,0.0996614545583725,2.044116735458374
1783203542762470000,7.093469970703125,2.34922284687534,1.1222291289672257,-7.586742245954275,3.892880439758301,-0.0014838217757642,2.10056471824646
1783203542772408000,7.103407958984375,1.4924240851014852,1.992678961083293,-6.874653130018711,4.166677951812744,-0.1528102308511734,2.0888988971710205
1783203542782345000,7.113344970703125,0.7855176325008273,2.818718281325698,-5.704165581578016,4.233458995819092,-0.3526226282119751,2.068061351776123
1783203542792283100,7.123283203125,0.4406652074158191,3.3825545258581635,-4.240267333737015,4.077734470367432,-0.6150404214859009,2.0442006587982178
1783203542802220000,7.133219970703125,0.257133809621632,3.7515877447366712,-2.690772869414091,3.7509374618530273,-0.9233794808387756,1.996334791183472
1783203542812158200,7.143158203125,-0.087390771748498,4.09605701572299,-1.1906763499885795,3.3176522254943848,-1.173596978187561,1.9015483856201167
1783203542822095000,7.15309521484375,-0.4702636423438787,4.47021415348649,0.2599924139231443,2.858855724334717,-1.3503715991973877,1.770002007484436
1783203542832032300,7.1630322265625,-0.7858253832757472,4.710439790666103,1.4873726469308135,2.439854145050049,-1.4792009592056274,1.6183874607086182
1783203542841970200,7.17297021484375,-1.043496660774946,4.855982818588614,2.344901914936304,2.028942108154297,-1.543087601661682,1.4792356491088867
1783203542851907000,7.182906982421875,-1.1622457897961138,4.972797764676809,3.1753000149101016,1.621648907661438,-1.5194756984710691,1.358733296394348
1783203542861845000,7.192844970703125,-1.108440257589519,5.003469966316223,4.045891009062529,1.252357840538025,-1.4312044382095337,1.2598066329956057
1783203542871782100,7.2027822265625,-1.0859005090013143,4.932376322439312,4.583045582896471,0.976899027824402,-1.3378965854644775,1.1811317205429075
1783203542881720000,7.212719970703125,-1.16254185013324,4.831491935932636,4.678547107321024,0.773862898349762,-1.2863396406173706,1.107869267463684
1783203542891657200,7.2226572265625,-1.3667042402848602,4.897261169916392,4.693448908376693,0.5954222679138184,-1.2355657815933228,1.0036033391952517
1783203542901594000,7.232593994140625,-1.7194827821940182,5.113613179555535,4.916356915530562,0.4019797146320343,-1.1777667999267578,0.8546481132507324
1783203542911532300,7.2425322265625,-2.1655936877951025,5.336405451375246,5.308668718665838,0.2043004333972931,-1.0982956886291504,0.6753238439559937
1783203542921469200,7.25246923828125,-2.575338564029336,5.508446025601029,5.744950596430898,0.0030249878764152,-0.981763482093811,0.4848603308200836
1783203542931407000,7.262406982421875,-2.937240031331777,5.587498519527911,6.176211431163549,-0.211010605096817,-0.8244923949241638,0.2892905473709106
1783203542941344000,7.272343994140625,-3.2480601306945083,5.579691645169258,6.582488631287217,-0.4396303296089172,-0.6544113755226135,0.0905632227659225
1783203542951282000,7.282281982421875,-3.517459839910269,5.5569145806938405,6.924759515446424,-0.6735701560974121,-0.4694830477237701,-0.1165811792016029
1783203542961219000,7.292218994140625,-3.701741471549868,5.554139855283498,7.189922610005736,-0.9062758088111876,-0.2859563529491424,-0.3307270407676697
1783203542971156200,7.30215625,-3.798797239679098,5.582094614657759,7.4026792255014175,-1.13251793384552,-0.0977670177817344,-0.5459339022636414
1783203542981094100,7.31209423828125,-3.827377729736268,5.682521905046701,7.547033920422196,-1.349798321723938,0.0577574744820594,-0.752502977848053
1783203542991031300,7.32203125,-3.655857379992306,5.775434582021832,7.580768432241678,-1.5975955724716189,0.1262931227684021,-0.9517481327056884
1783203543000969200,7.33196923828125,-3.3198984554588797,5.77942978913784,7.532287017667293,-1.906224489212036,0.160388246178627,-1.140515685081482
1783203543010906000,7.341906005859375,-2.959137682624161,5.770705799934268,7.639412928912043,-2.256475687026977,0.2049423903226852,-1.3550634384155271
1783203543020844300,7.35184423828125,-2.728441798073053,5.779285996752977,7.8567597948074335,-2.62789249420166,0.3040792047977447,-1.6088207960128784
1783203543030781000,7.361781005859375,-2.60703601706326,5.742513724672794,8.079954217687249,-2.9785051345825195,0.5074406266212463,-1.930636167526245
1783203543040719000,7.371718994140625,-2.655052736735344,5.408119857499004,8.113208252513408,-3.2805333137512207,0.7910881042480469,-2.300062894821167
1783203543050656000,7.381656005859375,-2.6269723051548004,4.82387444666624,7.80178492656052,-3.538130283355713,1.1575793027877808,-2.670595169067383
1783203543060593200,7.39159326171875,-2.1366414418160917,4.099112896162271,7.098707384598255,-3.7238998413085938,1.476399302482605,-2.971923589706421
1783203543070531000,7.401531005859375,-0.8519174194730817,3.176260384374857,5.742459948658943,-3.9178466796875,1.691358208656311,-3.1252167224884038
1783203543080468200,7.41146826171875,1.1998790626198053,2.100459536844492,4.124899079325795,-4.207225799560547,1.7648968696594238,-3.114786148071289
1783203543090406100,7.42140625,3.409611167348921,0.9099722796872256,2.460277183610201,-4.626708030700684,1.731339454650879,-2.957950592041016
1783203543100343300,7.43134326171875,5.202096349650621,-0.164879596555233,0.6662631843060255,-5.12490177154541,1.6409177780151367,-2.708462238311768
1783203543110281200,7.44128125,6.303454247763753,-0.979126187673211,-1.3840882135450838,-5.579216003417969,1.4049934148788452,-2.4173989295959477
1783203543120218000,7.451218017578125,6.865785932952165,-1.4467086281090975,-3.946397200131416,-5.849689960479736,0.9361071586608888,-2.078505754470825
1783203543130155000,7.461155029296875,7.128646595788002,-1.6399617939725517,-7.059175000154972,-5.826931476593018,0.3030210435390472,-1.712794065475464
1783203543140093200,7.47109326171875,7.055624614197015,-1.688098925153911,-10.216701457965373,-5.626414299011231,-0.4353256523609161,-1.4495214223861694
1783203543150030000,7.481030029296875,6.387790819573402,-1.6210285454437137,-12.5855418823719,-5.256271362304688,-1.271552324295044,-1.2475320100784302
1783203543159968300,7.49096826171875,5.413287615525722,-1.444631529574096,-14.173176984518763,-4.413671016693115,-1.74098539352417,-0.9042418599128724
1783203543169905200,7.5009052734375,4.819055940468609,-1.788025134152919,-15.021214201557637,-3.334094285964966,-1.7302073240280151,-0.626316487789154
1783203543179843000,7.510843017578125,4.179581686627865,-2.236675056712329,-14.699423210847376,-2.1483755111694336,-1.4930249452590942,-0.4388284981250763
1783203543189780200,7.5207802734375,3.3304794707059857,-2.2561285297229885,-14.08461841109991,-0.95044606924057,-1.1008689403533936,-0.2922140061855316
1783203543199718100,7.53071826171875,2.6593483881026505,-2.152840296944976,-13.236763564890625,0.2173641771078109,-0.6890542507171631,-0.1506705731153488
1783203543209655000,7.540655029296875,2.1465900043785573,-2.111872911262512,-12.36138942811489,1.2905645370483398,-0.4133659303188324,0.0025685159489512
1783203543219592200,7.55059228515625,1.778657001826912,-2.0371850422859192,-11.425617813521622,2.1322813034057617,-0.2640806138515472,0.125476986169815
1783203543229530000,7.560530029296875,1.4514219203665852,-1.7301032526686786,-9.994765510714052,2.77775502204895,-0.2123564481735229,0.2277000248432159
1783203543239467300,7.57046728515625,1.294578915272653,-1.402973239018023,-8.38526928989291,3.275792598724365,-0.2648149132728576,0.3184500932693481
1783203543249405200,7.5804052734375,1.39237614941895,-0.9891349559903144,-6.867006414657831,3.692295551300049,-0.3275451362133026,0.4194105267524719
1783203543259342000,7.590342041015625,1.6017178419046103,-0.4087945897720754,-5.2532408459544175,4.023165702819824,-0.3050135374069214,0.5079379081726074
1783203543269280300,7.6002802734375,1.7109087228551505,0.1718124645583331,-3.497997599071264,4.231199741363525,-0.1584051996469497,0.5744388699531555
1783203543279217000,7.610216796875,1.6475582404509186,0.7043333872422576,-1.5741723939836023,4.34755277633667,0.0800529569387435,0.614446222782135
1783203543289154000,7.620154052734375,1.550905500164628,1.1856640747845173,0.122504682162404,4.396453857421875,0.3648921549320221,0.6519211530685425
1783203543299092000,7.630092041015625,1.388168760856986,1.6310051650568842,1.4163947383880615,4.379106998443604,0.6500277519226074,0.692815363407135
1783203543309029000,7.640029052734375,1.0115538546778262,2.003199770575762,2.415333295512199,4.27378511428833,0.905736207962036,0.721874475479126
1783203543318967000,7.649967041015625,0.5003216576077044,2.2704387946262954,3.200391786068678,4.06062126159668,1.0738656520843506,0.7412627935409546
1783203543328904200,7.659904296875,-0.0646888914011418,2.4676404058545827,3.832318401008844,3.690068483352661,1.11038076877594,0.7472820281982422
1783203543338842000,7.669842041015625,-0.6407653165645897,2.641883458560705,4.4077731871426105,3.152381181716919,1.003335952758789,0.7340127825737
1783203543348779000,7.679779052734375,-1.0986560918085275,2.7103385706275698,4.932634096592665,2.4809679985046387,0.7945957779884338,0.7017845511436462
1783203543358717000,7.689717041015625,-1.418198865200579,2.74614696611166,5.400753712645173,1.7757004499435425,0.5557379722595215,0.6519628167152405
1783203543368654000,7.699654052734375,-1.6492470703206956,2.6961773588061333,5.645345143818855,1.1281722784042358,0.3531654477119446,0.5963708758354187
1783203543378591000,7.709591064453125,-1.7430254242144525,2.6648446474313734,5.649965204834937,0.5487289428710938,0.2295797020196914,0.5312353372573853
1783203543388529200,7.719529052734375,-1.7605990748278797,2.6447879478305576,5.463987290671468,0.08592239767313,0.1232729703187942,0.4983346462249756
1783203543398466000,7.729466064453125,-1.7289286559313537,2.403622983974218,4.892728787183762,-0.2688103914260864,0.0935426875948906,0.4666804671287536
1783203543408404200,7.739404296875,-1.760590891521424,2.1817232770800588,4.358895466727018,-0.5210644602775574,0.132524162530899,0.3975290954113006
1783203543418341000,7.749341064453125,-1.7911679622232912,2.1408283721119163,3.8346839610964056,-0.6668449640274048,0.2268867641687393,0.2921135127544403
1783203543428279000,7.759279052734375,-1.7823253150761127,2.2007085480570794,3.242430600374937,-0.7507150769233704,0.3198632895946502,0.149344116449356
1783203543438216000,7.7692158203125,-1.713188212094456,2.255750051799416,2.717031930786371,-0.8124210834503174,0.42046058177948,-0.0101017337292432
1783203543448153000,7.779153076171875,-1.6373146404646337,2.239204575189948,2.3359756811589003,-0.8759604096412659,0.5402714014053345,-0.1543981879949569
1783203543458091000,7.789091064453125,-1.4711818289779126,2.0587311036616565,2.043677326914668,-0.9491717219352722,0.6481969356536865,-0.2746138274669647
1783203543468028200,7.799028076171875,-1.2479461973048749,1.7101792395368218,1.6582447618991136,-1.0457587242126465,0.6864255666732788,-0.3727417290210724
1783203543477966000,7.808966064453125,-1.0718469953380525,1.358084295977652,1.0769605389595032,-1.1634410619735718,0.5853299498558044,-0.4678169786930084
1783203543487903200,7.8189033203125,-0.8182336149275302,1.0507669440388678,0.2298538807690143,-1.3146039247512815,0.3468731939792633,-0.5452683568000793
1783203543497841200,7.828841064453125,-0.4914725807197391,0.7317533090874553,-0.5509808546125888,-1.4787647724151611,0.0525466911494731,-0.5794749855995178
1783203543507778000,7.838778076171875,-0.1816689649231731,0.2900295325294136,-1.0352858817905186,-1.6611579656600952,-0.2422282248735427,-0.5721861720085144
1783203543517716200,7.84871630859375,0.0927881738126277,-0.1460793267562985,-1.2182681212693451,-1.8409243822097776,-0.5110246539115906,-0.5363154411315918
1783203543527652900,7.85865283203125,0.3339806101977825,-0.4091051170259714,-1.2056085461825132,-1.9878275394439695,-0.7315983176231384,-0.499582976102829
1783203543537590000,7.868590087890625,0.5123176542192697,-0.4819108255177736,-1.083714104872942,-2.102388858795166,-0.8980282545089722,-0.4934463500976562
1783203543547528000,7.87852783203125,0.4879588735103607,-0.3068874360889196,-0.797262138569355,-2.170761823654175,-0.9846614003181458,-0.5268285274505615
1783203543557465000,7.888465087890625,0.4388832924351096,-0.0734355308279395,-0.4408306271106004,-2.1903955936431885,-1.0226222276687622,-0.5805022716522217
1783203543567403000,7.898403076171875,0.3449647994183004,0.1103963112175464,-0.0837456201791763,-2.185922622680664,-0.9722443222999572,-0.7173285484313965
1783203543577340200,7.908340087890625,0.1365090229216963,0.5208920058190822,0.4307458709478378,-2.136808395385742,-0.8059117794036865,-0.8909922242164612
1783203543587278000,7.918278076171875,-0.0679918054040521,0.6820736246392131,0.905979118397832,-2.059279441833496,-0.5453854203224182,-1.03782320022583
1783203543597215200,7.92821533203125,-0.3818771375562995,0.5942486261919141,1.2001935353964566,-1.940190434455872,-0.2088392227888107,-1.1325775384902954
1783203543607151900,7.93815185546875,-0.7839770519953221,0.2790983886703849,1.0658107839137314,-1.7680593729019165,0.1683621257543563,-1.1582298278808594
1783203543617090000,7.948090087890625,-1.0292723205894232,-0.1938227824449539,0.4456985254079103,-1.542986273765564,0.3855335712432861,-1.106260895729065
1783203543627027000,7.95802685546875,-0.6255849908284843,-0.7761760959208012,-0.7714011366039514,-1.2915868759155271,0.2813842892646789,-0.9822214841842652
1783203543636965000,7.967965087890625,0.4707878123484552,-1.3770248510301113,-2.327889405336976,-1.08979070186615,0.1176342144608497,-0.7641467452049255
