time,seconds_elapsed,ax,ay,az,gx,gy,gz
1783202700045250000,0.09725,-2.123810163424164,-4.710545296867192,-9.893874694466591,1.621478796005249,0.1407624334096908,-0.0820383876562118
1783202700055187000,0.10718701171875,-2.239903663370013,-4.317222855384648,-9.85422540564537,2.079264640808105,0.2007213681936264,-0.2989254295825958
1783202700065124000,0.1171240234375,-2.2345891903489825,-3.9561668989956376,-9.855374575680491,2.465378999710083,0.1768152713775634,-0.5399645566940308
1783202700075061000,0.12706103515625,-2.347225097186864,-3.456127127069234,-9.545614214503765,2.790351390838623,0.2577146589756012,-0.7334794402122498
1783202700084998100,0.136998046875,-2.60895734051466,-2.5420120484888558,-8.82388574808538,3.019225835800171,0.4331115484237671,-0.8762691020965576
1783202700094935000,0.14693505859375,-2.6333395020991563,-1.6952859140485523,-8.224033018276096,3.1763365268707275,0.6311474442481995,-0.9703487157821656
1783202700104872000,0.156871826171875,-2.429302784153819,-1.1815598543360828,-7.7092422519415615,3.3200604915618896,0.8307332992553711,-1.0108146667480469
1783202700114809000,0.16680908203125,-2.2083761600755154,-0.7222974984779954,-7.199869419002533,3.474433183670044,0.941692054271698,-1.0312530994415283
1783202700124746000,0.17674609375,-2.1754650934681297,-0.1851455549925565,-6.881767345938086,3.677447557449341,0.9243101477622986,-1.0727721452713013
1783202700134681900,0.186681884765625,-2.394611117739976,0.5782984851270914,-6.491817011237144,3.935469627380371,0.8429223299026489,-1.1747355461120603
1783202700144619000,0.196618896484375,-2.511350952765345,1.6780571313500403,-5.737734673702716,4.195703029632568,0.6862636208534241,-1.320597767829895
1783202700154556200,0.20655615234375,-2.518496732866764,2.974048543769121,-4.892310854032635,4.422847270965576,0.4759319722652435,-1.4791860580444336
1783202700164493000,0.2164931640625,-2.406844868630171,4.079373007425666,-3.765845987191796,4.5645623207092285,0.251438707113266,-1.6544342041015625
1783202700174430200,0.22643017578125,-2.975477699789405,5.520708125802874,-2.251767704164981,4.620969295501709,0.1379331797361374,-1.8868118524551392
1783202700184366800,0.236366943359375,-1.8831493496976792,5.815885834875703,-1.3424568109959365,4.642020225524902,0.0540889576077461,-1.9975574016571045
1783202700194304000,0.246303955078125,-1.2906243324279785,5.9868432900398965,-0.4073579810976981,4.5688157081604,0.0152315739542245,-2.012446403503418
1783202700204241200,0.2562412109375,0.12593918665573,6.50969052157998,1.5011872372716664,4.342559814453125,0.1162357255816459,-1.8106602430343628
1783202700214178000,0.266177978515625,1.2717480747833847,6.6653317496687166,2.53409469949305,3.953080177307129,-0.1421350985765457,-1.5308661460876465
1783202700224115200,0.276115234375,1.401857678991556,7.419189046275616,3.0944436864316462,3.5421104431152344,-0.2400673627853393,-1.2892611026763916
1783202700234051800,0.2860517578125,1.5756781223714351,7.98554458015263,4.0621909864783285,3.185420513153076,-0.2159439176321029,-1.1115611791610718
1783202700243988000,0.295988037109375,1.619472255912423,8.295208495217562,4.404190652480721,2.8869705200195312,-0.1493646055459976,-0.9775099158287048
1783202700253925000,0.305925048828125,1.6585656644165514,8.319744970580935,4.670205395433307,2.607914447784424,-0.017287541180849,-0.8861411213874817
1783202700263862000,0.315862060546875,1.6941273916631936,8.362692716425657,5.10560289157927,2.342689037322998,0.1243847608566284,-0.799334704875946
1783202700273799000,0.325798828125,1.6643009931981565,8.474097912424803,5.419051585879922,2.0878665447235107,0.2519003748893738,-0.7141401767730713
1783202700283736000,0.335736083984375,1.7366750322744249,8.48545926439464,5.892092876243591,1.8116930723190308,0.3516148328781128,-0.6145831942558289
1783202700293673000,0.3456728515625,1.8439713316500184,8.545724055743216,6.111967799311876,1.528293490409851,0.3902415931224823,-0.5148147940635681
1783202700303610000,0.355610107421875,2.2143518734842536,8.39787918061912,6.438394633129239,1.2258018255233765,0.4571985304355621,-0.4212118685245514
1783202700313547000,0.365547119140625,2.473506375278532,8.223403488200903,6.760075733724236,0.93613862991333,0.591004490852356,-0.3015888035297394
1783202700323484000,0.37548388671875,2.590805305491388,8.266616606983542,6.835887053772807,0.601414680480957,0.6130833625793457,-0.1687797755002975
1783202700333421000,0.385421142578125,2.710830445797741,8.590054195857048,7.202035657125711,0.1952924728393554,0.5866533517837524,-0.047270655632019
1783202700343358000,0.39535791015625,2.7365876951277253,8.629062264165281,7.440242355698347,-0.1854946315288543,0.5649217367172241,0.1151782646775245
1783202700353295000,0.405295166015625,2.8871833302646874,8.502721949362755,7.706427779042721,-0.5183471441268921,0.6112245321273804,0.3111749291419983
1783202700363231000,0.41523095703125,3.027605654172599,8.487020522361993,7.909131787079571,-0.7972363233566284,0.6381685137748718,0.5103200674057007
1783202700373167900,0.42516796875,3.10468421767801,8.492553606569766,7.995925104391574,-1.0634368658065796,0.6504188179969788,0.726015031337738
1783202700383105000,0.43510498046875,3.1102175941467283,8.480617669582367,8.216067153963445,-1.3473364114761353,0.5873850584030151,0.9573169946670532
1783202700393042200,0.445042236328125,2.891749907527864,8.538136961615086,8.498618021175265,-1.704954743385315,0.4159397780895233,1.191720962524414
1783202700402979000,0.45497900390625,2.47058201226443,8.694147607538104,8.776043215936422,-2.1479978561401367,0.1286003440618515,1.402585744857788
1783202700412916000,0.464916015625,1.9736261778280135,8.784730964782833,8.821157784426212,-2.599838733673096,-0.2113151401281356,1.5697294473648071
1783202700422853000,0.47485302734375,1.465627848112583,8.803726172631979,8.688645502990484,-2.987617492675781,-0.5283100008964539,1.6788307428359983
1783202700432790000,0.4847900390625,0.9635860887140036,8.956680938115715,8.494882926300168,-3.320309400558472,-0.7656221389770508,1.733642578125
1783202700442727200,0.49472705078125,0.4797653379216789,9.146553521630167,8.404773616307974,-3.719862461090088,-1.0052472352981567,1.761322259902954
1783202700452664000,0.5046640625,-0.2166340779835358,9.37663711950183,8.304140574213863,-4.269027233123779,-1.3048062324523926,1.7658101320266724
1783202700462601200,0.514601318359375,-1.1307464896827937,9.50116015574932,7.972702049714327,-4.944757461547852,-1.5737828016281128,1.7382370233535769
1783202700472538000,0.5245380859375,-2.014860105492174,9.442063823658229,7.155626372650265,-5.584839344024658,-1.6470361948013306,1.63270366191864
1783202700482475300,0.534475341796875,-2.713018895752728,9.282854089432954,5.756915759512782,-6.157549858093262,-1.546645998954773,1.4881279468536377
1783202700492412200,0.544412109375,-3.730803899905085,9.299984672454,3.9617525901734822,-6.69342565536499,-1.3467555046081543,1.289603352546692
1783202700502348300,0.554348388671875,-4.070712146586179,8.666154854241013,1.992807555899024,-7.13456916809082,-1.074313044548035,1.1464899778366089
1783202700512285200,0.56428515625,-4.044590447857976,8.068501680302619,-0.2842810520052909,-7.411659240722656,-0.7845789790153503,1.0652697086334229
1783202700522222300,0.574222412109375,-3.931511765688657,7.588954076784849,-2.8903689745634797,-7.537497043609619,-0.6477429270744324,0.99635112285614
1783202700532159000,0.584158935546875,-3.654990241768956,6.899376652386784,-5.797327264878153,-7.42794942855835,-0.5455161929130554,0.9220020174980164
1783202700542096100,0.59409619140625,-3.3016923521608117,6.12091215326786,-8.503874626529216,-7.105151653289795,-0.4137434661388397,0.8577382564544678
1783202700552033300,0.604033203125,-3.1093279518306254,5.6607367742180825,-10.898733289289474,-6.672280311584473,-0.2667998373508453,0.8151258230209351
1783202700561970200,0.61397021484375,-2.7748382230669257,4.971394327619672,-12.629079410803318,-6.350542545318604,-0.0880413353443145,0.8351825475692749
1783202700571907300,0.6239072265625,-2.499997784101963,4.270388331234455,-13.562481373655796,-6.166975498199463,0.1176636219024658,0.8261286020278931
1783202700581844000,0.633843994140625,-2.4135085643030703,3.0371167021006342,-13.858886578696966,-6.567594528198242,0.5120475888252258,0.9004932045936584
1783202700591781000,0.643781005859375,-2.1391981405615805,1.297685649116337,-14.630741888809204,-6.444239139556885,0.9868428707122804,0.9367995262145996
1783202700601718300,0.65371826171875,-2.1748763337947428,0.8601222801733761,-17.589807967501876,-5.851531982421875,1.410173773765564,0.8247617483139038
1783202700611655200,0.6636552734375,-2.0316182019390165,-0.0255236597698181,-19.105294363760947,-5.186923980712891,1.8611868619918823,0.7643255591392517
1783202700621592300,0.67359228515625,-1.5793603180155158,-1.5289781843863426,-19.293733699601887,-4.323336601257324,2.3115007877349854,0.7868794202804565
1783202700631529200,0.683529296875,-1.2753474144496022,-2.8000515747785566,-20.05542300500869,-3.108290910720825,2.332178831100464,0.8128955364227295
1783202700641466000,0.693466064453125,-0.9735062288995832,-3.720298580242693,-20.11655464231968,-1.7818974256515503,1.919119119644165,0.8179293274879456
1783202700651403300,0.7034033203125,-0.5798137850608677,-4.414369516667724,-19.124956511086225,-0.6797953248023987,1.2127835750579834,0.7976677417755127
1783202700661340200,0.713340087890625,-0.3421405357778072,-4.846165773451328,-17.295883473360536,0.2199220657348632,0.5226981043815613,0.8165813684463501
1783202700671277300,0.72327734375,-0.530117660934478,-4.4652714363873,-15.4888036562562,1.1695951223373413,-0.007825655862689,0.8281900882720947
1783202700681213200,0.733213134765625,-0.9062759093873204,-3.6365672808498144,-13.838464552915095,2.125186920166016,-0.4404404759407043,0.8134527206420898
1783202700691150000,0.743150146484375,-1.0929937551978974,-3.03233180591166,-11.622146932315824,2.887624740600586,-0.8311997056007385,0.7826406955718994
1783202700701087200,0.753087158203125,-1.1463393417425454,-2.5712720452427864,-9.11221286061108,3.4127981662750244,-1.195950627326965,0.7145074605941772
1783202700711024400,0.7630244140625,-1.225734584692493,-2.130086028823256,-6.895417101106047,3.766413927078247,-1.4789854288101196,0.6075812578201294
1783202700720961000,0.7729609375,-1.2122435272175818,-1.643780767738819,-4.922453478839993,3.987685680389404,-1.6201460361480713,0.4718945920467376
1783202700730898200,0.782898193359375,-1.1451160104926674,-1.0754143324308096,-3.1213609194517136,4.111187934875488,-1.623135685920715,0.322726160287857
1783202700740835000,0.7928349609375,-0.9830002526275812,-0.4768369563195854,-1.545619668716192,4.161930561065674,-1.5444550514221191,0.1919165998697281
1783202700750772200,0.802772216796875,-0.7699734418883919,0.2209110611829906,-0.1679787316143512,4.131171226501465,-1.4217941761016846,0.066854290664196
1783202700760709400,0.81270947265625,-0.4968390761889517,0.8958896860599518,1.1598095025599002,4.001413822174072,-1.2754241228103638,-0.0118862465023994
1783202700770646000,0.82264599609375,-0.2381118598960339,1.440548205783218,2.4223972425490614,3.781410217285156,-1.1053237915039062,-0.0813159197568893
1783202700780583200,0.832583251953125,-0.0536497571229934,1.9545222489073872,3.547509525737166,3.4815053939819336,-0.9082151055336,-0.147085502743721
1783202700790520000,0.84252001953125,0.0719205962203443,2.4188432033292946,4.545547334629297,3.105674743652344,-0.677630603313446,-0.2237552404403686
1783202700800457200,0.852457275390625,0.1424738496102392,2.7110370742857453,5.338346648570895,2.6666464805603027,-0.438337504863739,-0.2966582477092743
1783202700810394400,0.862394287109375,0.2087311593718826,2.880031412683427,5.97611322171092,2.190026044845581,-0.2075328081846237,-0.3627411425113678
1783202700820331000,0.8723310546875,0.2236925816603004,3.15728738835752,6.431375109755993,1.698383927345276,-0.010287458077073,-0.4294057190418243
1783202700830268200,0.88226806640625,0.2731540933132171,3.322690716525912,6.690144119364023,1.229575753211975,0.1716237515211105,-0.4818539917469024
1783202700840205300,0.892205322265625,0.3720519821777939,3.359980290478468,6.849352684545517,0.7958173751831055,0.297623872756958,-0.5148680210113525
1783202700850142200,0.90214208984375,0.5201591614998877,3.3957162052482364,6.937192296040058,0.3989166617393493,0.347524344921112,-0.5251818895339966
1783202700860079400,0.912079345703125,0.7131975155688822,3.40172421349138,7.008287108960747,0.0219341814517974,0.3221973478794098,-0.5195447206497192
1783202700870016000,0.92201611328125,0.8884102900899946,3.346643546782434,6.9052768163412805,-0.3186026215553283,0.2134077548980713,-0.5022221803665161
1783202700879953200,0.931953125,1.079509200529009,3.313621274885535,6.770905170774459,-0.6416386365890503,0.0605674684047699,-0.4627576768398285
1783202700889890300,0.941890380859375,1.201748071362078,3.374352806963026,6.670798198381066,-0.9874991178512572,-0.0843926519155502,-0.3986540734767914
1783202700899827200,0.9518271484375,1.267573711708188,3.4360146056279537,6.546453441309929,-1.340639352798462,-0.2016230374574661,-0.312487244606018
1783202700909764400,0.961764404296875,1.294630207068473,3.457010339644551,6.230943138304353,-1.6930480003356934,-0.3013349771499634,-0.2134019434452057
1783202700919701000,0.971700927734375,1.2444117395684122,3.382930957955122,5.895347494125366,-2.0785062313079834,-0.3508833646774292,-0.1262264996767044
1783202700929638100,0.98163818359375,1.0304705904632807,3.2406670978337524,5.554100692316889,-2.486985206604004,-0.2992627620697021,-0.054818358272314
1783202700939575300,0.9915751953125,0.6845026053518056,3.0051123750746247,5.034495803698897,-2.872340202331543,-0.1259867846965789,-0.0176775753498077
1783202700949512200,1.00151220703125,0.4481409501239657,2.7197207314789296,4.321695324623584,-3.1639633178710938,0.0802596062421798,-0.0162173639982938
1783202700959449300,1.011449462890625,0.3829927706480026,2.455909343789518,3.497672604900598,-3.371317148208618,0.2506567537784576,-0.0180646907538175
1783202700969386000,1.021385986328125,0.3494663486212492,2.169226637469977,2.831449752604961,-3.534048080444336,0.3823612332344055,-0.0165147297084331
1783202700979323100,1.0313232421875,0.269321675543487,1.9123596620909868,2.320725505056977,-3.6848883628845215,0.4864304661750793,-0.0044972086325287
1783202700989260300,1.04126025390625,0.1225572891324758,1.634511273481697,1.816700462886691,-3.8160202503204346,0.5384678840637207,0.0066124340519309
1783202700999197200,1.051197265625,-0.0239402630358934,1.4554955995462835,1.0955033268660306,-3.919961929321289,0.531890869140625,0.0112270740792155
1783202701009134300,1.06113427734375,-0.061858490280807,1.3801077656067906,0.0942003786981105,-3.964416265487671,0.5041886568069458,0.0457168743014335
1783202701019071000,1.071071044921875,-0.0179299167051911,1.1759372652139517,-1.0901461837470532,-3.9214794635772714,0.4812651872634887,0.1320510506629943
1783202701029007000,1.081007080078125,-0.0292763633668422,0.8629603531435132,-2.403856208208204,-3.798777103424072,0.4615476727485657,0.2272263020277023
1783202701038944300,1.0909443359375,-0.1453717630088329,0.6698730453662574,-3.72376450278759,-3.619067907333374,0.3612047135829925,0.3044653832912445
1783202701048881400,1.10088134765625,-0.2969768674492836,0.54660059370175,-5.039288298672437,-3.388453960418701,0.19486765563488,0.349747896194458
1783202701058818000,1.110818115234375,-0.3398778515428304,0.2362882977306842,-6.246250597551465,-3.120608329772949,-0.0200275741517543,0.3811628818511963
1783202701068755200,1.120755126953125,-0.5844027933515608,-0.0285763984039425,-7.681293922308087,-2.8014519214630127,-0.2921578884124756,0.3746655583381653
1783202701078692000,1.130692138671875,-1.166434473657608,-0.3235202987208962,-9.172833625790476,-2.408297300338745,-0.4648667275905609,0.3209114968776703
1783202701088629200,1.140629150390625,-1.5628994509495795,-0.9011135581880808,-10.573617538070678,-1.9149776697158811,-0.4933170080184936,0.2110587805509567
1783202701098566400,1.15056640625,-1.6649788924597202,-1.613425961485505,-12.039836922335624,-1.321631669998169,-0.3980036675930023,0.0784623324871063
1783202701108503000,1.1605029296875,-1.665127507150173,-2.2903850195899604,-13.414452374136449,-0.6038831472396851,-0.197574958205223,-0.0490141324698925
1783202701118440200,1.170440185546875,-1.6179904929220676,-2.7337393199592825,-14.423970777463913,0.2104977965354919,0.0665863081812858,-0.1587269157171249
1783202701128377000,1.180377197265625,-1.6530784651771186,-2.792167543530464,-14.662178645080328,1.0520817041397097,0.3451433479785919,-0.2675221264362335
1783202701138314200,1.190314208984375,-1.6918918876960871,-2.4800036283433435,-14.02816294890642,1.7473939657211304,0.4828404784202575,-0.3456783890724182
1783202701148251400,1.20025146484375,-1.7729696038402616,-1.9967010562062264,-12.959116836333274,2.227390766143799,0.5103799700737,-0.3505578339099884
1783202701158188000,1.21018798828125,-2.0625624985180795,-1.4714472019158302,-11.953926233077048,2.547031879425049,0.4849131405353546,-0.3280889987945556
1783202701168125200,1.220125244140625,-2.57991829303503,-0.7412067816093564,-11.49187103163004,2.803736686706543,0.4195687472820282,-0.3351551592350006
1783202701178062000,1.23006201171875,-3.10282982198298,-0.3165219642661511,-11.69349601225853,3.1282267570495605,0.3923715949058532,-0.4286355078220367
1783202701187999200,1.239999267578125,-3.412785413470864,-0.0424066247053444,-12.182829681253432,3.5802648067474365,0.4219057857990265,-0.5977875590324402
1783202701197936000,1.24993603515625,-3.401270624504983,0.5475357556600123,-12.58321197811961,4.08942985534668,0.4185288548469543,-0.7672176361083984
1783202701207873000,1.259873046875,-3.094828594096005,1.217966581039503,-12.485532525134088,4.564042091369629,0.4108664095401764,-0.8852225542068481
1783202701217810200,1.26981005859375,-2.9098107571363445,2.1272611806608737,-12.074176414310932,4.980666637420654,0.4525465667247772,-0.9635226726531982
1783202701227747300,1.279747314453125,-2.987875701330602,3.148079707290232,-11.483687725174429,5.338204860687256,0.5532675981521606,-1.030522704124451
1783202701237684200,1.289684326171875,-3.110574737021327,4.249558893695474,-10.829537587988376,5.65545654296875,0.6916637420654297,-1.0780229568481443
1783202701247621000,1.29962109375,-2.895590508604049,4.918937579673528,-10.101577533704042,5.96687126159668,0.7873010635375977,-1.0548698902130127
1783202701257558000,1.30955810546875,-2.650343536131084,5.443813686692715,-9.237332693707945,6.277287483215332,0.8175355792045593,-1.018603801727295
1783202701267496200,1.31949609375,-2.4708242965877054,6.12902473257482,-8.096278160500527,6.621485710144043,0.755537211894989,-0.990958333015442
1783202701277432300,1.329432373046875,-2.2149662059903146,6.959926690417528,-6.817852215388417,6.942109107971191,0.5559344291687012,-0.9708465337753296
1783202701287369200,1.339369140625,-2.0077102337375283,7.827931759729981,-5.344801523798703,7.121838092803955,0.3022914528846741,-0.9637241959571838
1783202701297307100,1.34930712890625,-1.7382985418230297,8.574657889282703,-3.4720454116910693,7.143824100494385,0.1741480827331543,-0.9835482239723206
1783202701307244000,1.359244140625,-1.4735644863307475,9.114557962432505,-1.8080805185794828,7.045374393463135,0.1311191171407699,-1.0439561605453491
1783202701317181200,1.36918115234375,-1.2777004073165357,9.5253166918844,-0.4037725238263607,6.823559761047363,0.2825572788715362,-1.1453893184661863
1783202701327118000,1.3791181640625,-1.006273137795925,9.808312380254268,1.218363398337364,6.483054161071777,0.5797748565673828,-1.2654368877410889
1783202701337055200,1.38905517578125,-0.5152946242034435,9.897675255793333,2.6381016019344328,6.048075675964356,0.9305119514465332,-1.337546944618225
1783202701346992000,1.3989921875,0.0119297995075583,9.944145915067196,3.7532694142133,5.615878105163574,1.2475682497024536,-1.34980309009552
1783202701356929000,1.408928955078125,0.474360556268692,10.041800818133352,4.5155145999372,5.21750020980835,1.4570177793502808,-1.2907371520996094
1783202701366866200,1.4188662109375,0.8825678476721048,10.08139983807206,5.194565369623899,4.845736026763916,1.5118522644042969,-1.175875186920166
1783202701376803000,1.428802978515625,1.0125611320242285,10.107164393925666,5.823682187840342,4.500203609466553,1.4320963621139526,-1.063335418701172
1783202701386740200,1.438740234375,0.8741402110666036,10.109364534318448,6.571307312059402,4.129113674163818,1.2661449909210205,-0.9749951958656312
1783202701396677400,1.448677490234375,0.7650927571747451,9.932149187803269,7.304798112463951,3.742981195449829,1.014567494392395,-0.8912158012390137
1783202701406614000,1.458614013671875,0.7257174629893154,9.597006548088787,7.758285392051935,3.352452516555786,0.6858266592025757,-0.829851508140564
1783202701416551200,1.46855126953125,0.7594587698757648,9.321385187879203,8.085674348899722,2.9866201877593994,0.3969027101993561,-0.8056198954582214
1783202701426488000,1.478488037109375,0.9581856909751892,9.130472739923,8.237038045799732,2.655923128128052,0.1725178062915802,-0.7852482795715332
1783202701436425200,1.48842529296875,1.2644821754336355,8.99370981530547,8.275776649516821,2.33811354637146,0.1013957187533378,-0.7821733951568604
1783202701446362400,1.4983623046875,1.607871103837341,8.866079460692406,8.318534425747394,2.060870409011841,0.1170401945710182,-0.7019957304000854
1783202701456298500,1.508298583984375,1.8108634272962807,8.9439184871763,8.340123157221079,1.744142770767212,0.137294128537178,-0.6067802309989929
1783202701466235600,1.518235595703125,2.215522086307406,8.790374523627758,8.619440449339152,1.369287610054016,0.2100721895694732,-0.4628962576389313
1783202701476172800,1.5281728515625,2.4836983912080526,8.704723362088203,8.83803877660036,0.9867320656776428,0.3065005242824554,-0.2920814156532287
1783202701486109400,1.538109375,2.5109894259765744,8.923223489671946,8.913522179868817,0.6144344210624695,0.2964846491813659,-0.100044846534729
1783202701496046600,1.548046630859375,2.7444039218366143,8.864210744211077,9.128559015256164,0.2219696938991546,0.2559144794940948,0.1259882301092147
1783202701505983500,1.5579833984375,2.9451977123379707,8.692909590175747,9.520699553477764,-0.2199483215808868,0.2148671597242355,0.3508210778236389
1783202701515920600,1.567920654296875,2.939410361108184,8.743347399514914,9.812747732353207,-0.6769037842750549,0.1251342743635177,0.605254590511322
1783202701525857800,1.57785791015625,2.8642732870593663,8.728679407215118,9.923297188305854,-1.1158946752548218,-0.0808684229850769,0.8798603415489197
1783202701535794400,1.58779443359375,2.721452085316181,8.840579108732939,10.037822562152147,-1.6135574579238892,-0.320344477891922,1.1328028440475464
1783202701545731600,1.597731689453125,2.5022809266030785,9.075170539417863,10.243663114649056,-2.198548555374145,-0.4733854234218597,1.3403397798538208
1783202701555668500,1.60766845703125,2.192546284389496,9.255330707213282,10.197361966723204,-2.813129186630249,-0.5419734716415405,1.5088149309158323
1783202701565605600,1.617605712890625,1.8393541932433843,9.395443526780603,9.819039525973796,-3.391371726989746,-0.5545368790626526,1.648064136505127
1783202701575542800,1.627542724609375,1.5339645944967866,9.598596447628736,9.37809024091959,-3.977250337600708,-0.5412243604660034,1.78708016872406
1783202701585479400,1.6374794921875,1.3194088206246497,9.788423438435792,9.00036927319467,-4.566477298736572,-0.5076637268066406,1.9492336511611936
1783202701595416600,1.64741650390625,1.1539958478450774,9.849212545919418,8.505001584732533,-5.160324573516846,-0.5127671360969543,2.1456193923950195
1783202701605353500,1.657353515625,0.8257304004237055,10.11301428899765,7.835092737400531,-5.73240327835083,-0.5540804862976074,2.346843719482422
1783202701615290600,1.66729052734375,0.4182087531968951,10.34431193883419,7.027713109442591,-6.233510971069336,-0.6125620603561401,2.543720006942749
1783202701625227800,1.677227783203125,-0.1555234103953465,10.506944633245467,5.892788457292318,-6.645188808441162,-0.7276721000671387,2.712735891342163
1783202701635164400,1.687164306640625,-1.1855816571980715,10.705705456614494,4.548438964417577,-6.977721691131592,-0.8631765842437744,2.8206586837768555
1783202701645101600,1.6971015625,-2.582736857587099,10.430278742194176,2.8316081580370662,-7.210879325866699,-0.9892793893814088,2.8564743995666504
1783202701655038700,1.707038818359375,-3.787776663970947,9.497388820517063,0.9147124599516392,-7.353832721710205,-1.0430738925933838,2.827866554260254
1783202701664976600,1.7169765625,-5.2073172991693015,9.013288960522411,-1.1726257295131683,-7.394870281219482,-1.0424299240112305,2.5351901054382324
1783202701674913500,1.72691357421875,-5.864736082762479,8.730646907895803,-3.421991633233428,-7.292301177978516,-1.0460948944091797,2.135204553604126
1783202701684850700,1.7368505859375,-5.528849931204319,7.129920268985629,-5.992300970923901,-7.020612239837647,-0.9661797881126404,1.7004674673080444
1783202701694787600,1.74678759765625,-5.307176434281468,5.823717843675613,-8.646401521500945,-6.5181193351745605,-0.7447899580001831,1.3064018487930298
1783202701704724500,1.756724365234375,-4.709504847903549,5.363493949308992,-10.987157422673702,-5.87861967086792,-0.4234974086284637,0.966784119606018
1783202701714661600,1.76666162109375,-3.485776415401697,5.159310516369343,-13.019006949150562,-5.4035491943359375,-0.1556613892316818,0.7913156151771545
1783202701724598500,1.7765986328125,-1.8623674045622347,4.318481623274088,-14.2302929564476,-4.724692344665527,0.0046388022601604,0.7555877566337585
1783202701734535700,1.78653564453125,-0.8711281697690486,3.4530051956564187,-15.746154615759847,-4.151524543762207,-0.1337402760982513,0.8859264850616455
1783202701744472600,1.79647265625,-0.103137572260946,1.989089266028255,-16.31581678996682,-3.23433518409729,-0.5046225190162659,1.1591947078704834
1783202701754409500,1.806409423828125,-0.0140394851379096,1.2565861614868044,-17.42010957248807,-2.229884386062622,-1.098334789276123,1.453679084777832
1783202701764346600,1.8163466796875,-0.3946002063333988,-0.1672706564102321,-17.282405567628143,-1.527926325798035,-1.6099482774734497,1.7811130285263062
1783202701774283500,1.826283447265625,-1.0570751042723656,-1.9140674889221787,-16.43055142264962,-1.1158428192138672,-1.7825777530670166,2.111111879348755
1783202701784220700,1.836220703125,-2.1045704792946576,-2.8852395027205344,-16.162806494903563,-0.5945466160774231,-1.8143311738967896,2.2000179290771484
1783202701794157600,1.846157470703125,-3.7740398150414234,-4.162146275441349,-16.08401294417381,-0.1651173830032348,-1.673875093460083,2.1736247539520264
1783202701804094500,1.856094482421875,-5.227577996909618,-5.171196768996119,-15.008216772818564,0.144643947482109,-1.2464851140975952,1.9718947410583496
1783202701814031600,1.866031494140625,-6.155090317201614,-5.683219824182987,-13.42080495803356,0.4494750499725342,-0.5690468549728394,1.764878511428833
1783202701823968800,1.87596875,-6.569663051983714,-5.278840566635132,-11.918568503969906,0.6646454334259033,0.0063781184144318,1.4023685455322266
1783202701833905700,1.88590576171875,-6.580657324206829,-4.591402784614265,-10.1645410626173,0.8976675271987915,0.6268702149391174,1.0242575407028198
1783202701843842600,1.895842529296875,-5.773072529065609,-5.054235692435503,-8.697098858559132,1.1602214574813845,0.9566878080368042,0.7236009240150452
1783202701853779500,1.905779541015625,-4.885808924792706,-4.860826166966557,-7.262987261694669,1.3187525272369385,1.1149910688400269,0.496283620595932
1783202701863717600,1.915717529296875,-4.073687363004685,-4.257525927051901,-5.399403467079996,1.4171345233917236,1.149262309074402,0.3098178505897522
1783202701873654500,1.925654541015625,-3.4348651433318853,-3.4959175779268143,-4.010152171683311,1.5183230638504028,1.0676151514053345,0.1672492176294326
1783202701883591700,1.935591796875,-2.894201976855099,-2.661967922951281,-2.853593779873848,1.6205381155014038,0.919549822807312,0.0667979791760444
1783202701893528600,1.945528564453125,-2.4191820798948407,-1.8471746577359736,-1.7237930466085671,1.692904710769653,0.7732566595077515,-0.0089466804638504
1783202701903465500,1.955465576171875,-1.9949702868908643,-1.1152638199992475,-0.6328156727343798,1.7421585321426392,0.6591237187385559,-0.0726641416549682
1783202701913402600,1.965402587890625,-1.673406675195694,-0.4267568743769079,0.26675182505548,1.785464644432068,0.5207623243331909,-0.1302476227283477
1783202701923339500,1.975339599609375,-1.306738139621913,0.1901970662284642,1.056677044865489,1.8025798797607424,0.3855887353420257,-0.1925325691699981
1783202701933276700,1.985276611328125,-0.932351138625294,0.703894119042158,1.7205635631680487,1.802129983901977,0.2333818078041076,-0.2591210901737213
1783202701943213800,1.9952138671875,-0.605470277430117,1.1478774380300194,2.333251224631071,1.7688772678375244,0.1155545115470886,-0.3224497437477112
1783202701953150500,2.005150390625,-0.2937858163230121,1.5608949792593716,2.924800820997357,1.6982553005218506,0.0198178626596927,-0.3768370747566223
1783202701963087600,2.015087646484375,-0.0665017860420048,2.000665722053498,3.4683506488263607,1.5734856128692627,-0.0368230454623699,-0.4254429638385772
1783202701973024500,2.0250244140625,0.195378925845772,2.323586739706993,4.023347168821096,1.3846421241760254,-0.0566786900162696,-0.4656201004981994
1783202701982961700,2.034961669921875,0.4368367351688444,2.4949913541167974,4.446726310393214,1.1585549116134644,-0.0509571507573127,-0.4877752065658569
1783202701992898800,2.04489892578125,0.6222264741808176,2.728968452295661,4.7747003736525775,0.9067066311836244,-0.0119325518608093,-0.5040085315704346
1783202702002835500,2.05483544921875,0.7253628773979842,3.0706419550836084,5.091369783565402,0.6477310061454773,0.0649595633149147,-0.5143285989761353
1783202702012772600,2.064772705078125,0.8955546088866889,3.218336023560166,5.322191632583737,0.3697575330734253,0.146743044257164,-0.5080388188362122
1783202702022710500,2.07471044921875,1.0782779051683842,3.12397899299562,5.404877514576912,0.0860499367117881,0.1709216088056564,-0.4793414175510406
1783202702032647700,2.084647705078125,1.18994379793033,3.134377637413144,5.460024816781282,-0.2007322162389755,0.1584252417087555,-0.4424993991851806
1783202702042584600,2.09458447265625,1.2867305398598312,3.142598353269696,5.544478877490759,-0.5088663101196289,0.1393229216337204,-0.3899935781955719
1783202702052521700,2.104521728515625,1.3719351266756652,3.0549194852948185,5.573128048869967,-0.8232568502426147,0.1375964879989624,-0.3304253816604614
1783202702062458600,2.114458740234375,1.355838855138421,2.974334959495067,5.480988109833001,-1.1338411569595337,0.1564255803823471,-0.2637441158294678
1783202702072395500,2.1243955078125,1.2288653569988903,2.9070038830220697,5.270051110979915,-1.434783935546875,0.1819425523281097,-0.2032807767391204
1783202702082332700,2.134332763671875,1.0814265784576536,2.793870255795121,5.069204713508486,-1.7548296451568604,0.1881383955478668,-0.1589314341545105
1783202702092269600,2.14426953125,0.923305662382394,2.633533563366532,4.851640405470133,-2.081160306930542,0.2085532993078231,-0.1290734410285949
1783202702102206700,2.154206787109375,0.7446864404186606,2.5252245798170567,4.583809553006291,-2.346298217773437,0.260470300912857,-0.1250669807195663
1783202702112143600,2.1641435546875,0.5735825625211,2.399904840233922,4.056860146844387,-2.547759771347046,0.2940682172775268,-0.1288537234067917
1783202702122080500,2.17408056640625,0.4463976135879755,2.1682032857716083,3.630003684550524,-2.738724946975708,0.3445151448249817,-0.1209430769085884
1783202702132017700,2.184017578125,0.3629762569271028,1.9997148510694505,3.354636591362953,-2.9293172359466557,0.409247487783432,-0.1153215914964675
1783202702141954600,2.19395458984375,0.2178277812801301,1.839771395742148,2.8925825589597225,-3.097496509552002,0.5007787346839905,-0.1031533405184745
1783202702151891700,2.2038916015625,0.0356760012760758,1.6630941016264258,2.3308085076540705,-3.2487502098083496,0.593297004699707,-0.0973175093531608
1783202702161828600,2.21382861328125,-0.101654932487756,1.4576865337193012,1.7427461688816546,-3.4034602642059326,0.6782694458961487,-0.0878244042396545
1783202702171766500,2.2237666015625,-0.2552323599144816,1.1486249684616925,0.8913783461153507,-3.5316123962402344,0.7185445427894592,-0.0915719121694564
1783202702181703700,2.23370361328125,-0.4624899396024644,0.7748332299444824,-0.3357248235166072,-3.593446493148804,0.6643609404563904,-0.073251225054264
1783202702191640600,2.243640625,-0.6654251260466874,0.4496634835161268,-1.6128700811684131,-3.6151204109191895,0.5647907853126526,-0.078021615743637
1783202702201577700,2.25357763671875,-0.9091400666467844,-0.1116550791069865,-3.309885010966658,-3.54907488822937,0.3825424015522003,-0.0831703022122383
1783202702211514600,2.2635146484375,-1.306850660085678,-0.703530546426773,-5.2646863690763706,-3.3359992504119877,0.2275977134704589,-0.1371473222970962
1783202702221451500,2.273451416015625,-1.924338269176334,-0.9900221140883864,-7.123480006805062,-3.0044422149658203,0.1764588952064514,-0.2522725760936737
1783202702231388700,2.283388671875,-2.26000566341728,-1.2879688494831325,-8.890282174056768,-2.5660746097564697,0.1773864328861236,-0.3667373955249786
1783202702241325600,2.29332568359375,-2.1969208462119103,-1.6078399780467152,-10.852782854497432,-2.0074353218078613,0.0986261144280433,-0.4369029104709625
1783202702251262700,2.3032626953125,-1.8306047773376104,-1.7792653429836034,-12.9961077196002,-1.2772114276885986,0.0077765239402651,-0.4402815699577331
1783202702261199400,2.313199462890625,-1.3713356994777917,-2.0427233871907,-14.755116456496715,-0.4311968386173248,-0.3734339475631714,-0.4520367681980133
1783202702271136500,2.323136474609375,-1.4897677253738044,-1.099032962296903,-16.50989442395568,0.6087197065353394,-0.5849292874336243,-0.4549874663352966
1783202702281073700,2.33307373046875,-1.3179410861596463,-1.1537459647372363,-16.75710159058571,1.6777406930923462,-0.6834012866020203,-0.3378443419933319
1783202702291010600,2.343010498046875,-1.249381490805,-1.373575295098126,-16.318607297468184,2.570056438446045,-0.8353338241577148,-0.2520972192287445
1783202702300948700,2.35294873046875,-1.5989352254487572,-1.150872455127537,-15.049859281283616,3.226314783096313,-0.933562695980072,-0.2534631490707397
1783202702310885600,2.3628857421875,-2.201449721813202,-0.8887789772719145,-13.89585758821964,3.6774749755859375,-1.0270946025848389,-0.3751284480094909
1783202702320822500,2.372822509765625,-3.060034636351466,-0.4336782711379229,-13.43304133927226,4.049307823181152,-0.9130231142044068,-0.6176667809486389
1783202702330759400,2.382759521484375,-3.909886793857813,0.3716740887761116,-13.159654606246947,4.396617889404297,-0.6017206311225891,-0.9484699368476868
1783202702340696600,2.392696533203125,-4.216678952878714,1.2394897729963064,-12.949040847998855,4.742654800415039,-0.2072137892246246,-1.2579582929611206
1783202702350633700,2.4026337890625,-4.035829926036298,1.9900952282004056,-12.627349226009844,5.0633039474487305,0.2225020974874496,-1.4968376159667969
1783202702360570600,2.412570556640625,-3.6645173640489577,2.6849232666030525,-11.96619417849779,5.348705768585205,0.6502129435539246,-1.6209843158721924
1783202702370507500,2.422507568359375,-3.1875112617075443,3.2527748842567203,-11.21368303580284,5.616604804992676,0.9669428467750548,-1.6596732139587402
1783202702380444400,2.4324443359375,-2.766490665960312,4.033015745398402,-10.491690950012206,5.920389652252197,1.175694465637207,-1.6304547786712646
1783202702390381600,2.442381591796875,-2.4871935398474334,4.986185654038191,-9.752375388976931,6.29534912109375,1.2551196813583374,-1.5327041149139404
1783202702400318700,2.452318603515625,-2.169207202117145,5.866645715776086,-8.883725007498263,6.741752624511719,1.1742091178894043,-1.3649442195892334
1783202702410256600,2.462256591796875,-1.8526508971899749,6.933017640703916,-8.057798499980569,7.246034145355225,0.8702068328857422,-1.174391746520996
1783202702420193800,2.47219384765625,-1.531987595335394,8.028636118382215,-7.113919566777348,7.780082702636719,0.5104345083236694,-0.9842433333396912
1783202702430130400,2.48213037109375,-1.3216703358158468,9.02649915522933,-5.79472263533771,8.232409477233887,0.1622388958930969,-0.8222928047180176
1783202702440067600,2.492067626953125,-1.1319847993060943,9.876595058363677,-4.075483598771691,8.456399917602539,0.0063856560736894,-0.7240213751792908
1783202702450004500,2.50200439453125,-1.0484541370518503,10.404375070130824,-1.9302993695378303,8.330827713012695,0.054661575704813,-0.6946565508842468
1783202702459942000,2.51194189453125,-0.9293610899638384,10.606789155310391,0.3135790426820516,7.890755176544189,0.3176679313182831,-0.7385313510894775
1783202702469878800,2.521878662109375,-0.7485252879291773,10.545773253333568,2.2045979567110536,7.222533702850342,0.6895390152931213,-0.8439218997955322
1783202702479816000,2.53181591796875,-0.4168151068814099,10.178414105147125,3.7225995506614447,6.430078029632568,1.170876383781433,-0.9683024287223816
1783202702489753000,2.541753173828125,-0.253959563499689,10.121482842135428,4.949646021670103,5.676596641540527,1.67576265335083,-1.1113097667694092
1783202702499689700,2.551689697265625,0.0167579503163695,9.999551575946809,5.620525175338983,5.002440929412842,2.044278383255005,-1.1913704872131348
1783202702509627000,2.561626953125,0.5491481227600946,9.749044198727606,5.946827505993843,4.453113079071045,2.2048089504241943,-1.2070058584213257
1783202702519564000,2.57156396484375,1.1994848026052116,9.776355399501323,6.128011171618104,4.010945796966553,2.181568384170532,-1.1737940311431885
1783202702529502000,2.581501953125,1.794566664750874,9.744849669647216,6.340698813530802,3.660663604736328,2.001018047332764,-1.0813345909118652
1783202702539438800,2.59143896484375,2.2455124431625006,9.724113171088694,6.505721033427119,3.375232696533203,1.7051657438278198,-0.9303035736083984
1783202702549376000,2.6013759765625,2.5624755753248927,9.817923089164497,6.851977187830209,3.0825979709625244,1.3943825960159302,-0.7300571799278259
1783202702559313000,2.61131298828125,2.740172860138118,9.76384955367148,7.216241292610764,2.785770893096924,1.0900187492370603,-0.4986209869384765
1783202702569249800,2.621249755859375,2.7799337926402687,9.809514157259464,7.475626972812414,2.471504211425781,0.8015197515487671,-0.2717818915843963
1783202702579187000,2.63118701171875,2.819530766752362,9.85939024106264,7.900563865220546,2.1138103008270264,0.6103998422622681,-0.0756720378994941
1783202702589123800,2.641123779296875,2.7388699608460065,9.824108499801158,8.354310672527552,1.7082618474960327,0.5084708333015442,0.1006331294775009
1783202702599061000,2.65106103515625,2.5945874543786047,9.73174819601178,8.846443032330274,1.230276107788086,0.4884718358516693,0.2499589473009109
1783202702608998000,2.660997802734375,2.3884306755393743,9.68091057370007,9.373877007138727,0.7098581194877625,0.5374154448509216,0.3535852134227752
1783202702618934800,2.670934814453125,2.172112275908887,9.689412444585562,9.768649647429584,0.1772512197494506,0.6356523036956787,0.4295167326927185
1783202702628873000,2.680873046875,1.966337482124567,9.593350948190688,9.966559991449117,-0.3451869487762451,0.7177687883377075,0.4993223845958709
1783202702638809900,2.690809814453125,1.7731605963677166,9.501728895547986,10.043720388019084,-0.852673351764679,0.7633914351463318,0.5649234652519226
1783202702648747000,2.7007470703125,1.4890499324932691,9.49549029341936,10.101235003876685,-1.373146414756775,0.7511622905731201,0.6350939869880676
1783202702658684000,2.710683837890625,1.2061229254454373,9.356170670056343,10.137077886152268,-1.89801037311554,0.6721236705780029,0.6773809790611267
1783202702668620800,2.720620849609375,0.8730547539174556,9.22786577718258,9.995040236002206,-2.407733201980591,0.4883873462677002,0.678994357585907
1783202702678558000,2.730557861328125,0.5292486230149864,9.093642600175738,9.74739584699869,-2.912273406982422,0.2448311448097229,0.6406261920928955
1783202702688494800,2.740494873046875,0.1828881314545869,8.97588189767003,9.430344159770012,-3.4098246097564697,-0.0126566179096698,0.5462416410446167
1783202702698432000,2.750431884765625,-0.1194622457265853,9.062508626243472,8.947842382621765,-3.855620622634888,-0.2501583695411682,0.4180179536342621
1783202702708369000,2.760368896484375,-0.2658870249196887,9.128834325066208,8.322768702316283,-4.287414073944092,-0.4560737609863281,0.3067476451396942
1783202702718305800,2.770305908203125,-0.2731619843587279,9.161364721792935,7.805781302720308,-4.7644362449646,-0.6096212863922119,0.2355690747499466
1783202702728243700,2.78024365234375,-0.2913295092120766,9.249231221294403,7.345975341504812,-5.264211654663086,-0.7395784854888916,0.2237141281366348
1783202702738180900,2.790180908203125,-0.2687073430374264,9.222299375227092,6.665117814657092,-5.752939701080322,-0.9095653891563416,0.289138913154602
1783202702748118000,2.800117919921875,-0.5219046899929642,9.176230282491446,5.672679725468158,-6.184619903564453,-1.1294639110565186,0.4317505657672882
1783202702758055000,2.810054931640625,-1.1711366599991917,8.980966653588414,4.481912190064787,-6.550852298736572,-1.365859866142273,0.5896179676055908
1783202702767992000,2.819991943359375,-2.0784739150077103,8.630621184045076,3.127455144673586,-6.83428955078125,-1.599115014076233,0.6990047097206116
1783202702777928700,2.8299287109375,-3.123278735771775,8.186004024133085,1.5964888552099463,-7.0458807945251465,-1.861164212226868,0.7602542042732239
1783202702787865900,2.839865966796875,-4.107458991964161,7.6943059640944,0.0400496863156557,-7.218072891235352,-2.07300329208374,0.6975813508033752
1783202702797803000,2.849802978515625,-5.226899951517582,7.533736631953716,-1.2473825720727445,-7.338197708129883,-2.137568950653076,0.5106698274612427
1783202702807740000,2.859739990234375,-5.809565984204411,7.234407648420333,-2.4097452662467957,-7.391788482666016,-2.140111207962036,0.2179314941167831
1783202702817677000,2.869677001953125,-5.625702285715938,7.03092330366075,-3.877192146480083,-7.390318393707275,-2.2153215408325195,-0.1015559583902359
1783202702827615000,2.879614990234375,-4.688908342337608,6.599658377274871,-5.833842347326875,-7.310515403747559,-2.2871482372283936,-0.3414160907268524
1783202702837551900,2.8895517578125,-3.559586332499981,6.292580971571803,-7.936974318251013,-7.187573432922363,-2.171106100082397,-0.4188142120838165
1783202702847488800,2.89948876953125,-2.3460174749627707,5.755109002351761,-9.448956505781412,-7.0340576171875,-1.7605605125427246,-0.2915144264698028
1783202702857426000,2.909426025390625,-1.784174450074136,5.202565136206149,-10.700604918605087,-6.932151794433594,-1.2131259441375732,-0.089296318590641
1783202702867363000,2.919363037109375,-1.7556512431621552,4.022817299728096,-11.854882506000996,-6.544916152954102,-0.6124857664108276,0.1464802324771881
1783202702877300000,2.929300048828125,-2.7075679368704555,3.635058045330644,-13.789800767511128,-5.96136999130249,0.0281775873154401,0.170862540602684
1783202702887236900,2.93923681640625,-3.834199392449856,2.7830685835346576,-14.33674842108488,-5.683409690856934,0.7960567474365234,-0.0302713494747877
1783202702897173800,2.949173828125,-4.1065521062523125,1.4434765143200754,-14.001165051865575,-5.740743637084961,1.5867857933044434,-0.3210853636264801
1783202702907111000,2.95911083984375,-3.42184813310951,0.3166007285907864,-14.79110430020094,-5.647559642791748,2.2175164222717285,-0.5709140300750732
1783202702917048800,2.969048828125,-2.0598943022221325,-0.6291127265632153,-17.3881596059978,-5.12923526763916,2.4790852069854736,-0.635424017906189
1783202702926986000,2.978986083984375,-0.2991166559569537,-1.927477443984896,-20.3525799052,-4.107046127319336,2.27274227142334,-0.4706648290157318
1783202702936923100,2.988923095703125,1.1457735245533287,-2.954494532993436,-22.637634961938858,-2.682778835296631,1.747165322303772,-0.1434901803731918
1783202702946859800,2.99885986328125,1.737419128639996,-3.121868868973851,-23.436519733273983,-1.013411283493042,1.0235611200332642,0.2007595300674438
1783202702956797000,3.008796875,1.4660625862680374,-2.8894381234541533,-22.488044119930265,0.6629083156585693,0.2237609177827835,0.4559342861175537
1783202702966733800,3.01873388671875,0.8015751794628798,-2.50599088703692,-20.02689833679199,2.1035492420196533,-0.4707255065441131,0.5941371917724609
1783202702976671000,3.0286708984375,0.1004424879580736,-2.0825246517032383,-16.593207497936486,3.2124361991882324,-1.038794994354248,0.626639723777771
1783202702986608000,3.038608154296875,-0.4301423520967364,-1.81628282199651,-13.130713758444786,3.946232318878174,-1.4937138557434082,0.6044889092445374
1783202702996544800,3.048544677734375,-0.8778820279434323,-1.4734734470464288,-9.660130235999825,4.333347797393799,-1.7515077590942385,0.5237029790878296
1783202703006483000,3.05848291015625,-1.2363190340057015,-1.059641301498562,-6.5954118257462975,4.485712051391602,-1.828155755996704,0.3939806520938873
1783202703016419800,3.068419921875,-1.4506122114188968,-0.6210899444315582,-4.256070467546582,4.514842510223389,-1.7754201889038086,0.2173070609569549
1783202703026357000,3.07835693359375,-1.5375671490333973,-0.0806779031716287,-2.34515092126131,4.449843883514404,-1.5593477487564087,-0.0086499042809009
1783202703036294000,3.0882939453125,-1.4400237435176968,0.4123950984820723,-0.650295799845457,4.286846160888672,-1.2026287317276,-0.2375328838825225
1783202703046231000,3.09823095703125,-1.1388196137621998,0.8882191514320671,0.8071259454578161,4.024308681488037,-0.8119537234306335,-0.4379724860191345
1783202703056168000,3.10816796875,-0.7723653054609895,1.4215230411872266,1.986382491287589,3.692471742630005,-0.4588774144649505,-0.5753058195114136
1783202703066104800,3.118104736328125,-0.4332596073344349,2.0037337313219905,2.8799586397081613,3.336787223815918,-0.1793001890182495,-0.6629906892776489
1783202703076042000,3.1280419921875,-0.0704670364111661,2.4847125366866587,3.488065987643599,2.999342679977417,0.0305928625166416,-0.6873783469200134
1783202703085980000,3.13797998046875,0.3171485717318952,2.758141939809918,3.9841386095046993,2.6750121116638184,0.1582228392362594,-0.6779417991638184
1783202703095917000,3.1479169921875,0.5836207030631602,3.168042591127753,4.324228057971596,2.340837001800537,0.1955100297927856,-0.6473713517189026
1783202703105854000,3.15785400390625,0.8322839137203991,3.4513474915772675,4.701633383876085,2.012909173965454,0.2207829356193542,-0.5925583839416504
1783202703115790800,3.167790771484375,1.0798355098739263,3.538592059788108,4.994065009111166,1.732253909111023,0.2511301934719085,-0.5224461555480957
1783202703125728000,3.17772802734375,1.2532339284494518,3.667400810530781,5.195954193633795,1.4962430000305176,0.2645858228206634,-0.4704754650592804
1783202703135665000,3.187664794921875,1.3554089392885564,3.652930094368756,5.339593433761596,1.2692782878875732,0.2007826119661331,-0.4241564571857452
1783202703145602000,3.19760205078125,1.423199888358265,3.660171443799138,5.529252082264423,1.0201624631881714,0.1109408810734748,-0.3822017908096313
1783202703155539000,3.2075390625,1.452668851687759,3.676630411168933,5.719834275352954,0.7700170874595642,0.0414520800113678,-0.32188281416893
1783202703165475800,3.217475830078125,1.498343099886924,3.622632571260631,5.871222522172332,0.5272917747497559,-0.0066692209802567,-0.2663581967353821
1783202703175413800,3.227413818359375,1.596744437406212,3.5654724679291245,5.97883650919497,0.3055226504802704,-0.0421262793242931,-0.2129687368869781
1783202703185351000,3.237350830078125,1.7267992426872252,3.426587728852033,6.068948741796612,0.0600574724376201,-0.1034758538007736,-0.1569499522447586
1783202703195288000,3.2472880859375,1.88721835270226,3.281518163660168,6.205038297197222,-0.2038058638572693,-0.1591162234544754,-0.0775368884205818
1783202703205225000,3.257224853515625,2.005646286945045,3.251708716329932,6.23171236911118,-0.4706563651561737,-0.2127835303544998,9.34286508709e-05
1783202703215162000,3.267162109375,2.0464349550597367,3.2081407927602528,6.326328342872857,-0.8016012907028198,-0.2520225644111633,0.0972024053335189
1783202703225098800,3.2770986328125,2.0229441893570126,3.2312361294046044,6.346396148389577,-1.1314818859100342,-0.2841813862323761,0.1897528171539306
1783202703235036000,3.287035888671875,1.8778133954972027,3.2804414743393657,6.081845632770658,-1.4742019176483154,-0.3258577287197113,0.2824254930019378
1783202703244973000,3.29697314453125,1.6557494379520414,3.23475085952729,5.863080716770887,-1.8542765378952024,-0.3269336521625519,0.3685491979122162
1783202703254911000,3.306910888671875,1.4082770445145665,3.114436965407431,5.774532080224156,-2.274998426437378,-0.2543854117393493,0.4290330410003662
1783202703264848000,3.316847900390625,1.2056789810702204,2.938405860240757,5.552897161746024,-2.643733024597168,-0.1267342418432235,0.4684746563434601
1783202703274785000,3.326784912109375,1.0342105076439678,2.7433710716575384,5.006858439710736,-2.927488088607788,-0.0017337221652269,0.5000653266906738
1783202703284722000,3.336721923828125,0.947438086989522,2.543655431781709,4.536263957977295,-3.1865079402923584,0.1688511073589325,0.5401813387870789
1783202703294658800,3.346658935546875,0.6142058109410107,2.406961773008108,4.083071861943602,-3.421504020690918,0.3833202719688415,0.5520065426826477
1783202703304596000,3.356595947265625,0.1016011564739048,2.3699787807866928,3.513938095524907,-3.6291332244873047,0.6065927147865295,0.5274541974067688
1783202703314533000,3.366533203125,-0.3249890560992062,2.2674308449819685,2.9351322453975675,-3.84813928604126,0.8040879368782043,0.4744932353496551
1783202703324470000,3.376469970703125,-0.720641109573096,2.1510838086664674,2.4004841014266014,-4.12738561630249,0.9684979319572448,0.3964954018592834
1783202703334408000,3.386407958984375,-1.1056459506958722,2.104051862248033,1.7736293829232452,-4.415637969970703,1.09794282913208,0.3283935785293579
1783202703344344800,3.3963447265625,-1.4405609191343187,1.88952224573046,0.7706792520701885,-4.675845146179199,1.129719614982605,0.274248719215393
1783202703354282000,3.406281982421875,-1.994537740692496,1.8032802786909043,-0.6474217057138681,-4.8758931159973145,1.1065996885299685,0.2004796862602234
1783202703364219000,3.416218994140625,-2.4004013915792104,1.5411137355990707,-2.445817281103134,-4.992209434509277,1.0246542692184448,0.1189376637339592
1783202703374156000,3.426156005859375,-2.5634406209647653,1.1143363298907876,-4.911797644791006,-4.951115131378174,0.8784339427947998,0.0275374427437782
1783202703384093000,3.436093017578125,-2.547758483186364,0.4954086049944162,-7.750171643701195,-4.666229248046875,0.73940110206604,-0.0683580636978149
1783202703394029800,3.44602978515625,-2.551221775382757,-0.2574710787519812,-10.593089131259918,-4.100775241851807,0.6938155293464661,-0.2054293602705001
1783202703403967000,3.455967041015625,-2.409377017456293,-1.0225690235584974,-13.066795120763778,-3.2810702323913574,0.7231993675231934,-0.3840954601764679
1783202703413905000,3.46590478515625,-1.91405550622344,-1.6944088389530776,-15.061010789895056,-2.2952492237091064,0.7196818590164185,-0.5551116466522217
1783202703423842000,3.475842041015625,-1.155114038220048,-2.3816025830850003,-16.54782171128988,-1.223796248435974,0.6101256012916565,-0.6502220034599304
1783202703433779000,3.485779052734375,-0.4969191556878388,-2.5581419300347563,-17.445177378249166,-0.1246340945363044,0.4080025851726532,-0.6462723016738892
1783202703443715800,3.4957158203125,-0.1794249853886663,-2.217262792494893,-17.549583509141204,0.9319971799850464,0.1635478138923645,-0.553828775882721
1783202703453652700,3.50565283203125,-0.194948498539254,-1.5903192266643047,-16.93977169537544,1.860852122306824,-0.0966435521841049,-0.4497694671154022
1783202703463590000,3.51558984375,-0.5514035370040684,-0.8430506607979535,-15.774043324160576,2.6271562576293945,-0.2933487296104431,-0.3941073417663574
1783202703473527000,3.525527099609375,-1.177176159359142,-0.2531304191991687,-14.513573306977747,3.20229172706604,-0.3927344381809234,-0.4071613550186157
1783202703483465000,3.53546484375,-1.848588177795708,0.1836816199198365,-13.287558517104388,3.5932457447052,-0.3464697897434234,-0.4887456595897674
1783202703493402000,3.545402099609375,-2.408927666253597,0.5768205215290189,-12.470256630069017,3.857576608657837,-0.1604261547327041,-0.6239320039749146
1783202703503338800,3.5553388671875,-2.704087109017372,0.850444570441544,-12.226452549880742,4.095651149749756,0.1316227912902832,-0.7888570427894592
1783202703513276000,3.56527587890625,-3.004396628020704,1.347066789009422,-12.41446869187355,4.392355918884277,0.5262777209281921,-0.974016010761261
1783202703523212800,3.575212890625,-3.375359061396122,2.0324059913158417,-12.472372599309685,4.773797988891602,0.9958173036575316,-1.1367624998092651
1783202703533150000,3.58514990234375,-3.3621865683510896,2.478304423210025,-12.210110486888883,5.188735485076904,1.408778190612793,-1.206186056137085
1783202703543087000,3.595087158203125,-3.090019147987664,3.060793930286169,-11.636093624603747,5.606773376464844,1.6220511198043823,-1.192734718322754
1783202703553023700,3.605023681640625,-2.7231165113970635,3.755883980625868,-10.940374628710746,6.0540385246276855,1.63859760761261,-1.094124436378479
1783202703562962000,3.6149619140625,-2.4944559320658444,4.615584747451544,-10.18375312808752,6.548455238342285,1.520964503288269,-0.954574167728424
1783202703572898800,3.62489892578125,-2.566022161890566,5.717896585288644,-9.19539558621049,7.075172424316406,1.3292107582092283,-0.792515754699707
1783202703582836000,3.6348359375,-2.720648659978807,6.9132783364892,-7.857678663218021,7.572362899780273,1.0600626468658447,-0.62668377161026
1783202703592772900,3.64477294921875,-2.879277379445732,8.047733617562056,-6.354923738238215,7.996632099151611,0.7274935245513916,-0.5019543170928955
1783202703602710000,3.6547099609375,-2.854341675631702,8.933171467712521,-4.674232751253247,8.293582916259766,0.3852964639663696,-0.4328870177268982
1783202703612647000,3.66464697265625,-2.5703432399600743,9.622914311805369,-2.726602892208099,8.368402481079102,0.1081942766904831,-0.4227758049964905
1783202703622583800,3.674583740234375,-2.076000364501029,10.002768784427644,-0.622414105707407,8.162790298461914,-0.064479075372219,-0.4603703320026397
1783202703632522000,3.68452197265625,-1.5733736448213458,10.172799187874793,1.3927958361357449,7.717138290405273,-0.0266163796186447,-0.5532891154289246
1783202703642459000,3.694458984375,-1.1870162200458347,10.249128394317626,3.106236415556073,7.117206573486328,0.2260203212499618,-0.6819359660148621
1783202703652396000,3.70439599609375,-0.8229749642357229,10.17714803073406,4.5132992619752885,6.3849711418151855,0.6639702320098877,-0.8112883567810059
1783202703662333000,3.7143330078125,-0.481576186735928,10.130663342934849,5.715248116606474,5.617110252380371,1.14581298828125,-0.909781813621521
1783202703672269800,3.724269775390625,-0.1224643501520156,10.109483776783945,6.465087994265556,4.845464706420898,1.6017895936965942,-0.9544789791107178
1783202703682207000,3.73420703125,0.2952846765786409,9.844117853128909,7.054391273009776,4.14617919921875,2.017570734024048,-0.9545558094978333
1783202703692143900,3.744143798828125,0.6352037369146942,9.692989134028553,7.173980359986424,3.587764024734497,2.235842704772949,-0.9274592399597168
1783202703702081000,3.7540810546875,0.8305152235474437,9.564398409950732,6.959977543821931,3.195399761199951,2.3306267261505127,-0.8983659744262695
1783202703712019000,3.76401904296875,1.0300040689300745,9.309297859722376,7.094000814342499,2.9009764194488525,2.35837721824646,-0.8657528758049011
1783202703721956000,3.7739560546875,1.2340019892349838,9.164409496316312,7.290740945538878,2.64005184173584,2.1828901767730717,-0.806432843208313
1783202703731892700,3.783892822265625,1.5181971165224908,9.089411830738186,7.586295671230554,2.400654554367065,1.8779973983764648,-0.7126879692077637
1783202703741830000,3.793829833984375,1.665057802914828,8.999875936719775,7.996965553355216,2.159271001815796,1.5220425128936768,-0.6027671694755554
1783202703751767000,3.80376708984375,1.7999654550544917,9.034725131782888,8.53704624376893,1.8725069761276243,1.1484540700912476,-0.4672061502933502
1783202703761704000,3.813703857421875,1.988359052057564,9.05732917777896,9.04149097265601,1.5425472259521484,0.7393019795417786,-0.2814448475837707
1783202703771641000,3.82364111328125,2.1705995332583785,8.993237521618605,9.391793187579513,1.1844258308410645,0.3354801833629608,-0.0636875033378601
1783202703781579000,3.8335791015625,2.2736152327053247,9.065378628721833,9.609244098371269,0.8179246783256531,-0.0294652041047811,0.1610025614500045
1783202703791516000,3.843515869140625,2.2864767601050437,9.129999277192354,9.747029936295748,0.4070607423782348,-0.2804891765117645,0.3860255479812622
1783202703801452800,3.853452880859375,2.179319576939195,9.159764300858974,9.955338340210917,-0.0760150477290153,-0.4551427662372589,0.5899884700775146
1783202703811390000,3.863389892578125,2.0102229472108184,9.149595373544097,10.013594129824638,-0.6035848259925842,-0.5119333863258362,0.7621514797210693
1783202703821326800,3.873326904296875,1.7703244961589577,9.131640030136705,9.917197117865085,-1.1413525342941284,-0.518065869808197,0.8879243731498718
1783202703831264000,3.883263916015625,1.5239593333110213,9.042208765536548,9.76110288531184,-1.7167422771453855,-0.4905804395675659,0.9706773161888124
1783202703841201000,3.893200927734375,1.2892837314739822,8.940275746759772,9.647162617877123,-2.336817741394043,-0.4758712351322174,1.00745689868927
1783202703851138800,3.903138916015625,1.0439262843638657,8.932845304498075,9.329407750815152,-2.947580575942993,-0.5012983083724976,1.0136995315551758
1783202703861076000,3.913075927734375,0.8167574048951268,8.889670764160156,8.72817145769298,-3.4614145755767822,-0.5011777281761169,0.9882245659828186
1783202703871012900,3.923012939453125,0.5912260635003447,8.882962206432223,8.178006011116505,-3.911752462387085,-0.4820058941841125,0.9360737800598145
1783202703880950000,3.932949951171875,0.462075659713149,9.04682648846507,7.820554508960247,-4.365808486938477,-0.5253299474716187,0.9019402861595154
1783202703890887000,3.942886962890625,0.5371884761035443,9.168978119406104,7.62990684942007,-4.843054294586182,-0.622363805770874,0.9076434373855592
1783202703900823800,3.95282373046875,0.5440218292549253,9.437317505913972,7.469802796703576,-5.382557392120361,-0.7899675965309143,0.9333616495132446
1783202703910761000,3.962760986328125,0.5037178759172558,9.731444244629143,7.27167793315053,-5.982694149017334,-0.9760692715644836,1.015612006187439
1783202703920699000,3.972698974609375,0.5577481567904353,9.738532741585374,6.898025237777829,-6.615190029144287,-1.2135326862335205,1.1950525045394895
1783202703930636000,3.982635986328125,0.3532385606363415,9.99745664949417,6.095775373923778,-7.244231224060059,-1.565466046333313,1.4547154903411863
1783202703940573000,3.992572998046875,-0.4720009875304997,10.294073451459408,4.570883435937762,-7.741480827331543,-1.9945662021636963,1.7662529945373535
1783202703950510000,4.002510009765625,-1.8674428081303835,10.255081165242194,2.6055501624196764,-8.053414344787598,-2.467165231704712,2.0109424591064453
1783202703960446700,4.01244677734375,-3.786034788739681,9.85342110352516,0.3827361655384302,-8.180380821228027,-2.8892829418182373,2.159842014312744
1783202703970384000,4.0223837890625,-5.896986493504048,9.184988758486508,-1.4661521642476318,-8.201322555541992,-3.0106990337371826,2.0983383655548096
1783202703980321000,4.032321044921875,-7.536990665313601,8.701279359114169,-2.864932920011878,-8.182729721069336,-2.8178579807281494,1.802167892456055
1783202703990259000,4.042259033203125,-8.282263673448561,8.001661017695069,-4.17725879663825,-8.533069610595703,-2.204241991043091,1.401153326034546
1783202704000196000,4.052196044921875,-8.713537952184677,7.266088150319456,-5.657147809815407,-8.592108726501465,-1.1815989017486572,0.8308551907539368
1783202704010133000,4.062133056640625,-8.559999833855032,6.5197957360088825,-9.263831993576884,-8.297396659851074,-0.1205052137374877,0.309484452009201
1783202704020070000,4.07206982421875,-6.591784282898902,4.027100968396663,-13.461515738606453,-7.699966907501221,0.7006228566169739,-0.0527401231229305
1783202704030006800,4.0820068359375,-4.416582808803022,2.302273610304296,-17.678345498132703,-7.086380958557129,1.2294641733169556,-0.3341536819934845
1783202704039944000,4.09194384765625,-2.3196998152710497,0.5755149918884038,-20.09589296256304,-6.106672763824463,1.6910988092422483,-0.3524668514728546
1783202704049881000,4.101881103515625,-0.8735513052627444,-0.1191116787232458,-23.163809876596925,-4.409055709838867,1.7885308265686035,-0.2215054035186767
1783202704059819000,4.111819091796875,-0.1170410099290311,-0.1660267207637429,-24.495030423307416,-2.6226115226745605,1.4525288343429563,0.0544774942100048
1783202704069756000,4.121755859375,0.1516279007941484,-0.1503258782848715,-22.9252571410656,-1.0643490552902222,0.7898682951927185,0.319269448518753
1783202704079692800,4.13169287109375,0.0297272489394992,-0.2960164979845285,-20.61320184919834,0.1910090148448944,-0.0616628788411617,0.6186273097991943
1783202704089630000,4.1416298828125,-0.0963384136401116,-0.6938657692417503,-17.935078033477065,1.0926234722137451,-0.9339479804039,0.8704640865325928
1783202704099566800,4.15156689453125,-0.4061952209286391,-0.8751507032833993,-15.162787741327286,1.6621246337890625,-1.652189016342163,1.0137141942977903
1783202704109504000,4.16150390625,-0.8706050226777792,-1.1452663056835533,-12.625966247218846,1.9818131923675537,-2.057074069976806,1.0529696941375732
1783202704119441200,4.171441162109375,-1.245794133837521,-1.627173770200461,-10.452614492642878,2.1710197925567627,-2.128091335296631,1.0424236059188845
1783202704129379000,4.181379150390625,-1.4942194440856575,-1.895637367609888,-8.688585297235846,2.3230817317962646,-1.962019681930542,0.9466565251350404
1783202704139316000,4.19131591796875,-1.6336954270541666,-1.9826227003626524,-7.151876664727926,2.420275926589966,-1.6995930671691897,0.7888761758804321
1783202704149252900,4.2012529296875,-1.6607130517087876,-2.01277979208678,-5.611569130945205,2.4590463638305664,-1.384981393814087,0.5814663171768188
1783202704159190000,4.21118994140625,-1.6307241561584174,-1.775372134937346,-4.285791067549586,2.490074872970581,-1.105244278907776,0.3553054332733154
1783202704169127000,4.221126953125,-1.376793234231323,-1.5414809614762663,-3.1535949635803697,2.5238404273986816,-0.9106319546699524,0.1602741479873657
1783202704179064000,4.23106396484375,-1.0043776794381438,-1.1380716449391095,-2.158335971751809,2.530752182006836,-0.7993096709251404,0.0140091264620423
1783202704189002000,4.241001953125,-0.6451642821758985,-0.5058021348454058,-1.1701795054048298,2.5320417881011963,-0.7377797365188599,-0.10051079839468
1783202704198939000,4.25093896484375,-0.2990320464134216,0.1598064580094069,-0.3124830641388893,2.53918981552124,-0.7263880372047424,-0.1785293221473693
1783202704208875800,4.260875732421875,0.1538119668349623,0.5997586217850447,0.4020581211239099,2.534998178482056,-0.7778392434120178,-0.1967330873012542
1783202704218813000,4.27081298828125,0.5932222057536244,1.0266264822557567,1.103484973269701,2.5015769004821777,-0.8601602911949158,-0.1841820925474167
1783202704228750000,4.28075,0.9227873375967144,1.4753803035810589,1.760011776459217,2.430258512496948,-0.9415214657783508,-0.1526308357715606
1783202704238687000,4.29068701171875,1.205135083451867,1.851082332699001,2.4088468561023477,2.3181703090667725,-0.9944760203361512,-0.1027227044105529
1783202704248625200,4.300625244140625,1.45199124468714,2.1589770461343227,2.9150632708370683,2.161261796951294,-1.0320260524749756,-0.0378984324634075
1783202704258561800,4.310561767578125,1.697879145412147,2.330229100330919,3.31090792427361,1.9722938537597656,-1.0250390768051147,0.0547153130173683
1783202704268499000,4.3204990234375,1.840418023082614,2.47664350426048,3.614491058120132,1.7631529569625854,-0.986871600151062,0.143935739994049
1783202704278435800,4.330435791015625,1.917813981974125,2.548952661406993,3.879462429499626,1.5317816734313965,-0.8929517269134521,0.2229930460453033
1783202704288373000,4.340373046875,1.9171157705768944,2.5579212730214,4.119896740993857,1.279393196105957,-0.7719131708145142,0.2794674932956695
1783202704298310100,4.35031005859375,1.9254484223753208,2.4761413999572395,4.345627988874912,1.023403286933899,-0.5986832976341248,0.3193044364452362
1783202704308246800,4.360246826171875,1.8965362161457535,2.404283785970509,4.433105196797848,0.7570435404777527,-0.4222432971000671,0.3534522950649261
1783202704318185000,4.37018505859375,1.887627225764096,2.3338990210153163,4.487239522567391,0.4771192669868469,-0.2264382988214492,0.3892873525619507
1783202704328121900,4.380121826171875,1.8592562868043776,2.307857547916472,4.547192763748765,0.194643348455429,-0.0365927293896675,0.4223041534423828
1783202704338059000,4.39005908203125,1.781867342175543,2.289169360189885,4.616633964243531,-0.0837004035711288,0.1534261703491211,0.4448462426662445
1783202704347996000,4.399995849609375,1.6354916628211735,2.316583436816185,4.620432187482715,-0.3726707100868225,0.2863631844520569,0.4637373685836792
1783202704357933000,4.40993310546875,1.517967691680789,2.267062303930521,4.555335738193989,-0.6651968359947205,0.3715970516204834,0.4934528172016144
1783202704367870000,4.419869873046875,1.4043398511961105,2.115210823513568,4.456166923433542,-0.9730492234230042,0.4575835764408111,0.5176263451576233
1783202704377808000,4.429807861328125,1.249999768833816,1.9929894883371888,4.34018550556004,-1.2785600423812866,0.5690479278564453,0.5303835868835449
1783202704387745000,4.4397451171875,1.163189208126068,1.8157962075233456,4.14501423111558,-1.550670862197876,0.7005500793457031,0.5577268004417419
1783202704397682000,4.449681884765625,1.1633920372217892,1.593718221452832,3.835306476908922,-1.774076223373413,0.8474285006523132,0.603737473487854
1783202704407619000,4.459619140625,1.157064587765932,1.3321620653443038,3.548093463104963,-1.962286353111267,0.9783633351325988,0.6575255990028381
1783202704417555700,4.4695556640625,1.0515905353814363,1.0890098731935025,3.291668386274576,-2.119839191436768,1.049154281616211,0.7025259137153625
1783202704427492900,4.479492919921875,0.7520850262373685,0.9695329413544386,2.9599142199546096,-2.262807607650757,1.0586737394332886,0.7145090699195862
1783202704437430000,4.489429931640625,0.2990709171190858,0.8885777556113899,2.7000907328575847,-2.4440665245056152,1.064584255218506,0.6991737484931946
1783202704447368000,4.499367919921875,-0.2704121011286974,0.7972939950123429,2.3311253185182808,-2.621425151824951,1.0551904439926147,0.6406073570251465
1783202704457304800,4.509304931640625,-1.010622272916138,0.6966435633920133,1.7729934231072664,-2.806403160095215,1.065369725227356,0.5157160758972168
1783202704467241000,4.519240966796875,-1.5923898954585194,0.519016275075078,1.2822013719975949,-3.03216814994812,1.0823264122009275,0.3523582518100738
1783202704477178000,4.52917822265625,-2.0481296301484107,0.3128576696049421,0.5995400105983019,-3.3022139072418213,1.104762077331543,0.1669476479291916
1783202704487115300,4.539115234375,-2.4861571825370192,0.1348658588245511,-0.286621477651596,-3.56791615486145,1.194275140762329,-0.0230449195951223
1783202704497052200,4.54905224609375,-2.825646034762263,-0.0396715006530284,-1.574874404773116,-3.74282455444336,1.3279939889907837,-0.2054154872894287
1783202704506990000,4.558989990234375,-3.0281121423900124,-0.2506581838667392,-3.2646436012268065,-3.742839813232422,1.4359526634216309,-0.3750071823596954
1783202704516927000,4.568927001953125,-3.112264005282521,-0.5432860623262822,-5.163944021388888,-3.538041591644287,1.4641835689544678,-0.5424678325653076
1783202704526864100,4.578864013671875,-3.007413053232431,-0.9334624608680604,-6.972471114692092,-3.1607677936553955,1.3880618810653689,-0.694327175617218
1783202704536801000,4.588801025390625,-2.75259950325191,-1.370178638397157,-8.504105512675643,-2.6809372901916504,1.2046831846237185,-0.8043100237846375
1783202704546738200,4.59873828125,-2.353058625645936,-1.772274168922007,-9.849562090009451,-2.1249547004699707,0.91579008102417,-0.8523758053779602
1783202704556675000,4.608675048828125,-1.9134467266753317,-2.044006997260451,-11.296673453700542,-1.451173186302185,0.522321343421936,-0.8311008810997009
1783202704566613200,4.61861328125,-1.588040321946889,-2.091867357327044,-12.74470719293356,-0.650075376033783,0.0932022407650947,-0.7306347489356995
1783202704576550000,4.6285498046875,-1.4228475677892565,-2.0462053840875623,-13.78707221933007,0.2496602237224578,-0.2923415303230285,-0.5912026166915894
1783202704586487000,4.638487060546875,-1.6209575260341167,-1.9170897593528031,-14.298359361457823,1.1828092336654663,-0.5993496775627136,-0.4810047447681427
1783202704596424200,4.648424072265625,-2.022604436008632,-1.7661077552467583,-14.23614869673848,2.052337408065796,-0.8297931551933289,-0.4848363399505615
1783202704606361000,4.658361083984375,-2.4668150609463453,-1.5738029761493204,-13.607875343608857,2.78785252571106,-0.9766651391983032,-0.6103721261024475
1783202704616298200,4.66829833984375,-2.9554902660325166,-1.1749711235955358,-12.753143012845516,3.369643211364746,-1.0913251638412476,-0.8415220379829407
1783202704626236200,4.678236083984375,-3.2889965367168186,-0.7762424391552806,-12.080212187343836,3.853365182876587,-1.0776383876800537,-1.1262507438659668
1783202704636173000,4.688173095703125,-3.6042736154884096,-0.0261303204260766,-11.444240680927038,4.254893779754639,-0.9592376947402954,-1.436425805091858
1783202704646110000,4.69810986328125,-3.6829888402849433,0.8965897971533239,-10.913502988398074,4.597352981567383,-0.7950599193572998,-1.7164700031280518
1783202704656047000,4.708047119140625,-3.231696732653677,1.5506049097828567,-10.453348652136324,4.883314609527588,-0.6538197994232178,-1.931248903274536
1783202704665984300,4.717984375,-2.559963007982075,2.1128385414242743,-10.151119270986316,5.137443065643311,-0.5396303534507751,-2.0554966926574707
1783202704675921200,4.727921142578125,-2.010959590922296,2.716086466629803,-9.82225907254219,5.377156734466553,-0.3763276636600494,-2.104309320449829
1783202704685858000,4.737858154296875,-1.960829824618995,3.5975805475905536,-9.432708550813794,5.55880069732666,-0.1847856491804123,-2.120421886444092
1783202704695796000,4.7477958984375,-2.548258833923936,4.231711979098618,-9.096730044797065,5.716757774353027,0.1811282932758331,-2.1739962100982666
1783202704705733000,4.757733154296875,-3.27688991933763,4.694677573388815,-8.581143744170665,5.8794145584106445,0.6251310706138611,-2.310367584228516
1783202704715670000,4.767669921875,-4.032343545225262,5.386900543859601,-8.195183355888723,6.053642749786377,1.0175610780715942,-2.489737033843994
1783202704725607200,4.777607177734375,-4.828554713436961,5.966397298860549,-7.630842084443569,6.261815547943115,1.3435380458831787,-2.688140392303467
1783202704735544300,4.78754443359375,-5.286153519997001,6.625381432074308,-6.809965261530876,6.526398658752441,1.4531066417694092,-2.8911020755767822
1783202704745482200,4.797482177734375,-5.136401934468746,7.40308429917097,-6.230837339842319,6.857620716094971,1.297176718711853,-3.095620632171631
1783202704755419100,4.807419189453125,-4.610131450481712,7.983432702565192,-5.891898814976215,7.178631782531738,0.9268492460250854,-3.2691707611083984
1783202704765356000,4.81735595703125,-3.6925989646732806,8.519064012354612,-5.305144051671028,7.408514022827148,0.6282569169998169,-3.3388054370880127
1783202704775293200,4.827293212890625,-2.587828627768159,9.428891038352251,-4.307134884351492,7.577533721923828,0.5279833078384399,-3.298034429550171
1783202704785230000,4.83722998046875,-1.730883443260938,10.532450830423832,-3.256906869494915,7.680649280548096,0.6489699482917786,-3.097855567932129
1783202704795167200,4.847167236328125,-0.935751010196656,11.13582004392147,-1.7566612969875337,7.578547954559326,0.9797677397727966,-2.8110313415527344
1783202704805104000,4.857104248046875,-0.4356026633292436,11.487380734473469,0.3678156597822904,7.236701965332031,1.361624002456665,-2.5197079181671143
1783202704815042000,4.8670419921875,-0.2671712195113301,11.57372280088663,2.6256641451656817,6.691627025604248,1.5508053302764893,-2.2660939693450928
1783202704824979000,4.87697900390625,-0.1841416751796379,11.408803456842898,4.7317546736344696,5.9632744789123535,1.505106806755066,-2.050370454788208
1783202704834916000,4.886916015625,0.2200759985983371,11.001610310918092,6.325145855090022,5.1996235847473145,1.1803865432739258,-1.8447744846343996
1783202704844853200,4.896853271484375,0.7086287463486194,10.550519571077825,7.233212885677814,4.47127103805542,0.6362745761871338,-1.657045602798462
1783202704854790100,4.9067900390625,1.2344926953613755,10.286240858137608,7.574046430510282,3.871283054351807,0.0638792961835861,-1.4689812660217283
1783202704864727000,4.91672705078125,1.6610308854863047,10.155305616760254,7.609656673073768,3.348937749862671,-0.3984803557395935,-1.2687219381332395
1783202704874665000,4.9266650390625,1.954891959002614,10.101377627217769,7.651388028866052,2.8606655597686768,-0.6241266131401062,-1.0800843238830566
1783202704884602000,4.93660205078125,2.2160087007805704,10.252920772337912,7.805086306193471,2.3674979209899902,-0.5882304310798645,-0.9058229923248292
1783202704894539000,4.9465390625,2.565021460415423,10.249359864985944,7.841424863031506,1.886113166809082,-0.3696016073226928,-0.736814558506012
1783202704904476200,4.95647607421875,2.7921067532539365,10.204481443339583,7.716633531236648,1.4212509393692017,-0.1367070823907852,-0.5555177330970764
1783202704914413000,4.9664130859375,2.976770954470336,10.191839403909444,7.849837886589765,0.9387614130973816,0.1168382465839386,-0.378612071275711
1783202704924350000,4.976349853515625,3.0656530607551336,10.310753368103503,8.080635185688733,0.4635887444019317,0.3044765889644623,-0.1926089227199554
1783202704934288100,4.9862880859375,3.1460233592823146,10.398986947351691,8.11014477328956,0.0241024866700172,0.3782712817192077,0.0141797941178083
1783202704944225000,4.99622509765625,3.268025644880533,10.440146640735865,8.002156692257524,-0.3429509103298187,0.354451447725296,0.2558701932430267
1783202704954162200,5.006162109375,3.345831353616714,10.442642549204823,7.764788198074698,-0.633719265460968,0.178394079208374,0.5296361446380615
1783202704964099000,5.01609912109375,3.443056340833008,10.400344207179543,7.690031940037012,-0.9085407257080078,-0.039152093231678,0.8090630173683167
1783202704974036000,5.026035888671875,3.434587203173339,10.408108995962142,7.759137624967098,-1.1932264566421509,-0.251017302274704,1.0957056283950806
1783202704983973000,5.03597314453125,3.2639427594810724,10.475462284266948,7.845770198759436,-1.5086336135864258,-0.4434613287448883,1.37726628780365
1783202704993911000,5.0459111328125,3.069123659475148,10.496516762733458,7.969460291314125,-1.9118365049362185,-0.6247469186782837,1.6461706161499023
1783202705003848200,5.05584814453125,2.7594781568497417,10.573863037264346,8.177365959647297,-2.4510066509246826,-0.7646797895431519,1.889695167541504
1783202705013785000,5.06578515625,2.388554009658098,10.615302132111788,8.384163374477625,-3.117098569869995,-0.8259406685829163,2.106654167175293
1783202705023722200,5.07572216796875,1.9861472212269904,10.597739587414264,8.272223925471305,-3.8482961654663086,-0.8072258234024048,2.279785633087158
1783202705033659000,5.085658935546875,1.449973475123942,10.639502507388592,7.822313335326314,-4.597447395324707,-0.7214540243148804,2.3937127590179443
1783202705043596000,5.095595947265625,0.8172282372772693,10.622100121688842,7.220043607503175,-5.334687232971191,-0.5598717927932739,2.463398694992065
1783202705053534000,5.105533935546875,0.2786800171278417,10.453947202551364,6.44221565272212,-5.998346328735352,-0.3438524603843689,2.4966094493865967
1783202705063471000,5.11547119140625,-0.1318108551681041,10.241163699048755,5.559534407803416,-6.581392288208008,-0.1404503583908081,2.50728178024292
1783202705073408000,5.125407958984375,-0.3043606210250407,9.98007530658245,4.664629056605697,-7.081283092498779,0.0642977356910705,2.536940097808838
1783202705083345200,5.13534521484375,-0.2905822710413485,9.772541978693008,3.737204414597153,-7.567378997802734,0.2136477977037429,2.6361117362976074
1783202705093282000,5.145281982421875,-0.4706444583550095,9.77329951906204,2.7146611100018023,-8.020891189575195,0.4170148372650146,2.8037261962890625
1783202705103220000,5.155219970703125,-0.6760466194346547,9.676385789752006,1.4430793316960333,-8.357878684997559,0.5886979103088379,2.988708734512329
1783202705113157000,5.1651572265625,-0.784938079047203,9.538903318688272,-0.378573785161972,-8.513792991638184,0.5417628288269043,3.1651418209075928
1783202705123094000,5.175093994140625,-0.9980103363633156,9.280573285019395,-2.6222195576697587,-8.46186637878418,0.2515254020690918,3.386573553085327
1783202705133031200,5.18503125,-1.5904541050903498,8.968588233530522,-4.956963651207089,-8.174823760986328,-0.1555007100105285,3.558439254760742
1783202705142968000,5.194968017578125,-2.9481998167634007,8.62828309648633,-7.536319634184241,-7.637475967407227,-0.5865594148635864,3.5800609588623047
1783202705152905000,5.204905029296875,-4.673887591077387,7.469514042890071,-9.974271004217863,-6.876476287841797,-0.8759989142417908,3.389317274093628
1783202705162843000,5.2148427734375,-6.405994000262021,5.903699727407098,-11.67344457335472,-5.980134963989258,-0.9591593146324158,2.9571375846862797
1783202705172780000,5.224780029296875,-6.909164471429586,3.794298174694181,-12.581126404017208,-5.099801063537598,-0.9558576345443726,2.3591063022613525
1783202705182717200,5.23471728515625,-7.01952980298698,2.723377208159864,-13.46161393828392,-4.289458274841309,-1.0393952131271362,1.5362179279327393
1783202705192654000,5.244654052734375,-6.381439404720068,1.0453590205807235,-12.672731505525112,-3.943005084991455,-0.7691054344177246,0.9082371592521667
1783202705202591200,5.25459130859375,-5.37548775396347,0.706842739714682,-12.60115563108921,-3.3115427494049072,-0.4940211474895477,0.3365180492401123
1783202705212527900,5.26452783203125,-4.006575189979374,0.5834972958792001,-13.262813367426396,-2.780994176864624,-0.2661803960800171,0.1282839924097061
1783202705222466000,5.274466064453125,-2.4367051693648096,-0.193811402534414,-12.571827829796074,-2.514805793762207,0.062881089746952,0.2063990384340286
1783202705232403000,5.28440283203125,-1.4324378184333444,-1.02787458262071,-12.119091076314447,-2.402909755706787,0.4809649884700775,0.6017845273017883
1783202705242340000,5.294340087890625,-1.1765811891406774,-1.7329650718405842,-12.358646851408482,-2.0725104808807373,0.8619956970214844,0.9264917969703674
1783202705252277200,5.30427734375,-1.8424103659436104,-2.566035313633084,-12.74134619206786,-1.822575330734253,1.1370556354522705,1.1969584226608276
1783202705262214100,5.314214111328125,-2.2713241991586983,-3.67422013515681,-11.964707154810428,-1.775845646858215,1.4292818307876587,1.342834234237671
1783202705272151000,5.324151123046875,-3.3554338792204854,-3.727430624079704,-11.632967601537704,-1.4805225133895874,1.629944920539856,1.278275489807129
1783202705282089000,5.3340888671875,-4.465321120747924,-3.9434056171,-12.076383568966389,-0.9073055386543274,1.6245474815368652,1.0542104244232178
1783202705292026000,5.344026123046875,-5.096406024166941,-3.849078397151827,-11.340793165934086,-0.4913521409034729,1.5998557806015017,0.7109119892120361
1783202705301963000,5.353962890625,-5.067392695650458,-3.872173733796179,-9.74135715135634,-0.0972935184836387,1.4681164026260376,0.3467209637165069
1783202705311900200,5.363900146484375,-4.667701888179779,-3.7663983603775497,-9.326027460727095,0.4021142423152923,1.0762927532196045,0.0217907950282096
1783202705321837300,5.37383740234375,-3.9754964533656834,-3.446749057871103,-8.794403633013367,0.9902302026748656,0.5468786358833313,-0.200050801038742
1783202705331775200,5.383775146484375,-3.0137238438144323,-3.3219065804108974,-8.116173532059788,1.5692206621170044,0.0068597975187003,-0.2992962002754211
1783202705341712000,5.3937119140625,-2.2857561907455324,-2.9350802229493853,-7.201902386134862,2.060436725616455,-0.4613758623600006,-0.3462256193161011
1783202705351649000,5.40364892578125,-1.855814183526486,-2.379507364371418,-6.286544029495119,2.5060980319976807,-0.8315523862838745,-0.3597115576267242
1783202705361586200,5.413586181640625,-1.602848307239264,-1.7555872380152344,-5.666507758834958,2.9596378803253174,-1.114893078804016,-0.3974200487136841
1783202705371523000,5.423523193359375,-1.4146885189920664,-0.9655950904488564,-4.945065123620629,3.357507467269897,-1.3163628578186035,-0.4539269208908081
1783202705381460200,5.433460205078125,-1.1427665978223085,-0.2377235181655734,-3.875488265171647,3.634063243865967,-1.427624225616455,-0.5206441283226013
1783202705391398100,5.443398193359375,-0.8558682029254734,0.4446812746567651,-2.7460820841819045,3.786626100540161,-1.4522465467453003,-0.580590546131134
1783202705401335000,5.4533349609375,-0.5205781175643205,1.042749057278037,-1.6772323709636925,3.835480928421021,-1.406296968460083,-0.6317791938781738
1783202705411272000,5.46327197265625,-0.2217772495582699,1.6492939782023428,-0.634105712544918,3.7803874015808105,-1.2715893983840942,-0.676794707775116
1783202705421209000,5.473208984375,0.0419251247987151,2.1644963940776885,0.4365571875751018,3.623730182647705,-1.0490809679031372,-0.720493733882904
1783202705431146200,5.483146240234375,0.2901379613399505,2.540636668482423,1.4358762684494255,3.3852033615112305,-0.770749568939209,-0.7485296726226807
1783202705441083100,5.493083251953125,0.6156649237081409,2.821481608559191,2.30859726036787,3.0789740085601807,-0.4871509075164795,-0.7483203411102295
1783202705451021300,5.503021240234375,1.003425347149372,3.01615370130986,3.0628532009035347,2.7212517261505127,-0.22711843252182,-0.7041977047920227
1783202705460958700,5.512958740234375,1.3776356764048336,3.1835908733934164,3.7231367262780655,2.351469039916992,0.0097942547872662,-0.6294547915458679
1783202705470895900,5.522895751953125,1.658247684508562,3.2584105520561337,4.250378977906704,1.994117259979248,0.1837150454521179,-0.5429223775863647
1783202705480832800,5.532832763671875,1.893732556901872,3.2520059457108377,4.629920146796107,1.6591107845306396,0.2613837420940399,-0.4524073600769043
1783202705490770000,5.54277001953125,2.0769985817581413,3.27384982098937,5.002476279103756,1.338606595993042,0.2701070606708526,-0.368211030960083
1783202705500707800,5.552707763671875,2.218636711196601,3.2848812103524803,5.31422343018353,1.0177892446517944,0.2277558892965316,-0.2662796080112457
1783202705510645000,5.56264501953125,2.279377011102438,3.298149272726476,5.583264242959023,0.6848602294921875,0.1638428568840026,-0.1889839172363281
1783202705520581600,5.57258154296875,2.1873276729583737,3.2839646800294515,5.812121513906121,0.3548995852470398,0.1367774158716201,-0.1305381804704666
1783202705530518800,5.582518798828125,2.1424545120090244,3.129804630409181,5.971614156726003,0.0189932528883218,0.1214914917945861,-0.0807936340570449
1783202705540456000,5.5924560546875,2.1544192366994914,3.0463527324795723,6.028824821200966,-0.3227454423904419,0.0977467447519302,-0.0165238343179225
1783202705550392800,5.602392822265625,2.191929029273987,3.025473902840912,6.047349488928914,-0.6522014737129211,0.0838772132992744,0.051322303712368
1783202705560330800,5.612330810546875,2.1783752818264066,2.982994943551719,5.970381400060654,-0.9676723480224608,0.0728400126099586,0.123498223721981
1783202705570268000,5.622267822265625,2.156593073607236,2.937201745148003,5.818797338408231,-1.269995093345642,0.0643646568059921,0.2011204361915588
1783202705580204800,5.632204833984375,2.0790556604184207,2.9310195493817326,5.5998938907206055,-1.561397910118103,0.0754404813051223,0.2840344905853271
1783202705590141700,5.6421416015625,1.913700263044983,2.9107886622577905,5.383065495741367,-1.854772925376892,0.0850774198770523,0.3591634333133697
1783202705600078800,5.652078857421875,1.7226795324087143,2.9234315784707663,5.141699456354975,-2.156666755676269,0.0969679057598114,0.4247016906738281
1783202705610015700,5.662015625,1.5199613497160374,2.9117440632864837,4.916412445110082,-2.503458261489868,0.1149939373135566,0.4836139380931854
1783202705619954000,5.671953857421875,1.2845054111562668,2.8246780665129423,4.555046984380484,-2.8492753505706787,0.1654382050037384,0.5403443574905396
1783202705629890800,5.681890869140625,0.9972555724732576,2.746966173540056,4.052084603005647,-3.153620958328247,0.2632315158843994,0.5815458297729492
1783202705639827700,5.69182763671875,0.7032565517909825,2.556207454840839,3.4285540604889397,-3.3878307342529297,0.3963256478309631,0.5861525535583496
1783202705649764900,5.701764892578125,0.389831822887808,2.316285038391501,2.8142349984318016,-3.5571846961975098,0.541589081287384,0.5548000335693359
1783202705659701800,5.71170166015625,0.1199225567147135,2.0123980992928145,2.109704335051775,-3.6610724925994873,0.6910446286201477,0.5091156363487244
1783202705669640000,5.721639892578125,-0.1075344920456409,1.6991148246869443,1.462435189551115,-3.732087850570679,0.8574367165565491,0.4561985731124878
1783202705679576800,5.731576904296875,-0.3557143031001091,1.3756427490219474,0.8005243552356958,-3.780605554580689,1.0075008869171145,0.4106720983982086
1783202705689513700,5.741513671875,-0.6876473331183195,0.989682726066187,0.160586283275485,-3.8412811756134033,1.1100279092788696,0.3592597842216491
1783202705699450600,5.75145068359375,-1.2644943042628467,0.7784125497359782,-0.5001064074218273,-3.9406991004943848,1.187466025352478,0.2769356071949005
1783202705709387800,5.7613876953125,-2.024678611934185,0.5538700001828372,-1.3005962758660317,-4.0732741355896,1.2616736888885498,0.135962039232254
1783202705719325000,5.771324951171875,-2.740695422707498,0.3315433000482619,-2.36900467505753,-4.16549825668335,1.3085216283798218,-0.0646107494831085
1783202705729262800,5.781262939453125,-3.284344034735858,-0.0281289468973875,-3.941443961638212,-4.179347038269043,1.3009920120239258,-0.2858644425868988
1783202705739200000,5.791199951171875,-3.4193846656054254,-0.5629032014660537,-5.9363633951246735,-4.078423976898193,1.2268160581588743,-0.4788663983345032
1783202705749136600,5.80113671875,-3.2116309729635715,-1.160535478746891,-8.451560501924156,-3.781776428222656,1.0563037395477295,-0.5998020768165588
1783202705759073800,5.81107373046875,-2.779448931732773,-1.820770781065524,-11.290938124918936,-3.200593948364258,0.8483869433403015,-0.6256911754608154
1783202705769010700,5.8210107421875,-2.423373101843893,-2.3335984306335447,-14.09025320211649,-2.3445799350738525,0.5719643831253052,-0.6031209230422974
1783202705778948900,5.830948974609375,-2.4870184755414724,-2.455117608889937,-16.131317131662367,-1.3396329879760742,0.4029588401317596,-0.6239537596702576
1783202705788885800,5.8408857421875,-2.580466574567556,-2.458402621909976,-17.220335188162327,-0.3158392608165741,0.2554095685482025,-0.622002124786377
1783202705798823000,5.850822998046875,-2.285857166901976,-2.7271467898264525,-17.785265073150395,0.6703886389732361,0.0517006628215312,-0.5813553929328918
1783202705808759800,5.860759765625,-2.069666046912968,-2.659344004188478,-17.972025662124157,1.6493574380874634,-0.1472245454788208,-0.5654034614562988
1783202705818696700,5.87069677734375,-2.092573459769785,-2.3173937302857635,-17.65951570997834,2.599708318710327,-0.2963402569293976,-0.5914848446846008
1783202705828634600,5.880634521484375,-2.380815378230065,-1.6126657907679676,-16.83614064050913,3.4553563594818115,-0.3711470365524292,-0.6689852476119995
1783202705838571800,5.89057177734375,-2.7379268347769976,-0.67352820687294,-15.630454352915288,4.187905311584473,-0.4301488399505615,-0.8060000538825989
1783202705848509000,5.900509033203125,-3.097947895160317,0.3627741584837436,-14.55083307031393,4.822001457214356,-0.4944300055503845,-1.014707326889038
1783202705858445800,5.91044580078125,-3.260355548644066,1.3461866451740263,-13.47621529508829,5.372048854827881,-0.576280415058136,-1.2541438341140747
1783202705868382700,5.9203828125,-3.1588398784965275,2.310748008660972,-12.385137383449075,5.808053016662598,-0.6764525771141052,-1.451291561126709
1783202705878319600,5.930319580078125,-2.826891650909185,3.2332273032218217,-11.272411119103433,6.147904396057129,-0.7297354936599731,-1.5961147546768188
1783202705888257800,5.9402578125,-2.3833232693977653,4.10073669797182,-10.080402643728256,6.426187038421631,-0.7147232890129089,-1.6691023111343384
1783202705898194700,5.950194580078125,-1.9145944354057312,4.923344290199876,-8.866867980721592,6.673332691192627,-0.6770943999290466,-1.6786301136016846
1783202705908131800,5.9601318359375,-1.6387610398806631,5.946206743746996,-7.55933576811254,6.863638877868652,-0.6256232857704163,-1.6600724458694458
1783202705918069000,5.970069091796875,-1.4290838318303227,6.857677445298433,-6.0993900572896,6.991294860839844,-0.572215735912323,-1.6159640550613403
1783202705928005600,5.980005615234375,-1.1701045404724777,7.564595880597829,-4.692103338986635,7.042649745941162,-0.5511240363121033,-1.5750433206558228
1783202705937942800,5.98994287109375,-1.0140559006266294,8.184827381569146,-3.446926752525568,7.045187473297119,-0.5154044032096863,-1.5762577056884766
1783202705947880700,5.999880615234375,-0.8119957434512675,8.65127760310471,-2.217182128474116,7.011993408203125,-0.410958468914032,-1.596211075782776
1783202705957817900,6.00981787109375,-0.4687507535628974,8.977433803287148,-0.8488064478456974,6.8206963539123535,-0.228564441204071,-1.6138668060302734
1783202705967754800,6.019754638671875,-0.1157449787691235,9.27666926331818,0.6794727944910526,6.454483509063721,0.0327599421143531,-1.619460105895996
1783202705977692000,6.02969189453125,0.1806397680059075,9.48290203000307,2.066322289443016,6.000844478607178,0.359723687171936,-1.6186180114746094
1783202705987628800,6.03962890625,0.4762541149303317,9.65525064726472,3.1037492749154567,5.539680004119873,0.7038596272468567,-1.5973427295684814
1783202705997566700,6.049566650390625,0.7910353730089962,9.698294254699348,3.965217051413655,5.095952033996582,1.0044115781784058,-1.5524604320526123
1783202706007504000,6.05950390625,1.1363363455791025,9.726945764166116,4.70953144364953,4.672979354858398,1.2437974214553833,-1.4861981868743896
1783202706017440800,6.069440673828125,1.5151917972266673,9.649432900896668,5.459474197161198,4.216938495635986,1.411786437034607,-1.3956403732299805
1783202706027378000,6.0793779296875,1.850126785539836,9.513529223456976,6.119460200893879,3.784095764160156,1.505434513092041,-1.2844581604003906
1783202706037314800,6.089314697265625,2.1586146425627173,9.3885350625664,6.522346589535474,3.4255847930908203,1.5210121870040894,-1.1539623737335205
1783202706047251700,6.099251708984375,2.4502011952757834,9.313217663514614,6.800951349470019,3.13799262046814,1.4142664670944214,-1.0051227807998655
1783202706057189600,6.109189697265625,2.6904142652347685,9.212202928626535,7.166362286198138,2.829559803009033,1.2013849020004272,-0.8561871647834778
1783202706067126800,6.119126708984375,2.872066132892668,9.053230510288476,7.720925090950727,2.457977533340454,0.9389872550964355,-0.6962793469429016
1783202706077063700,6.129063720703125,2.996981675589085,8.920476821312308,8.19136818151474,2.0359206199646,0.6937655210494995,-0.5473111271858215
1783202706087000800,6.139000732421875,3.0081971893474457,8.794134752944112,8.469378482687473,1.6030446290969849,0.5100764632225037,-0.4089929163455963
1783202706096938000,6.14893798828125,3.0137931096583603,8.62462515850067,8.55686855009198,1.2007917165756226,0.3850836753845215,-0.277139276266098
1783202706106874600,6.15887451171875,3.0145956582129,8.531423143190144,8.612364227342605,0.8348553776741028,0.2955740392208099,-0.1410018354654312
1783202706116812800,6.168812744140625,3.0592768037214872,8.459680680015683,8.674756093847751,0.4796346724033355,0.191129133105278,0.0064025288447737
1783202706126749700,6.178749755859375,3.1309637373164296,8.448119421559571,8.828184322062134,0.1183995977044105,0.0825100168585777,0.1714196801185608
1783202706136686800,6.188686767578125,3.209242616522312,8.43915402481556,9.049473203581572,-0.2629677355289459,-0.0006996472366154,0.36310014128685
1783202706146623700,6.198623779296875,3.205017984564602,8.491832306557892,9.257260213971138,-0.6715168952941895,-0.0596840232610702,0.5650050640106201
1783202706156561000,6.208560791015625,3.1509511710733173,8.556506731042266,9.443952998405694,-1.1170003414154053,-0.1097716987133026,0.774155855178833
1783202706166497800,6.218497802734375,3.0248800286009905,8.621110428377985,9.593054011070729,-1.6124069690704346,-0.1819298863410949,0.9635986685752868
1783202706176435700,6.228435791015625,2.8132579700931903,8.729446299934386,9.693944827318193,-2.147700786590576,-0.2644990682601928,1.1263943910598757
1783202706186372900,6.238372802734375,2.6271280802384016,8.759974709188938,9.591993688362836,-2.6603922843933105,-0.3399243652820587,1.2683056592941284
1783202706196309800,6.248309814453125,2.444082712395489,8.833276092243194,9.319466787037252,-3.098163366317749,-0.4301682412624359,1.3982919454574585
1783202706206247000,6.258246826171875,2.2827029406547545,9.073789898714423,9.016737639671565,-3.452703952789306,-0.4912085235118866,1.5242259502410889
1783202706216183800,6.268183837890625,2.247345357678085,9.164649150291083,8.844421755635738,-3.768318891525269,-0.625339686870575,1.683429479598999
1783202706226120700,6.27812060546875,2.066006209231168,9.1762384657979,8.629162217408417,-4.110055446624756,-0.8981605768203735,1.8450030088424685
1783202706236058600,6.28805859375,1.479990135464072,9.281896058055755,8.512163146924973,-4.595498085021973,-1.287401795387268,1.983984351158142
1783202706245995800,6.297995849609375,0.3263634131923317,9.38855318274498,8.115944399479032,-5.279892921447754,-1.803224205970764,2.080686330795288
1783202706255933000,6.307932861328125,-1.4009760738514363,9.363733214265109,7.034593516606092,-6.054784297943115,-2.2665703296661377,2.1421024799346924
1783202706265869800,6.317869873046875,-3.406289621710777,9.22428324252069,5.291386159953475,-6.793025493621826,-2.598716259002685,2.092902660369873
1783202706275807000,6.327806884765625,-5.10597464750111,8.85490047955215,2.765681103143096,-7.412042617797852,-2.9119412899017334,1.9080867767333984
1783202706285743600,6.33774365234375,-5.897658693677187,8.22033007210493,-0.4552689023077487,-7.820502281188965,-3.203195095062256,1.67206609249115
1783202706295680800,6.3476806640625,-5.860991635537147,7.18197018969655,-4.190014233314991,-7.946295261383057,-3.289642572402954,1.4963997602462769
1783202706305618700,6.35761865234375,-5.408953385713696,6.079463121548295,-8.257963929450511,-7.798244476318359,-3.0156683921813965,1.492266297340393
1783202706315555800,6.367555908203125,-4.488175634373724,4.521042131187022,-11.644585558617116,-7.513237476348877,-2.178476095199585,1.67823588848114
1783202706325492700,6.37749267578125,-3.793974934089184,2.7045824913188814,-15.812542273902892,-6.567873477935791,-1.1894690990447998,1.931872844696045
1783202706335430000,6.387429931640625,-3.5384859690651296,0.5105363237604499,-19.65124248490333,-5.185963153839111,-0.2929372489452362,2.1123156547546387
1783202706345366800,6.39736669921875,-4.165705136966705,-1.062600297434628,-21.385226670658582,-3.7425262928009033,0.379959225654602,2.152209043502808
1783202706355303700,6.4073037109375,-4.775858896037936,-2.2321730691179638,-20.94917100286484,-2.4928579330444336,0.7887552380561829,2.0560688972473145
1783202706365240800,6.41724072265625,-5.891949083858728,-2.8249948773771525,-19.52176153398752,-1.3966821432113647,0.9460830688476562,1.8408221006393437
1783202706375178800,6.4271787109375,-6.8642153226345775,-3.4101869214102623,-17.22029076449871,-1.195080041885376,1.0921458005905151,1.571270227432251
1783202706385116000,6.437115966796875,-6.952953344273567,-4.302836602635681,-13.24191787891388,-0.942880630493164,1.2563719749450684,1.2691794633865356
1783202706395052800,6.447052734375,-6.729302994319796,-3.7227708155751222,-13.1486679328084,-0.163195714354515,0.9267215728759766,0.8994770646095276
1783202706404989700,6.45698974609375,-5.83662876317501,-3.6784430135488506,-12.461152117115258,0.5587350726127625,0.35553839802742,0.5518203377723694
1783202706414926800,6.4669267578125,-4.548847252957523,-4.163416149246692,-9.80177917909324,0.8711710572242737,-0.0992972627282142,0.3507111668586731
1783202706424863700,6.47686376953125,-3.5727231697097417,-4.074429121282696,-7.869482498258351,1.1906813383102417,-0.4708717167377472,0.2066129595041275
1783202706434801000,6.48680078125,-2.9199016507789493,-3.420889224949479,-6.730241736474633,1.4701534509658811,-0.7072325944900513,0.0978473275899887
1783202706444738800,6.49673876953125,-2.3080235521331427,-2.9953739481315016,-5.001272748532891,1.563386082649231,-0.7461305260658264,0.0202833674848079
1783202706454676000,6.506676025390625,-1.873070877145231,-2.6089497417300938,-3.569261338818073,1.5725401639938354,-0.6619251370429993,-0.0776362717151641
1783202706464612900,6.51661279296875,-1.5841028363674878,-2.1839120192959904,-2.5821336309969425,1.5406204462051392,-0.4392808377742767,-0.1817457675933838
1783202706474550000,6.526550048828125,-1.2859692000985146,-1.8521997924216087,-1.8136375681847328,1.5350605249404907,-0.1404355466365814,-0.2985578775405884
1783202706484487200,6.536487060546875,-1.040460654079914,-1.4482428519390522,-1.200252572107315,1.5136345624923706,0.2004831284284591,-0.4258832335472107
1783202706494424000,6.546424072265625,-0.7985466254219412,-1.0708953937016428,-0.4894646018981933,1.4603878259658811,0.5194355249404907,-0.5260295271873474
1783202706504361200,6.556361328125,-0.6307347748070955,-0.5799089890636503,0.1404986040145158,1.36114764213562,0.7628587484359741,-0.58690345287323
1783202706514299100,6.566299072265625,-0.431907315942645,-0.191507052848488,0.6040431672364474,1.2245407104492188,0.8980024456977844,-0.5927165746688843
1783202706524236000,6.576236083984375,-0.2954968580245971,0.1418986800707876,0.8649643864423036,1.087160587310791,0.9512916207313538,-0.5747648477554321
1783202706534173000,6.5861728515625,-0.3339408627092838,0.4091591853007674,0.833271609583497,1.0099272727966309,0.9134318828582764,-0.5784983038902283
1783202706544110000,6.596110107421875,-0.3069567019328474,0.5378161064825951,0.5488894352912903,1.0293985605239868,0.8594107627868652,-0.59137362241745
1783202706554047200,6.606047119140625,-0.3242974205732345,0.7738184268787502,0.4105798657536506,1.1148157119750977,0.7947127819061279,-0.6132165789604187
1783202706563984100,6.615984130859375,-0.2531459090292454,1.11408907713145,0.3619225100904703,1.2281311750411987,0.7234994173049927,-0.6261091232299805
1783202706573921000,6.625921142578125,-0.0666156216800212,1.4687699455305934,0.5430103141248226,1.330483317375183,0.6301907896995544,-0.6050453782081604
1783202706583858000,6.63585791015625,0.1479255391448736,1.7787226144090291,0.7751064208626747,1.382286787033081,0.4974663257598877,-0.5448696613311768
1783202706593796000,6.645796142578125,0.296763516959548,1.99738494681716,1.1664479176610707,1.3576393127441406,0.406613141298294,-0.467629998922348
1783202706603733000,6.65573291015625,0.4480003726094961,2.1199834447428585,1.607303094691038,1.2729668617248535,0.3378711938858032,-0.374153733253479
1783202706613670100,6.665670166015625,0.5333306316316128,2.184714860111475,1.858806497210264,1.1427098512649536,0.2568801939487457,-0.2841601967811584
1783202706623607000,6.67560693359375,0.4937362878680228,2.153105085361004,1.9839660777956245,1.003373384475708,0.2089329212903976,-0.2046473175287246
1783202706633544000,6.6855439453125,0.3145148622274398,2.107388751585781,2.049466431710124,0.8633508682250977,0.2094058990478515,-0.1546744257211685
1783202706643481000,6.695481201171875,0.1178910508871078,1.9741490326583384,2.034215671086311,0.7422792315483093,0.2275577783584594,-0.1271707266569137
1783202706653418000,6.70541796875,-0.0585156095936894,1.7359572393938898,1.906918493950367,0.5964301824569702,0.2735100984573364,-0.1345775127410888
1783202706663355100,6.715355224609375,-0.2290034014195203,1.528307883909345,1.9851748690634965,0.4204509854316711,0.3742077946662903,-0.1554069370031356
1783202706673292300,6.725292236328125,-0.2688084653243422,1.3951263249099253,2.0072703810155392,0.2780224680900574,0.4655866920948028,-0.177251785993576
1783202706683230200,6.735230224609375,-0.2251438033819198,1.2950374726951122,1.8266268136173485,0.2007848024368286,0.508216917514801,-0.1727337539196014
1783202706693166800,6.745166748046875,-0.0496834838405251,1.2024001055300235,1.7455249859452246,0.1341708749532699,0.5040144324302673,-0.1370934695005417
1783202706703104000,6.75510400390625,0.1152729773432016,1.1088327640384434,1.8123329153269527,0.0520190335810184,0.4676250219345093,-0.0763814374804496
1783202706713041200,6.765041259765625,0.2150249988190829,0.9880994754627348,1.9116046059399845,-0.0253170318901538,0.4173381328582763,-0.0037112301215529
1783202706722978000,6.77497802734375,0.2467111998066306,0.8836781470015644,1.9753519787073133,-0.090966485440731,0.3631503283977508,0.0543082132935524
1783202706732915200,6.784915283203125,0.2427441958718001,0.7823676440373063,2.0910808831244707,-0.179708331823349,0.2893746495246887,0.1024325937032699
1783202706742852000,6.79485205078125,0.185804895684123,0.6532873828768729,2.1280530616909266,-0.2661581039428711,0.218415156006813,0.125685378909111
1783202706752789000,6.8047890625,0.046857174373418,0.4788412088140845,2.050485253363848,-0.3280140161514282,0.1856130063533783,0.1288249790668487
1783202706762727000,6.814726806640625,-0.0759992438361048,0.4000716234818101,1.969867409816384,-0.3719294369220733,0.1462759226560592,0.1083971187472343
1783202706772664000,6.8246640625,-0.1933661247186362,0.3392386768564581,1.7390496524512766,-0.4235263168811798,0.0765210837125778,0.0728226155042648
1783202706782601200,6.834601318359375,-0.2762564432427287,0.1806394757449626,1.6526251684516666,-0.4618508517742157,0.0783197656273841,0.0265777185559272
1783202706792538000,6.8445380859375,-0.2987536678634583,0.1812874182596802,1.5181716898202895,-0.495708703994751,0.0708538591861724,-0.0243549719452857
1783202706802475000,6.85447509765625,-0.1880925682298839,0.1422463244646787,1.2980506830364464,-0.5306115746498108,0.0516202077269554,-0.0547258779406547
1783202706812412000,6.864411865234375,0.0176376557603478,0.0734223790854215,1.149578615924716,-0.5891153216362,0.0344974100589752,-0.062719888985157
1783202706822349000,6.87434912109375,0.1927626058675348,0.0696650723785162,1.0272335082381965,-0.66596919298172,0.032367218285799,-0.0505175590515136
1783202706832286200,6.8842861328125,0.3037242958828807,0.0587917961865663,0.8895300879001616,-0.7469396591186523,0.0586600750684738,-0.0239221677184104
1783202706842223000,6.89422314453125,0.3579571135908365,0.0827343973100185,0.6808253781437873,-0.8245123624801636,0.0923115387558937,0.0143675114959478
1783202706852160000,6.904159912109375,0.3949629021659493,0.01485474704355,0.4494195917576551,-0.8772820830345154,0.118444338440895,0.0608772188425064
1783202706862098000,6.914097900390625,0.3801338740855455,-0.055040042437613,0.161427410274744,-0.9018406867980956,0.1121408566832542,0.1073971018195152
1783202706872035000,6.92403515625,0.2950149197265506,-0.1493254690706729,-0.1413105049192905,-0.8856569528579712,0.0933871492743492,0.1359872072935104
1783202706881972000,6.933971923828125,0.1594770068593323,-0.2986521071851253,-0.419208577889204,-0.8245408535003662,0.0668100863695144,0.1423524916172027
1783202706891909000,6.9439091796875,0.0131894441798329,-0.3877934489279985,-0.6807376998603344,-0.7325725555419922,0.0318832658231258,0.1403037160634994
1783202706901846300,6.95384619140625,-0.1494295139670372,-0.5264908487394452,-0.8874334078818559,-0.615077555179596,0.0145396683365106,0.1248490735888481
1783202706911783000,6.963782958984375,-0.2307959839247167,-0.6985624026253819,-0.9169459180921316,-0.4937519133090973,-0.0062308576889336,0.1101311147212982
1783202706921720000,6.973719970703125,-0.2146902139067649,-0.8272918045215308,-0.9027917205333708,-0.3855956196784973,-0.0591573007404804,0.1060102507472038
1783202706931657000,6.983656982421875,-0.1556014806002378,-1.0111454200074077,-0.8068208250313996,-0.307542085647583,-0.175666332244873,0.1257248222827911
1783202706941594000,6.993593994140625,-0.2036217074036598,-1.1504613901086151,-0.8151303882151841,-0.2703672051429748,-0.3382737040519714,0.153826966881752
1783202706951531000,7.003531005859375,-0.3821094119422137,-1.2734326668694615,-0.9237976836830376,-0.2719616293907165,-0.500674307346344,0.1749285161495208
1783202706961468000,7.013468017578125,-0.6554593200884758,-1.39808283662796,-1.220924188736081,-0.3013288080692291,-0.5805737972259521,0.1852615922689438
1783202706971406000,7.023406005859375,-0.9887567703276872,-1.5405730528511106,-1.6645108365565535,-0.3550700545310974,-0.5612502098083496,0.1991728842258453
1783202706981343000,7.033343017578125,-1.3106266714930537,-1.8295951619036492,-2.4037270288705823,-0.4212269783020019,-0.5590749979019165,0.1986129730939865
1783202706991280000,7.043280029296875,-1.8205165140435096,-2.055626269514113,-3.4820173551291225,-0.4966977834701538,-0.5704394578933716,0.1577004194259643
1783202707001217000,7.053217041015625,-2.4608988226398822,-2.3886237138934434,-4.765080896914005,-0.5146023631095886,-0.5569027662277222,0.0675138309597969
1783202707011154000,7.06315380859375,-2.9726468602776523,-2.8298393947988747,-6.35122196111083,-0.4207562804222107,-0.5451095104217529,-0.0491850897669792
1783202707021091000,7.073091064453125,-3.1383710909634828,-3.377054174876213,-8.101662776148318,-0.252908706665039,-0.5497359037399292,-0.1755715161561966
1783202707031028000,7.083028076171875,-3.175205906885862,-4.034153224995732,-9.903062209528684,0.0343068242073059,-0.5239291191101074,-0.300563782453537
1783202707040965000,7.092965087890625,-3.2107416229084134,-4.737503154158592,-12.08191782221794,0.519720733165741,-0.5263758301734924,-0.4090007245540619
1783202707050902000,7.102902099609375,-3.320387992541492,-4.910852472895384,-14.176065691697596,1.1882867813110352,-0.4828923344612121,-0.5533924698829651
1783202707060839000,7.1128388671875,-3.6727620453029863,-4.369854083114862,-15.513870292973518,2.0317771434783936,-0.3135985136032104,-0.7291612029075623
1783202707070776000,7.122776123046875,-4.107881893551349,-3.4232571231245994,-15.925371365225311,2.9981143474578857,-0.1062863543629646,-0.9357604384422302
1783202707080713000,7.132712890625,-4.08158366921246,-2.211889867284894,-15.667087508785723,3.999967098236084,0.1078960373997688,-1.083731770515442
1783202707090651100,7.142651123046875,-3.4919016202837225,-1.2520800822392106,-14.755831911289691,4.920557022094727,0.0102158188819885,-1.1619988679885864
1783202707100588000,7.152588134765625,-3.001259791299701,-0.0721852385058999,-13.56269413962364,5.698148727416992,-0.1780349016189575,-1.229719877243042
1783202707110525200,7.162525146484375,-2.6526027132347223,1.1516501615017651,-11.722435691016912,6.328911781311035,-0.3243356645107269,-1.3060660362243652
1783202707120461800,7.1724619140625,-2.5126880465880035,2.531473411078751,-9.696022218114138,6.775363922119141,-0.3475756645202636,-1.3742297887802124
1783202707130399000,7.18239892578125,-2.533905314400792,3.859821909484267,-7.630014401447773,7.047380447387695,-0.2571474909782409,-1.4525909423828125
1783202707140336000,7.192336181640625,-2.425287995554507,5.121712899380922,-5.833847023501992,7.189669132232666,-0.1514065861701965,-1.5474538803100586
1783202707150273000,7.20227294921875,-2.2163836715728045,6.213508603900671,-4.269122841343283,7.277647018432617,-0.0448362119495868,-1.6328119039535522
1783202707160210200,7.212210205078125,-1.67289171141088,7.101839837405085,-2.9268741201400754,7.30374002456665,0.0390870049595832,-1.696611762046814
1783202707170146800,7.222146728515625,-0.9465113275334238,8.008722626644373,-1.4014198720961808,7.21139669418335,0.1100629121065139,-1.7032082080841064
1783202707180084000,7.232083984375,-0.2528925187900662,8.762261358821391,0.1769470509678125,6.99552059173584,0.1310586035251617,-1.625967025756836
1783202707190021000,7.242021240234375,0.3383186394020915,9.342592811080811,1.7873650628089903,6.747000694274902,0.1168056353926658,-1.501993179321289
1783202707199958000,7.2519580078125,1.1384271073132752,9.774261057570577,3.334566155497729,6.306872367858887,-0.031579453498125,-1.3798059225082395
1783202707209895200,7.261895263671875,2.0515162038467825,9.652450202891233,5.193320337998867,5.646160125732422,-0.3471781611442566,-1.2711355686187744
1783202707219832000,7.27183203125,2.6736674208343025,9.671001758626105,6.5118228574335575,4.8671088218688965,-0.7840976119041443,-1.130181074142456
1783202707229770000,7.28177001953125,3.2662592197299003,9.693354460209608,7.348329795676469,4.081441402435303,-1.096790075302124,-0.976344883441925
1783202707239707000,7.291706787109375,3.66410352255106,9.814171627676489,7.616763290208578,3.383321046829224,-1.2514338493347168,-0.8161238431930542
1783202707249644000,7.30164404296875,3.9038346542119977,9.92873207283616,7.427726572996377,2.75626277923584,-1.267719864845276,-0.6713187098503113
1783202707259581200,7.311581298828125,4.074434674240648,9.889410116273163,7.361783151489496,2.1324563026428223,-1.0663992166519165,-0.5721851587295532
1783202707269518000,7.32151806640625,3.940987157781422,10.031150829303265,7.656252420032024,1.4432971477508545,-0.6783122420310974,-0.511760950088501
1783202707279455000,7.331455078125,3.764837979193032,10.183215367949009,7.980965435668826,0.711331307888031,-0.2714442610740661,-0.492285817861557
1783202707289391900,7.341391845703125,3.771394853490591,10.146736525857447,7.863596362829208,0.0619144365191459,0.0797755271196365,-0.512119472026825
1783202707299329000,7.3513291015625,3.895157719020545,10.198762481170892,7.4092773085922,-0.4466616213321686,0.3540648519992828,-0.5280236005783081
1783202707309266200,7.36126611328125,4.099498680609464,10.368787039399146,6.951196271473169,-0.8311815857887268,0.5575234889984131,-0.4727195501327514
1783202707319203000,7.371203125,4.385655171097815,10.540222633469105,6.651097472611069,-1.120214819908142,0.6630405187606812,-0.3458566069602966
1783202707329140000,7.381139892578125,4.7145782056450845,10.66009638260603,6.504229333564639,-1.362684726715088,0.6443027853965759,-0.1499363481998443
1783202707339077000,7.3910771484375,4.991793557047844,10.72493856487274,6.571019142767787,-1.6328147649765017,0.5445486307144165,0.1039267927408218
1783202707349014000,7.401013916015625,5.19502889548242,10.811265433716772,6.817368815785646,-1.9488369226455688,0.4758472740650177,0.4005896151065826
1783202707358951200,7.410951171875,5.236937361407279,10.991886204761268,6.988641912770271,-2.3031561374664307,0.3253638446331024,0.7509141564369202
1783202707368888000,7.42088818359375,5.294577064949274,11.02975737799406,7.149886952215433,-2.736927032470703,0.2340951859951019,1.1191608905792236
1783202707378825000,7.430824951171875,5.112743410983682,11.099759719502924,7.356147191429137,-3.2226016521453857,0.2457379251718521,1.4545201063156128
1783202707388762000,7.44076220703125,4.728535711587965,11.346240909945964,7.43300012948513,-3.7808570861816406,0.2739322483539581,1.7669315338134766
1783202707398699000,7.450698974609375,4.382983321540057,11.38726031807661,7.509654330098629,-4.439972877502441,0.3114750683307647,2.0870609283447266
1783202707408637000,7.460636962890625,3.960139602018893,11.655160728645324,7.372362997692823,-5.121583938598633,0.3194456398487091,2.3625025749206543
1783202707418574000,7.470573974609375,3.354378524948656,11.95983691842556,6.891729937025905,-5.791175365447998,0.2905580699443817,2.5988211631774902
1783202707428511200,7.48051123046875,2.712989961919188,12.197286076629162,6.2123904135257,-6.454397678375244,0.2271724641323089,2.8197596073150635
1783202707438447900,7.49044775390625,1.884090868331492,12.462471967542172,5.150685895887017,-7.085692405700684,0.0677767097949981,3.0248405933380127
1783202707448385000,7.500385009765625,0.5113520240575075,12.574326076352596,3.384848189753294,-7.629583835601807,-0.2880167961120605,3.169400930404663
1783202707458322200,7.510322265625,-1.4285688680455089,12.06181494538784,1.0764917524039743,-7.966869354248047,-0.6869918704032898,3.2075860500335693
1783202707468259800,7.520259765625,-3.6775484027966856,10.868719259297848,-1.2614520139575005,-8.068347930908203,-1.0076700448989868,3.04795241355896
1783202707478196700,7.53019677734375,-6.1138546359717845,9.766180626967548,-3.262182764071226,-7.90668249130249,-1.0699183940887451,2.633439302444458
1783202707488133600,7.540133544921875,-7.906168261098861,8.824435783183574,-4.764729599258303,-7.637594699859619,-0.9530487656593324,1.9970461130142207
1783202707498070800,7.55007080078125,-8.76761557933092,7.950994075775146,-5.81387566409707,-7.498890399932861,-0.8157063722610474,1.252987504005432
1783202707508007700,7.560007568359375,-8.526077105987072,6.875609407830238,-6.919478944694996,-7.513276100158691,-0.7189023494720459,0.5710441470146179
1783202707517944800,7.56994482421875,-7.206932781517505,5.54994065002799,-8.889148786112665,-7.418399333953857,-0.5170471668243408,0.1548441350460052
1783202707527881700,7.5798818359375,-5.549127580079436,4.139460104119777,-11.328001488900185,-7.228180408477783,-0.0703306421637535,0.162784606218338
1783202707537818600,7.589818603515625,-4.196102613317966,2.5985610341846943,-12.482906852805614,-6.831882476806641,0.6817501187324524,0.3801028430461883
1783202707547755800,7.599755859375,-3.790787828485668,1.6714043954625726,-14.4553245316267,-6.081715106964111,1.3118066787719729,0.6239845156669617
1783202707557692700,7.609692626953125,-3.686300741311908,0.3698309451274573,-14.988526568442582,-6.145897388458252,1.9376929998397827,0.7949572205543518
1783202707567629800,7.6196298828125,-3.5951261401757595,-0.8839132709316909,-12.404793685555456,-6.335566520690918,2.739797592163086,0.8524460792541504
1783202707577566700,7.629566650390625,-3.666841423082352,-0.7820778673104941,-15.411285532289742,-5.576565265655518,2.921294927597046,0.816037118434906
1783202707587503600,7.639503662109375,-3.2699156964108345,-1.624845473383367,-18.314515741992,-4.501336574554443,2.647350549697876,0.7520381212234497
1783202707597440800,7.649440673828125,-2.84987972778678,-2.732825127723813,-18.195754922533038,-3.413552045822144,2.2371249198913574,0.7076377272605896
1783202707607377700,7.659377685546875,-2.615862589858472,-3.431393083307147,-17.873945227122306,-2.20886492729187,1.6680514812469482,0.6745761632919312
1783202707617314800,7.669314697265625,-2.442525399950892,-3.63903688583374,-17.03919886881113,-1.0934218168258667,1.0481125116348269,0.6574914455413818
1783202707627251700,7.679251708984375,-2.175475760992616,-3.786898127570748,-15.12060981081128,-0.1601766943931579,0.4546094834804535,0.6801999807357788
1783202707637188600,7.689188720703125,-1.996761261960864,-3.5584371624648568,-13.038844453042746,0.6083046793937683,-0.0537969395518302,0.6951818466186523
1783202707647125800,7.699125732421875,-1.891937782439589,-3.1845190941542385,-10.877724403530358,1.2072045803070068,-0.436045229434967,0.6474417448043823
1783202707657062700,7.709062744140625,-1.795397416486591,-2.8123367635950443,-8.701731779056788,1.6740974187850952,-0.6844699382781982,0.58570796251297
1783202707667000800,7.719000732421875,-1.664718487957865,-2.4254750425592064,-6.776669725650549,2.0061020851135254,-0.8238589763641357,0.4889433681964874
1783202707676937700,7.728937744140625,-1.50250474961102,-2.0141557566151023,-4.985204241785406,2.21140456199646,-0.8797162771224976,0.3750211000442505
1783202707686874600,7.73887451171875,-1.2267194310113787,-1.7077756855264306,-3.385606899166107,2.30715274810791,-0.8768395185470581,0.2646011114120483
1783202707696811800,7.748811767578125,-0.9478551433578132,-1.3652083026386796,-2.123958485853672,2.3409581184387207,-0.8483017683029175,0.1562758088111877
1783202707706748700,7.758748779296875,-0.6065799922376871,-1.1007854319874195,-1.0697434471875429,2.309992790222168,-0.8217582702636719,0.0645309761166572
1783202707716685800,7.768685791015625,-0.3183206842511892,-0.7490209624916314,-0.1707359213680029,2.235740900039673,-0.7995254993438721,-0.0333435125648975
1783202707726622700,7.778622802734375,-0.1040066101804375,-0.3586911269538104,0.5936795941323042,2.117602586746216,-0.7611032724380493,-0.1272449791431427
1783202707736559600,7.7885595703125,0.188725459305942,-0.10871807580702,1.2331412807524202,1.9735108613967896,-0.7121675610542297,-0.1994287222623825
1783202707746496800,7.798496826171875,0.4761278582021593,0.1470606659438461,1.6926298465818166,1.822633147239685,-0.6572545170783997,-0.2580675184726715
1783202707756433700,7.80843359375,0.6427920000866055,0.4633122888360172,2.05769942252636,1.6576838493347168,-0.5936580896377563,-0.3064353466033935
1783202707766370800,7.818370849609375,0.6862488644972443,0.8100726664341986,2.381311198922992,1.4746553897857666,-0.4950018525123596,-0.3692156374454498
1783202707776307700,7.8283076171875,0.7554045260488986,1.0130220275342463,2.6272294947862624,1.282379388809204,-0.3824341595172882,-0.4071924984455108
1783202707786244600,7.83824462890625,0.8549798757836222,1.1502214438728988,2.7718074770689007,1.0862597227096558,-0.2820750474929809,-0.438007652759552
1783202707796181800,7.848181640625,0.9121373487666248,1.4034306273967028,2.879153168544173,0.8892588019371033,-0.2107694447040558,-0.4579321444034576
1783202707806118700,7.85811865234375,0.9140195092514156,1.700595564763993,2.99700856359601,0.6916586756706238,-0.1210102662444114,-0.4731233417987823
1783202707816055800,7.868055908203125,0.8897200575143098,1.900178810431808,3.0744501151949164,0.4960395097732544,-0.0310775991529226,-0.4713679254055023
1783202707825992700,7.87799267578125,0.933010333186388,2.013906458029151,3.0740988175392148,0.2950416803359985,0.0455348901450634,-0.4410318434238434
1783202707835929600,7.8879296875,0.991942706887424,2.130920433820784,3.035916094139218,0.1078502982854843,0.094596229493618,-0.3818616271018982
1783202707845866800,7.89786669921875,1.0218515229389071,2.2182247693948445,2.9899592296063897,-0.0721519589424133,0.1349612325429916,-0.3091184496879577
1783202707855803600,7.9078037109375,1.0323539199918508,2.222322121711075,2.928987166771293,-0.2481296509504318,0.161476582288742,-0.2147394120693206
1783202707865740800,7.91774072265625,1.0836214581534265,2.151594096276164,2.783522464782,-0.3880614340305328,0.1671813428401947,-0.0972780361771583
1783202707875678000,7.927677978515625,1.1267927836209537,2.019077723187208,2.589388716691732,-0.5044718384742737,0.1633514761924743,0.0349124148488044
1783202707885614600,7.937614501953125,1.0874635205343366,1.882052786632627,2.479287004506588,-0.610033392906189,0.1656591147184372,0.1535032540559768
1783202707895551700,7.9475517578125,0.945149683791399,1.7279066194072366,2.3981717328310013,-0.7243428826332092,0.1667699068784713,0.2530848085880279
1783202707905488600,7.957488525390625,0.7933154467701912,1.5091200760975478,2.3590409149259326,-0.8416135907173157,0.1872658729553222,0.3272152245044708
1783202707915425800,7.96742578125,0.6476005694121122,1.3259098730817436,2.30373053111434,-0.9598890542984008,0.2103598564863205,0.3758028149604797
1783202707925363000,7.977363037109375,0.5122796602964401,1.1194790996067223,2.18576875307858,-1.0703651905059814,0.2338989973068237,0.4097767472267151
1783202707935299600,7.987299560546875,0.3669420918181538,0.8989215280365198,2.0540292095810173,-1.1747205257415771,0.2535518109798431,0.4270755052566528
