time,seconds_elapsed,ax,ay,az,gx,gy,gz
1783203864348439800,0.100439697265625,0.3966933792203664,1.3182213644057512,2.252868943405151,-0.6341012120246887,-0.591480553150177,0.1102407872676849
1783203864358376700,0.110376708984375,0.2766222078152001,1.3799667497009038,2.7781939632356165,-0.7837713956832886,-0.5638097524642944,0.1240396946668624
1783203864368312800,0.120312744140625,0.0700470665665809,1.4974921821460128,3.4286785636514425,-0.9124081134796144,-0.4219819903373718,0.1481618732213974
1783203864378250000,0.13025,-0.2981607982705347,1.5178890734866262,4.0061628097862005,-1.0127538442611694,-0.2192954421043396,0.1303953975439071
1783203864388187000,0.140186767578125,-1.03809494786188,1.427055833134055,4.330163877761364,-1.0684139728546145,0.0193273052573204,0.0260799843817949
1783203864398122800,0.150122802734375,-1.6818367960192262,1.5518088787451385,4.450063930383324,-1.0665899515151978,0.2128797322511673,-0.1273151636123657
1783203864408060000,0.160059814453125,-1.9656125288508832,1.8756120860606431,4.306031891545653,-1.1028765439987185,0.386906087398529,-0.3035131692886352
1783203864417996000,0.16999609375,-2.0380273383289573,2.2575334280848502,4.187815846487879,-1.2294659614562988,0.6282950043678284,-0.5177293419837952
1783203864427932700,0.1799326171875,-1.9977555336952209,2.374337560518086,4.179647737601399,-1.4610779285430908,0.873203456401825,-0.7397560477256775
1783203864437868800,0.189868896484375,-1.6663883208662271,2.011990979796648,3.717461603251099,-1.7442800998687744,0.9677550196647644,-0.9020967483520508
1783203864447806000,0.199805908203125,-0.954949047141522,1.249545303064585,2.6493308519572016,-2.049870491027832,0.9292126893997192,-1.00111985206604
1783203864457742800,0.209742919921875,-0.145241158899106,0.3375751275584101,1.1551543702304363,-2.30359435081482,0.6941934823989868,-1.0093258619308472
1783203864467678700,0.2196787109375,0.8145420669332146,-0.6337918242901563,-0.9783119486808776,-2.396474838256836,0.3337222635746002,-0.9222778677940368
1783203864477615900,0.229615966796875,1.7148790877908466,-1.5980039359480145,-3.4376883840590717,-2.2926723957061768,0.0065531833097338,-0.713132917881012
1783203864487552000,0.239552001953125,2.5737702917993066,-2.402014671994745,-5.429905572849512,-2.038219451904297,-0.2184972167015075,-0.4589435160160064
1783203864497488600,0.249488525390625,2.993731733882427,-3.1533067942887545,-6.843841812169552,-1.7138125896453855,-0.3517370223999023,-0.2353154718875885
1783203864507424800,0.2594248046875,2.8830341016307472,-4.019912518197298,-7.899605249321461,-1.3217724561691284,-0.3855549395084381,-0.0542151778936386
1783203864517362000,0.26936181640625,2.438407297107577,-4.790262684443593,-8.82261441297531,-0.853943407535553,-0.3232020735740661,0.1125027015805244
1783203864527298800,0.279298828125,2.0849108161874117,-5.373830634406208,-9.734621121099591,-0.3385056853294372,-0.2306511104106903,0.2789645195007324
1783203864537234700,0.289234619140625,1.805935615505278,-5.74408725759983,-10.61169563205242,0.201333075761795,-0.1489602476358413,0.4235051870346069
1783203864547171800,0.299171875,1.6354913705602288,-5.704087255644798,-11.49418340022564,0.7681955695152283,-0.1630870699882507,0.5057587623596191
1783203864557108000,0.30910791015625,1.5699875095143914,-5.296082208815217,-12.396774045228955,1.3857769966125488,-0.3125617802143097,0.5254650712013245
1783203864567044600,0.319044677734375,1.529862419874966,-4.677398229546845,-12.986114733374118,2.010361194610596,-0.4698109924793243,0.5176295638084412
1783203864576981800,0.328981689453125,1.4716406786613163,-4.03303795723021,-12.910758171355724,2.60416579246521,-0.5425869226455688,0.5218685269355774
1783203864586918000,0.33891796875,1.501646233085543,-3.4208804571211338,-12.278093889790773,3.131044387817383,-0.5550130009651184,0.5583013892173767
1783203864596855000,0.34885498046875,1.6219044514954088,-2.799728918695449,-11.465202804934975,3.598350524902344,-0.5502733588218689,0.6554527282714844
1783203864606790700,0.358790771484375,1.8245719269141556,-1.939117759026587,-10.54011625048518,3.995455741882324,-0.4786328971385956,0.7998335957527161
1783203864616727800,0.368727783203125,1.9477043855860827,-0.9637892100706696,-9.625078211840986,4.112318515777588,-0.4868852496147156,0.8504810929298401
1783203864626664400,0.37866455078125,1.8721195677697655,-0.0620610271155834,-8.641440684223175,4.081993579864502,-0.7290668487548828,0.8646140098571777
1783203864636600600,0.3886005859375,1.7238038602635264,0.7030179207295179,-7.7868983230739826,4.037564754486084,-1.0162065029144287,0.905236542224884
1783203864646537200,0.398537109375,1.630077674948424,1.3299731769979,-7.038431487333774,4.066461086273193,-1.2859313488006592,0.9545224905014038
1783203864656473300,0.408473388671875,1.6807093994244933,2.05288646928668,-6.198135678201914,4.163385391235352,-1.5079559087753296,1.005464792251587
1783203864666410500,0.418410400390625,1.762275921998918,2.9845792901337145,-5.163695599585771,4.282636642456055,-1.7011654376983645,1.0281782150268557
1783203864676347400,0.428347412109375,1.7004307295911012,3.955962900856137,-3.891542158871889,4.350831985473633,-1.89171040058136,0.9532479047775269
1783203864686283300,0.438283203125,1.2299515448004006,4.869510408681631,-2.415148586595058,4.378929615020752,-1.87382447719574,0.7599465847015381
1783203864696220400,0.448220458984375,0.6201530289076268,5.316548073738813,-0.8260743915557861,4.3529887199401855,-1.7163523435592651,0.5316857099533081
1783203864706157600,0.458157470703125,0.1622520245306193,5.530553227990866,0.6465408312261104,4.217007637023926,-1.435513615608215,0.3513299226760864
1783203864716093200,0.46809326171875,-0.089372812411189,5.831169328725338,2.0471657535523176,3.989394903182984,-1.1042996644973757,0.2464085817337036
1783203864726030300,0.4780302734375,0.0174690211951732,6.006510113540291,3.106506464669108,3.707878828048706,-0.8427222967147827,0.214988961815834
1783203864735966500,0.487966552734375,0.1960338826231658,5.939208847683668,3.659605626609921,3.397653818130493,-0.6955717206001282,0.2321958988904953
1783203864745903600,0.497903564453125,0.301724354237318,5.888861054715514,3.924992008531093,3.065007448196411,-0.6385691165924072,0.2662406861782074
1783203864755840300,0.50784033203125,0.3524906648784875,5.972285187855363,4.147834549233317,2.729172468185425,-0.6459090113639832,0.3056517243385315
1783203864765776400,0.5177763671875,0.3025480917103588,6.162398009866476,4.404626413549482,2.4080162048339844,-0.6762176752090454,0.3077180087566376
1783203864775713500,0.527713623046875,0.1188290623895824,6.4444257299870245,4.7444393831625575,2.07668399810791,-0.7088353037834167,0.2880457639694214
1783203864785649400,0.5376494140625,-0.1503830152995884,6.679694621542096,5.159799176669121,1.704493522644043,-0.7566874623298645,0.2287281900644302
1783203864795586300,0.54758642578125,-0.426573553699255,6.811296217873692,5.561312523391843,1.322320580482483,-0.7202117443084717,0.1494027376174926
1783203864805523500,0.5575234375,-0.6015773616448045,7.013554235708713,6.068019936513901,0.9731661081314088,-0.5679929852485657,0.0687478110194206
1783203864815459600,0.56745947265625,-0.7117271507553756,7.193602175301313,6.579955897939205,0.6758319139480591,-0.3527062237262726,0.0050391382537782
1783203864825396200,0.577396240234375,-0.8945565377600491,7.103690433707833,6.831310831898451,0.4470418989658355,-0.1267358660697937,-0.0167930908501148
1783203864835333400,0.58733349609375,-0.9144669607579708,6.896697204044461,6.922446562328934,0.243965208530426,0.096110001206398,-0.0035412011202424
1783203864845269500,0.59726953125,-0.8957336187154055,6.855972979468107,6.896569778272509,0.0176754314452409,0.2309525609016418,0.0058749862946569
1783203864855206400,0.607206298828125,-0.9741004684656858,6.99908848798275,6.794502319461107,-0.2429710626602172,0.2488878816366195,-0.0400517582893371
1783203864865142300,0.617142333984375,-1.1698851986333727,7.210391397538781,6.592471096119284,-0.5012379884719849,0.1947382092475891,-0.1275764554738998
1783203864875079400,0.627079345703125,-1.3156117664292457,7.513364875054359,6.4927826413989065,-0.72380530834198,0.1016652509570121,-0.2387730181217193
1783203864885016300,0.637016357421875,-1.414769183012843,7.776964373558759,6.458354302096367,-0.9482536315917968,0.0717096030712127,-0.372613251209259
1783203864894952200,0.6469521484375,-1.4993497927114368,7.880211982065439,6.687566962352395,-1.1923041343688965,0.1656893640756607,-0.5236381888389587
1783203864904889300,0.656889404296875,-1.5377257005959748,8.090781316649913,7.205950784742832,-1.51455557346344,0.3477047085762024,-0.6797814965248108
1783203864914826500,0.666826416015625,-1.5232250276871024,8.260938561347126,7.695560348069668,-1.9253671169281008,0.5452271103858948,-0.8446924090385437
1783203864924762400,0.676762451171875,-1.5761416482299566,8.264837322351337,7.9510420065701,-2.3939425945281982,0.7601878046989441,-1.021454691886902
1783203864934699300,0.68669921875,-1.5851004691027104,8.142346084192395,7.851662763929367,-2.8383007049560547,0.9440183639526368,-1.2039352655410769
1783203864944636400,0.696636474609375,-1.4975025574095546,7.880528792929649,7.311175830802321,-3.214320421218872,1.0278661251068115,-1.3884875774383545
1783203864954572500,0.706572509765625,-1.2832289614796637,7.493049232256412,6.207561678194999,-3.464988470077514,0.9632619619369508,-1.5060549974441528
1783203864964509400,0.716509521484375,-0.7217793198227882,6.931034942454099,4.697144840285182,-3.7456092834472656,0.8051376342773438,-1.6093214750289917
1783203864974445300,0.7264453125,0.1773342967197299,6.315094416674971,3.3410628240406512,-4.012882709503174,0.5302147269248962,-1.61776602268219
1783203864984382500,0.736382568359375,1.2776944159671664,5.585409438294172,1.8348183033794163,-4.267594814300537,0.3016104102134704,-1.5352367162704468
1783203864994319400,0.7463193359375,2.2415546454474327,4.645242803612351,0.4636369176805019,-4.455442428588867,0.2017256170511245,-1.3768609762191772
1783203865004255200,0.756255126953125,2.890074375531077,3.533901271623373,-0.7976046683967113,-4.556960105895996,0.1629253774881363,-1.1835957765579224
1783203865014192400,0.7661923828125,3.0788916047737,2.275323936319351,-2.143122620528936,-4.531176567077637,0.2066478282213211,-1.0227442979812622
1783203865024129300,0.77612939453125,2.7992890659734604,1.089614853349328,-3.515416935905814,-4.328080654144287,0.3011859059333801,-0.9536415338516236
1783203865034065400,0.7860654296875,2.3180590623266992,0.2355307573616504,-4.933614924323559,-3.980961322784424,0.4140975475311279,-0.9517579078674316
1783203865044002300,0.796002197265625,1.757720889043063,-0.4528676863849162,-6.259118846952915,-3.6009421348571777,0.4992223978042602,-1.0151023864746094
1783203865053939500,0.805939453125,1.3114189909145235,-1.0542495254576203,-7.313930097946524,-3.262046813964844,0.4839763343334198,-1.112030029296875
1783203865063875300,0.815875244140625,1.1377430705718696,-1.675155564689636,-8.239656119343637,-2.913604974746704,0.4067814648151397,-1.1662870645523071
1783203865073812500,0.8258125,1.1261328584074974,-2.335779281803965,-9.089650900191067,-2.5933759212493896,0.3250666260719299,-1.199385643005371
1783203865083749400,0.835749267578125,1.1264780185833572,-3.1832989047095177,-9.72516823309958,-2.3850290775299072,0.1264785230159759,-1.1589350700378418
1783203865093685500,0.845685546875,1.2618487581901252,-4.152898846885562,-10.164833323562144,-1.998183250427246,-0.0534851178526878,-0.9910512566566468
1783203865103622400,0.855622314453125,1.6427369577743112,-5.157929291144013,-10.773217734873294,-1.536190390586853,-0.2067309916019439,-0.7768227458000183
1783203865113559600,0.8655595703125,1.7960609949618578,-6.069893913692235,-11.048922681713105,-1.0984671115875244,-0.3442305326461792,-0.5996407866477966
1783203865123495400,0.875495361328125,1.813222703773528,-6.204060976597666,-10.861239717197416,-0.7927776575088501,-0.5050135850906372,-0.553726077079773
1783203865133432300,0.885432373046875,1.6362644007593392,-5.540271488928795,-10.13427685725689,-0.4908875524997711,-0.647057294845581,-0.5494807362556458
1783203865143369500,0.895369384765625,1.3737249327018857,-4.822454350735247,-9.214429957026242,-0.1130780428647995,-0.6535496115684509,-0.5569027662277222
1783203865153305300,0.905305419921875,1.0061413281098008,-4.426548907022178,-8.133882791751622,0.2628237009048462,-0.5846709609031677,-0.577540397644043
1783203865163242200,0.9152421875,0.6697989572167397,-4.00953783917725,-6.913062063390016,0.5910803079605103,-0.5153559446334839,-0.619272768497467
1783203865173179400,0.925179443359375,0.5033795838735997,-3.4830580963537097,-5.687023308119177,0.8839555978775024,-0.4294633865356445,-0.6389191746711731
1783203865183115500,0.935115478515625,0.5117885157786309,-3.0230335239514705,-4.543314461010694,1.1346372365951538,-0.3504365980625152,-0.6192502379417419
1783203865193052400,0.945052490234375,0.6001370997086167,-2.6377836220264435,-3.4240532419383523,1.3387786149978638,-0.2705563902854919,-0.5598827600479126
1783203865202989300,0.9549892578125,0.6819061591178178,-2.2811656480848788,-2.314259523913264,1.4732255935668943,-0.1901990622282028,-0.4760002195835113
1783203865212925400,0.964925537109375,0.7216837504938245,-1.8854916750401256,-1.2352835534781217,1.4910060167312622,-0.1572988927364349,-0.3924291431903839
1783203865222862600,0.974862548828125,0.7108116433456539,-1.379268830564618,-0.2314613159656524,1.4068821668624878,-0.1777191162109375,-0.3109456598758697
1783203865232799200,0.98479931640625,0.6843472686596215,-0.8609618728026747,0.5825508818745613,1.2708673477172852,-0.2241044640541076,-0.2285439819097519
1783203865242735400,0.9947353515625,0.6843380624398588,-0.4716124266043305,1.2488982373327016,1.0939124822616575,-0.2808740139007568,-0.1370124816894531
1783203865252672500,1.004672607421875,0.6458024339489639,-0.1425210497528314,1.8510288489460944,0.899253785610199,-0.3262950479984283,-0.0354584231972694
1783203865262609400,1.014609375,0.6035216275803744,0.1275748250335454,2.386398292928934,0.7082017660140991,-0.3503428697586059,0.0687728524208068
1783203865272545300,1.024545166015625,0.5761126655206084,0.3888642930299043,2.8329128108948467,0.4943901598453522,-0.3512472808361053,0.163815751671791
1783203865282482400,1.034482421875,0.521000726890564,0.6940566156387329,3.2060511270046232,0.2892058491706848,-0.3176228106021881,0.2196528613567352
1783203865292419300,1.04441943359375,0.3906723653651773,1.0388801068902016,3.4760862115144726,0.1219071224331855,-0.2539759278297424,0.2311119139194488
1783203865302355200,1.054355224609375,0.175304124332685,1.3798930999428034,3.595229308289289,-0.0233050566166639,-0.157357171177864,0.2163743078708648
1783203865312292400,1.064292236328125,0.0005745850175619,1.6770651977032422,3.637169922918081,-0.1796411424875259,-0.0412028655409812,0.1714632958173751
1783203865322229500,1.0742294921875,-0.149210756649822,1.8753040430247785,3.6734301538228986,-0.3493050634860992,0.0741238594055175,0.1195056810975074
1783203865332165400,1.084165283203125,-0.3452195048317313,1.9554080918312071,3.48170580496192,-0.4941586554050445,0.1121412813663482,0.0584444627165794
1783203865342102300,1.094102294921875,-0.4888980540566146,1.916917325395345,2.9752772087812422,-0.6113588809967041,0.0928338915109634,0.0034861736930906
1783203865352039400,1.104039306640625,-0.5625425514601171,1.9054861230596896,2.426712767660617,-0.7091528177261353,0.0544345714151859,-0.0459298454225063
1783203865361975600,1.1139755859375,-0.5959520691089332,1.872332333737612,2.039247820034623,-0.808307945728302,0.0398225635290145,-0.0934566706418991
1783203865371912400,1.123912353515625,-0.6194964646950364,1.7867399166479705,1.7985007893294096,-0.9134863018989564,0.0310045704245567,-0.13487309217453
1783203865381849300,1.133849365234375,-0.6424141066849232,1.6385642021343112,1.5324498060196636,-1.007819652557373,0.0304281171411275,-0.1756802797317505
1783203865391786200,1.1437861328125,-0.6196678757391869,1.4466484223544598,1.1651117006212472,-1.0822323560714722,0.0334057994186878,-0.2040871679782867
1783203865401722400,1.153722412109375,-0.5969618306733667,1.2063014968827366,0.7512398075848817,-1.126325607299805,0.0409999452531337,-0.2278166115283966
1783203865411659500,1.163659423828125,-0.6307226459778845,0.8986579817295074,0.332224706441164,-1.1294255256652832,0.0599965415894985,-0.2578160464763641
1783203865421596400,1.173596435546875,-0.6095575467437505,0.5386351677805185,-0.1133469777166843,-1.0759884119033811,0.0761792063713073,-0.2836742997169494
1783203865431532300,1.1835322265625,-0.5163952789217233,0.1829150194615125,-0.6605880612790584,-0.9511614441871644,0.1036808639764785,-0.3086782097816467
1783203865441469400,1.193469482421875,-0.3687025256194174,-0.165384915728867,-1.2315367681652307,-0.8437896966934204,0.0911965072154998,-0.3264699876308441
1783203865451406600,1.203406494140625,-0.2118272256910801,-0.4790338087767362,-1.627010250201821,-0.7891674637794495,0.0726108402013778,-0.3433522880077362
1783203865461342200,1.21334228515625,0.0172609325440891,-0.8257616723448038,-1.8085265087813136,-0.7157345414161682,0.0808134898543357,-0.3249859511852264
1783203865471279400,1.223279296875,0.2549415602743625,-1.2647060473173857,-2.0792589279055598,-0.626166045665741,0.134901225566864,-0.2861277461051941
1783203865481216500,1.233216552734375,0.4537403775662183,-1.836523353731632,-2.403179916381836,-0.5309985280036926,0.207411915063858,-0.2416225969791412
1783203865491152400,1.24315234375,0.7085081887088716,-2.3942063363313677,-2.81147839320004,-0.4266907572746277,0.2718167603015899,-0.1797104924917221
1783203865501089300,1.25308935546875,1.115289246701449,-2.883347405363619,-3.3570541738986965,-0.2680487334728241,0.3040645122528076,-0.0932116955518722
1783203865511026400,1.2630263671875,1.5232124604664743,-3.34063612306118,-4.021290820813179,-0.0531702414155006,0.2865265309810638,0.0217524357140064
1783203865520963300,1.27296337890625,1.8934509634815155,-3.658551733642816,-4.670728542524576,0.179103597998619,0.2305617779493332,0.1504230499267578
1783203865530899200,1.282899169921875,2.1692017952896654,-3.780504334880412,-5.115388957056403,0.4145243763923645,0.144723042845726,0.2595298290252685
1783203865540836400,1.29283642578125,2.199678766617924,-3.803242528650165,-5.414218174374104,0.6816774606704712,0.031739342957735,0.357375293970108
1783203865550773500,1.3027734375,2.166179817119985,-3.77430518797934,-5.693313932695984,0.92214834690094,-0.0606640875339508,0.4423751533031463
1783203865560709400,1.31270947265625,2.214077440457046,-3.640188686217368,-5.759244494721293,1.1003867387771606,-0.1358339041471481,0.5197564959526062
1783203865570646300,1.322646240234375,2.321346851825714,-3.434919503867626,-5.631349351692199,1.234082818031311,-0.2343532890081405,0.5917177796363831
1783203865580583400,1.33258349609375,2.3855517591021957,-3.237518570674956,-5.6261722413152455,1.3857691287994385,-0.330323189496994,0.6922532320022583
1783203865590520300,1.342520263671875,2.418578707174212,-3.0636572107627984,-5.644073224186897,1.5389198064804075,-0.4214206039905548,0.8073172569274902
1783203865600456400,1.35245654296875,2.381422842603922,-2.7312311365306376,-5.560061062026024,1.6865507364273071,-0.4931395053863525,0.9183193445205688
1783203865610393300,1.362393310546875,2.3412366704270244,-2.2395465204954146,-5.304980385541915,1.8321417570114136,-0.5602666139602661,1.0132226943969729
1783203865620330200,1.372330322265625,2.2375376648910343,-1.6468959771499037,-4.925246908950806,1.9622161388397217,-0.6103456020355225,1.086616039276123
1783203865630266400,1.382266357421875,2.0834140017583964,-1.0151274753808974,-4.424638981747627,2.05588173866272,-0.6455217003822327,1.1407431364059448
1783203865640203300,1.392203369140625,1.92966574780941,-0.3413479240953922,-3.820375449758768,2.1136279106140137,-0.6901609301567078,1.1824312210083008
1783203865650140200,1.40214013671875,1.725488452349603,0.2437286768645048,-3.2442630764991045,2.1647391319274902,-0.7428593039512634,1.207435131072998
1783203865660077300,1.412077392578125,1.5271692352682351,0.7958674693405627,-2.7120640792459247,2.2419707775115967,-0.7799850106239319,1.2188594341278076
1783203865670013400,1.422013427734375,1.3329517544172704,1.383687231528759,-2.1717425658136604,2.341601848602295,-0.8040032386779785,1.2126080989837646
1783203865679950300,1.431950439453125,1.0801514439553022,1.8898843570411203,-1.575323902106285,2.4368698596954346,-0.7901902794837952,1.181430101394653
1783203865689887200,1.44188720703125,0.8095778686545789,2.3611744198232887,-0.8749982892006635,2.519805908203125,-0.7224594354629517,1.1285958290100098
1783203865699823400,1.4518232421875,0.566946777768433,2.810791579979658,-0.052953007030487,2.5690979957580566,-0.6077525019645691,1.0675801038742063
1783203865709760500,1.461760498046875,0.3213962923042476,3.213134947785735,0.8091834625095129,2.5836021900177,-0.4657101631164551,0.9975480437278748
1783203865719697200,1.471697265625,0.0977533950045704,3.5579958484381438,1.6030694026440382,2.5409951210021973,-0.3373231589794159,0.9282739758491516
1783203865729634300,1.48163427734375,-0.1015324751518666,3.934530821248889,2.3107740198850637,2.449326276779175,-0.2368359863758087,0.8543701767921448
1783203865739570400,1.4915703125,-0.2720093071922659,4.270980451908708,2.92479497577846,2.315056800842285,-0.1664142608642578,0.7879322171211243
1783203865749507300,1.50150732421875,-0.3809494282521307,4.560605787551403,3.4675147825241086,2.150620698928833,-0.1276191920042038,0.7216842174530029
1783203865759444200,1.5114443359375,-0.5344559823997318,4.787739887967706,3.9366865379780527,1.95552921295166,-0.0941081047058105,0.6515752673149109
1783203865769381400,1.52138134765625,-0.6720761083684861,5.036344061914086,4.411715787288546,1.7475578784942627,-0.0841164588928222,0.5869579315185547
1783203865779317500,1.5313173828125,-0.8162472634159028,5.25223079212904,4.83407552268505,1.5391058921813965,-0.1124353408813476,0.5202279686927795
1783203865789254400,1.54125439453125,-0.9834252000413836,5.389839519920945,5.176148838445544,1.342068433761597,-0.1450316309928894,0.4501633942127228
1783203865799191300,1.55119140625,-1.1647867064505817,5.56433800869286,5.580352739426493,1.1423202753067017,-0.154587984085083,0.3765831291675567
1783203865809127400,1.56112744140625,-1.2753707953251898,5.821714687159657,6.076111473032832,0.9171154499053956,-0.1368161737918853,0.2938008904457092
1783203865819064300,1.571064208984375,-1.3574135571092367,6.164837219712138,6.6464698128104205,0.6285431385040283,-0.0875004157423973,0.1933562159538269
1783203865829001500,1.58100146484375,-1.441968447844684,6.521892416027188,7.286607206735014,0.2502086758613586,0.0054324544034898,0.0722937062382698
1783203865838938000,1.590938232421875,-1.528321181782335,6.793864606079459,7.912521429517865,-0.1915595978498459,0.1280850321054458,-0.0294919162988662
1783203865848874200,1.600874267578125,-1.5521628067493438,7.0021589814692735,8.385407821580767,-0.7055739164352417,0.2884462177753448,-0.1207251623272895
1783203865858811400,1.610811279296875,-1.5888289881065487,7.102889638718962,8.654775966614483,-1.265862226486206,0.4587178230285644,-0.2002175152301788
1783203865868748500,1.62074853515625,-1.652021211209148,7.051535299056768,8.631761001729965,-1.8257745504379272,0.5864211916923523,-0.2621208131313324
1783203865878685200,1.630685302734375,-1.6655224978171288,6.870080999797582,8.164720413085817,-2.3478262424468994,0.6545994281768799,-0.3123145699501037
1783203865888621300,1.640621337890625,-1.568460446077585,6.59564914163351,7.334598791965842,-2.807588815689087,0.6920951008796692,-0.3594461381435394
1783203865898558500,1.650558349609375,-1.5003741673231124,6.195851366657018,6.355129489943384,-3.1817805767059326,0.7189854979515076,-0.4131257236003876
1783203865908495400,1.660495361328125,-1.3793259675793348,5.862591471949219,5.258855763226747,-3.472933769226074,0.737255334854126,-0.4636075496673584
1783203865918432300,1.670432373046875,-1.1592904471218586,5.568232093521952,4.075626222112775,-3.645772933959961,0.7306534051895142,-0.5213221311569214
1783203865928368400,1.680368408203125,-0.9199173351183532,5.165502356746792,2.728095761114359,-3.6641955375671382,0.6883488297462463,-0.5725429654121399
1783203865938305300,1.69030517578125,-0.6539777032285928,4.633410911521315,1.225118717816472,-3.6252050399780273,0.6025410294532776,-0.6436014175415039
1783203865948242400,1.700242431640625,-0.4213732085771858,4.143097583839297,-0.1859527797222137,-3.54093861579895,0.438692182302475,-0.7081354260444641
1783203865958178300,1.71017822265625,-0.1538403161466121,3.633924072864652,-1.399440680977702,-3.359847068786621,0.3019396364688873,-0.7489098906517029
1783203865968115500,1.720115478515625,0.1670249380208552,2.8997289235830306,-2.3737819724619387,-3.1422905921936035,0.2560730874538421,-0.7973131537437439
1783203865978052400,1.73005224609375,0.4250932520136237,2.027459767085314,-2.9295675970077517,-2.942241907119751,0.3142375349998474,-0.8682963252067566
1783203865987989500,1.739989501953125,0.5336413780812174,1.1954214986890557,-3.162179252052307,-2.8042569160461426,0.4419169127941131,-0.9403966069221495
1783203865997926100,1.749926025390625,0.6778585642274468,0.3166068660706281,-3.3158231688439845,-2.7196295261383057,0.5733914375305176,-0.9942163228988647
1783203866007862300,1.7598623046875,0.8700641937993466,-0.6373123996317386,-3.641117783761025,-2.5911614894866943,0.6767878532409668,-0.994565725326538
1783203866017799400,1.76979931640625,1.046910341675952,-1.5800839561149478,-4.28358274385035,-2.463162422180176,0.7003494501113892,-0.948441445827484
1783203866027736300,1.779736328125,1.2348425317123533,-2.479952774938941,-5.120079160699248,-2.419710397720337,0.5879877209663391,-0.860123336315155
1783203866037672200,1.789672119140625,1.4643939224034548,-3.281000861787796,-5.9323635118335485,-2.3542487621307373,0.4178100824356079,-0.7287957668304443
1783203866047609300,1.799609375,1.7106775444477795,-3.987652755105495,-6.8601505574136965,-2.312154054641724,0.2063369750976562,-0.584911048412323
1783203866057546500,1.80954638671875,1.8284236339062447,-4.719294128251075,-7.758514524632692,-2.281497001647949,-0.0524268522858619,-0.4855023324489593
1783203866067483400,1.8194833984375,1.9309620712302624,-5.239805610319972,-8.580354639619589,-2.194942712783813,-0.3659120500087738,-0.3857589662075043
1783203866077420300,1.829420166015625,2.2250109224036336,-5.621347597637772,-9.44332755998373,-1.952805519104004,-0.6971704363822937,-0.2320863902568817
1783203866087356400,1.8393564453125,2.607881235715747,-5.9358934395253655,-10.211959816396236,-1.5318809747695925,-0.9615488648414612,-0.0329519771039485
1783203866097293300,1.849293212890625,2.745948813191056,-6.073841774535179,-10.577198319166898,-1.0005630254745483,-1.096372127532959,0.1374037861824035
1783203866107230500,1.85923046875,2.5598420119509098,-5.853444873419404,-10.3263168479383,-0.4234142005443573,-1.0984251499176023,0.2436010688543319
1783203866117167400,1.86916748046875,2.1067826023861764,-5.195172103345394,-9.534309561157226,0.2024834603071212,-0.9634647369384766,0.274196594953537
1783203866127103200,1.879103271484375,1.4769658192068338,-4.323207775013149,-8.409424656984209,0.8563968539237976,-0.706557035446167,0.2625974714756012
1783203866137040400,1.889040283203125,0.8750020885929465,-3.5174528256475925,-7.229905660825968,1.4454599618911743,-0.4505231380462646,0.2198682576417923
1783203866146977500,1.8989775390625,0.4218884646229445,-2.747131300973892,-6.049813833215833,1.908371329307556,-0.2133747935295105,0.1627956479787826
1783203866156914200,1.9089140625,0.2042811942256987,-1.883314915522933,-4.788940495929122,2.277217388153076,-0.0161642655730247,0.1246510297060012
1783203866166850300,1.918850341796875,0.1359691438913345,-1.1125421399503943,-3.5649914064139128,2.5729544162750244,0.1435199379920959,0.1323286592960357
1783203866176787500,1.928787353515625,0.1857152446392923,-0.4807745149642228,-2.4903712931007145,2.660512685775757,0.2091181427240371,0.165361151099205
1783203866186724400,1.938724365234375,0.2527239572901278,0.2110354907914996,-1.3412024270206688,2.6171658039093018,0.1818255335092544,0.2240103632211685
1783203866196661200,1.9486611328125,0.2382471767134964,0.9067854663446544,-0.2693108618885279,2.514326810836792,0.1188984364271164,0.2973836064338684
1783203866206597400,1.958597412109375,0.1189766541667282,1.570657956121862,0.6000181495040655,2.366938352584839,0.040881659835577,0.3628886044025421
1783203866216534300,1.9685341796875,-0.1036689757239073,2.1918697003021834,1.4329203412532805,2.1497905254364014,-0.0400161892175674,0.3898253440856933
1783203866226471400,1.978471435546875,-0.3839201146259903,2.839748209872841,2.271392442089319,1.8496463298797607,-0.122879110276699,0.3558386266231537
1783203866236408300,1.988408203125,-0.7193497545883059,3.444794708932936,3.0773224557608363,1.529790282249451,-0.1970106065273285,0.2804418504238128
1783203866246344400,1.998344482421875,-1.0824726534444835,3.870739317078888,3.699714349636435,1.252720832824707,-0.2655071020126343,0.18054960668087
1783203866256281300,2.00828125,-1.369688516792655,4.136809005089104,4.135238102510571,1.0227220058441162,-0.3029783070087433,0.0573352687060833
1783203866266218500,2.018218505859375,-1.539366453540325,4.286608521412313,4.521394305625558,0.8206304311752319,-0.2981167137622833,-0.0721620097756385
1783203866276155100,2.028155029296875,-1.651582089139521,4.310611620551348,4.971059396576881,0.6116880178451538,-0.2207239717245102,-0.2216099053621292
1783203866286092300,2.03809228515625,-1.65970606662333,4.294224549373984,5.5130386140882965,0.3473085165023803,-0.0712356865406036,-0.3855991065502167
1783203866296028400,2.0480283203125,-1.590440368825942,4.166475536817312,6.132426065450907,0.036222293972969,0.1059917584061622,-0.5315983891487122
1783203866305965300,2.05796533203125,-1.394657246093452,4.007789534205198,6.589013064619898,-0.2822283804416656,0.2980687916278839,-0.6311641335487366
1783203866315902200,2.067902099609375,-1.0872837069880217,3.77665496597588,6.750628690943121,-0.5804113745689392,0.4829855561256408,-0.673412024974823
1783203866325839400,2.07783935546875,-0.6584174392417073,3.415619175592065,6.592265928936004,-0.8738994598388672,0.644425094127655,-0.6619002223014832
1783203866335775500,2.087775390625,-0.1718804882932454,3.036013709294796,6.237125041809677,-1.1616963148117063,0.7587746381759644,-0.6168336272239685
1783203866345712400,2.09771240234375,0.2883282815694808,2.7205814399614927,5.7689346986085175,-1.431466817855835,0.8153660297393799,-0.5624881386756897
1783203866355649300,2.107649169921875,0.6482054765027015,2.4088787125453357,5.20924037618637,-1.650133728981018,0.8557791709899902,-0.5093859434127808
1783203866365586200,2.117586181640625,0.860394302047789,2.0673115927413104,4.668998357731104,-1.8432576656341555,0.8818864226341248,-0.486390084028244
1783203866375523300,2.1275234375,0.9224658505573868,1.7024515678942205,4.26396326662302,-2.0576012134552,0.8813520669937134,-0.4689775705337524
1783203866385459500,2.13745947265625,1.0056208113670349,1.2354179935127496,3.960165028721094,-2.279054641723633,0.836391806602478,-0.4696124792098999
1783203866395396400,2.147396240234375,1.1336619387380775,0.749715666757524,3.607115560916066,-2.456496000289917,0.782795786857605,-0.4535274803638458
1783203866405333200,2.157333251953125,1.3729476647190748,0.2516571317762136,3.1732968583941457,-2.6216275691986084,0.7460780143737793,-0.3921464085578918
1783203866415270400,2.1672705078125,1.7640192585349082,-0.3918775033712386,2.814691510027647,-2.8421168327331543,0.7483084797859192,-0.282297283411026
1783203866425206500,2.17720654296875,2.160915759111941,-1.0626073116973045,2.5535131011903283,-3.114579916000366,0.8042197227478027,-0.1330177783966064
1783203866435143200,2.18714306640625,2.517886492013931,-1.6925000827223062,2.14108263913393,-3.4597408771514893,0.8625520467758179,0.0408449359238147
1783203866445080300,2.197080322265625,2.708788418576121,-2.193342403203249,1.3446996214866638,-3.8537425994873047,0.9441206455230712,0.2235961109399795
1783203866455017200,2.207017333984375,2.6460776953801517,-2.4510537204518914,0.1256242754876613,-4.251479148864746,0.9503830075263976,0.3940846920013428
1783203866464954400,2.216954345703125,2.5909511437028643,-2.4582506462186573,-1.9344062203347685,-4.5331010818481445,0.703495442867279,0.5785701274871826
1783203866474890200,2.22689013671875,2.680086055704951,-2.3986584934346378,-5.058129777264595,-4.561228752136231,0.1470396369695663,0.7943108081817627
1783203866484827400,2.236827392578125,2.7272540495932103,-2.4624744013935325,-8.665201499038934,-4.2928338050842285,-0.6140472888946533,1.0324053764343262
1783203866494764300,2.246764404296875,2.595497847221792,-2.5451944779172537,-11.945834112036229,-3.769600629806519,-1.417953610420227,1.2334396839141846
1783203866504701400,2.256701416015625,2.10158181887269,-2.3966326866954564,-14.328629412037133,-3.043751716613769,-2.052058458328247,1.3190654516220093
1783203866514638300,2.266638427734375,1.20272604954876,-1.8809663065701725,-15.598254211056233,-2.1841392517089844,-2.314854621887207,1.2514595985412598
1783203866524574200,2.27657421875,-0.0315683832941576,-1.1445479282811284,-15.693601421701906,-1.2428474426269531,-2.230265617370605,1.0175725221633911
1783203866534511400,2.286511474609375,-1.3984385181978345,-0.5675079553151503,-15.169911894118783,-0.2192654758691787,-1.8733142614364624,0.6688867211341858
1783203866544448300,2.2964482421875,-2.3534739284485577,-0.0526087601700797,-14.3742384860456,0.8267333507537842,-1.406077265739441,0.3177851438522339
1783203866554385400,2.306385498046875,-2.5853227824270726,0.4184452653665095,-13.581060986441374,1.9125750064849851,-0.9616671800613404,0.0659617260098457
1783203866564322300,2.316322265625,-2.10115277980566,0.6255220085948705,-12.87137776260376,2.7568018436431885,-0.6568151116371155,-0.138110727071762
1783203866574258400,2.326258544921875,-1.3728824905283747,0.699676647477597,-11.82535246013403,3.3201394081115723,-0.5179601907730103,-0.2599226236343384
1783203866584195300,2.3361953125,-0.5080865925207734,0.8420695408061146,-10.439359874272348,3.7475717067718506,-0.4371985197067261,-0.2400264143943786
1783203866594132500,2.346132568359375,0.3635822599962353,0.7031193352773785,-9.118901544594763,4.110332489013672,-0.3591043353080749,-0.1113213300704956
1783203866604069000,2.356069091796875,1.0998102302797137,0.5406003303736447,-7.873040483000874,4.375382423400879,-0.2975501418113708,0.0680998265743255
1783203866614006300,2.36600634765625,1.7172642293617129,0.761045454545319,-6.685947252196073,4.52286434173584,-0.2670232355594635,0.2311566025018692
1783203866623943700,2.375943603515625,1.9967482563488184,1.2538843551822003,-5.517839292368293,4.560579299926758,-0.2621842920780182,0.3339327871799469
1783203866633880300,2.38588037109375,2.0103886591665447,1.8665905752152203,-4.40967639041543,4.5467047691345215,-0.2726844549179077,0.4099516868591308
1783203866643817500,2.3958173828125,1.919848848802596,2.425287118771672,-3.5116596291989084,4.59481954574585,-0.267057716846466,0.4879194498062134
1783203866653754400,2.40575439453125,1.768553394833207,2.879110498446226,-2.8104104717075824,4.679582118988037,-0.2033381909132003,0.5551095604896545
1783203866663690500,2.4156904296875,1.5999110847435891,3.3215263489216564,-2.1011358286708592,4.772561550140381,-0.1244140863418579,0.5989686250686646
1783203866673627400,2.42562744140625,1.4318188097521662,3.792110309261084,-1.2881588190972804,4.850012302398682,-0.0606315769255161,0.6342549324035645
1783203866683564500,2.435564453125,1.236178310360759,4.140102201415599,-0.4623445397824048,4.8900651931762695,-0.0006204382516443,0.6670509576797485
1783203866693501400,2.44550146484375,1.0493374957576391,4.474720817255974,0.4049591032624244,4.88775110244751,0.0481482818722724,0.7017532587051392
1783203866703438600,2.4554384765625,0.836920633610338,4.847012745669484,1.262400108462572,4.851075172424316,0.1132114380598068,0.7356749773025513
1783203866713374500,2.46537451171875,0.5956444644644856,5.237406732484698,2.099123319804668,4.775102615356445,0.1708223223686218,0.7380547523498535
1783203866723311400,2.475311279296875,0.2717851430475712,5.673966842669248,2.882010311540961,4.639750480651856,0.2179887741804123,0.7185138463973999
1783203866733248500,2.48524853515625,-0.0251217279054224,6.100425830078125,3.615900340396166,4.460466384887695,0.2776674032211303,0.6970786452293396
1783203866743185400,2.495185302734375,-0.2264496252834796,6.449541465565562,4.349495185697078,4.207437515258789,0.3289050161838531,0.6768990755081177
1783203866753122600,2.50512255859375,-0.5106720789693295,6.708369511884451,5.026014975601434,3.9000236988067623,0.4020607471466064,0.6273378729820251
1783203866763059500,2.5150595703125,-0.7674040297918021,6.8877557726979255,5.67439295912683,3.5374481678009038,0.4388136863708496,0.5757404565811157
1783203866772995600,2.52499560546875,-0.9900716523185372,7.094633851549029,6.139878135022521,3.162412643432617,0.454053670167923,0.5066492557525635
1783203866782932500,2.534932373046875,-1.260948302219063,7.193263152605295,6.467354185631871,2.805612325668335,0.4824033081531524,0.4339551031589508
1783203866792869600,2.54486962890625,-1.5078409960724413,7.253865213084221,6.725241736230254,2.4652016162872314,0.5225887298583984,0.3718827068805694
1783203866802806300,2.55480615234375,-1.6616837964370843,7.377145555794239,6.88599285467863,2.18778133392334,0.6244357824325562,0.303398460149765
1783203866812743400,2.564743408203125,-1.877779200966656,7.482772752913832,7.07583270496726,1.9510047435760496,0.7512000799179077,0.2031135112047195
1783203866822679600,2.574679443359375,-2.264861286754906,7.575496044796705,7.186938625758886,1.7219820022583008,0.9866245985031128,0.0988430455327034
1783203866832616400,2.584616455078125,-2.541861241841316,7.9984537460863585,7.4506351548969745,1.4309451580047607,1.250576734542847,-0.0633078813552856
1783203866842553300,2.59455322265625,-2.8583646475374698,8.516377549749611,7.5965353256940835,1.014834761619568,1.3812572956085205,-0.2887612581253052
1783203866852490500,2.604490478515625,-3.2161607253476974,8.932848227107524,7.513074367675185,0.5049768686294556,1.4045262336730957,-0.5549921989440918
1783203866862427400,2.614427490234375,-3.5264328354388472,9.232932412922382,7.415275672224164,-0.0919914692640304,1.301224946975708,-0.8348001837730408
1783203866872363500,2.624363525390625,-3.824911047361791,9.342417454513908,7.21028092290163,-0.7408106327056885,1.0592522621154783,-1.0983810424804688
1783203866882300400,2.634300537109375,-4.035961735722422,9.268008987000584,6.913171953505278,-1.4130092859268188,0.7416899800300598,-1.334781050682068
1783203866892237300,2.6442373046875,-4.07591439140439,9.131527217411994,6.61608870307207,-2.0701141357421875,0.3972064256668091,-1.5371065139770508
1783203866902174500,2.654174560546875,-3.93668215406388,8.977919540977478,6.316017376738786,-2.694341897964477,0.086878664791584,-1.712191462516785
1783203866912111600,2.664111572265625,-3.647746554251015,8.885794214987754,6.048893795761465,-3.297356367111206,-0.1421147286891937,-1.8603092432022093
1783203866922048500,2.674048583984375,-3.1251471599921583,8.828391827332974,5.856757358968258,-3.8787102699279785,-0.2957322299480438,-1.987091898918152
1783203866931984400,2.683984375,-2.473634093311429,8.522540164032577,5.635383721774816,-4.433176517486572,-0.3639389276504516,-2.08366322517395
1783203866941921500,2.693921630859375,-1.712769548290968,8.073959361186622,5.293949288439751,-4.934773921966553,-0.3444547057151794,-2.1433558464050293
1783203866951858400,2.7038583984375,-0.809022718989849,7.495021409112215,4.7627404712677,-5.38161039352417,-0.2993054986000061,-2.159574270248413
1783203866961795600,2.713795654296875,0.1267082713320851,6.726565093788504,3.913161870005727,-5.736312389373779,-0.1779880970716476,-2.1245927810668945
1783203866971732500,2.723732421875,1.093408400413394,5.888807278701663,2.818654568439722,-6.0559611320495605,-0.1616820096969604,-2.0849826335906982
1783203866981668400,2.73366845703125,1.9931351804181927,4.965821495923399,1.1892542082309725,-6.246794700622559,-0.2819642126560211,-1.996479630470276
1783203866991605500,2.74360546875,2.906432805135846,3.738623049223423,-0.901726721650362,-6.292246341705322,-0.4554646611213684,-1.8864330053329468
1783203867001542700,2.753542724609375,3.5303885873273013,2.2994465701848266,-3.0948797397613523,-6.180911540985107,-0.5548168420791626,-1.815502405166626
1783203867011479300,2.763479248046875,3.6208594241082666,0.7585510073810815,-5.155829688516259,-5.998584747314453,-0.622717559337616,-1.8065848350524905
1783203867021416400,2.77341650390625,3.452907288239896,-0.5268257797822355,-7.011924588680267,-5.828964710235596,-0.688178300857544,-1.8702952861785889
1783203867031353600,2.783353515625,3.1881562816128133,-1.5118082922682166,-8.660404912412167,-5.529575824737549,-0.6811103224754333,-1.8899434804916384
1783203867041289500,2.79328955078125,3.261640327757597,-2.582256088332832,-10.28878937357664,-5.062705993652344,-0.5975051522254944,-1.8097254037857056
1783203867051226400,2.803226318359375,3.686476974661648,-3.622281273604929,-11.852378414225578,-4.455677032470703,-0.4918498396873474,-1.579850673675537
1783203867061163500,2.81316357421875,4.089623767805099,-4.620845444458722,-13.253980072629451,-3.596001625061035,-0.3363800942897796,-1.2646453380584717
1783203867071100400,2.823100341796875,4.322268156075477,-5.415972909086943,-14.475014736002684,-2.600226640701294,-0.1910652369260788,-0.9578815698623656
1783203867081037600,2.83303759765625,4.192950579027832,-5.761552771663665,-15.22989786852598,-1.5573619604110718,-0.1037335395812988,-0.7031752467155457
1783203867090973400,2.842973388671875,3.950030588197708,-5.527519559383392,-15.540054535543918,-0.6746782660484314,-0.0906579792499542,-0.5676421523094177
1783203867100910300,2.852910400390625,3.5611870456948878,-4.9581601675152775,-15.129556502854824,0.0464543513953685,-0.1009785234928131,-0.5085932612419128
1783203867110847500,2.862847412109375,2.9791423597767945,-4.51987922488749,-14.064581000721454,0.6891244649887085,-0.0638827160000801,-0.4336332380771637
1783203867120784600,2.87278466796875,2.498144265189767,-4.439937088644505,-12.67212126467228,1.2722915410995483,0.005148550029844,-0.3019335269927978
1783203867130721500,2.882721435546875,2.083839387563616,-4.552942705577611,-11.158914503782986,1.784198760986328,0.1016134619712829,-0.1780834197998047
1783203867140658400,2.892658447265625,1.819599399198592,-4.361601803076267,-9.583144611474872,2.183805465698242,0.1753012686967849,-0.0750473290681839
1783203867150594600,2.902594482421875,1.736272004431486,-3.8020951121807096,-7.999128284347057,2.5064971446990967,0.2349775433540344,0.04600440710783
1783203867160531500,2.912531494140625,1.8472502071902157,-3.1115099720448254,-6.440456241834164,2.7710134983062744,0.2961197197437286,0.1826685070991516
1783203867170468600,2.922468505859375,1.8924910324081776,-2.392836509282887,-4.927797177955508,2.964878797531128,0.3623321950435638,0.3281688094139099
1783203867180405500,2.932405517578125,1.7806489062964914,-1.7006487562559545,-3.489371809545159,3.063395500183105,0.4232687950134277,0.4677983522415161
1783203867190342400,2.94234228515625,1.5662436468109489,-0.9371548856452108,-2.1231033303290605,3.074124336242676,0.4509587585926056,0.5903118252754211
1783203867200279600,2.952279541015625,1.22835360808447,-0.2225219304457306,-0.9665420159101484,3.028038501739502,0.481715589761734,0.7040543556213379
1783203867210216400,2.962216552734375,0.8496674485892057,0.3755345635965466,0.0271229847252368,2.8828494548797607,0.489342987537384,0.7769791483879089
1783203867220152300,2.97215234375,0.5021216927669943,0.9583268530115484,0.9285720584779976,2.680058002471924,0.4300210773944855,0.8278700113296509
1783203867230089500,2.98208935546875,0.1326720020420849,1.521346520464122,1.5951298418164253,2.463926076889038,0.3538161516189575,0.8517605066299438
1783203867240026400,2.9920263671875,-0.1750631369173526,2.0267741229087117,2.1258114202439784,2.2338130474090576,0.2704754769802093,0.8504417538642883
1783203867249963500,3.001963623046875,-0.4540265010312199,2.4497625115975734,2.5942262198507784,1.9728845357894895,0.1924092173576355,0.8404208421707153
1783203867259900700,3.011900634765625,-0.6742527217552066,2.7903645857617256,3.033387452444434,1.6815874576568604,0.1046367585659027,0.8188753128051758
1783203867269836500,3.02183642578125,-0.8300191836588084,3.0966768523111936,3.419744146567583,1.360988974571228,0.0159263294190168,0.7747318148612976
1783203867279773400,3.0317734375,-0.9678235801532864,3.3438036471813914,3.7616923746436832,1.0245661735534668,-0.0659416317939758,0.7094579935073853
1783203867289710600,3.041710693359375,-1.0673409160904586,3.6135339035257696,4.015496455320716,0.691253125667572,-0.1503243595361709,0.6389151215553284
1783203867299647500,3.0516474609375,-1.0970496795251965,3.788618667753041,4.1626375660896295,0.3814595937728882,-0.2423994243144989,0.5751169323921204
1783203867309584400,3.06158447265625,-1.1214124057568609,3.8541158067971466,4.224671705198288,0.1196516677737236,-0.3080863058567047,0.4952966868877411
1783203867319521500,3.071521484375,-1.2657755762450396,3.858316765618324,4.236750265526771,-0.0990708246827125,-0.3364439308643341,0.3939583301544189
1783203867329458400,3.08145849609375,-1.489255684198439,3.859335879532992,4.2120629835158585,-0.2864204943180084,-0.3137364387512207,0.2720528244972229
1783203867339394600,3.09139453125,-1.661336736565083,3.868132933972776,4.249254942312836,-0.4584481716156006,-0.2488445192575454,0.1339940428733825
1783203867349331500,3.10133154296875,-1.7085044381923973,3.80448054601252,4.308803109824657,-0.6274392008781433,-0.1674683690071106,0.0073714656755328
1783203867359268400,3.111268310546875,-1.7267850680314003,3.6144217922762034,4.269180709010362,-0.7867302894592285,-0.0851298123598098,-0.1107868626713752
1783203867369205500,3.12120556640625,-1.7224258499085905,3.4292283064886924,4.158807778668403,-0.9181999564170836,0.0029186520259827,-0.2229341268539428
1783203867379142400,3.131142333984375,-1.792259556852281,3.216896346145868,3.913225582891703,-1.040096879005432,0.0600967183709144,-0.327262669801712
1783203867389079600,3.14107958984375,-1.8032298636779187,3.004212795886397,3.5729040792346,-1.2010213136672974,0.081590324640274,-0.4103385806083679
1783203867399015400,3.151015380859375,-1.6519994377687572,2.8430963512569662,3.279161371400952,-1.4096261262893677,0.0703414008021354,-0.5098862648010254
1783203867408952600,3.16095263671875,-1.5166243142478166,2.7269448375135656,2.954533111438155,-1.6117091178894043,0.0386313088238239,-0.6084363460540771
1783203867418889500,3.170889404296875,-1.339257868824154,2.618930452996492,2.532122522637248,-1.8256192207336424,-0.0068725263699889,-0.6787949204444885
1783203867428826600,3.18082666015625,-1.028407958845049,2.264080365510285,2.031688782957196,-2.0227768421173096,-0.0829896330833435,-0.7034133076667786
1783203867438763300,3.19076318359375,-0.620079963671416,1.6532786639243364,1.4276105444073677,-2.2013213634490967,-0.1807228475809097,-0.702326238155365
1783203867448700400,3.200700439453125,-0.2736889673748984,0.9615414311438798,0.7601011594325303,-2.332559823989868,-0.2898547649383545,-0.6761390566825867
1783203867458636500,3.210636474609375,0.0757769063223153,0.3235267284616828,0.0971627356350421,-2.4226725101470947,-0.4216359853744507,-0.6042475700378418
1783203867468573700,3.22057373046875,0.481374818944931,-0.3773687932863831,-0.5848813706487417,-2.458867073059082,-0.5663288831710815,-0.5019555687904358
1783203867478510300,3.23051025390625,0.8441614715840667,-1.0143404166564345,-1.2103238842666149,-2.4670896530151367,-0.6942484974861145,-0.3902513682842254
1783203867488447500,3.240447509765625,1.1768440047953277,-1.5308108066409825,-1.7120891648113727,-2.462443828582764,-0.8119133114814758,-0.2850462198257446
1783203867498384400,3.25038427734375,1.4676426950663328,-1.972557964074612,-2.1257050372600554,-2.409783124923706,-0.876905083656311,-0.1753428876399994
1783203867508321500,3.260321533203125,1.6668556461170314,-2.392520721331984,-2.5193308456033465,-2.317671537399292,-0.8615826368331909,-0.0877178013324737
1783203867518258700,3.2702587890625,1.7449961397655307,-2.782416549366713,-2.8695103109300133,-2.185710430145264,-0.7838894128799438,-0.0131727298721671
1783203867528194300,3.2801943359375,1.7557077956549825,-3.0748385299906134,-3.259914819139242,-2.009106397628784,-0.6642318964004517,0.0675873607397079
1783203867538131500,3.29013134765625,1.8559676205225288,-3.258130273810029,-3.7657314209014174,-1.7625991106033323,-0.5184432864189148,0.1462491452693939
1783203867548068600,3.300068603515625,1.9430739493064584,-3.4693653788268564,-4.442439426854253,-1.4275190830230713,-0.3435605466365814,0.2245734184980392
1783203867558005500,3.310005615234375,1.933103759434074,-3.638465807947516,-5.142352951827645,-1.0144442319869995,-0.1465702801942825,0.3084360659122467
1783203867567942400,3.3199423828125,1.888576927704364,-3.7115403965085743,-5.862893669766187,-0.541615903377533,0.0366216152906417,0.3936029970645904
1783203867577879600,3.329879638671875,1.9788081105105575,-3.673025956936181,-6.6211056544512505,-0.0473097488284111,0.2081185281276703,0.4902885258197784
1783203867587816400,3.33981640625,2.086458484020829,-3.539154369845986,-7.190439327356219,0.4420434832572937,0.3547204732894897,0.581531286239624
1783203867597752600,3.349752685546875,1.9375506558403373,-3.388109821897745,-7.511232539200782,0.9047996401786804,0.4297329485416412,0.6511366367340088
1783203867607689500,3.359689453125,1.5738699039056896,-3.1536028546258805,-7.691565140953659,1.3112937211990356,0.4484263360500335,0.694649875164032
1783203867617626400,3.36962646484375,1.189016819278523,-2.7934797951728103,-7.710244122460484,1.6599630117416382,0.4222501516342163,0.7027519941329956
1783203867627563000,3.37956298828125,0.86209211894162,-2.440177521650493,-7.56606770671606,1.946567416191101,0.3673635721206665,0.7093808650970459
1783203867637500200,3.389500244140625,0.7232492462448775,-2.097483151382208,-7.299043494459986,2.179038524627685,0.2915593683719635,0.7127001881599426
1783203867647437000,3.39943701171875,0.7285266751911491,-1.747714020422101,-6.989141094464063,2.3569045066833496,0.2137067168951034,0.7395942807197571
1783203867657374200,3.409374267578125,0.8254440577629953,-1.382805918649584,-6.688501028332114,2.477512836456299,0.123392529785633,0.8024086356163025
1783203867667310000,3.41931005859375,1.05030122622326,-0.9287741569213568,-6.388001831975579,2.562371253967285,0.024799644947052,0.8745638132095337
1783203867677247000,3.4292470703125,1.1805268580265342,-0.4743588027030229,-6.096590781959891,2.632394790649414,-0.0819776654243469,0.9355981349945068
1783203867687184100,3.43918408203125,1.1645739404827355,-0.0074590838342905,-5.845101407966017,2.7004432678222656,-0.2008397579193115,0.975521206855774
1783203867697121000,3.44912109375,1.1430864043612032,0.5202782578349113,-5.561390264803171,2.790982484817505,-0.3329897820949554,0.9794209003448486
1783203867707058200,3.45905810546875,1.0308988258127123,0.9142506876587868,-5.241808766835928,2.899000406265259,-0.4505363404750824,0.9867492914199828
1783203867716995000,3.4689951171875,1.079382651539892,1.3150769289001822,-4.789385317087173,3.0098228454589844,-0.5260292291641235,1.01446270942688
1783203867726932000,3.478931884765625,1.2320590384736656,1.6785712183520196,-4.167735181489586,3.1099536418914795,-0.5456315875053406,1.0583910942077637
1783203867736868000,3.4888681640625,1.313487906143069,1.944201638162136,-3.422345268976688,3.226814746856689,-0.5129562020301819,1.1136841773986816
1783203867746805200,3.49880517578125,1.2802914467230435,2.19548467592895,-2.682861365637183,3.37200927734375,-0.4352500140666961,1.172598123550415
1783203867756742000,3.508741943359375,1.1619058903172612,2.540238609075546,-1.9592203435957432,3.523690938949585,-0.3395543992519378,1.2205936908721924
1783203867766679000,3.518678955078125,1.0038038250729442,2.9968916592180728,-1.2441034042716026,3.65627646446228,-0.2338189780712127,1.2472485303878784
1783203867776616200,3.5286162109375,0.800396198811382,3.545085513460636,-0.5124357276409864,3.7492213249206543,-0.1335075497627258,1.2383487224578855
1783203867786553000,3.538552978515625,0.5535775931075215,4.135089049428701,0.2398725859582424,3.797071933746338,-0.0338524542748928,1.2064975500106812
1783203867796489000,3.548489013671875,0.2604063284862786,4.6716000646620985,0.9791571673333644,3.7864348888397217,0.0691112130880355,1.145901083946228
1783203867806426000,3.558426025390625,-0.0483088344864547,5.162237217471003,1.7234902642697094,3.7209553718566895,0.1635034531354904,1.0606216192245483
1783203867816363000,3.568363037109375,-0.4058906850241124,5.562383952015638,2.370029341930151,3.615897655487061,0.2270880192518234,0.956633985042572
1783203867826300200,3.578300048828125,-0.7662740028485655,5.877094629076123,2.9142274045348167,3.471846342086792,0.2632942795753479,0.8402183651924133
1783203867836237300,3.5882373046875,-1.0623835859440267,6.118149702817202,3.400383612537384,3.27937126159668,0.2564310431480407,0.7315549850463867
1783203867846174000,3.598174072265625,-1.3644044389098882,6.334062736517191,3.8630455477058887,3.064695358276367,0.2485100328922271,0.599427342414856
1783203867856111000,3.608111083984375,-1.6904568864569067,6.471838053047657,4.274054452526569,2.845311403274536,0.2588873207569122,0.4745152592658996
1783203867866048000,3.618048095703125,-1.8358507151670755,6.615056437414884,4.684367776298522,2.6482770442962646,0.2488237470388412,0.3734292984008789
1783203867875984100,3.627984130859375,-2.014607153644413,6.767390440651774,4.957966690769792,2.4948294162750244,0.2605227530002594,0.2651374638080597
1783203867885921000,3.637921142578125,-2.176935750542581,6.9747536726713175,5.25221150290668,2.354208469390869,0.2969264984130859,0.155768483877182
1783203867895858200,3.647858154296875,-2.348737839837372,7.251434771066903,5.62383240019083,2.2057690620422363,0.3540076315402984,0.0140251936390995
1783203867905795000,3.657795166015625,-2.6056281960919496,7.640132475358247,6.084453184920549,2.003718376159668,0.3872041404247284,-0.179760605096817
1783203867915732200,3.667732177734375,-2.8797978961884976,8.174533951091766,6.633597471755743,1.691059708595276,0.38895383477211,-0.4459739029407501
1783203867925669000,3.677669189453125,-3.1846728234112263,8.806547659793496,7.376575646951794,1.2529970407485962,0.4127116799354553,-0.7780237197875977
1783203867935606000,3.68760595703125,-3.503643788264692,9.40755715842247,8.355629353910684,0.7002227902412415,0.4581862092018127,-1.116631269454956
1783203867945543200,3.697543212890625,-3.823261234328151,9.553951834738251,9.272391732129456,0.0609743222594261,0.5002455115318298,-1.405954360961914
1783203867955479000,3.70747900390625,-4.120523932981491,9.274874781116845,9.915513694822788,-0.6090788841247559,0.5611733198165894,-1.6235628128051758
1783203867965416200,3.717416259765625,-4.227219343854487,8.855243009379505,10.327419256222248,-1.2463562488555908,0.5771532654762268,-1.7811983823776243
1783203867975353000,3.72735302734375,-4.186140314491093,8.645390883153677,10.34477488017082,-1.8355116844177248,0.5401145219802856,-1.922098994255066
1783203867985290000,3.7372900390625,-4.011909829005599,8.693003113678097,10.106046788072586,-2.3756349086761475,0.4428898692131042,-2.084320306777954
1783203867995227100,3.74722705078125,-3.707589613056183,8.909326481744646,9.75576912306845,-2.949132204055786,0.3854081928730011,-2.274332284927368
1783203868005164000,3.7571640625,-3.2626272929683324,9.15893194168806,9.54619932091534,-3.686479091644287,0.5010983347892761,-2.4684834480285645
1783203868015101200,3.76710107421875,-2.349166002121568,9.389060547745228,9.765755679553749,-4.575656414031982,0.6802747249603271,-2.5651700496673584
1783203868025038000,3.7770380859375,-0.7775722995195538,9.09884250690639,9.33314109212458,-5.545235633850098,0.8177295327186584,-2.4951603412628174
1783203868034974200,3.78697412109375,1.6378522544726728,8.100264599788188,7.836500850632786,-6.483366966247559,0.7456780076026917,-2.224628210067749
1783203868044911000,3.7969111328125,4.399837717968225,6.546015049892664,5.256524689930677,-7.427836418151855,0.3462406098842621,-1.925203561782837
1783203868054848300,3.80684814453125,6.022042613714933,4.651813998696208,1.963185740095377,-8.145770072937012,-0.2728026509284973,-1.2178003787994385
1783203868064785000,3.816784912109375,8.721287543398141,4.325367291134596,-1.1328092674314976,-8.534079551696777,-0.9976773262023926,-0.3825335800647735
1783203868074722000,3.82672216796875,9.241481630080935,2.872019078880548,-4.919115274327993,-8.687384605407715,-1.5169612169265747,0.1898718774318695
1783203868084659200,3.8366591796875,7.153035771635175,1.3749623655423522,-8.134714566400646,-8.508779525756836,-1.695556402206421,0.421047180891037
1783203868094596000,3.84659619140625,4.795226444330811,1.1746002444565296,-11.202505808228254,-7.932713985443115,-1.70718514919281,0.3137353956699371
1783203868104532000,3.856531982421875,2.3291057953894136,1.0874448158338663,-14.568731130576133,-6.810325145721436,-1.5309553146362305,0.0222212597727775
1783203868114469000,3.86646923828125,0.4266531948067247,0.5180924382284283,-17.611038971579074,-5.553714275360107,-1.3178129196166992,-0.4174152612686157
1783203868124406000,3.876406005859375,-0.6984731169067323,-0.3419045350648462,-19.218450787341595,-3.9640145301818848,-1.0933470726013184,-0.6868176460266113
1783203868134343200,3.88634326171875,-0.706933194477111,-1.6165074147574603,-19.86248635774851,-2.2422990798950195,-0.8400987982749939,-0.7808815240859985
1783203868144280300,3.8962802734375,0.0432238959049805,-2.92272576828897,-19.706421351289748,-0.7927486300468445,-0.5752692818641663,-0.8003078699111938
1783203868154217000,3.906217041015625,0.8756920436184853,-3.571875905230641,-18.298647141730783,0.1932707726955413,-0.3008768260478973,-0.7573097944259644
1783203868164154000,3.916154052734375,1.6730192833133042,-3.850659236602485,-15.874005919647216,0.8938924074172974,-0.0008387994021177,-0.6377927660942078
1783203868174091000,3.926091064453125,2.106072262159735,-4.280106884433329,-13.490793271017074,1.3824163675308228,0.2401264011859893,-0.4759586453437805
1783203868184027100,3.936027099609375,2.1722700968191027,-4.575325510038435,-11.387736118894814,1.692893147468567,0.3429847955703735,-0.3166696727275848
1783203868193964000,3.945964111328125,2.0394531333483754,-4.355689948683977,-9.573779986280202,1.9382333755493164,0.3536901772022247,-0.1564081013202667
1783203868203901000,3.95590087890625,1.9233295305252076,-4.045584135070443,-8.132540144971012,2.141154766082764,0.2960094213485718,-0.005972989834845
1783203868213838000,3.965838134765625,1.7339330400899051,-3.7743750383451578,-6.848413357868791,2.282542943954468,0.1877418011426925,0.1240763515233993
1783203868223775200,3.975775146484375,1.523106662004441,-3.3578669515863058,-5.523105834594369,2.3652472496032715,0.090950883924961,0.2514161765575409
1783203868233712000,3.985712158203125,1.3273393213629725,-2.8215602267533537,-4.274620854237676,2.3708767890930176,0.0240839682519435,0.3696908950805664
1783203868243649000,3.99564892578125,1.2169232825316487,-2.086370805737376,-3.11756269621253,2.361557483673096,-0.0266602374613285,0.4753448367118835
1783203868253586200,4.005586181640625,1.1469129769120363,-1.3342026312611996,-2.1838258023172616,2.353104591369629,-0.0637279748916626,0.5616147518157959
1783203868263523000,4.015523193359375,0.904247033908218,-0.7279793435066938,-1.4489151982426642,2.300084352493286,-0.1032580733299255,0.6024149060249329
1783203868273459200,4.025459228515625,0.59002735523507,-0.084863226032257,-0.6554571281313896,2.248266220092773,-0.1419956088066101,0.6269069314002991
1783203868283396000,4.03539599609375,0.3023188129991292,0.534324026583135,0.0376052157729864,2.208611249923706,-0.1636836528778076,0.6549804210662842
1783203868293333000,4.0453330078125,0.0777544169403612,1.0837392393141985,0.6536983017653226,2.152177572250366,-0.1382701694965362,0.6708166599273682
1783203868303270100,4.055270263671875,-0.1054246602848172,1.5983628323882817,1.3042553828954695,2.06997299194336,-0.1119221746921539,0.6642066240310669
1783203868313207000,4.06520703125,-0.3118808604620396,2.061459067320824,1.920587538340688,1.962169885635376,-0.0820377841591835,0.644477367401123
1783203868323144200,4.075144287109375,-0.5434639031112194,2.437332361352444,2.478195117616653,1.8625062704086304,-0.022691024467349,0.6100409030914307
1783203868333081000,4.0850810546875,-0.7901052525520325,2.75960178322941,2.9962434244424103,1.701515555381775,0.0407955385744571,0.5333269238471985
1783203868343018000,4.09501806640625,-1.0432745424568652,3.016503245399892,3.522590188536048,1.4973076581954956,0.0727526769042015,0.4296568930149078
1783203868352955100,4.104955078125,-1.2733179544486104,3.3185084624052044,3.949055021163821,1.273417830467224,0.0902230143547058,0.3095272779464721
1783203868362891300,4.114891357421875,-1.4498947107993063,3.4947640239775177,4.304281833007932,1.0667842626571655,0.1107208877801895,0.2061123996973037
1783203868372828000,4.124827880859375,-1.567566273716837,3.536642971546948,4.588317385819554,0.8405939936637878,0.1360084116458892,0.1062467843294143
1783203868382765000,4.13476513671875,-1.6421322698794305,3.513981350144744,4.865970544117689,0.577586829662323,0.1563963294029235,0.0122118545696139
1783203868392702200,4.1447021484375,-1.6828692078068852,3.507584927105904,5.176016736498474,0.253317654132843,0.1697843074798584,-0.0826989412307739
1783203868402639000,4.15463916015625,-1.6416120453976093,3.5126486402362582,5.370987519934773,-0.1110917925834655,0.1474572569131851,-0.176780417561531
1783203868412576300,4.164576171875,-1.5587418928787111,3.419394017955661,5.387147212097048,-0.4770514070987701,0.0970550701022148,-0.2482117265462875
1783203868422513000,4.174512939453125,-1.349501761071384,3.203543528097868,5.180637382036447,-0.7897883653640747,0.0319291278719902,-0.2603356838226318
1783203868432450000,4.184449951171875,-1.046877827645838,2.9282208585739133,4.825530981701612,-1.0526338815689087,-0.0255948863923549,-0.2504207193851471
1783203868442386200,4.19438623046875,-0.78215546259135,2.6088611866638063,4.381184455424547,-1.320824384689331,-0.1076409220695495,-0.1981331557035446
1783203868452323000,4.204322998046875,-0.4676572592377662,2.333967556206882,3.9739761119306087,-1.615514636039734,-0.214709848165512,-0.1362828463315963
1783203868462260000,4.214260009765625,-0.193021549064666,2.057778332981467,3.5995758130609987,-1.896115064620972,-0.3035219609737396,-0.0938097685575485
1783203868472197000,4.224197021484375,-0.1271159753501415,1.882643592132628,3.1566222024470565,-2.110963821411133,-0.3289966881275177,-0.0758062675595283
1783203868482134000,4.234134033203125,-0.2262779219783842,1.6921616445481775,2.5435364815771577,-2.260794162750244,-0.2672836780548095,-0.088676631450653
1783203868492071200,4.2440712890625,-0.4770176466487348,1.3652005577236412,1.8178239139586685,-2.310987949371338,-0.1700367331504821,-0.1570847183465957
1783203868502008300,4.25400830078125,-0.8233369294159114,1.082587731191516,0.8334159864902496,-2.2255775928497314,-0.1202849969267845,-0.2529558837413788
1783203868511945000,4.263945068359375,-0.9704959411676972,0.8402358956381678,-0.3903565774142742,-1.996259689331055,-0.1133914142847061,-0.3375434875488281
1783203868521882000,4.273882080078125,-0.8322722963478416,0.5606827489376067,-1.5230927796095608,-1.6909698247909546,-0.1239265948534011,-0.4061888456344604
1783203868531819000,4.283819091796875,-0.6535059940636158,0.1333921330101788,-2.282726321530342,-1.376448392868042,-0.1252962499856948,-0.4487336575984955
1783203868541755100,4.293755126953125,-0.3534646244771778,-0.3092209936030209,-2.6600872237712143,-1.0924938917160034,-0.1039684042334556,-0.437100350856781
1783203868551692000,4.303692138671875,0.0009138999745249,-0.7175584872573614,-2.761301280623674,-0.8465607762336731,-0.0682295858860015,-0.4028070867061615
1783203868561629200,4.313629150390625,0.1385617176678031,-1.1675368819415568,-2.6939684505850074,-0.6198307871818542,0.0098305009305477,-0.356590986251831
1783203868571566000,4.323566162109375,0.1374289873108267,-1.5470245670780538,-2.4936557215988637,-0.4204460084438324,0.0872717648744583,-0.3142043948173523
1783203868581503200,4.333503173828125,0.0154322546705603,-1.758381544908881,-2.2710206861674784,-0.2466821819543838,0.1900445818901062,-0.3253517746925354
1783203868591440100,4.343440185546875,-0.2428867461476475,-1.596935722194612,-1.8689380151242017,-0.126910775899887,0.3361325562000274,-0.392584890127182
1783203868601377000,4.353376953125,-0.5187823201887309,-1.411577255103737,-1.3458154737740755,-0.0643014311790466,0.5624393820762634,-0.4706697165966034
1783203868611314200,4.363314208984375,-0.6850448955349624,-1.525802330829203,-0.9415344159036876,-0.0819328874349594,0.8205417990684509,-0.5057360529899597
1783203868621251000,4.3732509765625,-0.5034658008523285,-1.5790551975890994,-0.8850093956053257,-0.1692985594272613,0.9653977155685424,-0.5106028318405151
1783203868631187700,4.383187744140625,-0.1352019589111208,-1.5975122069083154,-1.5158072987765072,-0.3117627799510956,0.9423584342002868,-0.4939141571521759
1783203868641123800,4.393123779296875,0.3191060624752193,-1.6547428912580011,-2.61417887455523,-0.4413759410381317,0.7425557971000671,-0.4297527968883514
1783203868651060700,4.403060791015625,0.8439365767870098,-1.7933390226520596,-3.947418359872698,-0.4896414577960968,0.3922369480133056,-0.3117739856243133
1783203868660997600,4.41299755859375,1.2811328659832475,-2.150976841160655,-5.45262535417974,-0.4106870591640472,-0.0112572386860847,-0.1333949714899063
1783203868670934800,4.422934814453125,1.5899632528334855,-2.477233286847174,-6.722367057576776,-0.2219869345426559,-0.3053823411464691,0.0511240102350711
1783203868680871700,4.43287158203125,1.572007909426093,-2.5919068369925022,-7.493184841334819,0.0278322119265794,-0.403827965259552,0.1237184777855873
1783203868690808800,4.442808837890625,1.1814696187693623,-2.45446002176404,-7.848457245886325,0.3741651177406311,-0.3210843503475189,0.1099270358681678
1783203868700745700,4.452745849609375,0.7012187623530626,-2.170491835100204,-8.210349945360422,0.8405128717422485,-0.1902013272047042,0.0424191541969776
1783203868710682600,4.4626826171875,0.4425729407332837,-1.8381936250314117,-8.8396631629318,1.379860758781433,-0.0894068107008934,-0.0012039572466164
1783203868720619800,4.472619873046875,0.5285797107774765,-1.453723767568171,-9.47756768323779,1.921595573425293,-0.0856504216790199,-0.0178992357105016
1783203868730555600,4.4825556640625,0.8310654047761112,-1.081790443333983,-9.835558114576338,2.4154980182647705,-0.1628458648920059,0.0085057392716407
1783203868740492800,4.492492919921875,1.1199013436067848,-0.8321174711123108,-9.78270155365765,2.8208045959472656,-0.2557543814182281,0.08664321154356
1783203868750429700,4.5024296875,1.4576714822806418,-0.5246536964401602,-9.287171952632068,3.145303010940552,-0.4155592322349548,0.1988144814968109
1783203868760366600,4.51236669921875,1.7738671372018753,-0.212991008773446,-8.62579887845516,3.419847011566162,-0.6408761739730835,0.311537504196167
1783203868770303700,4.5223037109375,1.899378892225772,-0.0020636545315384,-7.871106300067901,3.640568494796753,-0.8406246900558472,0.4233953058719635
1783203868780241000,4.532240966796875,1.964380064446479,0.4894251466706394,-6.766120274585485,3.787069797515869,-0.9750838875770568,0.502305805683136
1783203868790177800,4.542177734375,1.877864979553968,1.1846925994038582,-5.441486120527983,3.8655264377594,-1.0866844654083252,0.5320075154304504
1783203868800114700,4.55211474609375,1.6004539594486356,1.7619301773011684,-4.097329519876838,3.9005260467529297,-1.1271588802337646,0.5222193598747253
1783203868810051600,4.562051513671875,1.3322061967469752,2.2762308220312,-2.7414228601992128,3.936357021331787,-1.0980627536773682,0.4899394810199737
1783203868819988700,4.57198876953125,1.1113321796387434,2.7602304365217685,-1.4758675025761128,3.963707685470581,-1.0133217573165894,0.4370655417442322
1783203868829924900,4.5819248046875,0.9236173586800694,3.2090123148977754,-0.3166653182595968,3.942101240158081,-0.8929378986358643,0.3863421678543091
1783203868839861500,4.591861572265625,0.8714518487654626,3.6720951058268554,0.8254588900059461,3.8669567108154297,-0.7817740440368652,0.3369264900684356
1783203868849798700,4.601798583984375,0.8619759452160447,3.989648312836885,1.864496817806363,3.731210470199585,-0.7220425605773926,0.3162217438220978
1783203868859735800,4.61173583984375,0.8167116660572588,4.178011660832167,2.7394465916901827,3.553849458694458,-0.6857895255088806,0.3184753656387329
1783203868869672700,4.621672607421875,0.7554555255837738,4.371515294325351,3.5502059252142906,3.325977325439453,-0.650038480758667,0.3199478387832641
1783203868879609900,4.63160986328125,0.572547008928284,4.510224092313647,4.344445501092076,3.051067352294922,-0.6184419989585876,0.3178993463516235
1783203868889546800,4.641546630859375,0.3826991945289075,4.691767823421955,5.076195010787249,2.7415053844451904,-0.6290118098258972,0.3093205094337463
1783203868899483600,4.651483642578125,0.2049203689120709,4.87046376388371,5.638153186488151,2.4070520401000977,-0.6679460406303406,0.2952592074871063
1783203868909420800,4.6614208984375,0.0117884182754904,5.005945416519046,6.1407023108869785,2.0503969192504883,-0.7294543981552124,0.2791622579097748
1783203868919357700,4.671357666015625,-0.1629448291003704,5.083360080111026,6.614772359776497,1.6720590591430664,-0.8137162923812866,0.2876518368721008
1783203868929294800,4.681294921875,-0.2218833402812481,5.080497091895341,7.098615030139684,1.2467050552368164,-0.8158037066459656,0.3379797339439392
1783203868939230700,4.691230712890625,-0.2168969301708042,5.08499440331459,7.707333787971734,0.8008130192756653,-0.7935522198677063,0.4022977948188782
1783203868949167600,4.701167724609375,-0.1463568285234272,5.138461789608002,8.197666989398002,0.3568568825721741,-0.7550181150436401,0.4788032174110412
1783203868959104800,4.711104736328125,-0.0816108001075684,5.18479099458456,8.50220698557794,-0.0655612200498581,-0.7025341987609863,0.5518802404403687
1783203868969042000,4.7210419921875,-0.0186225751444697,5.237560461741686,8.668105403786898,-0.4648289680480957,-0.6372308135032654,0.6095147728919983
1783203868978978600,4.730978515625,-0.0025151976913213,5.369280131494999,8.730264630579947,-0.8536831736564636,-0.5512416958808899,0.6391689777374268
1783203868988915700,4.740915771484375,-0.0153515906497836,5.632805395719409,8.751486282306908,-1.2228004932403564,-0.4795962870121002,0.6224144697189331
1783203868998852600,4.7508525390625,-0.0779397103793919,5.8270589707970615,8.71638515830934,-1.577230453491211,-0.3767344951629638,0.5560598373413086
1783203869008789800,4.760789794921875,-0.2318839252918958,5.941887126982212,8.699112536469102,-1.931017518043518,-0.2106890678405761,0.4397537410259247
1783203869018727000,4.770726806640625,-0.4486651201285421,6.008215748414397,8.79667216246724,-2.2750744819641118,-0.0087914178147912,0.2839888334274292
1783203869028663600,4.78066357421875,-0.6975929730713367,5.990276771619915,8.760474475404619,-2.569923162460327,0.2115867584943771,0.1073075607419014
1783203869038600700,4.7906005859375,-0.7669460568912326,5.834674706497788,8.50412830902934,-2.7894387245178223,0.4097949862480163,-0.0566881522536277
1783203869048536800,4.800536865234375,-0.5802832292035222,5.563685097742081,8.006759802138806,-2.947007179260254,0.5618878602981567,-0.2007742226123809
1783203869058473700,4.8104736328125,-0.2698956760391592,5.295565491464734,7.420058814847469,-3.0843043327331543,0.6746576428413391,-0.3207173943519592
1783203869068410600,4.82041064453125,0.1348619133017957,5.057090497344732,6.948423884150386,-3.249098539352417,0.8054729104042053,-0.3897348046302795
1783203869078347800,4.83034765625,0.6592854542478919,4.739944117569923,6.68820935190916,-3.5188117027282715,1.021739840507507,-0.3935454487800598
1783203869088284700,4.84028466796875,1.3812811933003366,4.565928443878889,6.582232610699534,-3.861639499664306,1.2849352359771729,-0.3529706001281738
1783203869098221800,4.850221923828125,2.173117945820093,4.430536807614565,6.199851249948144,-4.168329238891602,1.7035202980041504,-0.3156009614467621
1783203869108158700,4.86015869140625,2.597252581934631,4.140372542789578,5.363127454084157,-4.35547399520874,2.2213501930236816,-0.3071608543395996
1783203869118095600,4.870095703125,2.833952675336599,3.846372937585413,3.775856509074568,-4.3999128341674805,2.627558469772339,-0.3176571428775787
1783203869128032800,4.88003271484375,2.9486817550614477,3.399360114708543,1.304471071472764,-4.35923957824707,2.9225003719329834,-0.3504630327224731
1783203869137969700,4.8899697265625,2.768245108412206,2.856160123230517,-1.4173556923747062,-4.270613193511963,3.0435545444488525,-0.4016003608703613
1783203869147906800,4.89990673828125,2.5899755766689774,2.3457480103716253,-4.269138038912415,-4.1019816398620605,2.9347708225250244,-0.4246393740177154
1783203869157842700,4.9098427734375,2.29831288997978,1.4678507848590612,-7.539874696317314,-3.900202989578247,2.626368761062622,-0.3999253809452057
1783203869167779600,4.919779541015625,2.1675060972876845,0.4457628228157758,-10.849248835152387,-3.6552112102508554,2.118108034133911,-0.3086841404438019
1783203869177716700,4.929716796875,2.324377890084684,-0.5579854726776481,-13.982293178135157,-3.286224842071533,1.4515835046768188,-0.1690446734428405
1783203869187654000,4.93965380859375,2.339302633624524,-1.5302372445367276,-16.79544622654915,-2.741174459457397,0.7040582895278931,-0.0725122690200805
1783203869197590800,4.9495908203125,1.9805404872611163,-2.481416417750716,-18.906653951901195,-1.972870945930481,-0.051696304231882,-0.0516991764307022
1783203869207527700,4.959527587890625,1.376072080349922,-3.3755686124935744,-19.97190184123516,-1.0365471839904783,-0.5773494243621826,-0.1215890496969223
1783203869217464600,4.969464599609375,0.6570571106739341,-4.099872190096974,-19.56534816225767,-0.0853646174073219,-0.7677313685417175,-0.2564526498317718
1783203869227401700,4.979401611328125,0.0035234979510307,-4.523189080087841,-17.792367014110088,0.8010919690132141,-0.6622102856636047,-0.3736557066440582
1783203869237339000,4.9893388671875,-0.1815136282309889,-4.629070544229448,-15.215443811237812,1.5783660411834717,-0.424856036901474,-0.4276111721992492
1783203869247275500,4.999275634765625,0.0003799392282962,-4.677786644342541,-12.670005295431611,2.214820146560669,-0.191293329000473,-0.4158176481723785
1783203869257212700,5.009212646484375,0.4519773864816874,-4.451215146245062,-10.379103850752117,2.6871023178100586,-0.0241695810109376,-0.3316717743873596
1783203869267149600,5.019149658203125,0.8753308821558952,-3.98283161855936,-8.304631572601199,3.040693044662476,0.0979222357273101,-0.1859124302864074
1783203869277085700,5.029085693359375,1.146414818131551,-3.3894676662474867,-6.403000663664937,3.260438203811645,0.1701595932245254,-0.0085269417613744
1783203869287022800,5.03902294921875,1.207414864952117,-2.777930343863368,-4.727759174257517,3.229736328125,0.1410722732543945,0.135503202676773
1783203869296959700,5.048959716796875,1.0978260707251728,-1.9854206605181095,-3.069039780583977,3.0095460414886475,0.0148709062486886,0.2518247961997986
1783203869306896600,5.058896728515625,0.9335675286777316,-1.0839660338073969,-1.6822195117264984,2.7395331859588623,-0.1904071569442749,0.3644626438617706
1783203869316833800,5.068833740234375,0.7595568234227598,-0.3611071020543575,-0.7074912667512894,2.4572794437408447,-0.4110039174556732,0.4709996581077575
1783203869326770700,5.078770751953125,0.5491143300883472,0.2220443760618567,0.112732060688734,2.164781093597412,-0.5746932029724121,0.5285471081733704
1783203869336707600,5.08870751953125,0.3290377469681203,0.8034227070257067,0.9677408703058956,1.8569315671920776,-0.6969012022018433,0.5539462566375732
1783203869346644700,5.098644775390625,0.1151519813120365,1.3932383192062376,1.6671669040232897,1.6103187799453735,-0.7508882880210876,0.5436992049217224
1783203869356581600,5.10858154296875,-0.0539013937965035,1.8989245725870127,2.1223200709968806,1.4459917545318604,-0.724288284778595,0.5328297019004822
1783203869366518800,5.118518798828125,-0.0806048379354178,2.253600764811039,2.4477263295948504,1.3321144580841064,-0.627078115940094,0.5081238150596619
1783203869376455700,5.12845556640625,-0.2235334455758333,2.509155780808628,2.72833599961102,1.203783392906189,-0.4992146492004394,0.4472669064998626
1783203869386392600,5.138392578125,-0.3640137832812964,2.775475059665739,3.0319238096326586,1.096345067024231,-0.3694699704647064,0.3880443274974823
1783203869396329700,5.148329833984375,-0.3989282986655831,3.0591409023821354,3.115146282720566,1.011257886886597,-0.2626053392887115,0.3265694081783294
1783203869406265900,5.158265869140625,-0.4628955977939069,3.185221104943752,3.1489690573453903,0.9389320015907288,-0.168633297085762,0.2791696786880493
1783203869416202800,5.16820263671875,-0.4879407533317804,3.2244249880850315,3.202287390556932,0.8304867148399353,-0.0840064212679863,0.2474693804979324
1783203869426139600,5.1781396484375,-0.5083072495341301,3.2615964886158704,3.325626769977808,0.7036557793617249,-0.0043022679165005,0.1987665444612503
1783203869436076500,5.18807666015625,-0.5826230703279376,3.199307497963309,3.4199458066195247,0.559932291507721,0.0473783314228057,0.1501176506280899
1783203869446013700,5.198013671875,-0.6459533867269754,3.0744091986626385,3.414813119906187,0.3928460776805877,0.0434685423970222,0.1103297546505928
1783203869455950800,5.207950927734375,-0.6309894802205264,2.9465181472867727,3.335620925247669,0.2141577750444412,0.005490434821695,0.0665942877531051
1783203869465887700,5.2178876953125,-0.6440659655451775,2.811089686143398,3.243008692523837,0.0597785785794258,-0.0254991725087165,0.0180789530277252
1783203869475824600,5.22782470703125,-0.6968788334526121,2.6915771715343,3.142754420614242,-0.07351715862751,-0.0561116747558116,-0.0337333790957927
1783203869485761500,5.237761474609375,-0.6760171010792255,2.6171803944587704,3.025603374439478,-0.1827541589736938,-0.0884477794170379,-0.0917562022805213
1783203869495698700,5.24769873046875,-0.6350054378636181,2.501928459903598,2.947755580127239,-0.2644757032394409,-0.0786550492048263,-0.1490959823131561
1783203869505635800,5.2576357421875,-0.633259032587707,2.3360475773513314,2.9554835440307854,-0.3074266314506531,-0.0292254481464624,-0.2053517997264862
1783203869515572700,5.26757275390625,-0.5834044299639761,2.161524538660049,2.955745409837365,-0.3102780282497406,0.0438083969056606,-0.2507490217685699
1783203869525509600,5.277509521484375,-0.4371700587764382,1.98848793913424,2.916754292663932,-0.3336158394813537,0.1029524058103561,-0.2883150577545166
1783203869535445800,5.28744580078125,-0.3051686494722962,1.827787674090266,2.897754993161559,-0.3935775458812713,0.1717405617237091,-0.3328829109668731
1783203869545382700,5.297382568359375,-0.1750811109654605,1.7059183672219511,3.025048663166165,-0.462158203125,0.2422336339950561,-0.3672872185707092
1783203869555319800,5.30731982421875,-0.0971625895045697,1.5648159520953893,3.083081749939918,-0.5240013003349304,0.3427639603614807,-0.3699141144752502
1783203869565256700,5.317256591796875,0.131687082657963,1.4564742353200912,3.052949646526575,-0.6420661807060242,0.4230526685714721,-0.3695458173751831
1783203869575193600,5.327193603515625,0.3469594803668558,1.2719132022172213,2.9490251616716385,-0.8093882203102112,0.4489068686962127,-0.3536551892757416
1783203869585130800,5.337130859375,0.5305890778385103,1.0392682294249531,2.6989503306508063,-0.9943676590919496,0.4222600758075714,-0.3062578439712524
1783203869595067600,5.347067626953125,0.7196057751759887,0.7081140748247504,2.346446806290745,-1.160739541053772,0.3863120675086975,-0.2382579445838928
1783203869605004800,5.3570048828125,0.7882780371248722,0.2873828174129128,1.8879647871553895,-1.3142598867416382,0.3381453156471252,-0.1725492477416992
1783203869614941700,5.366941650390625,0.7718794216401874,-0.0769634126931428,1.401798057758808,-1.4675158262252808,0.2804314196109772,-0.1137858033180236
1783203869624877600,5.376877685546875,0.7673328642517327,-0.3159828889533877,0.8551561091333627,-1.5978960990905762,0.2158335298299789,-0.0860684216022491
1783203869634814700,5.386814697265625,0.7578289767168462,-0.5958218668580055,0.2335270163238048,-1.6944479942321775,0.1929581761360168,-0.060904361307621
1783203869644751600,5.396751708984375,0.7549217109680175,-0.9309148222118616,-0.4016775973737239,-1.7408095598220823,0.2114479690790176,-0.0492407828569412
1783203869654688500,5.4066884765625,0.7646538543008268,-1.3482713424935937,-1.1149480320483445,-1.7298190593719482,0.2729153335094452,-0.04818831756711
1783203869664625700,5.416625732421875,0.8165174586594104,-1.8986489705160257,-2.062618174228072,-1.6487548351287842,0.3246083557605743,-0.0393881686031818
1783203869674561800,5.426561767578125,0.9757496969774364,-2.415858196169138,-3.229422065719962,-1.4746596813201904,0.36806720495224,-0.0023308889940381
1783203869684498400,5.43649853515625,1.1578934398055076,-2.9649516295999288,-4.466965965345501,-1.2272945642471311,0.4358435869216919,0.0484606549143791
1783203869694435600,5.446435546875,1.2773545164883136,-3.467901151493192,-5.612574508595467,-0.9060053825378418,0.4778012633323669,0.0995409190654754
1783203869704372700,5.456372802734375,1.250016719968617,-3.875120016381144,-6.729495302021503,-0.512529730796814,0.4421939849853515,0.1476527750492096
1783203869714309600,5.4663095703125,1.0541371511243285,-4.186364770896732,-7.942180654722452,-0.0853742137551307,0.3425522744655609,0.1833889037370681
1783203869724246800,5.476246826171875,0.9446445107482372,-4.171357463639974,-8.961059591591358,0.33145871758461,0.1525402665138244,0.1880763471126556
1783203869734183400,5.486183349609375,0.8824455364666879,-4.1486788911029695,-9.735576814389228,0.722086489200592,-0.082174427807331,0.2124011367559433
1783203869744120600,5.49612060546875,0.8969562923781573,-4.321678958010673,-10.139839167559144,1.1283302307128906,-0.2064556330442428,0.2785093188285827
1783203869754057700,5.5060576171875,1.1660295461185275,-4.486982332935929,-10.114474424678086,1.4212905168533323,-0.2932639718055725,0.3810508549213409
1783203869763994600,5.51599462890625,1.4944950461566446,-4.429168734131753,-9.878146379458904,1.625748634338379,-0.4138657450675964,0.4710630476474762
1783203869773931800,5.525931884765625,1.770918370398879,-4.007574430149793,-9.747223413041231,1.895146727561951,-0.5473737716674805,0.5675209760665894
1783203869783868700,5.53586865234375,1.964792006248236,-3.508981934422254,-9.819888251757622,2.2566163539886475,-0.6087684035301208,0.6700904965400696
1783203869793805600,5.5458056640625,2.09346982408762,-2.784544209045172,-9.737953480392694,2.645241498947144,-0.6046819090843201,0.7565986514091492
1783203869803742700,5.55574267578125,2.1701576347097755,-1.8519535625755783,-9.447661205273866,3.03042221069336,-0.5763104557991028,0.8171858191490173
1783203869813679600,5.5656796875,2.1432728426545857,-0.8894681285798549,-8.999820407140254,3.427075862884521,-0.5669199228286743,0.8557076454162598
1783203869823615500,5.575615478515625,1.962990655914694,-0.0596656564116477,-8.466267072668671,3.861093521118164,-0.5428534746170044,0.8944028615951538
1783203869833552600,5.585552734375,1.764668954615295,0.766304690247774,-7.686447067287564,4.262076377868652,-0.4898062646389007,0.9369763731956482
1783203869843489500,5.595489501953125,1.616669181190431,1.7517267631947993,-6.622343087291717,4.576702117919922,-0.42283496260643,0.9497382044792176
1783203869853426700,5.6054267578125,1.4167188557758927,2.78221605835855,-5.37520952154398,4.7952399253845215,-0.3805825710296631,0.9381992816925048
1783203869863363800,5.61536376953125,1.2111603350907565,3.708581546702981,-4.099765222591161,4.902188777923584,-0.3261281251907348,0.928700864315033
1783203869873300500,5.625300537109375,1.009302130228281,4.459996126332879,-2.7913275855749844,4.929213047027588,-0.3024080395698547,0.9052841067314148
1783203869883237600,5.635237548828125,0.7498930691510438,5.016366272768378,-1.587608798661828,4.883306503295898,-0.2735348343849182,0.8875328302383423
1783203869893174500,5.645174560546875,0.5029907306864857,5.47151651713252,-0.4747486788034439,4.786231517791748,-0.2287049740552902,0.8827466368675232
1783203869903111700,5.655111572265625,0.2965432252723723,5.995148177048564,0.5703180077672004,4.639082431793213,-0.209051102399826,0.8885318040847778
1783203869913048800,5.665048828125,0.0573319527670741,6.529930761054158,1.421739022025466,4.437326431274414,-0.2470708936452865,0.8592779636383057
1783203869922985500,5.6749853515625,-0.2888937334325164,7.084885195472836,2.0793203027039766,4.172526836395264,-0.3223696649074554,0.7863073945045471
1783203869932922600,5.684922607421875,-0.5915773611560463,7.535354588544369,2.7428344805628058,3.863826751708984,-0.4020194709300995,0.7184895873069763
1783203869942859800,5.69485986328125,-0.8992202187221496,7.840476768526434,3.4506785062745213,3.529191493988037,-0.4873226583003998,0.649111270904541
1783203869952796700,5.704796630859375,-1.1554366943031549,8.028855898612736,4.147627043962478,3.167003870010376,-0.5789578557014465,0.6152377128601074
1783203869962733800,5.71473388671875,-1.2550234422147273,8.210908748286961,4.718219777017832,2.7744622230529785,-0.644596517086029,0.6020473837852478
1783203869972670500,5.72467041015625,-1.300640407268703,8.354195521715283,5.293191748070717,2.3537919521331787,-0.7096691727638245,0.629008412361145
1783203869982606600,5.734606689453125,-1.225312340692431,8.475656832304596,5.813156702172756,1.9013596773147583,-0.7525780200958252,0.6607021689414978
1783203869992543700,5.744543701171875,-1.2380128323115407,8.645970144346355,6.299847163182497,1.4319534301757812,-0.7686379551887512,0.6720133423805237
1783203870002480600,5.754480712890625,-1.4016627409413456,8.796742305094003,6.770387868902087,0.9745571613311768,-0.7781978845596313,0.6553853750228882
1783203870012417500,5.76441748046875,-1.6463051716499029,8.95335325499773,7.103108834427594,0.537594199180603,-0.7981147170066833,0.6040472984313965
1783203870022354700,5.774354736328125,-1.9287856039740143,9.120134301260114,7.300863111102581,0.1399168819189071,-0.8024343848228455,0.5087066888809204
1783203870032291600,5.78429150390625,-2.248123210182786,9.299060543346403,7.480722834646701,-0.2328909337520599,-0.7602856755256653,0.3620721399784088
1783203870042228700,5.794228759765625,-2.5687469106793404,9.451745844238996,7.663258499401807,-0.6110411286354065,-0.704345166683197,0.1768780648708343
1783203870052165600,5.80416552734375,-2.7409967437416314,9.60972282179892,7.823090749439596,-0.9753099083900452,-0.639950692653656,-0.0322516672313213
1783203870062102500,5.8141025390625,-2.788883699554205,9.7125226865381,7.926910604876279,-1.3555210828781128,-0.5384682416915894,-0.2722951471805572
1783203870072039700,5.824039794921875,-2.7947102137506006,9.77656582738161,8.116656347140669,-1.7539860010147097,-0.4160510301589966,-0.537874698638916
1783203870081976600,5.8339765625,-2.7116689424484965,9.84169091824293,8.259888760033249,-2.170544385910034,-0.2993398606777191,-0.8226776719093323
1783203870091913700,5.843913818359375,-2.53819015211314,9.728794606903197,8.272685113242268,-2.5937976837158203,-0.1603856831789016,-1.125266432762146
1783203870101850600,5.8538505859375,-2.356242370248586,9.516037991407511,8.249111929953099,-2.992962598800659,-1.9718427211e-05,-1.425426959991455
1783203870111787500,5.86378759765625,-2.065868992717564,9.168600518265366,8.10005534095168,-3.36509370803833,0.1247444823384285,-1.6809751987457275
1783203870121724700,5.873724609375,-1.4396741994276645,8.682880948114395,7.596530649518966,-3.655045986175537,0.2129395902156829,-1.8521955013275144
1783203870131661600,5.88366162109375,-0.4615451330330222,8.069348067998886,6.823210527551174,-3.9613146781921382,0.2842157483100891,-1.94920814037323
1783203870141598700,5.8935986328125,0.6338584597855806,7.414613993445038,6.18928250966072,-4.317519664764404,0.3727847635746002,-1.911849021911621
1783203870151534600,5.90353466796875,2.1374916289046406,6.685346363693475,5.595712221121787,-4.80866289138794,0.4715378880500793,-1.7636077404022217
1783203870161471500,5.913471435546875,3.655161506682634,5.762208020702004,5.004942961478233,-5.382730960845947,0.5633566975593567,-1.5396875143051147
1783203870171408600,5.92340869140625,4.686211942860484,4.7747781150639055,4.073186427745223,-5.941515922546387,0.6615519523620605,-1.299049973487854
1783203870181345800,5.933345703125,5.209626745155453,3.856315362668037,2.620397018417716,-6.370276927947998,0.7493374347686768,-1.058501124382019
1783203870191282400,5.943282470703125,5.364423923635482,3.053374009418488,0.5269102431952953,-6.577409267425537,0.7686517834663391,-0.8342126607894897
1783203870201219600,5.953219482421875,5.255756043645739,2.195057390427589,-2.2014485527694223,-6.576679229736328,0.7326239943504333,-0.6390026807785034
1783203870211156500,5.963156494140625,4.928360072535276,1.321390057569742,-5.010616330939531,-6.423414707183838,0.6039243340492249,-0.482266753911972
1783203870221093600,5.97309375,4.351975896596908,0.4037444667756557,-7.78682876496911,-6.170040607452393,0.4134819805622101,-0.3977252244949341
1783203870231030800,5.98303076171875,3.443055171789229,-0.5992869126200676,-10.421495716279743,-5.847805976867676,0.2811844646930694,-0.4107697010040283
1783203870240967400,5.992967529296875,2.401277005369961,-1.467696471080184,-12.604639381551742,-5.423930168151856,0.1150628551840782,-0.489396870136261
1783203870250904600,6.002904541015625,1.5572260814882817,-2.3672546165198085,-14.858139608597757,-4.816015720367432,-0.0446961000561714,-0.6257837414741516
1783203870260841700,6.012841796875,0.9041928195029496,-3.447439378222823,-16.837523619300125,-3.907036542892456,-0.2001192569732666,-0.6076827645301819
1783203870270778600,6.022778564453125,0.5994126578915864,-4.9046051029384135,-18.24647505594492,-2.67486310005188,-0.2161052227020263,-0.4602417349815368
1783203870280715800,6.0327158203125,0.7078646301083267,-6.425753178220987,-19.11875941001177,-1.4118589162826538,-0.1960345804691314,-0.3318014740943908
1783203870290652400,6.04265234375,0.7751902266886085,-7.096513089424371,-18.92510964604616,-0.3717803657054901,-0.1449875831604004,-0.3144849836826324
1783203870300588500,6.052588623046875,0.7565765655029565,-6.776501383346319,-17.514727299815416,0.4811576902866363,-0.0399647578597068,-0.390994668006897
1783203870310525700,6.062525634765625,0.6093091980058699,-6.134362001949548,-15.40457639003992,1.2014336585998535,0.0907589718699455,-0.4557015895843506
1783203870320462600,6.072462646484375,0.5645928350534289,-5.524461925378441,-13.167192600536346,1.8081492185592647,0.2353851199150085,-0.4330793619155884
1783203870330399500,6.0823994140625,0.6073864863149822,-5.0443315535366535,-10.866213998478653,2.2900919914245605,0.3186648786067962,-0.332721471786499
1783203870340336600,6.092336669921875,0.6877580269511788,-4.644139226284623,-8.761654625099897,2.569830656051636,0.3161567151546478,-0.1955430954694748
1783203870350273500,6.1022734375,0.7840367462933063,-4.046011128310859,-6.808612677878141,2.6756954193115234,0.2024295628070831,-0.0395442657172679
1783203870360210700,6.112210693359375,0.8308794537499546,-3.136428724724054,-5.000189044949412,2.6615490913391118,0.0228605940937995,0.1165792942047119
1783203870370147600,6.122147705078125,0.7699259494848549,-2.223993562054634,-3.3909932683795687,2.55678939819336,-0.1704518496990203,0.2600978910923004
1783203870380084500,6.13208447265625,0.6169831666998565,-1.306945644892752,-1.919647627142072,2.368827104568481,-0.3496919274330139,0.3562071025371551
1783203870390021600,6.142021728515625,0.4114779836371541,-0.3894330328285694,-0.5381003302514553,2.1572136878967285,-0.4823972880840301,0.4204971194267273
1783203870399958500,6.15195849609375,0.1647816891387105,0.4405915576577186,0.6152583887338638,1.964399456977844,-0.5654847025871277,0.4581273198127746
1783203870409895700,6.161895751953125,-0.0176356099337339,1.1590598532363772,1.5156699361324308,1.730584979057312,-0.602962851524353,0.4603831171989441
1783203870419832800,6.171832763671875,-0.1481064486697316,1.7273355415210128,2.3374597822368144,1.5077286958694458,-0.6014927625656128,0.4432677924633026
1783203870429769500,6.18176953125,-0.2810353480823337,2.228018579787016,2.9812837557196614,1.3126343488693235,-0.5679486989974976,0.4221315085887909
1783203870439706600,6.19170654296875,-0.4036452441848814,2.5897026049464937,3.407418333479762,1.1722170114517212,-0.478334903717041,0.4254897832870483
1783203870449642800,6.201642822265625,-0.5087880187883973,2.748054845559597,3.739404554989934,1.0614416599273682,-0.3235432505607605,0.4341840147972107
1783203870459579600,6.21157958984375,-0.5882483628638089,2.8113556436032057,4.053054909342527,0.8864850401878357,-0.189981460571289,0.4110922813415527
1783203870469516500,6.2215166015625,-0.6873384132996201,3.078899495819211,4.30862950682342,0.6724923253059387,-0.1024635881185531,0.3318699896335602
1783203870479453400,6.231453369140625,-0.82313892262578,3.4241000036895275,4.352611856412888,0.4496794641017914,-0.0963372513651847,0.2392665594816208
1783203870489390600,6.241390625,-0.9591578970082104,3.6438159368038177,4.274031071650982,0.2798358201980591,-0.0531746000051498,0.1546328961849212
1783203870499327700,6.25132763671875,-1.043333725298196,3.6466660655379295,4.165450869944691,0.116495095193386,-0.0403568036854267,0.0813895836472511
1783203870509264600,6.2612646484375,-1.1802401500396429,3.485633792060613,4.059541933274269,-0.0278957113623619,-0.0217182449996471,0.0360240004956722
1783203870519201500,6.271201416015625,-1.122374528787285,3.411103159472346,3.967053034669161,-0.1846498996019363,-0.0248029846698045,-0.0295579396188259
1783203870529138700,6.281138671875,-1.141365937244147,3.3779537540644404,3.889820741906762,-0.3396787047386169,-0.0270416215062141,-0.1094496473670005
1783203870539075600,6.29107568359375,-1.165538255470246,3.467939729937911,3.855270822051167,-0.4891049563884735,-0.0094770081341266,-0.1999744772911071
1783203870549012700,6.3010126953125,-1.1665711056493222,3.5008167481452226,3.834349614575505,-0.6461614966392517,0.0197091829031705,-0.2891217470169067
1783203870558949600,6.31094970703125,-1.118001428269595,3.4420898338884114,3.806693545886874,-0.8261398077011108,0.0464382655918598,-0.3631531000137329
1783203870568885500,6.320885498046875,-0.9704327397383748,3.284792070764303,3.7196862935632464,-1.021077036857605,0.0562052801251411,-0.4036025106906891
1783203870578822700,6.33082275390625,-0.6912697613991796,3.008286328935623,3.443195164781809,-1.1909507513046265,0.0135683342814445,-0.4076915383338928
1783203870588759600,6.340759521484375,-0.3483345681123435,2.639651169463992,3.0007629476934667,-1.3487626314163208,-0.0565923862159252,-0.3898544907569885
1783203870598696700,6.35069677734375,-0.0539516626790165,2.2793588909238576,2.616937233352661,-1.4931045770645142,-0.134596362709999,-0.3488476574420929
1783203870608633600,6.360633544921875,0.1880064973816275,1.8885627530485392,2.3848078088670968,-1.6365002393722534,-0.2097367197275161,-0.288360059261322
1783203870618570500,6.370570556640625,0.4453415286637842,1.547320919676125,2.2322657158374786,-1.7765063047409058,-0.2745783030986786,-0.2270684689283371
1783203870628509400,6.380509521484375,0.6201216108560562,1.2028417118176815,2.0788369031012057,-1.881608366966248,-0.2979646027088165,-0.1614147722721099
1783203870638446600,6.390446533203125,0.6830186504043638,0.8069850756824016,1.9538702147394416,-1.917212963104248,-0.2223324477672577,-0.1110717132687568
1783203870648383500,6.400383544921875,0.6498065550237894,0.3449912490338087,1.8014561320036648,-2.0184144973754883,-0.1159648522734642,-0.1235314756631851
1783203870658320400,6.4103203125,0.5658385242655873,-0.053598319196701,1.5881863062888384,-2.1219465732574463,-0.0419172570109367,-0.1457747370004654
1783203870668257500,6.420257568359375,0.6045628071963787,-0.3465530915230512,1.0759493160903453,-2.1460161209106445,0.0458107776939868,-0.1404322832822799
1783203870678194400,6.4301943359375,0.7549285060349852,-0.8372308686032891,0.2381856557846069,-2.123464345932007,0.1649717837572097,-0.1241510510444641
1783203870688130300,6.44013037109375,0.8902019958123564,-1.4155217549458146,-0.6284335121273994,-2.118195056915283,0.2514604032039642,-0.1176412478089332
1783203870698067500,6.4500673828125,0.9924209188584238,-1.928093091665208,-1.5289941126078366,-2.1072709560394287,0.3143341839313507,-0.1124664545059204
1783203870708004400,6.46000439453125,1.1192431719589977,-2.386632978467643,-2.615497555938363,-2.023773670196533,0.360827088356018,-0.0920150354504585
1783203870717941500,6.46994140625,1.2645590400621294,-2.9222169419839976,-3.932969563281536,-1.844143629074097,0.3968692719936371,-0.0325647629797458
1783203870727878700,6.479878662109375,1.5369827732741832,-3.513638820317387,-5.3808939969211815,-1.5819984674453735,0.4327207505702972,0.0650461241602897
1783203870737815300,6.489815185546875,1.8358872477851809,-3.9811075712457296,-6.738745360925793,-1.2615679502487185,0.4842590391635895,0.1862031668424606
1783203870747752400,6.49975244140625,1.9744339870795609,-4.346076901686192,-7.918342683017253,-0.8869278430938721,0.5733180642127991,0.3153083026409149
1783203870757689600,6.509689697265625,1.9313371881529688,-4.435197785162925,-8.99539031573832,-0.4325630068778991,0.6352483034133911,0.413177877664566
1783203870767626500,6.51962646484375,1.7337936316192148,-4.398135590225458,-10.083151065653562,0.0904188156127929,0.5725866556167603,0.4759606420993805
1783203870777563600,6.529563720703125,1.4558850372552872,-4.340319361072779,-11.150232015633582,0.6451605558395386,0.4419743418693542,0.5221800804138184
1783203870787499500,6.53949951171875,1.323082686831802,-4.079012941941619,-11.744655706131455,1.2136605978012085,0.2483903020620346,0.5640956163406372
1783203870797436400,6.5494365234375,1.2267321443624797,-3.709519704335928,-11.943152325606343,1.760985255241394,0.1244912594556808,0.5977870225906372
1783203870807373600,6.55937353515625,1.1159599855698643,-3.168924926920235,-11.535698482918738,2.222536087036133,0.1402998268604278,0.6173797249794006
1783203870817310500,6.569310546875,1.1056515036538244,-2.426526889699697,-10.651312187647818,2.6194040775299072,0.2251204401254654,0.6632473468780518
1783203870827247400,6.579247314453125,1.191597994878143,-1.7594105956956745,-9.855917011994125,3.072664737701416,0.3704957365989685,0.7664377689361572
1783203870837184500,6.5891845703125,1.320100017759204,-1.341758015076816,-9.440039039832351,3.413248300552368,0.4773201942443847,0.8342785835266113
1783203870847121400,6.599121337890625,1.368992351222038,-0.9472489941582084,-9.058417557537554,3.5728330612182617,0.3905981183052063,0.8768311738967896
1783203870857058600,6.60905859375,1.4911089108496904,-0.1482505333155393,-8.556493287038803,3.6875479221344,0.1392441689968109,0.9400136470794678
1783203870866995500,6.618995361328125,1.7581886526852846,0.5564198307961226,-8.261219716376067,3.8377609252929688,-0.1751053184270858,1.0671297311782837
1783203870876931300,6.628931396484375,2.0013314924858507,0.9756196408569812,-7.748972204783558,3.9742255210876474,-0.4591735005378723,1.206087946891785
1783203870886868500,6.638868408203125,1.9910138043500485,1.4037866012275215,-6.732607296562194,4.082369804382324,-0.6610864400863647,1.2988770008087158
1783203870896805600,6.6488056640625,1.7036049757130445,2.0604589503675697,-5.451825728234648,4.176506519317627,-0.7754979729652405,1.3302005529403689
1783203870906742500,6.658742431640625,1.455955326012522,2.869519078758359,-4.160970509660244,4.23370361328125,-0.813611626625061,1.307774782180786
1783203870916679400,6.668679443359375,1.2557806903228164,3.7684962094396353,-2.853077062523365,4.264833450317383,-0.7855978012084961,1.2497085332870483
1783203870926616300,6.6786162109375,1.0723460309013724,4.533303939127922,-1.6033821218550204,4.276669979095459,-0.6984001994132996,1.1708184480667114
1783203870936553500,6.688553466796875,0.8414499476030468,5.048520237398147,-0.4263192866772413,4.2770185470581055,-0.5559082627296448,1.0973658561706543
1783203870946490600,6.69849072265625,0.5743542044807225,5.414342677536607,0.6573299362659454,4.260746479034424,-0.4131736755371094,1.0280706882476809
1783203870956427500,6.708427490234375,0.2389581014618277,5.767211528077722,1.5892565658688544,4.181600570678711,-0.3138055503368377,0.9390193223953248
1783203870966363400,6.71836328125,-0.1312321784973144,6.12874591563344,2.384075987461209,4.012335777282715,-0.2710140943527221,0.830672562122345
1783203870976300500,6.728300537109375,-0.5148351899981498,6.423188296169042,3.176461459904909,3.7614316940307617,-0.291198194026947,0.7273643016815186
1783203870986237400,6.738237548828125,-0.89218147919178,6.630449236857891,3.89204484769702,3.476097822189331,-0.2900847494602203,0.6255387663841248
1783203870996174600,6.748174560546875,-1.051488828572631,6.761844496962428,4.622396765553951,3.1518726348876958,-0.3038255870342254,0.5554928183555603
1783203871006111500,6.758111572265625,-1.2096918699733912,6.844129981461167,5.190839627099037,2.828568458557129,-0.3066849708557129,0.4711911678314209
1783203871016048400,6.76804833984375,-1.3240205522038042,6.962019863304495,5.6855257630378,2.49568247795105,-0.3097484111785888,0.3993329405784607
1783203871025985500,6.777985595703125,-1.4170206152014433,7.098228076648712,6.139735511681437,2.1552155017852783,-0.2955233454704284,0.3274971842765808
1783203871035922400,6.78792236328125,-1.5361261564448474,7.263045713883637,6.567765693929792,1.8054711818695068,-0.2450108826160431,0.2586012184619903
1783203871045858300,6.7978583984375,-1.64702427970469,7.45994775764346,7.027299852466583,1.4461636543273926,-0.1876698136329651,0.1832585781812667
1783203871055795500,6.80779541015625,-1.8789111276060344,7.611960858362913,7.388375974860787,1.0824357271194458,-0.1193101853132247,0.0934490635991096
1783203871065732400,6.817732421875,-2.120133374607563,7.753403465229272,7.640645101055503,0.7366815209388733,-0.0711479410529136,0.0039502526633441
1783203871075669500,6.82766943359375,-2.3160465534605086,7.885293815374374,7.782994301372766,0.4158710539340973,-0.0203947462141513,-0.1042864769697189
1783203871085606700,6.837606689453125,-2.49064134221375,8.052327375093101,7.874736181002855,0.0874223932623863,0.0232135225087404,-0.2402466833591461
1783203871095543300,6.847543212890625,-2.573286892196536,8.280470944812894,7.968264359527826,-0.2599696516990661,0.0501045249402523,-0.3894204795360565
1783203871105480400,6.85748046875,-2.5372709914416074,8.56048790963292,8.063403480380773,-0.6595368981361389,0.0657143145799636,-0.5496850609779358
1783203871115417600,6.86741748046875,-2.483376904168725,8.784779480099678,8.191993619936705,-1.1044400930404663,0.0932540595531463,-0.7250925898551941
1783203871125353500,6.877353515625,-2.422734219418466,8.893427486345171,8.353316985315084,-1.5831167697906494,0.1384814828634262,-0.8847305178642273
1783203871135290400,6.887290283203125,-2.250544007588923,8.914394871050119,8.427147945201396,-2.064943790435791,0.1909814327955246,-1.0046696662902832
1783203871145227500,6.8972275390625,-1.9026012152731415,8.753281349030136,8.244039448994398,-2.5102784633636475,0.1947234570980072,-1.0751538276672363
1783203871155164400,6.907164306640625,-1.434970844042301,8.462095339941978,7.770165214937925,-2.8944854736328125,0.1536260843276977,-1.0989168882369995
1783203871165101600,6.9171015625,-0.9625633946027606,8.084810425546765,7.1578007940799,-3.221538543701172,0.0927152186632156,-1.080846667289734
1783203871175038500,6.92703857421875,-0.4864622052118182,7.664978162801265,6.636876639556885,-3.550988912582397,0.0910896211862564,-1.0632165670394895
1783203871184975400,6.936975341796875,-0.032204452707991,7.266003979167341,6.36487463888824,-3.9122800827026367,0.1031419485807418,-1.0321427583694458
1783203871194912500,6.94691259765625,0.5269640192091465,6.878424465250968,6.091484983253479,-4.314298152923584,0.178587719798088,-0.9595692753791808
1783203871204848600,6.9568486328125,1.3420119898378848,6.446461619728804,5.565146402466297,-4.775715351104736,0.2850678861141205,-0.8739154934883118
1783203871214785500,6.96678564453125,2.009051419213414,5.946032556223869,4.861429978078603,-5.275787830352783,0.4140562117099762,-0.7872804403305054
1783203871224722400,6.976722412109375,2.6374220952376723,5.464954674398899,3.768117439255118,-5.722007751464844,0.5047258138656616,-0.6850605010986328
1783203871234659300,6.986659423828125,3.1187615506082773,4.846241761296987,2.0926742897957564,-6.039456844329834,0.5600042939186096,-0.6077180504798889
1783203871244596500,6.996596435546875,3.0768118758901952,4.092651591193675,-0.0214168820381164,-6.177397727966309,0.5757972002029419,-0.6106337904930115
1783203871254533600,7.00653369140625,2.546281980893016,3.3448686460644006,-2.476507602921128,-6.148700714111328,0.5528841018676758,-0.7003040313720703
1783203871264470500,7.016470458984375,1.8991538512982429,2.4685011143371463,-5.276491373160481,-6.002507209777832,0.4423757493495941,-0.8465311527252197
1783203871274406400,7.026406494140625,1.3761270254075526,1.2794579185083508,-8.055359874656796,-5.795862197875977,0.2909952700138092,-0.996389627456665
1783203871284343600,7.036343505859375,1.0072060347318648,-0.1963116766512394,-10.493668972086908,-5.540810108184815,0.1053418591618537,-1.0744606256484983
1783203871294280400,7.046280517578125,1.0420692583203317,-1.7012044904425738,-12.704276982867716,-5.131019592285156,-0.0964615643024444,-1.0816715955734253
1783203871304217600,7.056217529296875,1.4363564531818032,-3.1701094605296847,-14.836025976467132,-4.646009922027588,-0.4142157733440399,-0.9361463785171508
1783203871314154500,7.066154541015625,2.075960763143003,-4.483049377401173,-16.51296316387653,-3.8020756244659424,-0.6182003617286682,-0.6474797129631042
1783203871324091400,7.07609130859375,2.632654442444444,-5.849509287536144,-17.798174823606015,-2.8480615615844727,-0.7341534495353699,-0.4382860958576202
1783203871334027500,7.086027587890625,2.494553839482367,-6.526358747786283,-18.196439982187748,-1.8679773807525637,-0.8154664039611816,-0.3356537222862243
1783203871343964700,7.095964599609375,2.2349328892201186,-6.3034752905517815,-17.938629588478804,-0.9246145486831664,-0.7516747117042542,-0.3128522038459778
1783203871353901300,7.1059013671875,1.8387714249193667,-6.109777011269331,-16.783276480805874,-0.0213344972580671,-0.5623737573623657,-0.2856038212776184
1783203871363838500,7.11583837890625,1.4602482009008526,-5.947043779093026,-15.10315131101012,0.8154474496841431,-0.2925286889076233,-0.2237207144498825
1783203871373775400,7.125775390625,1.1745800784513354,-5.667042011842131,-13.17334177081585,1.571519136428833,-0.0518153980374336,-0.1399704217910766
1783203871383712500,7.13571240234375,0.907167232203856,-5.03754934605062,-11.266584604907036,2.213343620300293,0.1581674963235855,-0.0660388171672821
1783203871393649700,7.145649658203125,0.6992265656225383,-4.195850392122567,-9.403532725211978,2.7116856575012207,0.2981773316860199,-0.0160544775426387
1783203871403585500,7.15558544921875,0.507998768106848,-3.2420883628085253,-7.571590269529819,3.0510265827178955,0.3704737722873688,0.030517591163516
1783203871413522400,7.1655224609375,0.4145459198404103,-2.2380036749675867,-5.792529509207606,3.251734733581543,0.3975277543067932,0.0898443013429641
1783203871423459600,7.17545947265625,0.4029559467464685,-1.3413918121129274,-4.0463381683081385,3.322990655899048,0.3508352935314178,0.1740443855524063
1783203871433396500,7.185396484375,0.3897897373117506,-0.511658898049593,-2.483959087970853,3.275214433670044,0.2436150908470153,0.2631593346595764
1783203871443333400,7.19533349609375,0.3808186414793133,0.2855027027547359,-1.079995376610756,3.0846517086029053,0.065640851855278,0.3377512693405151
1783203871453270500,7.2052705078125,0.3730198042966425,1.0744681376218794,0.259064193162322,2.8308680057525635,-0.1326344162225723,0.4102222621440887
1783203871463207400,7.21520751953125,0.3099821872338652,1.7754905006200077,1.4136919091701508,2.5505640506744385,-0.2898238897323608,0.4614892601966858
1783203871473143600,7.2251435546875,0.1627073670826852,2.320196805007756,2.4763842688024043,2.2441177368164062,-0.4012420177459717,0.4943800866603851
1783203871483080400,7.23508056640625,-0.0102206575021147,2.7825580036640165,3.4482308208614585,1.9159518480300903,-0.4424481391906738,0.4878365099430084
1783203871493017300,7.245017333984375,-0.1927804337851703,3.196662828673422,4.318568132513762,1.5854610204696655,-0.4136977195739746,0.4583361446857452
1783203871502954500,7.25495458984375,-0.4055094306215643,3.498973750627041,5.046495453572273,1.318663239479065,-0.3055281937122345,0.4187166392803192
1783203871512891600,7.2648916015625,-0.5443420011200011,3.735130530932545,5.547098120078444,1.1155153512954712,-0.1489356607198715,0.371030330657959
1783203871522828500,7.27482861328125,-0.6641051294893026,3.888672156393528,5.864848310965299,0.8456193208694458,-0.0055015981197357,0.2659350037574768
1783203871532764400,7.284764404296875,-0.834523070949316,4.0201171008586885,6.150179164284467,0.5688513517379761,0.0889266431331634,0.1611452102661132
1783203871542701600,7.29470166015625,-0.935371947751194,4.314288847759366,6.36142362165153,0.2839821279048919,0.1695089638233184,0.0263397693634033
1783203871552638500,7.304638427734375,-1.084833902683109,4.425317611661553,6.445270948639512,0.0048133321106433,0.2174210846424102,-0.0723929330706596
1783203871562575600,7.31457568359375,-1.0988019300200045,4.416192640441656,6.481967232874036,-0.2870535850524902,0.2644095718860626,-0.1351509392261505
1783203871572512500,7.324512451171875,-0.997589772863686,4.371920952516794,6.447837584257125,-0.6250779628753662,0.3082998096942901,-0.2167786806821823
1783203871582449400,7.334449462890625,-0.9954758494496344,4.281558544546366,6.346571504956484,-0.9837508797645568,0.3120280504226684,-0.2826017439365387
1783203871592385500,7.344385498046875,-0.8258515425853431,4.2548768738478415,6.030569619041681,-1.3529049158096311,0.3281124830245971,-0.3119180798530578
1783203871602322700,7.35432275390625,-0.5242803330831229,4.020222314798832,5.650852509063482,-1.7224968671798706,0.3185408115386963,-0.2777051031589508
1783203871612259300,7.36425927734375,-0.1333013859868049,3.613776187849045,5.1405426875352855,-2.070109844207764,0.2815702855587005,-0.2022279202938079
1783203871622196500,7.374196533203125,0.1275092124514281,3.134377929674089,4.441522312009334,-2.3631432056427,0.2322828322649002,-0.1188798397779464
1783203871632133000,7.384133056640625,0.1673299123167991,2.7318615433886646,3.607095687171817,-2.602233648300171,0.1482438445091247,-0.0723717287182807
1783203871642070300,7.3940703125,0.0411538527318509,2.388753623883426,2.6858056023955346,-2.7726247310638428,0.0247147046029567,-0.0656052902340889
1783203871652006100,7.404006103515625,-0.17763240288347,2.045547796961665,1.7172130836963653,-2.845785617828369,-0.1192978620529174,-0.1038240492343902
1783203871661943300,7.413943359375,-0.459484328045696,1.6627844511553644,0.6912135011672973,-2.8481388092041016,-0.2465778738260269,-0.1881847381591797
1783203871671880200,7.423880126953125,-0.6711467185638844,1.2502934910833834,-0.2527981185048818,-2.775791883468628,-0.3462240397930145,-0.2927558720111847
1783203871681817300,7.4338173828125,-0.6354389339100569,0.7909066320627928,-1.1304951452702283,-2.680580377578736,-0.410728394985199,-0.3761585056781769
1783203871691754200,7.443754150390625,-0.4281161800313741,0.1306830201819539,-1.9486784913152453,-2.5871121883392334,-0.4491117298603058,-0.4382490217685699
1783203871701690000,7.453690185546875,-0.0242077548656612,-0.6054758303880691,-2.6185528518557546,-2.4256558418273926,-0.4331627488136291,-0.4437800347805023
1783203871711627300,7.463627197265625,0.4102487341031431,-1.332187053655088,-3.333337198224664,-2.204731702804565,-0.3355701267719269,-0.3899306356906891
1783203871721564400,7.473564453125,0.9207062204737216,-2.111530381435156,-4.040842493501305,-1.9687317609786987,-0.2176291495561599,-0.2802620530128479
1783203871731501300,7.483501220703125,1.4175443468146025,-2.8264214030489323,-4.706382624229788,-1.7175943851470947,-0.0626739189028739,-0.1733409315347671
1783203871741438200,7.493438232421875,1.639009169422835,-3.415777581024169,-5.398344313415885,-1.4550762176513672,0.1152935400605201,-0.0775666907429695
1783203871751375000,7.503375,1.612956298147142,-3.846827403354645,-6.131705349960923,-1.1705784797668457,0.272648811340332,-0.0067793391644954
1783203871761311200,7.513311279296875,1.4455278938919305,-4.134620847395063,-7.084602286878228,-0.8630836606025696,0.3568247854709625,0.0443787761032581
1783203871771248400,7.523248291015625,1.3791327830947937,-4.255844257575273,-8.181804818877577,-0.4894498288631439,0.3028920292854309,0.0893792733550071
1783203871781185000,7.53318505859375,1.2890952231645585,-4.356494250804186,-9.403176166859268,-0.0382977351546287,0.166901484131813,0.133943110704422
1783203871791122200,7.5431220703125,1.3380897018276154,-4.471604146540165,-10.321461809122562,0.4385263323783874,-0.0264826267957687,0.2027754336595535
1783203871801059300,7.553059326171875,1.3189350656330583,-4.448199890077114,-10.802392391431331,0.8983632326126099,-0.2182174175977707,0.2718953788280487
1783203871810996200,7.562996337890625,1.2125325002267957,-4.225896278557181,-10.785191081261637,1.301598310470581,-0.3707049489021301,0.3267823457717895
1783203871820932000,7.57293212890625,1.1401686172183605,-3.787535840952396,-10.388106656897069,1.6543333530426023,-0.4635593593120575,0.3611252605915069
1783203871830869200,7.582869140625,1.1175231432333588,-3.2453783442646262,-9.751041510024669,2.047593116760254,-0.448093831539154,0.4337664246559143
1783203871840806100,7.59280615234375,1.2628101505681872,-2.684849324584007,-9.200219060844182,2.388758420944214,-0.3701651394367218,0.5104106664657593
1783203871850743300,7.602743408203125,1.4690154447242616,-2.1511212180674075,-8.695583777821064,2.5576276779174805,-0.385955810546875,0.543745219707489
1783203871860680400,7.612680419921875,1.444370832811296,-1.6277610685691235,-8.155348189106583,2.6631736755371094,-0.4745711982250213,0.6113735437393188
1783203871870616300,7.6226162109375,1.5253987184643745,-1.158791557689011,-7.780931523624062,2.800900459289551,-0.6508569717407227,0.6979590654373169
1783203871880553200,7.63255322265625,1.6170760084256528,-0.7527870370268821,-7.586269952267408,2.9899556636810303,-0.8208938241004944,0.7981525659561157
1783203871890490400,7.642490478515625,1.644127681480348,-0.2308151270166039,-7.259259181082248,3.185375928878784,-0.9599608778953552,0.8668290972709656
1783203871900427300,7.65242724609375,1.6296002666950224,0.5148036258161067,-6.553614418980479,3.380732774734497,-1.040177822113037,0.8842720985412598
1783203871910364200,7.6623642578125,1.465336025559157,1.2691393535897135,-5.689865838068723,3.586580514907837,-1.0529255867004397,0.8657096028327942
1783203871920300300,7.67230029296875,1.348423902706802,2.0610583775654434,-4.7516947611182925,3.807343006134033,-1.0044156312942505,0.8499149084091187
1783203871930237200,7.6822373046875,1.3943041948720811,2.856345708930492,-3.8382051209598775,4.01837968826294,-0.8951725363731384,0.8273792862892151
1783203871940174300,7.69217431640625,1.3974502378128468,3.486670149371028,-2.812192678949237,4.186706066131592,-0.7340624928474426,0.8153454065322876
1783203871950111200,7.702111328125,1.3641262064903974,4.047933913066983,-1.6691998711556195,4.251266479492188,-0.5432912111282349,0.8056895732879639
1783203871960048000,7.712048095703125,1.3105037757657467,4.590696974432468,-0.4930021283745765,4.193995952606201,-0.4000020027160644,0.7825362682342529
1783203871969985300,7.7219853515625,1.1313557076223193,4.985160402643681,0.5394990911334753,4.078547954559326,-0.3439866900444031,0.7629293203353882
1783203871979921400,7.73192138671875,0.8697562968939542,5.218036261582374,1.2727648506104945,3.934255361557007,-0.3792930841445923,0.7564409375190735
1783203871989858000,7.741858154296875,0.6358415964268147,5.410329350242018,1.891964670446515,3.746683359146118,-0.4518645107746124,0.7473273873329163
1783203871999795200,7.751795166015625,0.4187717939071357,5.636621154615283,2.5843974842756987,3.5112547874450684,-0.513817310333252,0.7267482876777649
1783203872009732400,7.761732421875,0.2890291233152151,5.964890985950827,3.398803649869561,3.2214856147766118,-0.5668509602546692,0.697006106376648
1783203872019669200,7.771669189453125,0.1523619141571223,6.350518781277537,4.181303688114881,2.9270384311676025,-0.5900717973709106,0.622907280921936
1783203872029605000,7.781605224609375,0.0260686533667147,6.702386345821619,4.8462961218327285,2.6485133171081543,-0.5771666765213013,0.5403290390968323
1783203872039542300,7.791542236328125,-0.121414694968611,6.898837723204493,5.440657853010297,2.401467084884644,-0.5162910223007202,0.4517650306224823
1783203872049479200,7.801479248046875,-0.2775076123476028,7.076430670860409,5.9877650810599325,2.1625688076019287,-0.4200827777385711,0.373670220375061
1783203872059416300,7.811416259765625,-0.3969958692982792,7.185807575902342,6.516485004025697,1.921227216720581,-0.3129985928535461,0.319926381111145
1783203872069353200,7.821353271484375,-0.5209828989729285,7.274010760012269,6.967652900755405,1.6607351303100586,-0.1832016855478286,0.2666557133197784
1783203872079289000,7.8312890625,-0.6519464896619319,7.374472537192702,7.470213715592026,1.3839958906173706,-0.0650645941495895,0.2052567452192306
1783203872089226200,7.841226318359375,-0.8241760105885565,7.511745749419927,7.871321988645195,1.0960325002670288,0.0275439023971557,0.1322411298751831
1783203872099163400,7.851163330078125,-1.0232875470913947,7.655557423505186,8.1515102183789,0.7940134406089783,0.1020740717649459,0.0348955877125263
1783203872109100300,7.861100341796875,-1.2147640586711466,7.825254649475216,8.4211910826236,0.4456043541431427,0.170212373137474,-0.0742394253611564
1783203872119036200,7.8710361328125,-1.3222593877501785,7.976465201640129,8.737833604529499,0.0541657023131847,0.2307189702987671,-0.1859966665506363
1783203872128973300,7.880973388671875,-1.3587877680718898,8.037379396808147,9.032892071136832,-0.3615880906581878,0.3023268580436706,-0.2957636415958404
1783203872138910200,7.89091015625,-1.374218269176781,8.105478535044194,9.2620287435472,-0.81076979637146,0.3900847434997558,-0.4043642878532409
1783203872148847400,7.900847412109375,-1.3449698167301714,8.185635190820694,9.468106027409434,-1.3024848699569702,0.4702948927879333,-0.5075417757034302
1783203872158784300,7.9107841796875,-1.239154549692571,8.301634144350885,9.538780569091438,-1.8423302173614504,0.5430707335472107,-0.6021912097930908
1783203872168720100,7.92072021484375,-1.1609952052131294,8.391677987891436,9.5257813867867,-2.382964372634888,0.6089165806770325,-0.6953573822975159
1783203872178657300,7.9306572265625,-1.0696854333899914,8.43657803684771,9.283611629801989,-2.898427248001098,0.6427046060562134,-0.7832950353622437
1783203872188594400,7.940594482421875,-0.870014071047306,8.337812542191147,8.733327525281906,-3.3059048652648926,0.6466085910797119,-0.8215063810348511
1783203872198531000,7.950531005859375,-0.4610151908747851,8.06491973016262,8.025159382182359,-3.7145836353302,0.6881404519081116,-0.8697290420532227
1783203872208468200,7.96046826171875,-0.1266360828787088,7.738992662560939,7.542609089717269,-4.054368495941162,0.743689239025116,-0.8701594471931458
1783203872218404400,7.970404296875,0.3630133740670979,7.353079036030173,6.945634545692801,-4.4016194343566895,0.8555206060409546,-0.8561140298843384
