time,seconds_elapsed,ax,ay,az,gx,gy,gz
1783196948268156700,0.09315673828125,0.1287368545502424,0.9927402870059012,1.2336124053955078,-2.587531089782715,-0.5361230373382568,0.5210004448890686
1783196948278093800,0.10309375,0.3418162722595035,0.6588251432597637,0.286903217202425,-2.5779197216033936,-0.6690540909767151,0.6185401678085327
1783196948288031000,0.113031005859375,0.1780778085634112,0.3374123382121324,-0.0291547828137874,-2.572806596755981,-0.7793845534324646,0.677314817905426
1783196948297967900,0.1229677734375,-0.143445909512788,0.1269973174065351,-0.5767781436920165,-2.584242820739746,-0.8610062003135681,0.6911740899085999
1783196948307905800,0.13290576171875,-0.4616837377861142,0.0261480022132396,-1.137470829501748,-2.579555034637451,-0.8460208177566528,0.6771346926689148
1783196948317842700,0.1428427734375,-0.6377597050078213,0.0050613750427961,-1.596376627007127,-2.5305821895599365,-0.7660459280014038,0.65580153465271
1783196948327779800,0.15277978515625,-0.740562053965032,0.0944786111176013,-2.0436972006589174,-2.464536666870117,-0.7241708636283875,0.6504755020141602
1783196948337716700,0.162716796875,-0.6428405154034496,0.1417667242541909,-2.4012334584891795,-2.3773422241210938,-0.7184339761734009,0.6738154888153076
1783196948347655000,0.172655029296875,-0.4310641431167721,-0.0629611908257007,-2.702360431355238,-2.251550674438477,-0.761304497718811,0.7098523378372192
1783196948357591800,0.182591796875,-0.2643529472202062,-0.4411991681620478,-3.0463796204864977,-2.105445146560669,-0.8662799596786499,0.7766065001487732
1783196948367529000,0.192529052734375,-0.2240197677880525,-0.971819079530239,-3.3848967050701377,-1.974393606185913,-0.9816840887069702,0.8642569780349731
1783196948377467000,0.202466796875,-0.3140662416771054,-1.490182443654537,-3.760010120645165,-1.872875094413757,-1.0493589639663696,0.9443357586860656
1783196948387403800,0.21240380859375,-0.5405462620988488,-1.783874298083782,-4.075276678022742,-1.7783302068710327,-1.0415040254592896,0.9891726970672609
1783196948397340700,0.222340576171875,-0.7780863134562969,-1.8692706080794328,-4.407614197188615,-1.6428263187408447,-0.9488834142684937,0.9795536398887634
1783196948407277800,0.23227783203125,-0.977872972741723,-1.8349153340131044,-4.633303944015503,-1.4582386016845703,-0.7937840819358826,0.9249492883682252
1783196948417215700,0.2422158203125,-1.0724503680586814,-1.6977683785140514,-4.569035177722573,-1.2775733470916748,-0.6404902338981628,0.8624058961868286
1783196948427153000,0.25215283203125,-1.0789379765123128,-1.6489643078565597,-4.422881908947229,-1.1485501527786257,-0.5421591401100159,0.8313055038452148
1783196948437090000,0.262090087890625,-1.0682768817663193,-1.9348805598482488,-4.311272714808583,-1.0662888288497925,-0.4899089634418487,0.8358920216560364
1783196948447026700,0.272026611328125,-1.1287117689847943,-2.440787470242381,-4.337691935178637,-1.0051695108413696,-0.4594642519950866,0.8276519775390625
1783196948456964600,0.281964599609375,-1.3856243370711805,-2.856795790785551,-4.409136876711249,-0.9455805420875548,-0.4530835747718811,0.7704102396965027
1783196948466901800,0.29190185546875,-1.6968965641155838,-3.0241566827625035,-4.379607999888062,-0.885726273059845,-0.4485311806201935,0.65898597240448
1783196948476839000,0.3018388671875,-1.883529142795503,-3.133793407784402,-4.35534975694418,-0.8074591159820557,-0.4138266444206238,0.5166407227516174
1783196948486776800,0.31177685546875,-1.9738988572895528,-3.330186040717363,-4.489495777061581,-0.6990959048271179,-0.3041560649871826,0.3685995638370514
1783196948496714000,0.3217138671875,-2.002387869670987,-3.462303477616608,-4.572816449826956,-0.5778111219406128,-0.1625730395317077,0.2248054593801498
1783196948506651000,0.33165087890625,-1.9340794725984332,-3.473362339508533,-4.731714049363136,-0.4538638591766357,-0.0686113908886909,0.1016539633274078
1783196948516587800,0.341587890625,-1.6603697912290691,-3.512117602099478,-5.092480959677696,-0.2884572744369507,-0.0169075597077608,0.0470568276941776
1783196948526525700,0.351525634765625,-1.2570081862911582,-3.6668341165587295,-5.297763293769956,-0.0811304673552513,0.011967496946454,0.0616725198924541
1783196948536462800,0.361462890625,-1.0457277808278798,-3.647869596108794,-5.372415506911278,0.1429063081741333,-0.0294159092009067,0.1055651679635047
1783196948546399700,0.371399658203125,-1.004450890804827,-3.3630800100594755,-5.367193388348817,0.369511216878891,-0.1455765962600708,0.1602478474378585
1783196948556338000,0.381337890625,-1.0115303276717662,-3.0551041942119594,-5.271899953716993,0.5714044570922852,-0.309462308883667,0.2184917628765106
1783196948566274800,0.39127490234375,-1.0015946245908736,-2.8508883203074333,-5.210000254642963,0.7365191578865051,-0.5360861420631409,0.2825900614261627
1783196948576212000,0.4012119140625,-0.9574649754852056,-2.786581267830729,-5.288015806737542,0.8785793781280518,-0.7798041701316833,0.3358685970306396
1783196948586148900,0.41114892578125,-0.9972449049487708,-2.875925438669324,-5.601501910439134,1.0461838245391846,-0.9789931178092957,0.3220691680908203
1783196948596086800,0.421086669921875,-1.2859648161843418,-3.037708238252997,-6.1293660933583975,1.2547425031661987,-1.0064338445663452,0.2500036656856537
1783196948606023700,0.431023681640625,-1.4988535336270927,-3.2100553942099213,-6.148422676005959,1.5031951665878296,-0.8894336819648743,0.2427143156528473
1783196948615960800,0.4409609375,-1.7609060949504374,-3.219117821587622,-6.314277255073189,1.684313178062439,-0.873490571975708,0.1655631214380264
1783196948625898000,0.45089794921875,-2.466174132694304,-2.19112122002244,-6.263228035837412,1.8455928564071653,-0.7159494161605835,0.0661470517516136
1783196948635836000,0.4608359375,-2.7973089980721477,-1.4645467748776078,-5.5346016265988345,2.002914905548096,-0.5377532243728638,-0.0395767763257026
1783196948645773000,0.47077294921875,-3.030596068160236,-0.8486348906710743,-5.183581034272909,2.154027223587036,-0.3952176570892334,-0.1418150067329406
1783196948655709700,0.480709716796875,-3.0840722222819923,-0.3335945334896445,-4.956759653067588,2.332159757614136,-0.2860872149467468,-0.2542870342731476
1783196948665647900,0.49064794921875,-2.9850995146155355,-0.0683779551774263,-4.783766892683506,2.559233903884888,-0.1903117001056671,-0.3208964169025421
1783196948675584800,0.500584716796875,-2.641309750325977,-0.3899675780966877,-4.57366692917645,2.7818377017974854,-0.2121603041887283,-0.3535401821136474
1783196948685522000,0.51052197265625,-2.3890143206462264,-0.6305220088392496,-4.444125772505998,2.929518938064575,-0.3392300903797149,-0.4270090758800506
1783196948695458800,0.520458740234375,-2.4233511822730303,-0.6700675450250506,-4.350503485956788,3.00058388710022,-0.4262842535972595,-0.5859805345535278
1783196948705397000,0.53039697265625,-2.785112364321947,-0.7456713598027825,-4.334425042337179,3.025612592697144,-0.4160614609718323,-0.80601966381073
1783196948715334000,0.540333984375,-3.0912001744657758,-0.645312458474934,-4.260420479449629,3.0370562076568604,-0.2848827242851257,-1.0350444316864014
1783196948725270800,0.550270751953125,-3.1759026569783684,-0.3235796276926994,-4.00828988494277,3.0575597286224365,-0.0718285143375396,-1.239277482032776
1783196948735208700,0.560208740234375,-3.1044483630955217,0.0870306331992149,-3.70459160028398,3.0874783992767334,0.1724240034818649,-1.3613262176513672
1783196948745145900,0.570145751953125,-2.6326646715775133,0.0694756872862577,-3.255243320196867,3.0857744216918945,0.2772119343280792,-1.381523847579956
1783196948755082800,0.580082763671875,-2.544202544270456,0.4869575875133275,-3.1451059521764515,3.055896759033203,0.2929736375808716,-1.377350687980652
1783196948765020000,0.59002001953125,-2.489944007599353,0.9090992962449788,-2.970812630587816,3.0292625427246094,0.2608582973480224,-1.3138989210128784
1783196948774957800,0.599957763671875,-2.5795032824933526,1.1647814457535743,-2.8844805010467764,3.026660442352295,0.2614293694496155,-1.2539304494857788
1783196948784894700,0.609894775390625,-2.543002813091874,1.5746365043640136,-2.4419781413316723,3.0697827339172363,0.2425542175769806,-1.2432210445404053
1783196948794832000,0.619831787109375,-2.454950143368542,2.160417454200983,-1.7420897507995363,3.152233123779297,0.0734851136803627,-1.294610619544983
1783196948804768800,0.629768798828125,-2.212604153034091,3.0169314076840874,-1.136736085486412,3.25160551071167,-0.1222268715500831,-1.4466893672943115
1783196948814706700,0.639706787109375,-1.7708651789069174,4.192314326950908,-0.3582528816670179,3.355992555618286,-0.2869215011596679,-1.6357792615890503
1783196948824643800,0.649643798828125,-1.4578066529676317,4.921952543580532,0.1886234602361917,3.4095325469970703,-0.4182499647140503,-1.8332988023757932
1783196948834581000,0.6595810546875,-1.2050228552490472,5.554605719229579,0.4434720815300941,3.377519369125366,-0.4987448453903198,-1.9469581842422483
1783196948844519000,0.669518798828125,-0.7569953023716807,6.025775370502472,0.7315104402422905,3.239204406738281,-0.4201357662677765,-1.898378133773804
1783196948854455800,0.679455810546875,-0.1857195554882288,6.380245811021328,1.2378116106510162,3.037317037582397,-0.1984701454639434,-1.6969947814941406
1783196948864392700,0.689392822265625,0.0981581764131784,6.583375935515761,1.620884168536961,2.8280622959136963,0.0840161368250846,-1.3462707996368408
1783196948874329300,0.699329345703125,0.4556520564064383,6.813254950726032,1.9748130495250225,2.6348838806152344,0.5078323483467102,-0.9675232172012328
1783196948884267300,0.709267333984375,0.9637915481582284,7.580036610835791,2.604632463052869,2.5391833782196045,1.2020851373672483,-0.7312099933624268
1783196948894204400,0.719204345703125,1.5168616301350295,9.194408913260698,3.339685398207605,2.4772090911865234,1.9136790037155151,-1.119517803192139
1783196948904141300,0.729141357421875,1.876276395188272,10.993280873990058,3.4665818855881687,2.3714611530303955,2.0836117267608643,-1.439489722251892
1783196948914079500,0.73907958984375,2.2796169573381544,9.149995186516644,3.4523493620961903,2.08784818649292,2.330758810043335,-1.0903918743133545
1783196948924016000,0.74901611328125,5.537569244232773,5.038528420215845,5.695785875767469,1.595223903656006,1.5012699365615845,-0.7344912886619568
1783196948933953300,0.758953369140625,4.876051793149113,6.49214142088592,4.180168254344165,1.2976020574569702,1.261197566986084,-0.5498974919319153
1783196948943890400,0.768890380859375,3.088108053669333,9.367335622671249,5.836440547126531,0.9401878118515016,0.8986383080482483,-0.3971281349658966
1783196948953828400,0.778828369140625,2.20785447428897,9.372693934834002,5.638462398567795,0.5601003766059875,0.6265333890914917,-0.3150528371334076
1783196948963765500,0.788765625,2.052162392795831,8.2224004486382,5.529717361688614,0.2647257447242737,0.5731598734855652,-0.356634646654129
1783196948973702400,0.798702392578125,1.8090085932098328,7.943103614786267,5.571573805165291,-0.0026384312659502,0.6649147272109985,-0.4899964332580566
1783196948983639300,0.808639404296875,1.4749283220298588,8.21644884675741,5.561212570148706,-0.312529981136322,0.7594037055969238,-0.6402708292007446
1783196948993577200,0.8185771484375,1.6040964076042177,8.372518529391288,5.690203691720963,-0.6114928722381592,0.7770344018936157,-0.7260628938674927
1783196949003514400,0.828514404296875,2.1737075822763146,7.95085671313107,5.533426737600565,-0.8440006971359253,0.6968753933906555,-0.7715374827384949
1783196949013451300,0.838451171875,2.475144497874379,7.64514416604042,5.300188475090265,-1.0215727090835571,0.5549514889717102,-0.7996662259101868
1783196949023389400,0.848389404296875,2.535103876535594,7.473442029988766,5.122973128575087,-1.152838110923767,0.4530520439147949,-0.76626056432724
1783196949033326300,0.858326416015625,2.6412679570108653,7.28057377178967,5.06248329629898,-1.2712956666946411,0.4180992841720581,-0.6643457412719727
1783196949043263500,0.868263427734375,2.7191125364527107,7.099060435819625,5.162712433767318,-1.4375243186950684,0.3979996144771576,-0.487236738204956
1783196949053200100,0.8782001953125,2.816843719625473,6.889643193879723,5.511545745182037,-1.651094913482666,0.3934251070022583,-0.2756240963935852
1783196949063138300,0.88813818359375,2.816336354625225,6.526927487584948,5.910889931172132,-1.8995156288146973,0.3742287755012512,-0.0966940224170684
1783196949073075200,0.8980751953125,2.5289924079179764,6.094272568145394,6.110754331868886,-2.167937755584717,0.3629646301269531,0.0238211527466774
1783196949083012400,0.908012451171875,1.9354206580743192,5.785059903979301,6.160448044842481,-2.429523468017578,0.3168053925037384,0.0671265497803688
1783196949092950300,0.9179501953125,1.07775446581617,5.461549834391475,5.638076614120602,-2.604379892349243,0.3421748876571655,0.017491515725851
1783196949102887400,0.927887451171875,0.3683551734864712,5.023683902305364,5.031441676825285,-2.717058658599853,0.4379884898662567,-0.0616030357778072
1783196949112824300,0.93782421875,-0.0145407126583158,4.794928338167071,4.68633118532598,-2.8742101192474365,0.489361435174942,-0.1242505759000778
1783196949122761200,0.94776123046875,-0.1836816199198365,4.919681676039099,4.595789913657307,-3.0901472568511963,0.4961887001991272,-0.1625207364559173
1783196949132699100,0.95769921875,-0.2656600112307816,5.298959810078144,4.439648919352889,-3.37345814704895,0.5238407850265503,-0.155622512102127
1783196949142636300,0.96763623046875,0.0824403097342699,5.241546316507458,4.099744179803133,-3.699716329574585,0.6000311970710754,-0.0906334072351455
1783196949152573400,0.977573486328125,0.6856161195516586,4.96612018660903,3.713977852788567,-4.036143779754639,0.6597239375114441,0.0544545575976371
1783196949162511400,0.987511474609375,1.150796467281878,4.332231331685185,3.002971271392703,-4.358970642089844,0.6863569021224976,0.166585087776184
1783196949172448500,0.997448486328125,0.9947114409483968,3.651127136600017,2.144752852079272,-4.62497615814209,0.6127548813819885,0.2188627421855926
1783196949182385200,1.00738525390625,1.000574926154315,2.969421468490362,0.6486001018434763,-4.72580099105835,0.3910882771015167,0.2939444482326507
1783196949192322300,1.017322265625,1.1372161240883172,2.336498828250169,-1.2595944033920763,-4.652759552001953,0.1386286616325378,0.385400652885437
1783196949202260200,1.02726025390625,0.8583882229223847,2.1399697094559667,-2.841636800098419,-4.478953838348389,-0.0817742794752121,0.4796637594699859
1783196949212197400,1.037197265625,0.3187994807440787,2.1045944446921347,-4.008088224890828,-4.32011079788208,-0.301615834236145,0.5671065449714661
1783196949222134300,1.04713427734375,-0.3131630822923034,1.7915367955356836,-4.974947051665187,-4.222815990447998,-0.502295970916748,0.6525082588195801
1783196949232072400,1.057072509765625,-1.0552253847524524,1.2307096696913242,-5.957385724887252,-4.056900024414063,-0.6238871812820435,0.6619986891746521
1783196949242009300,1.06700927734375,-1.9311755678504705,0.5422478053197264,-7.334644969195127,-3.7306957244873047,-0.6301804780960083,0.5471053719520569
1783196949251946200,1.0769462890625,-2.550509243199229,-0.12658727530092,-8.558955877760052,-3.2506823539733887,-0.5782133936882019,0.3761198222637176
1783196949261883100,1.086883056640625,-2.710733707424998,-0.6071040161117911,-9.536063126826283,-2.6767892837524414,-0.4184415340423584,0.2336790710687637
1783196949271821300,1.0968212890625,-2.3047098975405094,-1.1282865293100477,-9.872061506587269,-2.203939199447632,-0.3405769169330597,0.1636895388364792
1783196949281758200,1.10675830078125,-1.6955106627151368,-1.602597401218116,-9.783022456175088,-1.913740992546081,-0.3234131038188934,0.1858158856630325
1783196949291695400,1.1166953125,-1.087251558284089,-2.1396479301556943,-9.15887524306476,-1.8242225646972656,-0.2525590360164642,0.2559541761875152
1783196949301633300,1.12663330078125,-0.8206900681689381,-2.646426362687349,-8.43098416236341,-1.8473795652389529,-0.0458002500236034,0.31891530752182
1783196949311570400,1.1365703125,-0.958786287216842,-3.010893296563625,-8.031969646719098,-1.865084290504456,0.1820043325424194,0.315372884273529
1783196949321507300,1.14650732421875,-1.1717794879473744,-3.5045164794459938,-8.276964982518553,-1.7396994829177856,0.5280597805976868,0.252459704875946
1783196949331444200,1.1564443359375,-1.1639403918195514,-3.681804891197383,-8.695000424975156,-1.4517078399658203,0.8636389374732971,0.1833612322807312
1783196949341382100,1.166382080078125,-1.0314930653788148,-3.796187641702592,-8.96987651977539,-1.1055115461349487,1.0899549722671509,0.148630678653717
1783196949351319300,1.1763193359375,-0.640956382157281,-3.8134476963222026,-8.977887976795435,-0.7448316216468811,1.148092269897461,0.149972453713417
1783196949361256400,1.18625634765625,-0.1156852844711393,-3.7914115133419632,-8.832826594910024,-0.3460844755172729,1.1399389505386353,0.1644193083047866
1783196949371194400,1.1961943359375,0.3290756678257137,-3.993225294540822,-8.276511978054046,0.0165357589721679,1.0067938566207886,0.2014836966991424
1783196949381131500,1.206131591796875,0.5581028154470026,-3.950193962065876,-7.571799528366327,0.3187177181243896,0.7833070158958435,0.2383463680744171
1783196949391068200,1.216068115234375,0.6702164519764483,-3.9502027298942206,-6.687344259512424,0.5628468990325928,0.5516989827156067,0.2310793250799179
1783196949401005300,1.22600537109375,0.6493272470742464,-3.910762115387618,-5.836426518601178,0.7174665331840515,0.2863389849662781,0.2348700761795044
1783196949410943200,1.235943115234375,0.6195685800831765,-3.772323658773303,-5.255851905235648,0.8261477947235107,0.1318377703428268,0.2384059280157089
1783196949420880400,1.24588037109375,0.5860024471005425,-3.600886311137676,-4.6556771038651465,0.9180806279182434,0.0224226061254739,0.2173621654510498
1783196949430817300,1.2558173828125,0.4319220020551234,-3.3354303711116318,-4.384543702724576,1.0066815614700315,-0.0040347501635551,0.1794201582670211
1783196949440755500,1.26575537109375,0.3343496261732652,-3.204105253633857,-4.032890657714009,1.0497899055480957,0.0985763072967529,0.1128957271575927
1783196949450692400,1.2756923828125,0.0503990116987377,-3.003944208078086,-3.5096377679824826,0.9574010968208312,0.1818023473024368,0.0490793734788894
1783196949460629200,1.285629150390625,-0.0816652337085455,-2.2953908650532364,-3.2252211068987844,0.9030116200447084,0.3585092425346374,0.0437911339104175
1783196949470566400,1.29556640625,0.0619586261870339,-1.8813290024027227,-3.256128870859742,0.9867784976959229,0.592915415763855,0.0456138178706169
1783196949480504300,1.30550439453125,0.1408652819024398,-1.719494472631812,-3.7098657412946223,1.1536356210708618,0.7396910190582275,0.0505670309066772
1783196949490441200,1.315441162109375,0.3783992688452824,-1.6121923280373214,-4.005479503697157,1.3294243812561035,0.7841130495071411,0.0656337589025497
1783196949500378400,1.32537841796875,0.5098007760275155,-1.5154083625867962,-3.874072553154826,1.4552319049835205,0.690805196762085,0.1050256416201591
1783196949510316300,1.33531640625,0.59091319815889,-1.3314011639744043,-3.636456806212664,1.5471972227096558,0.5206897854804993,0.183737963438034
1783196949520253400,1.34525341796875,0.8252054997667669,-1.3484008140921593,-3.476920324251056,1.6552211046218872,0.3111826479434967,0.2740116715431213
1783196949530190300,1.3551904296875,0.8917442568182945,-1.5258078837871552,-3.65405091509223,1.810219168663025,0.1429648995399475,0.3379682898521423
1783196949540127200,1.365127197265625,0.7034439641218632,-1.5089847592800856,-3.903668649995327,1.999367356300354,0.1150850728154182,0.3726024329662323
1783196949550065200,1.375065185546875,0.4115755257274955,-1.25403033952415,-4.003119204306603,2.1633126735687256,0.1933783143758773,0.387082576751709
1783196949560002300,1.385002197265625,0.1781432019498199,-0.9353665409237146,-3.9966450398564337,2.296318292617798,0.3169287443161011,0.409575343132019
1783196949569939500,1.394939453125,0.1303496965743601,-0.6802537157356738,-3.918438349103927,2.417874813079834,0.445161908864975,0.4354882538318634
1783196949579877400,1.40487744140625,0.1343861946819815,-0.5282382769286632,-3.8870162058800455,2.548269510269165,0.5439154505729675,0.4507923722267151
1783196949589814500,1.414814453125,0.0917933906216174,-0.3772901750922203,-3.724477619493008,2.6767337322235107,0.5982372760772705,0.4528460502624511
1783196949599751200,1.424751220703125,0.0691119776735547,-0.2053887170761823,-3.3897178416162728,2.798448085784912,0.5370474457740784,0.4513789117336273
1783196949609688300,1.434688232421875,0.0365682830738369,0.0007703998506069,-3.1046254732280967,2.922371387481689,0.4685688018798828,0.4516318142414093
1783196949619626200,1.444626220703125,0.1590166958712041,0.3263502614498138,-2.079610810083151,2.8513951301574707,0.2301168143749237,0.4567227065563202
1783196949629563400,1.4545634765625,0.6908728710360824,0.4130664218723773,-0.7742974425673484,2.6151773929595947,-0.237336054444313,0.5778468251228333
1783196949639500300,1.464500244140625,1.1322760373376308,0.1321726742178201,-0.556902061355114,2.4558000564575195,-0.5549715161323547,0.7034598588943481
1783196949649438500,1.4744384765625,0.6099461076699197,0.5081114347010851,-0.4068927016735076,2.3866007328033447,-0.6935346126556396,0.69203120470047
1783196949659375400,1.484375244140625,-0.2508579442225396,0.9818968214303254,-0.8306722407400607,2.4405007362365723,-0.5710009932518005,0.5578345060348511
1783196949669312300,1.494312255859375,-0.975017583310604,1.2295026319891214,-1.163655656594038,2.547060251235962,-0.3909479081630707,0.3413247466087341
1783196949679250200,1.504250244140625,-1.4444669866621491,1.658126103955507,-1.223729309284687,2.621057271957397,-0.2122657895088195,0.1160695031285286
1783196949689187300,1.514187255859375,-1.5545513093210757,2.1474457444250583,-0.8433943596690893,2.6492199897766118,-0.0476662069559097,-0.0773520395159721
1783196949699124200,1.524124267578125,-1.3094155421376228,2.6224118653714656,-0.2290069085508584,2.603003740310669,0.0556833483278751,-0.2075241655111313
1783196949709061400,1.534061279296875,-0.9326599123135207,3.007148849338293,0.4911497785061597,2.4886703491210938,0.1577028334140777,-0.3021202087402344
1783196949718999300,1.543999267578125,-0.6845365076214075,3.26553265902102,0.996968718355894,2.3622727394104004,0.3396894037723541,-0.3676254451274872
1783196949728936400,1.5539365234375,-0.5927956509046256,3.5504274590104816,1.5181751969516275,2.226949453353882,0.4920746684074402,-0.423484593629837
1783196949738873300,1.563873291015625,-0.3510034950606525,4.03038890402615,2.0113918448597192,2.0807528495788574,0.472925990819931,-0.4174586832523346
1783196949748811300,1.573811279296875,-0.0673383829966187,4.489902604296804,2.3362030601739883,1.9409925937652588,0.3942988514900207,-0.390225738286972
1783196949758748400,1.58374853515625,0.1184969078257679,4.655778226152062,2.8167139557659624,1.805275797843933,0.2976641952991485,-0.3597189784049988
1783196949768685300,1.593685302734375,0.2762785089440643,4.612078785157204,3.104565267473459,1.6999529600143433,0.198186919093132,-0.3088926076889038
1783196949778622500,1.60362255859375,0.2139266821883618,4.831940848743916,3.225021200412512,1.602081298828125,0.1124019771814346,-0.267000287771225
1783196949788560400,1.613560302734375,0.0090266254119575,5.290882886606455,3.364543652871251,1.482346773147583,0.0574643015861511,-0.2387992888689041
1783196949798497500,1.62349755859375,-0.2291423714987933,5.577926973584294,3.585379529926181,1.3383738994598389,0.049915038049221,-0.2494870871305465
1783196949808434200,1.63343408203125,-0.4169397561743855,5.694781082639098,3.879425604620576,1.1762748956680298,0.0619163177907466,-0.2843938767910003
1783196949818372400,1.643372314453125,-0.5267956769049167,5.702375191029906,4.161616406348347,0.996506690979004,0.0804934650659561,-0.3329395651817322
1783196949828309200,1.653309326171875,-0.6672394819922745,5.800229416060447,4.472438259276747,0.7968788743019104,0.1033042818307876,-0.3854689598083496
1783196949838246400,1.663246337890625,-0.7954892836779356,6.128043320322036,4.871961308965087,0.5661196708679199,0.1331101059913635,-0.443528264760971
1783196949848183300,1.673183349609375,-0.7797783581964671,6.385262762400507,5.292794857707619,0.2981008291244507,0.1674122363328933,-0.5017250776290894
1783196949858121500,1.68312158203125,-0.6316086350321769,6.461247685450315,5.671446968802809,-0.0073179481551051,0.2055039703845977,-0.553458571434021
1783196949868059400,1.693059326171875,-0.5639744839593768,6.445781236249208,5.920887009051442,-0.3394366204738617,0.2887238264083862,-0.6070544123649597
1783196949877996300,1.702996337890625,-0.7139515488065779,6.629469578170776,6.052871467220783,-0.6706089377403259,0.3912214636802673,-0.6553153991699219
1783196949887934200,1.712934326171875,-0.6666954382434487,6.69904697226584,6.122631816667318,-0.9928650856018066,0.4823073446750641,-0.6682515740394592
1783196949897871400,1.722871337890625,-0.5465018460350111,6.648176616728305,6.275460909944773,-1.3013707399368286,0.4742147922515869,-0.6691123247146606
1783196949907808300,1.732808349609375,-0.3547475038945675,6.512733542537688,6.176890061077475,-1.6019407510757446,0.3852468132972717,-0.6266111731529236
1783196949917745400,1.742745361328125,-0.1752943883899599,6.200097918185591,6.073088325819373,-1.8615180253982544,0.2527242004871368,-0.5414941310882568
1783196949927683300,1.752683349609375,-0.0435058181189,5.997465221819281,5.929948851907253,-2.082613945007324,0.0580158419907093,-0.4421609342098236
1783196949937620200,1.7626201171875,0.0203483760237693,5.858254904049635,5.7431134441316125,-2.270761251449585,-0.1281449794769287,-0.3069197535514831
1783196949947557000,1.77255712890625,0.0551090890858322,5.536649791300296,5.540735014787316,-2.458802461624145,-0.2747306525707245,-0.1584172695875167
1783196949957495300,1.782495361328125,-0.1828874008022248,5.291512416681647,5.537995360690355,-2.659560441970825,-0.3573181927204132,-0.0550855509936809
1783196949967432200,1.79243212890625,-0.5264225327435881,5.306337645369768,5.59842966338694,-2.8627469539642334,-0.4403978884220123,0.0038156968075782
1783196949977369300,1.802369384765625,-0.7788538637626916,5.170332261121272,5.462525401425362,-3.0904226303100586,-0.5417442321777344,0.0149250729009509
1783196949987307300,1.812307373046875,-1.1074167597606777,4.899533791023493,5.39510898475647,-3.362712383270264,-0.6446107029914856,-0.0368800871074199
1783196949997244400,1.822244384765625,-1.4873406443573534,4.648355382674932,5.227696070331334,-3.713362455368042,-0.7272645831108093,-0.1216173395514488
1783196950007181000,1.83218115234375,-1.767133445032686,4.308221510544419,4.912256494474411,-4.092456817626953,-0.7628862857818604,-0.2261122614145279
1783196950017118200,1.8421181640625,-1.836809623327106,3.874626095384359,4.119876282727718,-4.423439025878906,-0.771056592464447,-0.3054630160331726
1783196950027056000,1.85205615234375,-1.7952610767558217,3.595558394113183,2.846041757059097,-4.6724395751953125,-0.7912822961807251,-0.3105881214141845
1783196950036993300,1.8619931640625,-1.663783106803894,3.494716093182564,1.2809937497735022,-4.789433002471924,-0.785539984703064,-0.27731853723526
1783196950046930400,1.871930419921875,-1.5051045568458734,3.306657865613699,-0.3290525061458349,-4.733179569244385,-0.7336130738258362,-0.2265833765268325
1783196950056868400,1.881868408203125,-1.4197880340881646,3.08708806297183,-2.029333159741759,-4.5122389793396,-0.7282638549804688,-0.1678161919116974
1783196950066805200,1.89180517578125,-1.2554609568491577,2.75053029576242,-3.524484039458632,-4.191281318664551,-0.8004453182220459,-0.1240446269512176
1783196950076742100,1.9017421875,-1.044959865195304,2.012929137429595,-4.679800322252512,-3.8397891521453857,-0.8972868919372559,-0.0762233063578605
1783196950086680000,1.91168017578125,-0.9744406602054834,1.161439734110236,-5.621327723893523,-3.4588818550109863,-0.9283672571182252,-0.0312115214765071
1783196950096617200,1.9216171875,-0.9911097631946204,0.5848690956890583,-6.455998678880929,-3.042694568634033,-0.9686452150344848,-0.003787353169173
1783196950106554400,1.931554443359375,-0.7756009994465858,-0.0049888943284749,-7.308888012126087,-2.632803678512573,-1.0857335329055786,0.0055258111096918
1783196950116491300,1.9414912109375,-0.3646942398261278,-0.795122788453102,-7.989242265626788,-2.266120672225952,-1.2026503086090088,0.0176272150129079
1783196950126429400,1.951429443359375,-0.0455060154927894,-1.3773112667560576,-8.215831591641903,-1.945857286453247,-1.2820504903793335,0.0422892048954963
1783196950136366300,1.961366455078125,0.157041888666898,-1.650313676638901,-8.190688967078923,-1.701755166053772,-1.3083947896957395,0.0672717839479446
1783196950146303200,1.97130322265625,0.2903146696137264,-1.9318933607310056,-8.054660786476731,-1.5555676221847534,-1.2590718269348145,0.0894779190421104
1783196950156241200,1.9812412109375,0.4821926381338387,-2.37226864528954,-7.805043051573634,-1.4850175380706787,-1.132036566734314,0.1185258105397224
1783196950166178300,1.99117822265625,0.6858441561538726,-2.874033633573353,-7.652357750681042,-1.4515540599822998,-0.98787122964859,0.1675096303224563
1783196950176115200,2.001115234375,0.778227767753601,-3.302381211207807,-7.701254175797104,-1.4127984046936035,-0.8259883522987366,0.2147767543792724
1783196950186052400,2.01105224609375,0.72352667494677,-3.640189563000202,-7.932789726042747,-1.2716108560562134,-0.631321370601654,0.2361918836832046
1783196950195990300,2.020990234375,0.3805922853775322,-3.787716750477254,-8.570018539044261,-1.0021034479141235,-0.4213016033172607,0.2084409445524215
1783196950205927400,2.030927490234375,0.0088918931163847,-3.806466166871786,-9.23696561396122,-0.6739063262939453,-0.2142342329025268,0.1453674435615539
1783196950215864000,2.040864013671875,-0.1853618280917406,-3.861796424427628,-9.38770971765816,-0.34247487783432,-0.0217292364686727,0.0864018499851226
1783196950225802200,2.05080224609375,-0.19609839922674,-3.855802444709837,-9.045847998821737,-0.0600449256598949,0.1013140529394149,0.052563652396202
1783196950235739100,2.0607392578125,0.0006499883413314,-3.7635926553070544,-8.478761812582611,0.1754773110151291,0.1287861615419387,0.0446087904274463
1783196950245676300,2.07067626953125,0.274992268525809,-3.786429925537109,-7.952401604485511,0.4132733941078186,0.1007153913378715,0.0618423447012901
1783196950255614200,2.0806142578125,0.4732543485924601,-3.800495275768637,-7.574972897705435,0.6655849814414978,0.0520224273204803,0.0777366235852241
1783196950265551400,2.09055126953125,0.4337668262042105,-3.660803896483779,-7.248335636007785,0.9266659021377563,0.0311140567064285,0.0742905288934707
1783196950275488300,2.10048828125,0.3016318536482751,-3.458007241727412,-6.756526516810059,1.154032588005066,0.0547916889190673,0.0563192516565322
1783196950285425200,2.110425048828125,0.2138680108036846,-3.3517838322803377,-6.087428985860943,1.3228694200515747,0.1150060892105102,0.0405048727989196
1783196950295363000,2.120363037109375,0.1145677516832947,-3.1162188803881405,-5.338631310731172,1.4532709121704102,0.1720976084470749,0.0178323183208704
1783196950305300200,2.13030029296875,0.0114289373133331,-2.743235462579131,-4.680552017402649,1.5620580911636353,0.2083850651979446,0.0014134475495666
1783196950315237400,2.1402373046875,-0.0117370534144341,-2.42158914103657,-4.161233544510603,1.6624802350997925,0.1966248154640197,-0.0012619642075151
1783196950325175300,2.15017529296875,0.0464838840816169,-2.2343112501904367,-3.78607395170629,1.753388285636902,0.1538668870925903,0.0055688675493001
1783196950335112400,2.160112548828125,0.1114983541753143,-2.130794761614501,-3.4862978089272976,1.8316359519958496,0.0899451747536659,0.0163946188986301
1783196950345049300,2.17004931640625,0.1713541263315826,-2.0862878036290406,-3.1823224608927965,1.8963690996170044,0.0386684127151966,0.0328895114362239
1783196950354987300,2.1799873046875,0.2357630317475646,-2.151929319579899,-2.935875757241249,1.9319041967391968,-0.0154925603419542,0.0284156687557697
1783196950364924200,2.189924072265625,0.2090207169029861,-2.1816993116825816,-2.744993704423308,1.925958752632141,-0.0570279918611049,0.0061122784391045
1783196950374861300,2.199861328125,0.1670217962156981,-2.1310668565541504,-2.6092116075366736,1.8797303438186648,-0.1004977077245712,-0.0198141280561685
1783196950384798200,2.209798095703125,0.1697352198928594,-2.0584619313314554,-2.610032276269793,1.824121356010437,-0.1254184693098068,-0.0270791798830032
1783196950394736400,2.219736328125,0.2429772009100765,-1.985726365466416,-2.7966479038149115,1.7836487293243408,-0.1308089792728424,-0.0019405377097427
1783196950404673300,2.22967333984375,0.328061010890454,-1.8666878981098527,-3.102430593532324,1.7721879482269287,-0.1066971197724342,0.0404516719281673
1783196950414610400,2.2396103515625,0.2608356598142534,-1.6856167529493569,-3.3326340183913707,1.7823498249053955,-0.0660208016633987,0.087981641292572
1783196950424548400,2.24954833984375,0.0400040205430239,-1.4987664398655294,-3.5596360168606043,1.8394442796707156,-0.0331345647573471,0.1176700443029403
1783196950434485200,2.2594853515625,-0.3730863667268306,-1.251230479672551,-3.9221699368476863,1.9676398038864136,0.0205004326999187,0.1118694171309471
1783196950444422100,2.269422119140625,-0.9789014390066264,-0.8987269553124904,-4.3806542940706015,2.158626079559326,0.0539256334304809,0.0381851568818092
1783196950454360300,2.2793603515625,-1.4415163201630117,-0.526539656317234,-4.68716938971579,2.3821074962615967,0.0582743100821971,-0.088491290807724
1783196950464297200,2.289297119140625,-1.6921305187575515,-0.0750479344606399,-4.649990874922275,2.594970464706421,0.0283304527401924,-0.2410667091608047
1783196950474234400,2.299234375,-1.7566612969875337,0.4877110362291336,-4.320827894139289,2.77491307258606,-0.0101623451337218,-0.3951396346092224
1783196950484171300,2.309171142578125,-1.6080783168472348,1.0199339988797902,-3.823943955895305,2.9032082557678223,-0.0371750779449939,-0.5211098194122314
1783196950494109400,2.319109375,-1.4373096622534096,1.5644839436620472,-3.2098242158025503,2.9646589756011963,-0.0268521308898925,-0.6217591762542725
1783196950504046000,2.329046142578125,-1.247100394130498,2.100451353538036,-2.5491134049266577,2.9636707305908203,0.0115544758737087,-0.7037094831466675
1783196950513983200,2.338983154296875,-1.112751325721666,2.566801037308573,-1.9518840093582868,2.932191133499145,0.0258908048272132,-0.7838567495346069
1783196950523921200,2.348921142578125,-0.9854460383445024,3.023157734853029,-1.3221815002083777,2.88310980796814,0.0003591747954487,-0.866254448890686
1783196950533858300,2.3588583984375,-0.7430699451327324,3.472553361213207,-0.6080927348881959,2.807112216949463,-0.1388146877288818,-0.9445058703422546
1783196950543795500,2.36879541015625,-0.6140718092978,3.8763130255579945,-0.0187619836151599,2.68398380279541,-0.2930483222007751,-0.9995853304862976
1783196950553733400,2.3787333984375,-0.4369328159544616,4.121919771254063,0.7722861027449369,2.4817018508911133,-0.3776295185089111,-0.9946489334106444
1783196950563670300,2.388670166015625,-0.3486273770464584,4.533182943096756,1.3517483709543945,2.228842496871948,-0.3015762865543365,-0.945452868938446
1783196950573607200,2.398607177734375,-0.4521934403851628,5.132167073377967,1.8698539609253408,1.9919942617416384,-0.2760738432407379,-0.8614695072174072
1783196950583544300,2.40854443359375,-0.5819157257761806,5.280207178813218,2.243648695117235,1.8058674335479736,-0.2877492904663086,-0.8496693968772888
1783196950593482200,2.418482177734375,-0.2902651313835754,5.186514165115356,2.350461302629113,1.6571437120437622,-0.4140763282775879,-0.8856441974639893
1783196950603419400,2.42841943359375,-0.1800607990741729,5.186460973623395,2.212312476611137,1.5563298463821411,-0.4844560921192169,-0.9787406325340272
1783196950613356300,2.438356201171875,-0.4027396005820483,5.524821990862488,2.3703619348853824,1.4528803825378418,-0.5811618566513062,-1.1152031421661377
1783196950623294500,2.44829443359375,-0.822182352553308,6.499118274161219,2.817251715904474,1.358253836631775,-0.3928200602531433,-1.2028361558914185
1783196950633231000,2.458231201171875,-0.0237630067728459,6.513371840441226,3.735332775506377,1.327378273010254,-0.1921039819717407,-1.1848894357681274
1783196950643168300,2.468168212890625,0.1535469592232257,5.522136697301268,3.789693895769119,1.2778284549713137,-0.1499817669391632,-1.1392838954925537
1783196950653106200,2.478106201171875,-0.0252851109067443,5.568187085336446,3.8601515798300494,1.1578155755996704,-0.1511010974645614,-1.1395357847213743
1783196950663043300,2.488043212890625,-0.1285401629343628,6.17798136344552,4.234435558843613,0.9204068779945374,-0.1213089525699615,-1.1315314769744873
1783196950672980200,2.497980224609375,-0.0880944630384445,6.596477993673086,4.668731815749407,0.5833796262741089,0.0083779422566294,-1.036392092704773
1783196950682917400,2.50791748046875,0.3936403483252972,6.527587412798404,5.22033927782774,0.1807380020618438,0.3045773208141327,-0.7948305606842041
1783196950692855300,2.517855224609375,1.211714388776943,6.08562748939693,5.755908628296852,-0.2306916117668151,0.6067715287208557,-0.5352786183357239
1783196950702792200,2.527792236328125,1.4277604742720722,6.076168756178021,5.872227899822592,-0.5933029651641846,0.920139729976654,-0.3945430219173431
1783196950712729000,2.53772900390625,1.0046997509993612,6.259026492494344,5.898654134455323,-0.8989883661270142,1.177018642425537,-0.3580206930637359
1783196950722667300,2.547667236328125,0.8292651504211127,6.213011175772548,5.709239816102385,-1.1744096279144287,1.2684478759765625,-0.3436031639575958
1783196950732604200,2.557604248046875,1.2621791591882705,6.013043314701318,5.523470576253533,-1.4107792377471924,1.3028115034103394,-0.2909830808639526
1783196950742541300,2.567541259765625,1.8163614401906727,6.007331366795301,5.633088888835907,-1.596773624420166,1.2521334886550903,-0.1790366023778915
1783196950752479200,2.577479248046875,2.332990673998743,5.867068325102329,5.654318139347434,-1.7683733701705933,1.0986994504928589,-0.0271006114780902
1783196950762416400,2.58741650390625,2.848160356648266,5.737668622729182,5.560071583420038,-1.941066861152649,0.9213399291038512,0.1655430942773819
1783196950772353300,2.597353271484375,3.316962986528873,5.642419027239084,5.593112267756462,-2.0945098400115967,0.9810048937797546,0.4137941896915436
1783196950782290200,2.607290283203125,3.862564486190677,5.674253842917085,5.383104658707976,-2.177187204360962,1.1110531091690063,0.7329298257827759
1783196950792228000,2.61722802734375,4.261946081581711,5.647305630236864,4.523679786214232,-2.1904401779174805,1.174573540687561,1.0541861057281494
1783196950802165200,2.627165283203125,4.3281279880195855,5.385953618398308,3.819987327224016,-2.1617681980133057,1.0873647928237915,1.308292031288147
1783196950812102400,2.637102294921875,3.9467040741235015,5.090567819532752,3.1260400171786547,-2.1086618900299072,0.917478322982788,1.4966880083084106
1783196950822040300,2.647040283203125,3.707094815276563,4.648910093948245,2.9587597892224786,-2.0465807914733887,0.777204692363739,1.6532115936279297
1783196950831977500,2.6569775390625,3.318527167105674,4.370821466842293,3.213379277935624,-2.019829511642456,0.5801214575767517,1.774397373199463
1783196950841914000,2.6669140625,2.618290401527285,4.269771660640836,3.368696680897474,-2.034019470214844,0.3503443002700805,1.854361176490784
1783196950851852300,2.676852294921875,2.0178448203913866,3.890885156267881,3.5950352470219133,-2.0527868270874023,0.1872946619987487,1.863229274749756
1783196950861789200,2.6867890625,1.5839805251620709,3.373402666631341,3.715544955974817,-2.0819404125213623,0.0058663822710514,1.784106731414795
1783196950871725800,2.696725830078125,1.104749294117093,3.082356942796707,3.648728843286633,-2.133509874343872,-0.2169062346220016,1.6985832452774048
1783196950881662700,2.706662841796875,0.7273427991688252,2.800757677221298,3.549198209476471,-2.2130722999572754,-0.4071155190467834,1.7221287488937378
1783196950891601000,2.716600830078125,0.6276962838940322,2.4299825831115243,3.078867931637168,-2.414644718170166,-0.7483999133110046,1.7299659252166748
1783196950901537800,2.726537841796875,0.358950216281414,2.9754665938735005,2.0136030911684037,-2.6427743434906006,-0.8783397674560547,1.7659968137741089
1783196950911475000,2.736474853515625,0.0342886385709047,3.053455257961154,0.9546008182257412,-2.8416318893432617,-0.5269362330436707,1.816098928451538
1783196950921412900,2.746412841796875,-0.5803066100791097,2.826448583316803,-0.4056856639713048,-3.0131378173828125,0.0633232966065406,1.987854480743408
1783196950931350000,2.75635009765625,-0.5701884265707805,1.939157214254141,-1.8195459154456848,-3.195741415023804,0.0870326161384582,2.017262458801269
1783196950941287000,2.766286865234375,-1.003154055927321,2.5087282030463216,-3.036601153793931,-3.225020170211792,0.2253594249486923,1.912115812301636
1783196950951224800,2.776224853515625,-1.2215133137356489,2.791478976744413,-3.172441702869534,-3.1261417865753174,0.2223218232393264,1.7723734378814695
1783196950961161700,2.78616162109375,-1.3863449064306914,2.361296584898233,-3.8852930353492496,-2.932788372039795,0.314579039812088,1.784870982170105
1783196950971099000,2.796098876953125,-0.9027462008912116,0.436881304962933,-4.191144114127755,-2.723137140274048,0.3583283722400665,1.8159503936767576
1783196950981036000,2.8060361328125,-1.252087534893304,-0.4478089416906237,-5.060476048129797,-2.4518654346466064,0.1801175028085708,1.7385215759277344
1783196950990974000,2.815973876953125,-2.419370880465209,-0.4936547470644116,-6.247001123657823,-2.1809027194976807,-0.0378385260701179,1.5558170080184937
1783196951000911000,2.8259111328125,-3.039398383297026,-0.8084197846606374,-6.784657217273116,-1.9610414505004885,-0.1152549907565116,1.3434592485427856
1783196951010847700,2.83584765625,-3.0840815746322274,-1.3116247426196932,-6.828862269702554,-1.7929855585098269,-0.0650645270943641,1.1673473119735718
1783196951020786000,2.845785888671875,-2.78534968020916,-1.7266420062988996,-6.817952753153443,-1.691619038581848,0.0174501575529575,1.0736671686172483
1783196951030722800,2.855722900390625,-2.281360586135089,-1.970842392328381,-6.833700941905379,-1.6411508321762085,0.0761299878358841,1.078080654144287
1783196951040660000,2.865659912109375,-1.7845695868715643,-2.3034295023411517,-6.862202229246496,-1.597878336906433,0.1464655697345733,1.1389737129211426
1783196951050598000,2.875597900390625,-1.6462090177990496,-2.6272780101031064,-7.0442533253550526,-1.494334697723389,0.2416069954633712,1.1920303106307983
1783196951060535000,2.88553515625,-1.8391168773561717,-2.941392767097056,-7.348018830031156,-1.3290528059005735,0.344986230134964,1.1896086931228638
1783196951070472000,2.895471923828125,-2.1135095725536344,-3.1911136701136824,-7.467755216524004,-1.1175868511199951,0.4355776607990265,1.1452782154083252
1783196951080410000,2.90541015625,-2.179736925568432,-3.31955329528302,-7.376767954653501,-0.8804535865783691,0.4776636064052582,1.1104848384857178
1783196951090346800,2.9153466796875,-2.082674581567943,-3.3441485150963066,-7.135647998982668,-0.6398060917854309,0.4309086203575134,1.097789645195007
1783196951100284000,2.925283935546875,-2.06024413857311,-3.303600231608748,-6.702444213488698,-0.4359325766563415,0.3280889987945556,1.082859992980957
1783196951110220800,2.935220703125,-2.1934448406644163,-3.2444808109030125,-6.313814898258447,-0.2659326195716858,0.2387130558490753,1.0347893238067627
1783196951120159000,2.945158935546875,-2.5595164332583544,-3.214837367789447,-6.106572077748179,-0.0846184566617012,0.228649765253067,0.9403738379478456
1783196951130095900,2.955095947265625,-2.902311925813556,-3.1079385432988405,-5.887476906880736,0.1107955202460289,0.2411772757768631,0.811436116695404
1783196951140033000,2.965032958984375,-2.906268554484844,-2.950480621176958,-5.633704390385747,0.3128568828105926,0.2150924354791641,0.685804009437561
1783196951149971000,2.974970947265625,-2.5790982088238,-2.771136153678596,-5.23350621791482,0.4951649010181427,0.1750736385583877,0.5959417819976807
1783196951159907800,2.984907958984375,-2.062123084187508,-2.488565120461583,-4.688677456191182,0.6518953442573547,0.1411464810371399,0.5518319606781006
1783196951169845000,2.994844970703125,-1.522000015936792,-2.088607478748262,-4.231924452805519,0.8024771213531494,0.1008232906460762,0.5628265738487244
1783196951179783000,3.004782958984375,-0.970410235645622,-1.7511366883471606,-3.951456237086653,0.9387936592102052,0.0852056518197059,0.6183255910873413
1783196951189719800,3.0147197265625,-0.5855190109651536,-1.556569225014746,-3.576567277917265,1.0650798082351685,0.0924071073532104,0.7024231553077698
1783196951199657000,3.024656982421875,-0.3475423217561095,-1.3520654740795492,-3.1427918300151823,1.1699978113174438,0.0715290531516075,0.7823482751846313
1783196951209595000,3.034594970703125,-0.1841166503362357,-1.2444582090586422,-2.568715346497297,1.190738558769226,0.1001444533467292,0.8390783667564392
1783196951219532000,3.044531982421875,0.1246899172469973,-1.4062681889101862,-1.7312117984324693,1.2326807975769043,0.5539636611938477,0.9376245737075806
1783196951229469000,3.054468994140625,0.5439100394435227,-1.9803671765208244,-0.650997226113081,1.0752480030059814,0.5986499190330505,0.9246048927307128
1783196951239405800,3.06440576171875,0.1659153693437576,-1.1698913361132144,-0.7598977458149194,0.8316493034362793,0.4510498940944671,0.8332931995391846
1783196951249344000,3.074343994140625,-0.0410753761015832,-1.7206138320505615,-0.7634452091634273,0.7112427353858948,0.468292772769928,0.8115484714508057
1783196951259281000,3.084281005859375,0.160556472659111,-1.717991666853428,-1.0101192918300628,0.7185409069061279,0.2583514451980591,0.8881614804267883
1783196951269218000,3.094218017578125,0.5069846226282417,-1.1827806283026934,-1.532659649378061,0.6700865626335144,0.1626555472612381,0.9858140349388124
1783196951279156000,3.104156005859375,0.894702083710581,-1.400358088083565,-0.9451415004849434,0.439240962266922,0.3021375834941864,1.075283765792847
1783196951289093000,3.114093017578125,1.09355811108239,-2.0511326113566755,-0.5612333685576916,0.1527910977602005,0.52500319480896,1.1407852172851562
1783196951299029800,3.12402978515625,1.167326892452687,-2.228498764519393,-0.7134218258440495,0.0834774747490882,1.0885599851608276,0.8941054940223694
1783196951308968000,3.133968017578125,-2.268414303061366,-1.771873186905682,-2.173214976453781,0.7954679727554321,2.834479093551636,-0.4039386510848999
1783196951318904800,3.14390478515625,-8.810133701586723,-2.6755408134907483,-8.182663481533528,0.9863688945770264,2.3396573066711426,-1.2359224557876587
1783196951328842000,3.153842041015625,-5.227414915302395,-2.5129116262108084,-7.203736031302809,1.279198408126831,1.030104637145996,-1.531110405921936
1783196951338779000,3.16377880859375,-0.9744085115015506,-0.6729191350638866,-9.776470550313592,1.8779983520507808,0.1564918160438537,-1.2634748220443726
1783196951348717000,3.173717041015625,1.8906014192692933,0.8318252101674676,-5.9671343809634445,1.9542957544326784,-0.5320093631744385,-0.6240214109420776
1783196951358654000,3.183654052734375,2.8952061854615807,0.5742255365997553,-1.4552321263045072,2.039329767227173,-0.8525322675704956,0.1257823854684829
1783196951368590800,3.1935908203125,2.610970726163685,0.3954021703660488,-1.0148322918266055,2.0627925395965576,-0.4539258182048797,0.6954927444458008
1783196951378528800,3.20352880859375,2.7835759485349056,0.2342579609468579,-1.043985321074724,1.94791042804718,0.4787263870239258,0.9815356731414796
1783196951388466000,3.2134658203125,3.5693609998002644,-0.1441068576395511,0.0121323363423347,1.861693024635315,1.038735032081604,1.4028725624084473
1783196951398402800,3.22340283203125,5.365350975352525,-1.2960916579231618,-0.6445213080972433,1.6914688348770142,1.0878827571868896,2.086491823196411
1783196951408341000,3.233341064453125,7.4631643816024065,-2.292206389798224,-1.165389933040738,1.6232038736343384,1.0594241619110107,2.913858413696289
1783196951418278000,3.24327783203125,7.626477459493279,-2.141944224399328,-1.5363836383372544,1.7224639654159546,1.3941692113876345,3.680186271667481
1783196951428214800,3.25321484375,6.453352548286318,-0.4310322866737842,-0.2887251719325781,1.5633119344711304,0.5018776655197144,3.5596606731414795
1783196951438152700,3.263152587890625,-1.8782161310791967,1.2771294755607845,2.5030618478477,2.0481886863708496,-0.7461624145507812,2.309577703475952
1783196951448089900,3.27308984375,-6.149831958281993,2.2443413535565138,1.793633475553989,2.778109073638916,-0.5681838989257812,2.1234819889068604
1783196951458027000,3.283027099609375,0.7491043299261481,4.074337935867906,2.1790724703103304,3.0421628952026367,0.1807079166173935,1.991549372673035
1783196951467964000,3.2929638671875,0.948722500776872,3.6916444404274222,2.8627047225683926,2.8383610248565674,0.6916998028755188,2.0777816772460938
1783196951477901800,3.30290185546875,0.7340235190417617,2.536522218900919,1.800059124687314,2.2861921787261963,0.7608854174613953,2.335864305496216
1783196951487839000,3.3128388671875,0.6768342626810073,2.931409425482154,0.7778297083467245,1.7426176071166992,0.0323718264698982,2.3730664253234863
1783196951497775900,3.32277587890625,2.255222082402557,3.676415891635418,-0.6648463032454252,1.4145441055297852,-0.1005615592002868,2.0591037273406982
1783196951507713800,3.3327138671875,3.3493381926938888,3.846614637386799,2.1368612220466137,1.007789969444275,-0.4228269457817077,1.7302242517471311
1783196951517651000,3.34265087890625,3.202657685174048,4.571235318115353,1.9120570258826015,0.4073574244976043,-0.5821389555931091,1.5115723609924316
1783196951527587800,3.352587890625,2.60051830573231,4.985114225414395,1.975179544749856,-0.2168976664543151,-0.7588441967964172,1.374423265457153
1783196951537526000,3.362526123046875,1.9674002890504896,4.847209729546308,2.525774030393362,-0.6417717337608337,-0.8875749707221985,1.2677432298660278
1783196951547463000,3.372462890625,1.7251117279917,4.971538120004534,3.2825591971457,-0.864851176738739,-0.8854942321777344,1.076248288154602
1783196951557400000,3.382400146484375,1.61647482766211,4.959335056513548,4.21099798463285,-0.9112255573272704,-0.8690651655197144,0.8532730340957642
1783196951567336700,3.392336669921875,1.639750781570375,4.767535304328799,4.945826171121001,-0.8565956354141235,-0.739814281463623,0.6422902345657349
1783196951577275000,3.40227490234375,1.408724642151594,4.728743509119749,5.852383966189622,-0.7081375122070312,-0.5561715960502625,0.5065112113952637
1783196951587211800,3.412211669921875,1.1734233096316455,4.413935216903687,6.423374758651852,-0.5050815939903259,-0.3103013932704925,0.4530943632125854
1783196951597149000,3.42214892578125,1.016341819606721,4.148810116267204,7.103457793995737,-0.2979752123355865,0.0467177219688892,0.4428094327449798
1783196951607086800,3.4320869140625,0.8950596649765967,4.018648781871796,7.654440986695885,-0.1448439806699752,0.3220350444316864,0.4366924166679382
1783196951617024000,3.44202392578125,0.6239128198325634,3.789006498026848,7.964529849174618,-0.0430688895285129,0.5061212778091431,0.4771572649478912
1783196951626961000,3.4519609375,0.4710629760280251,3.4911937642753124,8.078432707208394,-0.0292550697922706,0.6712732315063477,0.5481928586959839
1783196951636899000,3.461899169921875,0.3468000520214438,3.3209406579881904,8.163609236973524,-0.156017005443573,0.8174999356269836,0.6324563026428223
1783196951646835700,3.471835693359375,0.2280783955290913,3.3791339037597177,8.291641742646693,-0.4635463058948517,0.9328598380088806,0.6882811784744263
1783196951656772900,3.48177294921875,0.1290532270230353,3.6990181840658183,8.66633079532981,-0.8450592756271362,1.038244605064392,0.6591991782188416
1783196951666710800,3.491710693359375,-0.1076160328492522,3.952591378596425,8.936245468330382,-1.16877019405365,1.1892883777618408,0.5791709423065186
1783196951676648000,3.50164794921875,-0.5196710857219994,3.9462721124470233,8.986189356672764,-1.3990914821624756,1.3420814275741575,0.4708098769187927
1783196951686584800,3.511584716796875,-0.6869980754293501,3.91733243368864,8.844899310019612,-1.590242624282837,1.5363457202911377,0.3294024169445038
1783196951696523000,3.52152294921875,-0.8336582708135247,4.093171815675497,8.724636853826045,-1.75129234790802,1.8798178434371948,0.19090037047863
1783196951706460000,3.5314599609375,-1.0693632156983015,4.0113521951228375,8.58035288605392,-1.848282814025879,2.300891876220703,0.0863401368260383
1783196951716396800,3.541396728515625,-1.011359062758088,3.4816336165085437,8.154150503754614,-1.896520972251892,2.7295289039611816,-0.0088507663458585
1783196951726334000,3.551333984375,-1.0501505657061934,3.0351094539314505,7.517534269693494,-1.938190579414368,3.030755519866944,-0.0416526570916175
1783196951736272000,3.56127197265625,-0.958832318315655,2.7638185241416093,6.573071399122476,-2.0461795330047607,3.218554973602295,-0.0366980098187923
1783196951746209000,3.571208984375,-0.7018097139835358,2.4417729741483924,5.36933273846507,-2.211932420730591,3.4438748359680176,-0.0005637069698423
1783196951756146000,3.58114599609375,-0.1735340276539325,2.2849480892330405,4.050602840015292,-2.380760908126831,3.6796762943267822,-0.0242829471826553
1783196951766083800,3.591083740234375,0.3482977432332932,2.263154775097966,2.397547463452816,-2.551025867462158,3.714807987213135,-0.1213386580348014
1783196951776021000,3.60102099609375,0.7294320265330374,2.574455935975909,0.4011936132490634,-2.7751238346099854,3.49625563621521,-0.2204373627901077
1783196951785958000,3.6109580078125,1.2007462008431553,2.702736571191251,-1.8531120849609373,-2.996967315673828,3.161373376846313,-0.3055325448513031
1783196951795895800,3.620895751953125,1.3679884348765017,2.332718140667677,-4.352897103095055,-3.1365528106689453,2.6348891258239746,-0.3637078702449798
1783196951805833000,3.6308330078125,1.2626647507481277,2.2056500961124894,-6.480692390632629,-3.174748420715332,2.0543274879455566,-0.4476152956485748
1783196951815769900,3.640769775390625,1.197550692737475,2.3632240458294747,-7.818809711119532,-3.063390016555786,1.560301423072815,-0.5372679829597473
1783196951825708000,3.6507080078125,1.0836799834076314,2.1925139895550907,-8.824915675655006,-2.775578737258911,1.1588650941848757,-0.6043112277984619
1783196951835645000,3.66064501953125,0.6751977475203573,1.7150152813911437,-9.543397122976184,-2.364090919494629,0.921168565750122,-0.6243894696235657
1783196951845582000,3.67058203125,0.251561270186305,1.2128256379544735,-9.58471346822679,-1.8725162744522093,0.900927484035492,-0.562728762626648
1783196951855518700,3.680518798828125,0.1365114340744912,0.5363920650288463,-9.131433109387755,-1.335073947906494,1.0138157606124878,-0.4180211126804352
1783196951865457000,3.690456787109375,0.06723346131742,-0.0387963252536952,-8.656305660399793,-0.7999488115310669,1.1874624490737915,-0.241047129034996
1783196951875393800,3.700393798828125,-0.1349618665449321,-0.3744653269298374,-8.250145949175954,-0.3577930927276611,1.354705810546875,-0.0852697044610977
1783196951885330700,3.71033056640625,-0.5423913054436444,-0.519209313429147,-7.959699360278249,-0.0225724652409553,1.4575852155685425,0.0115085002034902
1783196951895268600,3.7202685546875,-1.065504640574008,-0.7111684939593076,-8.01631731955707,0.1956944018602371,1.4666286706924438,0.0005207827780395
1783196951905205800,3.730205810546875,-1.4304048513010144,-1.177685935512185,-8.302152030745148,0.2417412549257278,1.258923888206482,-0.0366513542830944
1783196951915142700,3.740142578125,-1.6409415987901388,-1.188363104610145,-8.673577113196254,0.1882996261119842,0.9376428127288818,-0.1132910922169685
1783196951925080800,3.750080810546875,-1.4520643099233508,-1.4913048718132078,-9.113563106176256,0.119673416018486,0.6295806169509888,-0.2680708169937134
1783196951935017700,3.760017822265625,-0.8469988139018416,-1.6847497608564792,-9.101848702985048,0.1010247319936752,0.2898504734039306,-0.4031232595443725
1783196951944955000,3.769954833984375,0.0115146428354084,-1.718451977841556,-8.768625048634409,0.1700940877199173,-0.0501819364726543,-0.4223978817462921
1783196951954892800,3.779892822265625,1.0507023543700575,-1.801802315092832,-8.080648045170307,0.2426833212375641,-0.2469554990530014,-0.3626862466335296
1783196951964829700,3.78982958984375,1.818509558135271,-2.267836941564828,-7.435469734469056,0.3282645344734192,-0.384320318698883,-0.1969239264726638
1783196951974766800,3.799766845703125,2.2400145763985813,-2.574503282248973,-7.130038342407345,0.4783205389976501,-0.5081036686897278,0.0040981178171932
1783196951984703700,3.809703857421875,2.388332037470489,-2.80288066072464,-7.112596209219098,0.7089060544967651,-0.6065735220909119,0.1579870283603668
1783196951994641700,3.8196416015625,2.308124820550531,-2.765271353298425,-7.097678626072407,0.9715887904167176,-0.7021449208259583,0.2580935657024383
1783196952004578800,3.829578857421875,2.1427160855546594,-2.4997972930938004,-6.881660962954163,1.1901189088821411,-0.7628352046012878,0.3047676086425781
1783196952014516000,3.839515869140625,2.0789068995974955,-2.442210781043768,-6.519590568825602,1.3092784881591797,-0.8428851962089539,0.3401477932929992
1783196952024454000,3.849453857421875,2.113267142099887,-2.5751006636202334,-6.246364579319954,1.3152530193328855,-0.982055366039276,0.4025768339633941
1783196952034390800,3.859390869140625,2.2763659927181896,-2.8480273779183625,-6.078304599162935,1.2362931966781616,-1.1603970527648926,0.5013111233711243
1783196952044327700,3.86932763671875,2.44707517220974,-2.855971614921093,-6.02913520232439,1.1399242877960205,-1.3399522304534912,0.609289824962616
1783196952054265900,3.879265869140625,2.5856518682509657,-2.687531403274834,-6.022853345575928,1.117092490196228,-1.4706437587738037,0.7202960252761841
1783196952064202800,3.88920263671875,2.718537659174204,-2.4843340587630864,-6.127390409371256,1.2096514701843262,-1.5798496007919312,0.8140196204185486
1783196952074140000,3.899139892578125,2.866135281538963,-2.149618996810913,-6.255408886519074,1.388358235359192,-1.652727127075195,0.8978405594825745
1783196952084077800,3.909077880859375,2.946694380636513,-1.751188418534398,-6.192665722358226,1.594421148300171,-1.6762317419052124,0.9837157726287842
1783196952094015000,3.919014892578125,3.071668960043788,-1.4758733477950094,-5.888605034127831,1.7884533405303955,-1.681512475013733,1.08811616897583
1783196952103951600,3.92895166015625,3.346967664170265,-1.299506142541766,-5.533469992220401,1.9646062850952148,-1.7070245742797852,1.2270463705062866
1783196952113889800,3.938889892578125,3.629890871825814,-1.0171008212804793,-5.13361434957683,2.132952928543091,-1.7266597747802734,1.3802374601364136
1783196952123826700,3.94882666015625,3.656528703382611,-0.557455895845592,-4.592069431829453,2.298205852508545,-1.670505404472351,1.4914041757583618
1783196952133763800,3.958763916015625,3.578879354251921,-0.0039624738901853,-3.779232122987509,2.455925464630127,-1.5601156949996948,1.59479558467865
1783196952143700700,3.96870068359375,3.638217970666289,0.4270183748573065,-2.9832980181515216,2.584636211395264,-1.4784551858901978,1.697884440422058
1783196952153639000,3.978638916015625,3.655843059206009,0.8518944769889116,-2.2920190505325797,2.626223087310791,-1.4062931537628174,1.767389178276062
1783196952163575800,3.988575927734375,3.502802369004488,1.502616685552895,-1.2832692934900525,2.565755844116211,-1.2874202728271484,1.780709743499756
1783196952173512700,3.9985126953125,3.1847406279504296,2.193255893963576,-0.0752653766036033,2.4160637855529785,-1.0993218421936035,1.7428942918777466
1783196952183450600,4.00845068359375,2.6687401935651898,2.73699890627712,1.19615858079195,2.197934865951538,-0.835319459438324,1.6923413276672363
1783196952193387800,4.0183876953125,2.0160946157231927,3.090479458975792,2.163380395659804,2.0249838829040527,-0.5267137289047241,1.675535798072815
1783196952203324700,4.02832470703125,1.7305385753460227,3.2574189106702804,2.253210304188728,1.9874019622802732,-0.3076708614826202,1.6657170057296753
1783196952213262800,4.038262939453125,1.7971872225128114,3.405248588225245,1.823910540395975,2.0360848903656006,-0.2632592916488647,1.6689577102661133
1783196952223199700,4.04819970703125,2.1925271412976084,3.658407941257953,1.5962778428077695,2.0402491092681885,-0.3262536823749542,1.6850916147232056
1783196952233137000,4.058136962890625,2.3457282827578485,4.04282869888246,2.135961058336496,1.9500336647033687,-0.2999196946620941,1.678254008293152
1783196952243074800,4.06807470703125,1.806022124744952,4.48287840474844,3.2396488607019185,1.7868002653121948,-0.1600869596004486,1.629962682723999
1783196952253011700,4.07801171875,0.9551508533239365,4.934851188120246,4.394207603126764,1.6264022588729858,0.0501201972365379,1.5481165647506714
1783196952262948900,4.087948974609375,0.3218586491189897,5.165058120110631,5.084779883781075,1.4565469026565552,0.2068120688199997,1.4405040740966797
1783196952272885800,4.0978857421875,0.1527254867725074,5.102677359521389,5.221106170547008,1.205889344215393,0.2018769234418869,1.3449335098266602
1783196952282823700,4.10782373046875,0.2815694549590349,5.030736743426322,5.210854825645685,0.9293970465660096,0.0556448884308338,1.2427834272384644
1783196952292760800,4.1177607421875,0.2210840065971016,5.001207282081246,4.937203888726234,0.7221149802207947,-0.1030624434351921,1.1020665168762207
1783196952302698000,4.127697998046875,0.0488859037220478,5.133752296742797,4.782971358391642,0.585957407951355,-0.1950371116399765,0.8869680166244507
1783196952312636000,4.137635986328125,-0.2652138018332421,5.3835962416172025,5.020052267804742,0.5111311674118042,-0.1807241141796112,0.6489673256874084
1783196952322572800,4.14757275390625,-0.5193428766809404,5.419992666122317,5.324012418270111,0.4587611556053161,-0.0362609326839447,0.4148869216442108
1783196952332509700,4.157509765625,-0.5139326882004738,5.339155042344332,5.444019438397884,0.4340015947818756,0.088527463376522,0.213987648487091
1783196952342447900,4.16744775390625,-0.3217344382174313,5.322034396195411,5.587375769931078,0.3910309672355652,0.1296245604753494,0.1248276829719543
1783196952352384800,4.177384765625,0.3054037734024226,4.883914781609177,5.713571707826852,0.2874480485916137,0.066720925271511,0.1651880145072937
1783196952362322000,4.187322021484375,0.9090424514912068,4.349759389591217,5.649398803123831,0.082706868648529,-0.0257123336195945,0.2805593609809875
1783196952372259800,4.197259765625,1.33289140253216,4.132435320049524,5.7636792622983455,-0.1273201256990432,-0.0824747309088707,0.3964689970016479
1783196952382196700,4.20719677734375,1.329394061935693,4.074122247290611,5.983122808212041,-0.2976625561714172,-0.1257777214050293,0.5013304352760315
1783196952392133600,4.217133544921875,1.1352671819776297,4.165905043452978,6.041437050014734,-0.4277605712413788,-0.0648579448461532,0.4960900545120239
1783196952402070800,4.22707080078125,0.6987224154926837,4.5028941878169775,6.026139527639747,-0.5148217082023621,0.1001453846693039,0.4023923277854919
1783196952412008700,4.2370087890625,0.1443881587989628,4.807059505465626,6.015783553320169,-0.5211285352706909,0.2496844977140426,0.2787140607833862
1783196952421945900,4.24694580078125,-0.3294713160797953,4.782954991778731,5.866014432135224,-0.4611517488956451,0.3692875802516937,0.1611037850379943
1783196952431882800,4.2568828125,-0.5861484679751098,4.671960714668035,5.644947084411978,-0.413160502910614,0.5438394546508789,0.0211754497140645
1783196952441821000,4.266821044921875,-0.5751143021330237,4.551196154171228,5.684767638146877,-0.4383817017078399,0.7547373175621033,-0.1334503442049026
1783196952451757600,4.276757568359375,-0.3928834655433893,4.544807329916954,5.859266711440682,-0.5243013501167297,0.9497143626213074,-0.2621480524539947
1783196952461694700,4.28669482421875,-0.0326128143131732,4.382587307959795,5.906731057927012,-0.6406494975090027,1.0258560180664062,-0.3334661722183227
1783196952471632600,4.296632568359375,0.0651480333454906,4.159185964331031,5.925775365614891,-0.8100024461746216,0.9392194747924804,-0.3756837248802185
1783196952481569800,4.30656982421875,-0.2927067889146507,4.069153226706385,6.296588453647494,-1.021664261817932,0.9691566228866576,-0.4152021110057831
1783196952491506700,4.316506591796875,-0.7506196298599243,4.1995694126456975,7.240756725186109,-1.203984260559082,1.28561270236969,-0.5138119459152222
1783196952501444900,4.32644482421875,-1.1263608219444752,4.020355001267791,8.0766130905658,-1.3350248336791992,1.7235996723175049,-0.6417057514190674
1783196952511381800,4.3363818359375,-1.6768777123071252,3.716643272605538,8.318159162694215,-1.4508090019226074,2.216391324996948,-0.8111271262168884
1783196952521318700,4.346318603515625,-2.1937411932624875,3.4315608410894867,8.210809379565715,-1.543586015701294,2.6207950115203857,-0.9586220383644104
1783196952531255800,4.356255859375,-2.3716250866889954,3.022311347156763,7.506708339774608,-1.5813877582550049,2.821833848953247,-1.0422059297561646
1783196952541193700,4.36619384765625,-2.2732865852728485,2.476497666049004,6.363242069250345,-1.4954848289489746,2.7996346950531006,-1.0431727170944214
1783196952551131000,4.376130859375,-2.143934521433711,2.2992566005706787,4.984453131157159,-1.3261322975158691,2.706115245819092,-1.0831830501556396
1783196952561067800,4.38606787109375,-2.1722880708672103,2.845107106557488,3.905520415341854,-1.168030858039856,2.6710565090179443,-1.2037235498428345
1783196952571005700,4.396005615234375,-2.0418138711303477,3.4437416927486657,3.365332757422328,-1.1239484548568726,2.6540331840515137,-1.363781452178955
1783196952580942800,4.40594287109375,-1.680779249790311,3.458679734161496,2.900704490616917,-1.284116506576538,2.5061590671539307,-1.5528961420059204
1783196952590879700,4.415879638671875,-1.3316905023097991,3.2603765914320944,2.1723656661480666,-1.7189526557922363,2.422415018081665,-1.7395728826522827
1783196952600817700,4.425817626953125,-0.1343370126448571,3.2208474218592045,0.9148013072788714,-2.2323012351989746,2.386951446533203,-1.8626418113708496
1783196952610754800,4.4357548828125,1.434249251769483,3.1161203884497284,-0.8321060729354619,-2.582466125488281,2.152399778366089,-1.874102473258972
1783196952620691700,4.445691650390625,2.6234359477221965,2.696173267152905,-2.9023779767870903,-2.73601508140564,1.847392439842224,-1.829061269760132
1783196952630630000,4.4556298828125,3.3081858058333395,2.437513855399191,-4.797675591048598,-2.750991106033325,1.647512912750244,-1.7593721151351929
1783196952640566800,4.46556689453125,3.559465628729761,2.4318214889764787,-6.2574880308806895,-2.5824098587036133,1.5205163955688477,-1.665019989013672
1783196952650504000,4.47550390625,3.6994381630435584,2.118363150064647,-7.383706229484081,-2.249999761581421,1.41777503490448,-1.5670472383499146
1783196952660441900,4.48544189453125,3.9184804346799846,1.6835498835474252,-8.342612051427365,-1.8602302074432373,1.3239638805389404,-1.446134090423584
1783196952670378800,4.495378662109375,3.8521111889764654,1.2356938878446817,-8.818827880173922,-1.4977359771728516,1.2563756704330444,-1.3492133617401123
1783196952680315600,4.505315673828125,3.5823829784587025,0.8914870671868323,-8.633270237249135,-1.216687798500061,1.188143610954285,-1.274824142456055
1783196952690252800,4.515252685546875,3.266113381518424,0.4597328959792852,-8.1500763861835,-1.0262529850006104,1.108651041984558,-1.195522427558899
1783196952700190700,4.525190673828125,2.8278873839482666,-0.2830167311578989,-7.818290655681491,-0.9216521978378296,0.995596408843994,-1.115942358970642
1783196952710127900,4.5351279296875,2.512452192005515,-1.0330733203075826,-7.577934670120477,-0.8984975814819336,0.8022684454917908,-1.0577266216278076
1783196952720064800,4.545064697265625,2.272875374123454,-1.5358544998966157,-7.480776610660553,-0.9218289852142334,0.5089329481124878,-1.0237809419631958
1783196952730003000,4.5550029296875,2.0825041934371,-1.8126318982735277,-7.574284330919385,-0.941685676574707,0.1963129192590713,-1.0123240947723389
1783196952739939600,4.564939697265625,1.793568593624234,-1.8084886609889568,-7.474771817287802,-0.913808524608612,-0.0121707879006862,-1.0515025854110718
1783196952749876700,4.574876708984375,1.267251347886026,-1.7815597375310956,-7.074518115237355,-0.8468037843704224,-0.1122560054063797,-1.1342872381210327
1783196952759814700,4.584814697265625,0.810768393613398,-2.167270096574724,-6.755714615905284,-0.7874030470848083,-0.1848369985818863,-1.2022987604141235
1783196952769751800,4.594751708984375,0.628952567565441,-2.682930339220166,-6.6537868578255175,-0.7309590578079224,-0.2482709884643554,-1.2432057857513428
1783196952779689000,4.60468896484375,0.7687529601827263,-3.3206910671412944,-6.669453213512897,-0.6405841112136841,-0.3052594363689422,-1.21510112285614
1783196952789627000,4.614626953125,1.1220236695230006,-3.8580885098204014,-6.783868697243928,-0.5074463486671448,-0.3272894322872162,-1.1212377548217771
1783196952799563800,4.624563720703125,1.419123871091008,-4.049099157454073,-6.674328126072883,-0.3445301055908203,-0.2830822765827179,-0.9954097270965576
1783196952809500700,4.634500732421875,1.6700205398887396,-4.141442510108649,-6.416054791027307,-0.1432271301746368,-0.2018546909093856,-0.8398939371109009
1783196952819437800,4.644437744140625,1.955822517850995,-4.323951579117774,-6.450226525220274,0.0826507434248924,-0.1608651876449585,-0.6667584180831909
1783196952829375700,4.654375732421875,2.2445260624736547,-4.458605841018259,-6.578713788923621,0.2788261473178863,-0.1853783726692199,-0.4933056235313415
1783196952839313000,4.66431298828125,2.516602005161345,-4.35333315642476,-6.524138733649253,0.4335347712039947,-0.2681339681148529,-0.3251941204071045
1783196952849249800,4.674249755859375,2.802439931219816,-4.060851846829056,-6.46767450362742,0.5695956349372864,-0.4146077036857605,-0.1719196736812591
1783196952859188000,4.68418798828125,2.973561637035012,-3.7181177290722727,-6.482303917482495,0.6954028606414795,-0.5868119597434998,-0.0440328232944011
1783196952869124900,4.694124755859375,2.8534561249688264,-3.359196738885343,-6.432099916899204,0.831658661365509,-0.7486416101455688,0.0610005855560302
1783196952879062000,4.70406201171875,2.580998489487171,-3.0115131820276377,-6.278235050833225,0.9696338772773744,-0.8414072394371033,0.138445571064949
1783196952889000000,4.714,2.2812688161984083,-2.570324827520549,-5.966181025761365,1.1171330213546753,-0.8654823303222656,0.2065158486366272
1783196952898937000,4.72393701171875,2.054390151847899,-2.1581138534337283,-5.729219358813762,1.2684887647628784,-0.8495765924453735,0.2770768404006958
1783196952908874000,4.7338740234375,1.901841629077494,-1.853595338433236,-5.646283301451802,1.447887659072876,-0.8107541799545288,0.3380176723003387
1783196952918812200,4.743812255859375,1.84783940525502,-1.548611251747608,-5.610073923951387,1.6462279558181765,-0.7806026935577393,0.3919155299663543
1783196952928748800,4.753748779296875,1.9143699790000916,-1.310599198964238,-5.572621852913499,1.8506996631622317,-0.7736712098121643,0.4590702056884765
1783196952938686000,4.76368603515625,2.014197549930215,-1.098277029363066,-5.501881260257959,2.053139925003052,-0.8017635941505432,0.5596322417259216
1783196952948622800,4.773622802734375,2.086332519553601,-0.8864370903208851,-5.430275575205683,2.226562023162842,-0.869859516620636,0.6529408693313599
1783196952958561000,4.78356103515625,1.9911916451349851,-0.5798568204849958,-5.158708458822965,2.3537309169769287,-0.958392858505249,0.7209910154342651
1783196952968498000,4.793497802734375,1.8023907825052736,-0.1919680944889783,-4.687535300418734,2.4363155364990234,-1.024998903274536,0.7496528625488281
1783196952978435000,4.80343505859375,1.741277849894762,0.251688111436367,-4.1202223196864125,2.4776461124420166,-1.0651596784591677,0.7504949569702148
1783196952988373000,4.813373046875,1.909177817184478,0.6574775280430912,-3.615989187723398,2.4900898933410645,-1.0950230360031128,0.7656844854354858
1783196952998310000,4.823309814453125,2.2266993138819933,0.9980787254244088,-3.3965947416484354,2.507786750793457,-1.1518032550811768,0.8272700905799866
1783196953008246800,4.833246826171875,2.3745815984070298,1.2057575992643832,-3.3581127430409192,2.555752754211426,-1.2179641723632812,0.9384759664535522
1783196953018185000,4.84318505859375,2.348445286631584,1.5286118352919815,-3.213832282400131,2.6364259719848637,-1.2213586568832395,1.0462024211883545
1783196953028121900,4.853121826171875,2.182432740523666,2.048992092196644,-2.8599592232525346,2.727973937988281,-1.1598083972930908,1.124622821807861
1783196953038059000,4.86305908203125,2.10719980488494,2.5452400706246494,-2.44155494748354,2.8317196369171143,-1.0819228887557983,1.1644362211227417
1783196953047997000,4.872996826171875,2.1163689075075087,2.8147107992500064,-2.241664827823638,2.9206669330596924,-1.0591710805892944,1.2275766134262085
1783196953057934000,4.88293408203125,2.369661969922483,2.9380981094658374,-2.069006413960457,2.953568696975708,-1.1002141237258911,1.3171647787094116
1783196953067871000,4.89287109375,2.4900953987687826,3.0845904009371994,-1.8713737178385257,2.9192686080932617,-1.2077693939208984,1.413204789161682
1783196953077809000,4.902808837890625,2.2935975518956777,3.408156584626436,-1.6102081684827805,2.8453001976013184,-1.2797178030014038,1.487319827079773
1783196953087745800,4.912745849609375,2.0938518091425298,3.897109145349264,-1.1622189017891884,2.791359663009644,-1.3538670539855957,1.5274211168289185
1783196953097683000,4.922682861328125,1.8057538291975852,4.325780548110604,-0.5810860700190067,2.750472068786621,-1.367949604988098,1.537946701049805
1783196953107620000,4.9326201171875,1.6847434772461651,4.68086765922308,0.1894838764578104,2.720475196838379,-1.375585675239563,1.5528711080551147
1783196953117558000,4.94255810546875,1.5142898799508808,4.80194376988709,0.8805021473139524,2.6823670864105225,-1.3161438703536987,1.5907806158065796
1783196953127495200,4.9524951171875,1.4078203867882488,4.83939174927175,1.6046300760895014,2.6228201389312744,-1.2142292261123655,1.6327012777328491
1783196953137431800,4.962431884765625,1.237891982410848,4.884091307219863,2.3360452392637727,2.526031017303467,-1.0704913139343262,1.624720573425293
1783196953147370000,4.972369873046875,1.0262310531973835,5.0027287925601005,2.921223547032475,2.435231924057007,-0.9860824942588806,1.583622932434082
1783196953157307000,4.982306884765625,0.8226412753019482,5.102599618110061,3.358836965662241,2.340320348739624,-0.939059317111969,1.5124032497406006
1783196953167244000,4.992244140625,0.7316752754151821,5.099455474865437,3.829276549094915,2.217162609100342,-0.8865798115730286,1.4279149770736694
1783196953177182000,5.002181884765625,0.6567766862973571,5.048728327190876,4.319573510164022,2.0453662872314453,-0.8015021681785583,1.348363757133484
1783196953187119000,5.012119140625,0.5403904870152473,4.965733233118057,4.884104751223325,1.831050992012024,-0.6687538623809814,1.2810428142547607
1783196953197056000,5.022055908203125,0.3768568982414901,4.827507250210642,5.332517211765051,1.6054308414459229,-0.5674922466278076,1.2266637086868286
1783196953206993000,5.031992919921875,0.2083560424491763,4.700440374699235,5.5339674203485245,1.368706464767456,-0.5627565979957581,1.1508877277374268
1783196953216930800,5.041930908203125,0.0720854313932359,4.631476728588343,5.664428029951453,1.107152819633484,-0.6163450479507446,1.03236722946167
1783196953226868000,5.051867919921875,-0.1293441727936267,4.651931487596035,5.856270452234148,0.814714789390564,-0.6951329112052917,0.8694549202919006
1783196953236804900,5.061804931640625,-0.3814909877829253,4.612725266367197,6.160899295741319,0.5093011260032654,-0.7717576026916504,0.7044720649719238
1783196953246743000,5.071742919921875,-0.4876974460951984,4.457573867622018,6.486566251102089,0.2191845029592514,-0.7971453070640564,0.5420154333114624
1783196953256680000,5.081679931640625,-0.4554071417346596,4.355533296817541,6.768062056303024,-0.0392552986741066,-0.7268056273460388,0.3844878375530243
1783196953266617000,5.0916171875,-0.3661657006181776,4.3407630131870505,7.041950309109687,-0.2627546787261963,-0.5927400588989258,0.2383711785078048
1783196953276555000,5.101554931640625,-0.2541572780288755,4.309631377342343,7.311161802276969,-0.4420490562915802,-0.4598632752895355,0.1171526163816452
1783196953286492000,5.111491943359375,-0.1907319768227636,4.236046501171589,7.53311353161931,-0.5912030339241028,-0.3410443961620331,0.0410358197987079
1783196953296428800,5.1214287109375,-0.1769362373128533,4.174186549586057,7.761355885538459,-0.739734947681427,-0.2137216031551361,-0.0101474719122052
1783196953306367000,5.131366943359375,-0.2506485392555594,4.217493776392937,8.120634603121877,-0.9127811193466188,-0.0640181824564933,-0.0557675249874591
1783196953316304000,5.141303955078125,-0.4892167646169662,4.368393947434425,8.589567289122938,-1.1045929193496704,0.1317238956689834,-0.1035630032420158
1783196953326241000,5.151240966796875,-0.8341764494687318,4.440154530787468,8.974791179823875,-1.2888354063034058,0.3747751712799072,-0.1774247288703918
1783196953336178200,5.16117822265625,-1.098085744574666,4.346798786219955,9.211296919697524,-1.4513322114944458,0.6729522943496704,-0.3035959899425506
1783196953346116000,5.1711162109375,-1.0877709790483117,4.201040654242038,9.208571878647804,-1.580588936805725,0.9535207748413086,-0.4358837902545929
1783196953356053000,5.181052978515625,-0.8292118127986788,4.018314435350895,8.965966068333387,-1.6611963510513306,1.1341243982315063,-0.5313870906829834
1783196953365990000,5.190989990234375,-0.4095093139126897,3.668779697668552,8.538580029207468,-1.6905711889266968,1.2149405479431152,-0.5796607732772827
1783196953375927800,5.200927734375,0.0896713569663465,3.184868638244271,8.027653537085651,-1.706569790840149,1.324257493019104,-0.5843777656555176
1783196953385865000,5.210864990234375,0.5636193869113921,2.784722488221526,7.527488677474856,-1.7847754955291748,1.491700291633606,-0.5689125657081604
1783196953395802000,5.220802001953125,0.697292236559093,2.5417209565877914,7.095366257476806,-1.8651347160339355,1.6432448625564575,-0.52395099401474
1783196953405740000,5.230739990234375,0.7472700271710753,2.371903319108486,6.312079452767968,-1.8838789463043213,1.7585011720657349,-0.4484311044216156
1783196953415677000,5.240677001953125,0.9794606803245842,2.4034189858347177,5.312794858685136,-1.8418627977371216,1.8901773691177368,-0.4576719999313354
1783196953425613800,5.25061376953125,0.9982730789527297,2.442871290779113,4.358869163241982,-1.8060269355773928,2.056997776031494,-0.5877013802528381
1783196953435552000,5.260552001953125,0.924848946301639,2.556861827096343,3.564817803412676,-1.841660022735596,2.243741750717163,-0.8141305446624756
1783196953445489000,5.270489013671875,0.7729007275119424,2.70224469602108,2.541337510228157,-1.9608416557312007,2.4306955337524414,-1.0580999851226809
1783196953455426000,5.280426025390625,0.7910372727051377,2.7331220648437737,1.1722878758609294,-2.1442432403564453,2.5884833335876465,-1.2202223539352417
1783196953465363000,5.290363037109375,1.1823702939361334,2.4478677838921548,-0.368351666355133,-2.3061110973358154,2.647747278213501,-1.287513017654419
1783196953475301000,5.300301025390625,1.7040937821432949,1.9059885196238755,-1.91312377833128,-2.3861420154571533,2.5681610107421875,-1.2528666257858276
1783196953485237800,5.31023779296875,2.345745380023122,1.2920213397443294,-3.219128050720692,-2.385777711868286,2.3805530071258545,-1.1604597568511963
1783196953495175000,5.3201748046875,2.839274747142196,0.7369856567829847,-4.308113958516716,-2.313984632492065,2.139957427978516,-1.0464357137680054
1783196953505112800,5.33011279296875,3.019383477011323,0.4022176955997943,-5.364845948439836,-2.182899475097656,1.9051172733306885,-0.9219399690628052
1783196953515050000,5.340050048828125,2.8653549448162314,0.2912590743243694,-6.323378260895609,-1.9799997806549072,1.6887736320495603,-0.8371864557266235
1783196953524987000,5.34998681640625,2.3184784567825494,0.2666495337247848,-6.971552830803394,-1.7317761182785034,1.485274314880371,-0.8034597635269165
1783196953534925000,5.359925048828125,1.6945348034203052,0.3103992436021566,-7.136558099564909,-1.49969220161438,1.350070238113403,-0.8379072546958923
1783196953544862000,5.369862060546875,1.0283813630990684,0.4316100865617394,-6.897970292720198,-1.2970656156539917,1.2978421449661257,-0.9491918087005616
1783196953554798800,5.379798828125,0.5402770897686481,0.342159532739222,-6.643083092981577,-1.0999000072479248,1.2961002588272097,-1.0713211297988892
1783196953564736800,5.38973681640625,0.3741849025532603,-0.0687327599644661,-6.47360272463262,-0.910972535610199,1.3048360347747805,-1.177109718322754
1783196953574674000,5.399673828125,0.4461833863154053,-0.5743108767956495,-6.385625750494003,-0.7298344373703003,1.2658361196517944,-1.221397876739502
1783196953584610800,5.40961083984375,0.5812548507146537,-1.0377569480791686,-6.412742305478453,-0.5825134515762329,1.17414128780365,-1.1901915073394775
1783196953594548000,5.4195478515625,0.7435492530822754,-1.3323802381396292,-6.284543795588612,-0.4623124599456787,1.0537246465682983,-1.086159348487854
1783196953604486000,5.42948583984375,0.8962038665756583,-1.570539882700145,-5.966539922201633,-0.3780510723590851,0.9542598128318788,-0.9590101838111876
1783196953614423000,5.439423095703125,1.042948671503365,-1.839376989597082,-5.466058836248517,-0.3436651527881622,0.8784881234169006,-0.8750907778739929
1783196953624360000,5.44935986328125,1.0059873065918683,-2.006855954995751,-4.9034144318491215,-0.3755545318126678,0.8161885142326355,-0.8753659129142761
1783196953634297900,5.4592978515625,0.9614990533068776,-2.114596198746562,-4.572046634498238,-0.4597474634647369,0.7211503982543945,-0.895392894744873
1783196953644235000,5.469235107421875,1.1583002670407294,-2.369806931351125,-4.526509456682205,-0.5582301616668701,0.6023286581039429,-0.8559392094612122
1783196953654172000,5.479171875,1.2941589362949133,-2.7423247774749995,-4.74049006101489,-0.6161925196647644,0.4588894844055176,-0.7538144588470459
1783196953664109800,5.48910986328125,1.2250614346712827,-2.9734286583051084,-5.114345585483313,-0.5852186679840088,0.3190312087535858,-0.6384310722351074
1783196953674047000,5.499046875,1.1049068227663636,-2.9800977608054877,-5.443230333846807,-0.4632419049739837,0.2357986569404602,-0.5525696873664856
1783196953683984100,5.508984130859375,0.9932242711305618,-2.793579163894057,-5.675750803476571,-0.2516110241413116,0.2017380744218826,-0.4987415969371795
1783196953693920800,5.518920654296875,1.0076941105097532,-2.730148309729993,-5.862461708089709,0.0329597108066082,0.1785930693149566,-0.4092085063457489
1783196953703859000,5.52885888671875,1.1882207735300063,-2.9728757005974646,-6.210594762280583,0.3317424058914184,0.1335670053958892,-0.2785937786102295
1783196953713795800,5.5387958984375,1.238865795879066,-3.174833274181187,-6.4101844376891846,0.5822148323059082,0.073913536965847,-0.1459164321422577
1783196953723733000,5.54873291015625,1.269986910329759,-3.2166607838243246,-6.361189812895655,0.8087626099586487,0.0068919276818633,-0.018204677850008
1783196953733671000,5.5586708984375,1.407620772562921,-3.1732419133365157,-6.278238557964563,1.0384540557861328,-0.0515873618423938,0.1064794659614563
1783196953743608000,5.568608154296875,1.4300781035646797,-3.0940947268635037,-6.179353820842504,1.2718963623046875,-0.0834032446146011,0.2157272547483444
1783196953753545000,5.578544921875,1.327794663915038,-3.0238132761523127,-6.015420565226674,1.479121208190918,-0.0918965935707092,0.2849856913089752
1783196953763483100,5.588483154296875,1.296302085803449,-2.9159195954054598,-5.862581535077095,1.6631450653076172,-0.1190083026885986,0.3492730557918548
1783196953773419800,5.598419677734375,1.3923819946378468,-2.844491605007648,-5.891026123794913,1.8231544494628904,-0.212838128209114,0.4186827540397644
1783196953783357000,5.60835693359375,1.5150100109189748,-2.714499781960249,-5.862621282565593,1.9471083879470823,-0.337076187133789,0.4980705082416534
1783196953793294000,5.618294189453125,1.502670169305801,-2.4131670573890207,-5.731608884298801,2.0478603839874268,-0.4761491119861603,0.5708211064338684
1783196953803232000,5.62823193359375,1.4468930447652937,-2.0149135892450807,-5.498230336534976,2.1399083137512207,-0.5967065095901489,0.618184506893158
1783196953813169000,5.6381689453125,1.4762532870233058,-1.548391471517086,-5.163291694959998,2.228469133377075,-0.7158738970756531,0.6498516201972961
1783196953823106000,5.64810595703125,1.61649411688447,-1.1331611496090888,-4.857306760668754,2.323797702789306,-0.84305739402771,0.6920604705810547
1783196953833044000,5.6580439453125,1.722049417811632,-0.7834417030096054,-4.601568497058749,2.4289326667785645,-0.9563741087913512,0.7688183784484863
1783196953842980900,5.66798095703125,1.74299692877233,-0.4670207148998975,-4.281314798918366,2.5363752841949463,-1.0218510627746582,0.867821216583252
1783196953852918000,5.67791796875,1.678240086701512,-0.0751274294376373,-3.833654618048668,2.625073194503784,-1.048251748085022,0.9761378169059752
1783196953862856000,5.68785595703125,1.584298358939588,0.41515024240911,-3.344737128639221,2.690869092941284,-1.0448108911514282,1.08138108253479
1783196953872792800,5.697792724609375,1.5203208306781946,0.9380097489088772,-2.760029945513606,2.7076504230499268,-1.0333892107009888,1.1461511850357056
1783196953882729700,5.707729736328125,1.4944069294817746,1.4059838190108538,-2.197659097358584,2.6743242740631104,-1.0540603399276731,1.1960469484329224
1783196953892667600,5.717667724609375,1.473942087471485,1.7813246136009693,-1.7291694789499044,2.6044809818267822,-1.0942295789718628,1.2352081537246704
1783196953902604500,5.7276044921875,1.395660577917099,2.0522984402656554,-1.3032412374168634,2.4994378089904785,-1.1219887733459473,1.2608599662780762
1783196953912541700,5.737541748046875,1.289732059763372,2.2845383393883703,-0.9057236823320388,2.38188910484314,-1.139695644378662,1.294833421707153
1783196953922478600,5.747478515625,1.256555181826651,2.5212521690547467,-0.5218605585902929,2.2777724266052246,-1.1461256742477417,1.3310017585754397
1783196953932416800,5.757416748046875,1.2733116708382963,2.785634342369437,-0.1671715068846941,2.1832706928253174,-1.1576825380325315,1.35249662399292
1783196953942353700,5.767353759765625,1.3821478931322693,3.045855304351449,0.1918582043737172,2.085422992706299,-1.1817679405212402,1.3615528345108032
1783196953952290800,5.777290771484375,1.4900246227443217,3.2547032219707965,0.5457721800535917,1.9888064861297607,-1.1953929662704468,1.3682109117507937
1783196953962228700,5.787228759765625,1.453873112910986,3.4058746111691,0.8534750241786241,1.876563549041748,-1.1953849792480469,1.3891412019729614
1783196953972165600,5.79716552734375,1.390143568061292,3.548880229568481,1.2378805842339993,1.753720998764038,-1.1722713708877563,1.413586974143982
1783196953982102500,5.8071025390625,1.2928148282095788,3.7294706054747104,1.624375225523114,1.639090895652771,-1.1408979892730713,1.4216183423995972
1783196953992040700,5.817040771484375,1.2332526321724055,3.988826475059986,1.9221002809911965,1.5398911237716677,-1.127536654472351,1.3953629732131958
1783196954001977600,5.8269775390625,1.27950614156425,4.242973085564374,2.2237825496524573,1.423648238182068,-1.132577896118164,1.3401987552642822
1783196954011914800,5.836914794921875,1.3836159198582172,4.373194041192531,2.6266175003677605,1.2916224002838137,-1.1591302156448364,1.2776464223861694
1783196954021851600,5.8468515625,1.414793440671265,4.345799253788591,3.0299288364231587,1.1409322023391724,-1.1985950469970703,1.219719171524048
1783196954031789600,5.85678955078125,1.3016679967507718,4.2878152668535705,3.402938557717204,0.977921426296234,-1.2408722639083862,1.1766726970672607
1783196954041726500,5.8667265625,1.1337778202027082,4.29072735490799,3.703143155041337,0.8152261972427368,-1.2625960111618042,1.1208702325820925
1783196954051663600,5.87666357421875,0.96396544342041,4.295042880019546,3.999121659103036,0.6605820059776306,-1.245198130607605,1.0528913736343384
1783196954061601500,5.8866015625,0.7739151652514934,4.30450921202302,4.255413464942574,0.5129521489143372,-1.2208490371704102,0.9576063752174376
1783196954071538700,5.89653857421875,0.5685361658517271,4.268395696112513,4.4988045804157855,0.3547252118587494,-1.202852487564087,0.8630234003067017
1783196954081475800,5.906475830078125,0.4421063461348414,4.240205374416709,4.787800678244233,0.1811077296733856,-1.1770782470703125,0.7763450741767883
1783196954091413800,5.916413818359375,0.4202111790604889,4.209259616532922,5.141191506832838,0.0015052109956741,-1.1534358263015747,0.694023847579956
1783196954101350700,5.9263505859375,0.4078793746232986,4.177216711062193,5.418397505885363,-0.1839224249124527,-1.1542736291885376,0.6245871186256409
1783196954111287600,5.93628759765625,0.4719477960385382,4.257689593181014,5.710326442295313,-0.3660424351692199,-1.1392956972122192,0.5752427577972412
1783196954121224700,5.946224609375,0.5734552828796208,4.437335966235399,6.0754965560048815,-0.5294449329376221,-1.0909358263015747,0.521714985370636
1783196954131162600,5.95616259765625,0.5778969185888767,4.662904132509231,6.430321801310777,-0.680974006652832,-0.9906116127967834,0.4601962566375732
1783196954141099800,5.966099853515625,0.4501145882844924,4.896507136678696,6.798192990672588,-0.829249918460846,-0.8489269018173218,0.3805220127105713
1783196954151036700,5.97603662109375,0.1607031876534223,5.100885799929499,7.095850241601466,-0.988100290298462,-0.69440096616745,0.2657192647457123
1783196954160974800,5.985974853515625,-0.2454579848751425,5.1890755400359625,7.321656892806291,-1.1417585611343384,-0.5156885385513306,0.1201154440641403
1783196954170911500,5.995911376953125,-0.686396748535335,5.19392882528603,7.457295197308063,-1.2875053882598877,-0.3058631718158722,-0.0402380116283893
1783196954180848600,6.0058486328125,-0.9886872122228144,5.151286199867725,7.573792748010158,-1.42473304271698,-0.0549282729625701,-0.2076258510351181
1783196954190786600,6.01578662109375,-1.0372975138738751,5.080927300006151,7.669765397077798,-1.5516473054885864,0.2035621404647827,-0.3476175963878631
1783196954200723700,6.0257236328125,-0.7280909871876239,4.978411512905359,7.649035328260064,-1.656550407409668,0.4729819297790527,-0.4360688328742981
1783196954210660600,6.03566064453125,-0.0534048424512147,4.781757890948653,7.45151895199418,-1.7572181224822998,0.6832643151283264,-0.4862454533576965
1783196954220597800,6.04559765625,0.4570315280660986,4.973342539077997,7.054448556154966,-1.8972299098968504,0.8374754190444946,-0.6175660490989685
1783196954230535700,6.05553564453125,0.7756763297051191,5.64477698854208,6.941736953732371,-2.0140485763549805,0.9171390533447266,-0.6909087300300598
1783196954240472600,6.06547265625,1.1250262123398482,4.917188690179586,6.665943159565329,-2.085886001586914,0.9708371758461,-0.702863872051239
1783196954250409700,6.07540966796875,0.8726087637156248,4.180995060557127,6.102171212440728,-2.05090069770813,1.047854781150818,-0.6682475805282593
1783196954260347600,6.08534765625,0.2114098770618438,3.698628892487288,5.554326902288199,-2.015465497970581,1.1514512300491333,-0.6186086535453796
1783196954270284500,6.095284423828125,-0.2310129876762628,3.819077811163664,5.203996045792103,-2.040410041809082,1.293053150177002,-0.6053327918052673
1783196954280221700,6.1052216796875,-0.3855117677316069,4.155715657871961,5.055422271871566,-2.082798480987549,1.4661110639572144,-0.6295119524002075
1783196954290159600,6.11515966796875,-0.2978364068880677,4.424767576563358,4.817692543160915,-2.123621702194214,1.6527308225631714,-0.744768500328064
1783196954300096800,6.1250966796875,-0.4326972242113202,4.564447265410423,4.653995434388518,-2.2073962688446045,1.8931201696395876,-1.0096375942230225
1783196954310033700,6.13503369140625,-0.5641624077469111,4.624907871592044,4.432221399700642,-2.358593463897705,2.17031192779541,-1.3608710765838623
1783196954319970600,6.144970458984375,-0.1875017444635741,4.553926455917954,3.810231656885147,-2.5415756702423096,2.3418643474578857,-1.6835044622421265
1783196954329908700,6.15490869140625,0.4119304035797715,4.079814905974269,2.544678052827716,-2.726625919342041,2.3869473934173584,-1.8729982376098635
1783196954339845600,6.164845703125,0.9699103232994676,3.1954736188888546,1.2398247040390968,-2.885576009750366,2.4123194217681885,-1.8781577348709104
1783196954349782800,6.17478271484375,1.6091320636838673,2.107466785258054,0.0270633634924888,-3.004444122314453,2.4508702754974365,-1.7324910163879397
1783196954359720700,6.184720703125,2.315446103349328,1.3085498652189969,-1.0648726262807846,-3.0765864849090576,2.507084608078003,-1.5750763416290283
1783196954369657900,6.194657958984375,2.697189458458125,0.9309417102187872,-2.027054693415761,-3.1125447750091557,2.585536479949951,-1.491735816001892
1783196954379594500,6.204594482421875,2.927619970071316,0.8620639888256788,-2.9272248332738875,-3.0326573848724365,2.596147298812866,-1.455905199050903
1783196954389532700,6.21453271484375,3.1365918063312765,0.7220727498114109,-4.027849740937352,-2.810546875,2.5630152225494385,-1.455596089363098
1783196954399469600,6.224469482421875,3.2638577115461227,0.2598614810198545,-5.115707521486282,-2.5059690475463867,2.5349559783935547,-1.442888617515564
1783196954409406700,6.23440673828125,3.2309707564666867,-0.1524240196079015,-5.982773848643899,-2.174665927886963,2.552060604095459,-1.4221583604812622
1783196954419343600,6.244343505859375,3.0162808348208663,-0.4112652176693082,-6.653401657900214,-1.8826979398727417,2.5690736770629883,-1.4145315885543823
1783196954429281800,6.25428173828125,3.044924745503068,-0.6224354407563806,-6.992044414690136,-1.608229398727417,2.5002121925354004,-1.3933762311935425
1783196954439218700,6.26421875,3.253177035316825,-1.0898881173327564,-7.462135038554668,-1.3361103534698486,2.3350327014923096,-1.3134775161743164
1783196954449155600,6.274155517578125,3.434171608109772,-1.7428046210706234,-7.995607124483585,-1.090057134628296,2.155847311019897,-1.19688618183136
1783196954459093500,6.284093505859375,3.586037117052078,-2.348747484448552,-8.29558317374885,-0.9105224013328552,2.014371871948242,-1.0989766120910645
1783196954469030700,6.29403076171875,3.591664601545036,-2.7660005443558093,-8.306821776121854,-0.7872012853622437,1.8709536790847776,-0.9960262775421144
1783196954478967600,6.303967529296875,3.485560142302513,-3.170003369806707,-8.678345058250427,-0.7100334167480469,1.7333306074142456,-0.927420735359192
1783196954488905700,6.31390576171875,3.3822286549046634,-3.756397775366902,-9.531111057376862,-0.7294371724128723,1.5747891664505005,-0.815645158290863
1783196954498842600,6.323842529296875,3.466083580677211,-3.857524446196854,-9.713944828295707,-0.7525808811187744,1.3066579103469849,-0.6970183849334717
1783196954508779800,6.33377978515625,3.7243624686807393,-3.991100849732757,-9.817622644913197,-0.7146170139312744,0.9472782015800476,-0.5801095962524414
1783196954518716700,6.343716552734375,4.0694636078298085,-4.017982426917553,-10.156478167670963,-0.6702195405960083,0.6481581926345825,-0.4523187577724457
1783196954528654600,6.353654541015625,4.311868342614174,-3.89508319247961,-10.35608070256114,-0.5760613083839417,0.3600915372371673,-0.3255906403064728
1783196954538591700,6.363591796875,4.3844650845304125,-3.816755505695939,-10.549096844798326,-0.4124277532100677,0.0892133861780166,-0.2099363207817077
1783196954548528600,6.373528564453125,4.402235134498775,-3.7842338767975567,-10.589722285175323,-0.1808794736862182,-0.1527763456106186,-0.0669836923480033
1783196954558466600,6.383466552734375,4.556723977681994,-3.811544785310328,-10.568388405245544,0.116033136844635,-0.3700752854347229,0.1196264028549194
1783196954568403700,6.39340380859375,4.940359722408652,-3.926530762405693,-10.459096840399503,0.4054207503795624,-0.6065757274627686,0.3041738867759704
1783196954578340900,6.4033408203125,5.06886276820302,-3.858280817522109,-10.178480740642549,0.6563084125518799,-0.8510848879814148,0.4785296618938446
1783196954588278800,6.41327880859375,4.9655333266317845,-3.6416622659012674,-9.801870364508032,0.8945338129997253,-1.0580782890319824,0.6549749970436096
1783196954598215700,6.423215576171875,4.741623448958992,-3.430150682030618,-9.387968660855291,1.1661925315856934,-1.1972681283950806,0.835953950881958
1783196954608152600,6.433152587890625,4.492262903687358,-3.045295332381129,-8.879912755733727,1.4400306940078735,-1.285055160522461,0.989427924156189
1783196954618089700,6.44308984375,4.142380083219707,-2.4582240504726767,-8.297688621595501,1.6811214685440063,-1.3305026292800903,1.0997594594955444
1783196954628027600,6.453027587890625,3.7912650906085967,-1.8134797472745177,-7.675835656902193,1.8798630237579343,-1.36339271068573,1.164403200149536
1783196954637964800,6.46296484375,3.493764783807099,-1.299795480877161,-7.065632213470339,2.0440917015075684,-1.38972270488739,1.2107642889022827
1783196954647901700,6.472901611328125,3.3605604284539816,-0.954558440388739,-6.406773167940974,2.1816060543060303,-1.4209331274032593,1.263479232788086
1783196954657839900,6.48283984375,3.226905406723916,-0.7199787001416087,-5.700246946829557,2.287231922149658,-1.4391305446624756,1.3390932083129885
1783196954667776500,6.492776611328125,3.165799196115136,-0.4081438707783818,-4.825872342485189,2.363442897796631,-1.3765517473220823,1.4313387870788574
1783196954677713700,6.502713623046875,3.0838983270198104,0.0225566997230052,-3.909357217025757,2.414485454559326,-1.246071219444275,1.524111032485962
1783196954687650600,6.512650634765625,2.8218314449101687,0.5378881488054991,-3.214204038321972,2.4822566509246826,-1.103205919265747,1.61464262008667
1783196954697588700,6.522588623046875,2.493638185942173,1.017644426637888,-2.632042448025942,2.54306960105896,-0.9612056016921996,1.6756718158721924
1783196954707525600,6.532525634765625,2.357961741387099,1.5253420198410748,-1.914900140354037,2.573141098022461,-0.8747231364250183,1.712608814239502
1783196954717462500,6.542462646484375,2.354037407550216,2.0277882683873174,-1.5263053119152783,2.582491636276245,-0.8872816562652588,1.7542779445648191
1783196954727400400,6.552400390625,2.299505022373795,2.4593057082295418,-1.3546072675168517,2.5858142375946045,-0.9853317737579346,1.8246275186538696
1783196954737337600,6.562337646484375,2.3041027254275974,2.843041406199336,-1.0550456442713736,2.587854146957397,-1.1123772859573364,1.915992259979248
1783196954747274800,6.572274658203125,2.4020101419501003,3.2060154711693523,-0.5401829817444086,2.596780300140381,-1.2643159627914429,2.010902643203736
1783196954757212700,6.582212646484375,2.4340651762500403,3.536191428387165,0.0993120226234197,2.5857748985290527,-1.4043227434158323,2.090153455734253
1783196954767149600,6.592149658203125,2.333784308594465,3.84722721632719,0.8382201719015836,2.5440688133239746,-1.5234254598617554,2.155594825744629
1783196954777086700,6.602086669921875,2.149438087286055,4.259544281136989,1.6172779607385397,2.4535157680511475,-1.6303499937057495,2.2094428539276123
1783196954787023600,6.612023681640625,1.898665629389882,4.677124965563416,2.255250285583734,2.3233742713928223,-1.7077409029006958,2.2407236099243164
1783196954796961500,6.62196142578125,1.5475573587805032,5.023347802218795,2.7123832281976936,2.170963287353516,-1.6939582824707031,2.2499265670776367
1783196954806898700,6.631898681640625,1.1614259978458286,5.367299771332741,3.167416568183899,2.0173497200012207,-1.5507915019989014,2.225318431854248
1783196954816835600,6.641835693359375,0.8249898111894727,5.623154939320683,3.612333003303408,1.8782086372375488,-1.3415509462356567,2.207203149795532
1783196954826773800,6.651773681640625,0.5923635430976748,5.8605041442811485,3.954274217116832,1.7950223684310913,-1.1225982904434204,2.1857733726501465
1783196954836710700,6.661710693359375,0.3123825263738632,5.994663023880124,4.038646444761753,1.7790263891220093,-0.9366335272789,2.14675235748291
1783196954846647800,6.671647705078125,0.0868541075885295,6.011618250334262,3.939312794828415,1.81363046169281,-0.7752081155776978,2.077258586883545
1783196954856585700,6.681585693359375,-0.0275131530866026,5.944882801666855,3.9081437495827673,1.856800198554993,-0.6495392918586731,1.9990675449371336
1783196954866522600,6.691522705078125,-0.1006105380013585,5.863825982180237,3.9912347052454944,1.863801121711731,-0.5690590739250183,1.9115070104599
1783196954876460000,6.7014599609375,-0.279164293513447,5.777284009280801,4.197186901423335,1.794957399368286,-0.544136643409729,1.7997900247573853
1783196954886397200,6.711397216796875,-0.533744180868566,5.666098593512177,4.517649273878336,1.636566996574402,-0.5451409220695496,1.6577751636505127
1783196954896335000,6.721335205078125,-0.6891685513362288,5.537775580459833,4.9317608208894725,1.3864325284957886,-0.5190809369087219,1.4945271015167236
1783196954906272300,6.731272216796875,-0.7384301565028727,5.365706364661455,5.269989736181497,1.0845781564712524,-0.461320698261261,1.3333312273025513
1783196954916209000,6.741208984375,-0.8006604027055203,5.276925088402629,5.466243545165658,0.7752060890197754,-0.4111362099647522,1.1726065874099731
1783196954926147000,6.75114697265625,-0.9054933807075024,5.248450689068436,5.444947074636817,0.4880827367305755,-0.3771713078022003,1.0147042274475098
1783196954936084000,6.761083984375,-1.0106605590999125,5.20851556904316,5.362479803830385,0.2313650101423263,-0.3550334572792053,0.8540265560150146
1783196954946021000,6.771021240234375,-1.16672907269001,5.227242481344938,5.29715772909224,-0.0011625094339251,-0.3459558188915252,0.6760818958282471
1783196954955959000,6.780958984375,-1.353408997642994,5.339629674118757,5.3482817671298974,-0.2130574584007263,-0.3398301005363464,0.4802807569503784
1783196954965896200,6.790896240234375,-1.513088687467575,5.502725309866666,5.438862201765179,-0.3897249102592468,-0.3125172555446625,0.2778184711933136
1783196954975833000,6.8008330078125,-1.7122893635585903,5.589469527339935,5.47972320446372,-0.5273803472518921,-0.2635723352432251,0.0714222192764282
1783196954985770000,6.81077001953125,-1.8668951111197472,5.499284814023971,5.530092624741792,-0.6384349465370178,-0.1615402102470398,-0.1397816389799118
1783196954995708000,6.8207080078125,-2.0371775896318254,5.347472204312682,5.6546092312484975,-0.7352449297904968,0.0052724974229931,-0.3552278578281402
1783196955005645000,6.83064501953125,-2.2098805732890963,5.216475588136911,5.843372976738214,-0.8418430089950562,0.2117966413497924,-0.570016086101532
1783196955015582200,6.840582275390625,-2.3528084502771494,5.0477685422480105,6.036613575381041,-0.9550676345825196,0.412353903055191,-0.7723255753517151
1783196955025520000,6.85052001953125,-2.364455048929155,4.892687286129593,6.163925365564227,-1.0737003087997437,0.6011384725570679,-0.923120141029358
1783196955035457000,6.86045703125,-2.1127664991013706,4.765709257945418,6.226641641718149,-1.2036041021347046,0.7472400665283203,-1.0286332368850708
1783196955045394200,6.870394287109375,-1.8986350881211456,4.788097615364194,6.199712718260288,-1.359295129776001,0.8368216156959534,-1.073282241821289
1783196955055331000,6.8803310546875,-1.7048763108231126,4.930585931891202,6.181528826794028,-1.532959222793579,0.9163895845413208,-1.0870579481124878
1783196955065269000,6.89026904296875,-1.5530403202362355,5.132946825578808,6.157105748677253,-1.709728479385376,1.029267191886902,-1.103052020072937
1783196955075206100,6.9002060546875,-1.5190245072573425,5.40060933573842,6.173433783143758,-1.843926191329956,1.2067190408706665,-1.2030068635940552
1783196955085143000,6.91014306640625,-1.7291202329806985,5.5734092038989065,6.134385382825136,-1.91278338432312,1.4285435676574707,-1.406030297279358
1783196955095081200,6.920081298828125,-1.8141668527558448,5.575485425651073,6.063018767225742,-1.913835883140564,1.7019035816192627,-1.658103108406067
1783196955105018000,6.93001806640625,-1.7004893279105424,5.478589816519618,6.029376609864831,-1.875793933868408,1.997531771659851,-1.9637492895126345
1783196955114955300,6.939955322265625,-1.5516910975843667,5.325967059469223,5.865825047042965,-1.8480597734451292,2.2403523921966557,-2.256953716278076
1783196955124893200,6.94989306640625,-1.1662819134443998,5.036476748383045,5.442785512688756,-1.8342465162277224,2.3824267387390137,-2.459991931915283
1783196955134830000,6.959830078125,-0.3048696665257215,4.630613389757276,4.809342063444853,-1.85027289390564,2.4559340476989746,-2.46036696434021
1783196955144767000,6.96976708984375,1.2520610852777958,4.130295969933271,4.048959164461493,-1.9115381240844729,2.487661600112915,-2.3750789165496826
1783196955154704100,6.9797041015625,2.3678885305091737,3.6929637063324448,2.852344656595588,-2.0036301612854004,2.451740264892578,-2.324789524078369
1783196955164642000,6.98964208984375,2.4355089453175665,3.383499697753787,1.3490864582687616,-2.12642765045166,2.367955207824707,-2.306280851364136
1783196955174579200,6.9995791015625,2.413184008523822,3.099364191699028,0.158777188026905,-2.264113187789917,2.304487943649292,-2.32904052734375
1783196955184516000,7.00951611328125,2.403218494826555,2.9205174445897337,-0.5875701713413,-2.3653340339660645,2.244154453277588,-2.4193406105041504
1783196955194454000,7.0194541015625,2.206127796626836,2.5738228987693783,-1.3444798412561416,-2.3744864463806152,2.189089775085449,-2.5343568325042725
1783196955204391000,7.029390869140625,2.3251303158871828,2.0036977832257747,-1.9048989708215,-2.3022756576538086,2.107811689376831,-2.615519762039185
1783196955214328000,7.039328125,2.6287776010110973,1.4195955802559852,-2.495107673972845,-2.164280652999878,2.029060125350952,-2.674882173538208
1783196955224265200,7.04926513671875,2.7811931450515983,0.7527636561512947,-3.211325852537155,-2.0097289085388184,1.941847801208496,-2.682821750640869
1783196955234203100,7.059203125,3.1410347572147845,0.1034884315252304,-3.973723013952374,-1.886316537857056,1.85496187210083,-2.6493072509765625
1783196955244140000,7.06914013671875,3.456896650137007,-0.2676779999896884,-4.803840543419122,-1.8187545537948608,1.7849905490875244,-2.612025022506714
1783196955254077000,7.079076904296875,3.671016078418493,-0.3534221005097031,-5.45316545240581,-1.8304475545883176,1.718845248222351,-2.613442897796631
1783196955264014800,7.089014892578125,4.066377624513208,-0.5840422894760966,-5.898244384610653,-1.889084815979004,1.6122580766677856,-2.6060950756073
1783196955273952000,7.098951904296875,4.69153518370986,-1.2065925887838005,-6.481986522096396,-1.9794288873672483,1.5136735439300537,-2.481242418289185
1783196955283889200,7.10888916015625,5.246800583773851,-2.0181798975646497,-7.015116662719845,-1.9858686923980715,1.412794589996338,-2.3012824058532715
1783196955293827000,7.1188271484375,5.479243896514177,-2.808363183788955,-7.726461682289838,-1.844122290611267,1.2198361158370972,-2.0818145275115967
1783196955303764200,7.12876416015625,5.685130041718483,-3.248921715959906,-8.757982658588885,-1.622681975364685,1.006840705871582,-1.816680908203125
1783196955313701000,7.138701171875,5.669667684170603,-3.2580805894494054,-9.310517756906153,-1.368465781211853,0.7937034368515015,-1.6067150831222534
1783196955323638000,7.148637939453125,5.303768087142705,-3.3282851755321023,-9.310044294175505,-1.139717936515808,0.5595282316207886,-1.4849205017089844
1783196955333576000,7.158575927734375,4.767458147439361,-3.55761123303473,-9.002792116427422,-0.971392810344696,0.3545637428760528,-1.4039714336395264
1783196955343513000,7.16851318359375,4.4150458084940905,-3.837466869813204,-8.614560860604048,-0.8451507091522217,0.1826399117708206,-1.3017035722732544
1783196955353450000,7.178449951171875,4.357867877244949,-4.245446489940584,-8.25438490191996,-0.7171478271484375,0.0200499109923839,-1.1498723030090332
1783196955363388200,7.18838818359375,4.400968767824769,-4.674665881973505,-8.050302591267227,-0.5402652025222778,-0.1327755898237228,-0.942410945892334
1783196955373325000,7.198324951171875,4.423671598020196,-4.902464583778381,-8.03375302300453,-0.3269502222537994,-0.1794914305210113,-0.7164933681488037
1783196955383262200,7.20826220703125,4.484226312226057,-4.859855276107788,-7.871914109319448,-0.0898713767528534,-0.1807154268026352,-0.4873414039611816
1783196955393198800,7.21819873046875,4.561871861964464,-4.733285828724504,-7.65946670590341,0.1618457734584808,-0.2222522944211959,-0.2415364980697631
1783196955403137000,7.228136962890625,4.58450279596746,-4.783735620762408,-7.519401817131042,0.3965019583702087,-0.333446204662323,0.0418675206601619
1783196955413074000,7.238073974609375,4.686982342711091,-4.799392331838607,-7.486290990167856,0.6097065806388855,-0.5187467932701111,0.3020630776882171
1783196955423011000,7.248010986328125,4.649073760077357,-4.583626889915764,-7.375489605280756,0.8002608418464661,-0.6752532720565796,0.4823074340820312
1783196955432949000,7.257948974609375,4.455863556572795,-4.171995177021622,-6.976248879665136,0.9673426747322084,-0.7885208129882812,0.5917820930480957
1783196955442886100,7.26788623046875,4.357090463131666,-3.613990999643504,-6.572711918160319,1.114448308944702,-0.9061329364776612,0.6799817085266113
1783196955452823000,7.277822998046875,4.363448307725787,-3.1503429760470985,-6.364127035391331,1.2712589502334597,-1.0137540102005005,0.773856520652771
1783196955462760000,7.287760009765625,4.328854256467521,-2.907990263710916,-6.156406660497188,1.43686044216156,-1.1130496263504028,0.8816791772842407
1783196955472697900,7.29769775390625,4.335480104348063,-2.716177359783649,-5.834024133634567,1.605035424232483,-1.191428303718567,1.0189646482467651
1783196955482635000,7.307635009765625,4.368206315907836,-2.3943688334167,-5.417497342175245,1.7423152923583984,-1.208457112312317,1.1589592695236206
1783196955492572200,7.317572265625,4.260612202629447,-1.86540779517144,-4.904823714125156,1.849416732788086,-1.1606385707855225,1.2893545627593994
1783196955502510000,7.327510009765625,4.088822388294339,-1.2444471031427382,-4.4818712735325095,1.972999691963196,-1.095677137374878,1.4123566150665283
1783196955512447200,7.337447265625,3.936705534939468,-0.7357818339511751,-4.13930520581901,2.1197822093963623,-0.9995261430740356,1.5369868278503418
1783196955522384100,7.347384033203125,3.625628538206219,-0.2379369417205452,-3.742001585745811,2.274722099304199,-0.8803358674049377,1.6475982666015625
1783196955532321000,7.357321044921875,3.4364971284478902,0.3843886089205742,-3.322184520569444,2.4286811351776123,-0.7457177042961121,1.775559902191162
1783196955542259000,7.367259033203125,3.4731945817261933,0.9112634885415434,-3.043264703336358,2.5536606311798096,-0.6480675935745239,1.901106357574463
1783196955552196000,7.377196044921875,3.375375720269978,1.319909463623166,-2.948790183871984,2.6345467567443848,-0.6276770830154419,2.0006115436553955
1783196955562133000,7.387133056640625,3.313971988019347,1.842059945070744,-2.773914678481221,2.685669422149658,-0.6558469533920288,2.106355905532837
1783196955572071200,7.3970712890625,3.241835557091236,2.324794946452976,-2.4583365709364413,2.7355098724365234,-0.6905667185783386,2.2127132415771484
1783196955582008000,7.407008056640625,3.1202772158682346,2.68394916087389,-1.954740567833185,2.7743072509765625,-0.6967678666114807,2.3360531330108643
1783196955591945200,7.4169453125,3.0771620045021173,3.0822429610282183,-1.3114268819600343,2.80213475227356,-0.6823108196258545,2.5036795139312744
1783196955601881900,7.4268818359375,3.325722631567716,3.487490233582258,-0.79604048781991,2.807947874069214,-0.669497549533844,2.700453996658325
1783196955611820000,7.436820068359375,3.516172138187289,3.7628520660728215,-0.4239858752936125,2.7728939056396484,-0.6679823994636536,2.8966336250305176
1783196955621757000,7.4467568359375,3.5737013670921325,4.111327065569162,-0.0941483562499284,2.670495748519897,-0.7444745302200317,3.0388028621673584
1783196955631694000,7.456694091796875,2.986486292798817,4.609357251238823,-0.0005599719703197,2.555920124053955,-0.8656324744224548,3.10988187789917
1783196955641631200,7.46663134765625,2.217003264775872,5.169113532981276,0.0798579650908708,2.504045963287353,-0.935642957687378,3.0999107360839844
1783196955651569200,7.476569091796875,1.5974384110197424,5.677968479526043,0.2938514289051294,2.5239250659942627,-0.9305539131164552,2.996812582015991
1783196955661506000,7.486506103515625,0.9957637264803052,6.178644211268424,0.808825150591135,2.560270071029663,-0.862942099571228,2.830860376358032
1783196955671443000,7.49644287109375,0.5198495110288263,6.387800171923637,1.4973112726211546,2.5637316703796387,-0.7792128324508667,2.656512975692749
1783196955681380000,7.506380126953125,0.1786362826963886,6.251815245941281,2.164012848344445,2.504612445831299,-0.7003201842308044,2.5217325687408447
1783196955691318000,7.516318115234375,-0.0735603445176966,5.998408055627346,2.7965760076224804,2.370298385620117,-0.6701369285583496,2.438563823699951
1783196955701255200,7.526255126953125,-0.3001937836691737,5.770163948142528,3.2524645031332966,2.1777939796447754,-0.6274768710136414,2.340378999710083
1783196955711192000,7.536192138671875,-0.5196075189664959,5.692103387862444,3.721047060522437,1.9320659637451167,-0.6238123774528503,2.21437668800354
1783196955721130200,7.546130126953125,-0.8268322241857647,5.804454340279102,4.116252831533551,1.668956279754639,-0.6711745262145996,2.0429470539093018
1783196955731067100,7.556067138671875,-1.1557856538712978,5.815988710728288,4.273799016460776,1.4193164110183716,-0.712138295173645,1.834343194961548
1783196955741004000,7.566004150390625,-1.4753794267982243,5.814962874811887,4.396554166252911,1.1790344715118408,-0.7076314091682434,1.606593132019043
1783196955750941000,7.57594091796875,-1.7834575339764356,5.813925932979584,4.511288506674767,0.9557454586029052,-0.6312131881713867,1.3744332790374756
1783196955760879000,7.585879150390625,-2.10502260697633,5.768068437168002,4.669178390473127,0.7616790533065796,-0.524124264717102,1.1340075731277466
1783196955770816000,7.59581591796875,-2.4090420864135025,5.720665465480089,4.742855621102452,0.611412525177002,-0.4501142501831054,0.8952528238296509
1783196955780753200,7.605753173828125,-2.661305367389321,5.677608414041996,4.698693238770962,0.4986558556556701,-0.4069838225841522,0.675720751285553
1783196955790690300,7.615690185546875,-2.6975945321276784,5.61475009906888,4.67853424783945,0.4241757988929748,-0.3686418235301971,0.4840874671936035
1783196955800628200,7.625628173828125,-2.676031811878085,5.5206783151865,4.774933597886562,0.3586961030960083,-0.3205507397651672,0.3108482956886291
1783196955810565000,7.635565185546875,-2.6588264100551604,5.469314038652182,4.913429045385122,0.272084504365921,-0.2637766003608703,0.1676356792449951
1783196955820502000,7.645501953125,-2.630385620729625,5.4492497402668,5.110395386552811,0.1398202031850814,-0.1818761378526687,0.0516816452145576
1783196955830439200,7.655439208984375,-2.6748756275802847,5.430668958437442,5.319328059846162,-0.0293578281998634,-0.1178098022937774,-0.0222264286130666
1783196955840377000,7.665377197265625,-2.792505689443648,5.32474073254466,5.380681815475225,-0.2290906459093094,-0.0719211399555206,-0.1112148910760879
1783196955850314200,7.675314208984375,-3.283348593957722,5.251081037572026,5.422312633502483,-0.4319773018360138,0.0110689606517553,-0.2608872056007385
1783196955860251100,7.685251220703125,-3.876668414866924,5.388534867063164,5.479083737516403,-0.6191626191139221,0.1604131758213043,-0.4750397205352783
1783196955870188000,7.69518798828125,-4.289996118023991,5.569612149703502,5.4983203529059885,-0.7554407119750977,0.3509090542793274,-0.724995493888855
1783196955880126200,7.705126220703125,-4.37902610834688,5.617133779335021,5.513275929975509,-0.8568519949913025,0.5335456728935242,-0.97307026386261
1783196955890063000,7.71506298828125,-4.326605308496952,5.57125757882297,5.601018510836362,-0.923696517944336,0.6867496371269226,-1.1667639017105105
1783196955900000000,7.725,-4.136652645483613,5.485107820111513,5.760532196444273,-0.97756826877594,0.7947160005569458,-1.2943516969680786
1783196955909937200,7.734937255859375,-3.906346929293871,5.3863838265091175,5.996008593270182,-1.056528091430664,0.9362169504165648,-1.4116966724395752
1783196955919875000,7.744875,-3.845662743489444,5.3767210951507085,6.337201619064808,-1.1565556526184082,1.1036347150802612,-1.543046951293945
1783196955929812200,7.754812255859375,-3.6134590847238894,5.413083617386222,6.55969169306755,-1.2850357294082642,1.227949142456055,-1.6626020669937134
1783196955939749000,7.7647490234375,-3.218748696014285,5.466087477821112,6.684177319914102,-1.4339346885681152,1.338064193725586,-1.829543709754944
1783196955949686000,7.77468603515625,-3.004668430699408,5.443659957435727,6.759346834927797,-1.5706026554107666,1.4313619136810305,-2.0525920391082764
1783196955959623200,7.784623046875,-2.588779060360789,5.303357168254256,6.6816621222227806,-1.6922463178634644,1.4837682247161863,-2.275557518005371
1783196955969561000,7.79456103515625,-2.004771842198074,5.1121302475214,6.511430058723688,-1.7385504245758057,1.3759584426879885,-2.4881770610809326
1783196955979498200,7.804498291015625,-1.7021674902558326,4.88573790538311,5.946582006800174,-1.8196191787719729,1.234686255455017,-2.567438125610352
1783196955989435100,7.81443505859375,-0.6184633222550153,4.93967290918827,6.230785317394137,-2.0380146503448486,1.2512654066085815,-2.554309129714966
1783196955999372300,7.824372314453125,0.0188002697989344,5.025788765630126,6.318830680593848,-2.357163190841675,1.4072445631027222,-2.5886521339416504
1783196956009310200,7.834310302734375,-0.1568340911351144,5.22677252574563,5.7228813879638905,-2.74631929397583,1.587267279624939,-2.7193844318389893
1783196956019247000,7.8442470703125,-0.3170946495875716,5.609131674665212,5.087857391530275,-3.1392312049865723,1.7435157299041748,-2.9602761268615723
1783196956029184000,7.85418408203125,-0.0961271089769899,5.792500867635011,4.271878862053156,-3.5249359607696533,1.8667594194412231,-3.28729248046875
1783196956039121200,7.86412109375,0.7781649316504597,5.803415644881129,3.211217715987563,-3.90205454826355,1.9198520183563232,-3.5908377170562744
1783196956049059000,7.87405908203125,2.0067454803586005,5.655438667809963,1.9094313535541292,-4.1149067878723145,1.8420273065567017,-3.72968864440918
1783196956058996200,7.883996337890625,3.016553514282405,5.102838687562942,0.5554243900179863,-4.135157585144043,1.6527957916259766,-3.651426315307617
1783196956068933400,7.893933349609375,3.931390477396548,4.6051948708623645,-0.8100567382127046,-4.049038410186768,1.4158775806427002,-3.417111158370972
1783196956078870000,7.9038701171875,4.677395014676452,4.511595965188741,-2.3287480679929256,-3.9337234497070312,1.345741629600525,-3.176788568496704
1783196956088807200,7.91380712890625,5.178589801856875,4.49137180006653,-3.3507401684463023,-3.824870586395264,1.415886402130127,-3.071892023086548
1783196956098745000,7.9237451171875,5.34158314627409,4.026489266239106,-4.091268612402677,-3.667526006698608,1.429494857788086,-3.033820629119873
1783196956108682200,7.93368212890625,5.322920531380176,3.121183809319138,-4.828953357365728,-3.520164966583252,1.39287006855011,-2.9597151279449463
1783196956118619100,7.943619140625,5.640307149651647,2.3577725024253127,-5.567666276332735,-3.408064603805542,1.3218294382095337,-2.817803144454956
1783196956128556300,7.953556396484375,6.006527064675092,1.782934386885166,-6.528963377326726,-3.2779018878936768,1.2275227308273315,-2.6164534091949463
1783196956138494200,7.963494140625,6.131900580272078,1.299306820577383,-7.352298114785552,-3.086428165435791,1.1439743041992188,-2.3774638175964355
1783196956148431000,7.97343115234375,6.010707565230131,0.8914949582323431,-7.915724024951458,-2.843153715133667,1.1412596702575684,-2.1856882572174072
