time,seconds_elapsed,ax,ay,az,gx,gy,gz
1783202881976555500,0.096555419921875,-0.5196614411108196,-0.7026974566034973,-0.4201946663171053,-0.1321917325258255,-0.0244431570172309,-0.0759071707725524
1783202881986492700,0.10649267578125,-0.6678069066166877,-1.1314178130730983,-0.7310410691648721,-0.0880220457911491,0.0066196708939969,-0.0866514518857002
1783202881996429600,0.1164296875,-0.8149562006920575,-1.3129843405351045,-1.0426415052503346,-0.0134506067261099,-0.1246198341250419,-0.1164463609457016
1783202882006367700,0.12636767578125,-0.9491140573777258,-1.206141922406852,-1.717217175349593,0.077952817082405,-0.3302006125450134,-0.1952516883611679
1783202882016304600,0.1363046875,-0.9682666477456688,-1.0819871349498629,-2.353237197083234,0.1763496994972229,-0.4434022903442383,-0.2809639275074005
1783202882026241800,0.14624169921875,-1.004185225605965,-1.0648137357003986,-2.8622224920094013,0.2498763352632522,-0.3879865407943725,-0.3454858064651489
1783202882036179700,0.1561796875,-0.953235521221906,-1.2840553293012082,-3.4409441709846256,0.3225281536579132,-0.2958028316497803,-0.3461366593837738
1783202882046116600,0.16611669921875,-0.8950241552717983,-1.764471824607998,-4.694878064396977,0.4145792722702026,-0.2559620141983032,-0.2928898334503174
1783202882056053800,0.1760537109375,-0.9486322652101516,-2.44308946357444,-6.307203371164202,0.5189917087554932,-0.1017721816897392,-0.2531975507736206
1783202882065991700,0.18599169921875,-0.8895932162642478,-2.9076383815333244,-7.342035079446434,0.6135279536247253,0.4579255580902099,-0.2659730911254883
1783202882075928600,0.195928466796875,-0.9323299497067928,-3.199248168991506,-7.226912324228882,0.6369115710258484,1.140852689743042,-0.3407250940799713
1783202882085865700,0.20586572265625,-0.7222483986392617,-3.350850643083453,-7.659806313121319,0.740168035030365,1.124804139137268,-0.5358736515045166
1783202882095803600,0.2158037109375,-0.3592616203181445,-2.864991956722736,-10.45831942628622,0.970355987548828,1.0049653053283691,-0.7150095701217651
1783202882105740800,0.22574072265625,0.0736124217648059,-2.7789289995118973,-11.24919157155752,1.3320062160491943,1.313499927520752,-0.7518842816352844
1783202882115677700,0.235677734375,0.522270600695908,-2.59524007306844,-10.551610288923978,1.8114750385284424,1.694409728050232,-0.666950523853302
1783202882125615600,0.24561572265625,0.3784192521873861,-1.7321800589427352,-10.357269620084764,2.38783597946167,2.0137829780578613,-0.4983013868331909
1783202882135552800,0.255552734375,0.1586327380549162,-0.8872402233973145,-9.717667063689232,2.9980759620666504,2.2072339057922363,-0.2659744024276733
1783202882145490700,0.26549072265625,0.0388078695610165,-0.334554026171565,-8.607647135692835,3.5795841217041016,2.1638998985290527,-0.066791333258152
1783202882155427600,0.275427490234375,-0.3159800394091755,0.2726578342288732,-7.477344298124313,4.059874057769775,1.9783393144607544,0.018087076023221
1783202882165364700,0.28536474609375,-0.7585665702763944,0.9164140031725168,-6.074376612064242,4.424572467803955,1.742803931236267,0.008906215429306
1783202882175302700,0.295302734375,-1.067302629906684,1.4905474775746463,-4.605347431075573,4.678296089172363,1.5075479745864868,-0.047253992408514
1783202882185239600,0.305239501953125,-1.23431675427258,2.0061276407212016,-3.1835125474601984,4.798525810241699,1.310497164726257,-0.1096654459834098
1783202882195176700,0.3151767578125,-1.402506790550053,2.6393630001723767,-1.772186198377609,4.763458728790283,1.2132315635681152,-0.1926620602607727
1783202882205114600,0.325114501953125,-1.6612006890952586,3.4386148512542247,-0.3374228596061468,4.578373432159424,1.2479933500289917,-0.2851179838180542
1783202882215051800,0.3350517578125,-1.8461193034641443,4.154634876897931,1.0782108312815428,4.27614688873291,1.3442139625549316,-0.3725932240486145
1783202882224988700,0.34498876953125,-1.9549746688500045,4.738894900777936,2.1018366704165934,3.887128353118897,1.404541254043579,-0.4344447255134582
1783202882234926600,0.354926513671875,-1.9501628846541048,5.04894401576817,2.781547949838638,3.436542272567749,1.4676162004470823,-0.4384322762489319
1783202882244863700,0.36486376953125,-1.8928611808948217,5.195010190781951,3.5720810724139214,2.989450454711914,1.492611527442932,-0.3970262706279754
1783202882254800600,0.374800537109375,-1.8436083435565231,5.396341741421819,4.287194504606724,2.588705539703369,1.4672858715057373,-0.3525325655937195
1783202882264738600,0.384738525390625,-1.7967787878423929,5.762156582775711,4.854290627717972,2.243320941925049,1.4063280820846558,-0.3240044713020324
1783202882274675700,0.39467578125,-1.7831645423792302,6.11481266734898,5.341142416769266,1.9510345458984373,1.317833662033081,-0.2831161618232727
1783202882284613600,0.404613525390625,-1.7820969131477176,6.3093713628530494,5.836846205317974,1.6991188526153564,1.1818878650665283,-0.2534421384334564
1783202882294550800,0.41455078125,-1.826391397426277,6.593219284138083,6.315408304929733,1.4870052337646484,1.059406876564026,-0.2602145373821258
1783202882304487700,0.42448779296875,-1.9097966797351835,6.900780089443922,6.906152430132031,1.2703206539154053,0.9601670503616332,-0.2970855236053467
1783202882314425600,0.434425537109375,-2.022094294529408,7.2433572630733245,7.470379135286808,1.000287652015686,0.8661127090454102,-0.3569621741771698
1783202882324362800,0.44436279296875,-1.9401430104210973,7.58320822660923,7.857501553085446,0.7468318939208984,0.8976424932479858,-0.3999489545822143
1783202882334299600,0.454299560546875,-1.4004774766795336,7.7040148726820945,8.384151099517942,0.4201201200485229,0.7585898041725159,-0.4139710366725921
1783202882344237600,0.464237548828125,-1.3762414455674588,7.849614014706015,8.41233440695107,0.0649405121803283,0.6246196031570435,-0.389026790857315
1783202882354174700,0.4741748046875,-0.95554511333853,7.7941861419945955,8.73602450928092,-0.2707975506782532,0.5115433931350708,-0.3332458138465881
1783202882364111600,0.484111572265625,-0.7384916774317621,7.984838477709889,8.93274359768927,-0.5525563359260559,0.4123317301273346,-0.2735530138015747
1783202882374049500,0.494049560546875,-0.8337408345304429,8.282541905868053,8.985805910313129,-0.8076010942459106,0.3228700459003448,-0.1978497356176376
1783202882383986700,0.503986572265625,-0.8515694828182458,8.362313946241139,9.132426212078332,-1.0738675594329834,0.1586945950984954,-0.0946613475680351
1783202882393923800,0.513923828125,-0.926312150721997,8.414827392810583,9.200341810441016,-1.406018614768982,-0.1077991500496864,0.005888960789889
1783202882403861800,0.52386181640625,-1.1199152990669012,8.46016817127168,9.313342751199006,-1.811035752296448,-0.4364674389362335,0.094646967947483
1783202882413798700,0.533798583984375,-1.3150911035560071,8.398053952664137,9.484218373298644,-2.2327921390533447,-0.8169096112251282,0.1846695244312286
1783202882423735600,0.543735595703125,-1.529437472461164,8.359164542299508,9.459436398741602,-2.6031031608581543,-1.2307710647583008,0.2705779075622558
1783202882433673700,0.553673828125,-1.7981988837733864,8.448442077642678,9.229995190426706,-2.910650491714477,-1.6099519729614258,0.3471206128597259
1783202882443610600,0.563610595703125,-2.0265457209803164,8.485371001589298,9.018732612881063,-3.1856589317321777,-1.90966272354126,0.4187641143798828
1783202882453548500,0.573548583984375,-2.2744356091775,8.59475082924068,8.813350910067557,-3.451591968536377,-2.144796848297119,0.4915770590305328
1783202882463485700,0.583485595703125,-2.519795540505648,8.726278191292286,8.518695763564109,-3.750555038452149,-2.399529933929444,0.5616915822029114
1783202882473422800,0.5934228515625,-2.846870024576783,8.990514818656443,8.081580942106246,-4.131754398345947,-2.6727230548858643,0.622760534286499
1783202882483360800,0.60336083984375,-3.075238050702214,9.173775290554762,7.612573437303304,-4.626641273498535,-3.032891273498535,0.6987314820289612
1783202882493297700,0.613297607421875,-3.4049633415430782,8.90443286448419,6.632947483414411,-5.112864017486572,-3.437668800354004,0.713162899017334
1783202882503234600,0.623234619140625,-4.301836485682427,8.410937984156607,4.696436984276772,-5.482523441314697,-3.942259788513184,0.605185329914093
1783202882513172700,0.6331728515625,-5.254231026035547,7.528242126190662,1.9112907176852223,-5.707245349884033,-4.288113594055176,0.4355509877204895
1783202882523109600,0.643109619140625,-5.41978165372014,6.425829166066646,-1.232565526691079,-5.824733734130859,-4.378576755523682,0.3343384861946106
1783202882533046800,0.653046875,-4.764423309788108,5.476332392981648,-4.770893967106938,-5.906599998474121,-4.094173908233643,0.4291845560073852
1783202882542984700,0.662984619140625,-3.123560767583549,4.287908498094976,-8.310942070922255,-6.714747428894043,-3.2949798107147217,0.6403152346611023
1783202882552921900,0.672921875,-1.7989526247501373,2.983412876702845,-10.239698887193205,-6.993746757507324,-2.19596529006958,0.7193237543106079
1783202882562859800,0.68285986328125,-1.6130561052598058,2.215343514870107,-14.510805011308191,-6.704253196716309,-1.2934483289718628,0.6868646740913391
1783202882572796700,0.692796630859375,-1.1730845791965725,0.539456713296473,-19.3822665540576,-6.303084850311279,-0.3428660333156585,0.6024214625358582
1783202882582733600,0.702733642578125,-0.7318040163613856,-1.414525145123899,-21.46134544922113,-6.111137866973877,0.7765123844146729,0.3967789709568023
1783202882592671700,0.712671630859375,-0.6430944901645184,-2.7515333353251217,-22.57802308154106,-5.46536922454834,1.7214282751083374,0.1540786921977996
1783202882602608600,0.722608642578125,-0.0506979215800762,-4.311337012216448,-24.23092472884655,-4.385183334350586,2.371909618377685,-0.1152860671281814
1783202882612545800,0.7325458984375,0.6340042979970574,-5.21776504342556,-24.75329089887142,-3.4164235591888428,2.8026673793792725,-0.2595769464969635
1783202882622483700,0.742483642578125,1.8397279949918388,-6.068837682637572,-23.03873622072935,-2.373274564743042,2.845614433288574,-0.1985220164060592
1783202882632420900,0.7524208984375,3.085243311887979,-6.885500687247514,-21.34577611927986,-1.16155207157135,2.5661520957946777,-0.0173623412847518
1783202882642357500,0.762357421875,3.632287411573529,-6.686236590531468,-19.259273796117306,-0.0625086203217506,2.1749167442321777,0.2491771429777145
1783202882652295700,0.772295654296875,3.693707510437071,-6.053060852313041,-16.040924328553675,0.9510952830314636,1.6717791557312012,0.5876886248588562
1783202882662232300,0.782232421875,3.384891736634076,-5.427426030993462,-13.102883502233029,1.9998013973236084,1.1270360946655271,0.8467280864715576
1783202882672170500,0.79217041015625,2.325317655152827,-4.211927082176507,-10.627823760032651,2.9643399715423584,0.6210013628005981,0.9864708185195924
1783202882682107400,0.802107421875,1.1182715504478662,-2.988127922526002,-8.070864317780732,3.670056581497192,0.2102421373128891,1.0561703443527222
1783202882692044500,0.81204443359375,0.2250064955367706,-2.030762461892515,-5.344300588539243,4.064319610595703,-0.1011365205049514,1.0464801788330078
1783202882701982500,0.821982421875,-0.5095328458063304,-0.9849647576335816,-2.8289965142339466,4.165550231933594,-0.2932522892951965,0.9561535120010376
1783202882711919600,0.831919677734375,-1.1137412866070866,0.0162098149143159,-0.6591705956965684,4.047550201416016,-0.319402128458023,0.7900964021682739
1783202882721856500,0.8418564453125,-1.6687309384696185,0.9259862797684968,1.1732079133152962,3.789715051651001,-0.2279464155435562,0.6017957925796509
1783202882731794700,0.851794677734375,-1.9870380325868724,1.608534097790718,2.5579478687673807,3.4704854488372803,-0.1103076636791229,0.4456075727939605
1783202882741731300,0.8617314453125,-2.0923894815050064,2.143195978026092,3.554538401460648,3.118765354156494,0.0043451283127069,0.3229085206985473
1783202882751668500,0.87166845703125,-2.126860783166438,2.6548949158251283,4.367296215325593,2.69696044921875,0.1172066926956176,0.2352678924798965
1783202882761606400,0.8816064453125,-2.11067800238952,3.023473668934405,5.170805139330029,2.199200391769409,0.2047925144433975,0.1606659144163131
1783202882771543600,0.89154345703125,-2.0936896043181417,3.2743396503329274,5.8221939951092,1.6762200593948364,0.2830436527729034,0.0794277861714363
1783202882781481500,0.9014814453125,-2.1267000396467743,3.472702998816967,6.269836640322208,1.2005083560943604,0.3431960046291351,-0.0052217771299183
1783202882791418600,0.911418701171875,-2.200978012648225,3.644767830701172,6.451609504011273,0.8351522088050842,0.3793782591819763,-0.0876977443695068
1783202882801355500,0.92135546875,-2.274001455543935,3.7124692017912864,6.425633351233601,0.5491124987602234,0.3527622818946838,-0.151474729180336
1783202882811293700,0.931293701171875,-2.290631687827408,3.633564884163439,6.376022640368342,0.2872640788555145,0.2606746852397918,-0.2014878243207931
1783202882821230300,0.941230224609375,-2.250943236039579,3.5891783376872537,6.401574430254102,0.0375074371695518,0.114452064037323,-0.2442534863948822
1783202882831167500,0.95116748046875,-2.2232389442950486,3.616398645307124,6.389391240507364,-0.1818161308765411,-0.0657592490315437,-0.2749115228652954
1783202882841105400,0.96110546875,-2.1386821538634595,3.656634794105589,6.281678469285368,-0.4144506752490997,-0.2924000024795532,-0.2912744879722595
1783202882851042600,0.97104248046875,-1.977096484287083,3.678660747952759,6.210833831733465,-0.7627609968185425,-0.4566222429275512,-0.3405650854110718
1783202882860980500,0.98098046875,-1.8902204571276904,3.6276477690741418,6.312917072635889,-1.116402506828308,-0.6031697988510132,-0.4166339337825775
1783202882870917600,0.990917724609375,-1.816578882333636,3.617047464604676,5.97935848724246,-1.5954524278640747,-0.598997950553894,-0.4869219660758972
1783202882880854500,1.0008544921875,-1.613937125878036,3.621532501064241,6.003616730186343,-1.9007248878479004,-0.6574995517730713,-0.4902063906192779
1783202882890792700,1.010792724609375,-1.1857258149091154,3.372476199436188,5.039372469824552,-2.135680675506592,-0.7536290287971497,-0.4338467121124267
1783202882900729300,1.020729248046875,-0.8165243267916142,3.1585663222521543,4.456473212903738,-2.362133026123047,-0.8492465615272522,-0.4036719501018524
1783202882910666500,1.03066650390625,-0.6217028886981308,3.03333952164948,3.8836575431019065,-2.611496925354004,-0.9102787375450134,-0.3532913327217102
1783202882920604400,1.0406044921875,-0.2912716050123796,2.58084212988168,3.3625364047020674,-2.884237289428711,-0.9444280862808228,-0.292985588312149
1783202882930541600,1.05054150390625,-0.0084142656672745,2.166511679422855,2.6695909651756287,-3.14597225189209,-0.9170353412628174,-0.2489081472158432
1783202882940479500,1.0604794921875,0.1115758763909339,1.8967770391643048,1.9316040223956108,-3.3903377056121826,-0.8484987616539001,-0.2398915737867355
1783202882950416600,1.070416748046875,0.1249750177986919,1.522121742620319,1.0991811385959387,-3.5775797367095947,-0.7739326357841492,-0.2585720419883728
1783202882960353500,1.080353515625,0.1829499446444213,0.9865494695417584,0.1031061542093753,-3.6982927322387695,-0.7280633449554443,-0.3234326839447021
1783202882970291700,1.090291748046875,0.0413397991914302,0.5891264608725905,-1.1193418830931186,-3.81149697303772,-0.68303382396698,-0.4621359705924988
1783202882980228400,1.100228271484375,-0.3691532650616019,0.2562102650359272,-2.465427405980229,-3.945321798324585,-0.6699656248092651,-0.6583043932914734
1783202882990165500,1.11016552734375,-0.7145861934483051,-0.4118263586834073,-4.196910422569513,-3.983832597732544,-0.705325722694397,-0.8922681212425232
1783202883000103400,1.120103515625,-0.6112901426900178,-1.31345838778764,-6.550308363172412,-3.774407148361206,-0.6619757413864136,-1.1214359998703003
1783202883010040600,1.13004052734375,-0.3077995824977755,-2.090612827221304,-9.104636287876962,-3.283966064453125,-0.5562149286270142,-1.2818692922592163
1783202883019978500,1.139978515625,0.0837003927979618,-2.700937120553851,-11.72450840563774,-2.533125638961792,-0.3938106000423431,-1.3799338340759275
1783202883029915600,1.14991552734375,0.6697989572167397,-2.94458279531002,-14.31731423729658,-1.6632333993911743,-0.2733174860477447,-1.3508057594299316
1783202883039852500,1.1598525390625,1.4917150600492954,-2.931893701867759,-16.74619090499282,-0.856285572052002,-0.0290171839296817,-1.1315388679504397
1783202883049790500,1.16979052734375,2.229603803151846,-2.724161928796768,-18.13384119493365,-0.0726429596543312,0.3527789413928985,-0.8190895915031433
1783202883059727400,1.179727294921875,2.445992491539568,-2.309405946402252,-19.01987116575837,0.788188636302948,0.7935042381286621,-0.5466667413711548
1783202883069664500,1.18966455078125,2.1996464717835185,-1.7364494068250058,-19.59656864542961,1.7328773736953735,1.3150383234024048,-0.3890206813812256
1783202883079602400,1.1996025390625,2.062323282934725,-1.2424766798526048,-19.380629892766475,2.7030978202819824,1.788832664489746,-0.2712169587612152
1783202883089539600,1.20953955078125,2.100751359397918,-0.9799154383547604,-18.555147037363053,3.634575843811035,2.1129016876220703,-0.1828324943780899
1783202883099477500,1.2194775390625,1.6920042620293796,-0.196536133056879,-17.166248208665845,4.431375980377197,2.2806897163391118,-0.0923845246434211
1783202883109414700,1.22941455078125,0.9785270527362824,1.0185599340476097,-15.275827260529994,5.03651762008667,2.264819383621216,0.0047430880367755
1783202883119351300,1.239351318359375,0.2781109485356137,2.290631687827408,-13.29476801009178,5.436472415924072,2.14414381980896,0.104251243174076
1783202883129289500,1.24928955078125,-0.2190286997688002,3.175917270025611,-11.37185699723959,5.667300701141357,2.077492475509644,0.1829420626163482
1783202883139226400,1.259226318359375,-0.7848213938649743,3.854722248257696,-9.508069789007305,5.762044429779053,2.0939059257507324,0.2159677743911743
1783202883149164500,1.26916455078125,-1.5333888404354452,4.524856721039116,-7.787021657192707,5.769762992858887,2.210911512374878,0.2015371620655059
1783202883159101400,1.279101318359375,-2.2459195626586674,5.017458159658313,-6.226958452582359,5.772083282470703,2.3532016277313232,0.1618667244911193
1783202883169038600,1.28903857421875,-2.814512061807513,5.517521896982193,-4.955279059121012,5.754553318023682,2.512545585632324,0.1371200978755951
1783202883178976500,1.2989765625,-3.0832039150148627,5.941436460605264,-3.591484861063957,5.71275520324707,2.627223014831543,0.1065031215548515
1783202883188913700,1.30891357421875,-3.221300134062767,6.476273405146598,-2.218463984978199,5.649810791015625,2.7077348232269287,0.1065049842000007
1783202883198850300,1.318850341796875,-3.2047359527528285,6.875701177766919,-0.8188619759589433,5.570737838745117,2.69624400138855,0.1308887302875518
1783202883208788500,1.32878857421875,-3.1894574273392555,7.209150457566976,0.4698948090314865,5.255281448364258,2.6572141647338867,0.1706731617450714
1783202883218725400,1.338725341796875,-3.1648002482056614,7.355555070754885,2.2550176458716398,4.833859443664551,2.590137004852295,0.1886715739965438
1783202883228663600,1.34866357421875,-3.304779212260246,7.421686708310246,3.6733705325901513,4.493034362792969,2.4316539764404297,0.1730777025222778
1783202883238600400,1.358600341796875,-3.46499490865767,7.625676079982519,4.391168089300394,4.211464405059815,2.230168342590332,0.1701877266168594
1783202883248537600,1.36853759765625,-3.499363334466517,7.69083624215722,5.240214191120863,3.948695421218872,1.9952856302261357,0.1920730471611023
1783202883258475500,1.3784755859375,-3.3246278220683334,7.731098694440722,6.01546557341218,3.6458449363708496,1.7646862268447876,0.2154570370912552
1783202883268412700,1.38841259765625,-3.150587306196988,7.749235824155807,6.854224674496054,3.3032119274139404,1.5241724252700806,0.228431686758995
1783202883278349300,1.398349365234375,-3.0330209572196005,7.730565025955438,7.596052510613203,2.923898220062256,1.2650032043457031,0.2351442128419876
1783202883288287500,1.40828759765625,-2.89801452088058,7.614981082966923,8.264352753704786,2.548757314682007,1.0039857625961304,0.222559168934822
1783202883298224400,1.418224365234375,-2.9005963540673254,7.648137502637505,8.823274922710656,2.1845405101776123,0.7154624462127686,0.1966483294963836
1783202883308162600,1.42816259765625,-2.8653774489089847,7.672292869728803,9.284190890994669,1.7871650457382202,0.4154965281486511,0.169704332947731
1783202883318099500,1.438099365234375,-2.68925515832752,7.543823726204037,9.702831313607096,1.3984307050704956,0.1029924750328064,0.1674012690782547
1783202883328036600,1.44803662109375,-2.455131345154345,7.474450914770364,9.846418531286716,1.0696851015090942,-0.2162246704101562,0.1713507324457168
1783202883337974500,1.457974609375,-2.209142906664312,7.53022248635292,9.725696640887856,0.8054605722427368,-0.4921201169490814,0.1837757229804992
1783202883347911700,1.46791162109375,-2.004963273116946,7.6482070607423775,9.601206337866186,0.5519478917121887,-0.6879304051399231,0.2002375274896621
1783202883357849600,1.477849609375,-1.8182438929364084,7.750098578464985,9.624072834190724,0.2966229319572449,-0.789885401725769,0.2410654425621032
1783202883367786500,1.487786376953125,-1.60106069317013,7.817012890830636,9.632170800450444,0.0358720198273658,-0.839792788028717,0.300303190946579
1783202883377723400,1.497723388671875,-1.4322700606510042,7.911935154062509,9.645619480088351,-0.2599065899848938,-0.8597438931465149,0.3719305098056793
1783202883387661600,1.50766162109375,-1.3923118520110844,8.038228707113861,9.76485493132174,-0.5914621949195862,-0.8953812718391418,0.436922550201416
1783202883397598500,1.517598388671875,-1.4623451731801032,8.176607834756373,9.905931042963266,-0.97883802652359,-0.9770757555961608,0.4958836734294891
1783202883407535600,1.52753564453125,-1.6231300477676092,8.27827664963901,9.99883612115383,-1.4299753904342651,-1.1012736558914185,0.5251414179801941
1783202883417473500,1.5374736328125,-1.8303372124426065,8.311507303589583,10.00208372477293,-1.933559536933899,-1.186619758605957,0.5369216799736023
1783202883427410700,1.54741064453125,-2.012310274878889,8.264211299407481,10.042268435645102,-2.3949899673461914,-1.2273234128952026,0.5674406886100769
1783202883437348600,1.5573486328125,-2.1051079471722245,8.228755955144763,9.827568869388102,-2.7327675819396973,-1.2987459897994995,0.6191393136978149
1783202883447285500,1.567285400390625,-2.179928210356832,8.119343394267558,9.370326621180771,-2.970848798751831,-1.424757719039917,0.676006555557251
1783202883457222400,1.577222412109375,-2.21751545208171,7.981098706659674,9.046142597854136,-3.130612850189209,-1.6429762840270996,0.7903622388839722
1783202883467160600,1.58716064453125,-2.2045815900981425,7.751329581564664,8.692221607911586,-3.2552359104156494,-2.018694400787353,0.901093065738678
1783202883477097500,1.597097412109375,-2.54734668751508,7.624214775258302,8.099259222137928,-3.4515035152435303,-2.5938868522644043,0.9597322940826416
1783202883487035400,1.607035400390625,-3.6661937728285783,7.547416197738051,7.210192075574398,-3.668595314025879,-3.324997901916504,0.9285248517990112
1783202883496972500,1.61697265625,-4.936828625673055,7.496043153375386,5.661275118878484,-3.980250358581543,-4.034129619598389,0.8874123096466064
1783202883506909700,1.62690966796875,-5.605937262538075,6.581630553153157,3.921975875580311,-4.261075973510742,-4.660971641540527,0.8782917857170105
1783202883516847600,1.63684765625,-5.762970237246155,5.541956081014871,1.3799749330073594,-4.44490909576416,-4.94598388671875,0.9357212781906128
1783202883526784500,1.646784423828125,-5.2635389526069165,4.467974557866156,-1.2571990326881408,-4.548366069793701,-4.792788028717041,1.057514786720276
1783202883536722400,1.656722412109375,-4.073972609686852,3.1952149679526687,-3.892868439039588,-4.499444484710693,-4.365266799926758,1.2932093143463137
1783202883546659600,1.66665966796875,-2.593854171667993,1.8746388571143149,-7.0847571851789946,-4.174524784088135,-3.7456302642822266,1.573715090751648
1783202883556596500,1.676596435546875,-1.553844476225972,0.6387970852315425,-10.194448709625004,-4.523540019989014,-2.798275947570801,1.8155150413513184
1783202883566534400,1.686534423828125,-1.3123124326229094,-0.8900856759563088,-10.864942078846692,-4.287402153015137,-1.611136555671692,1.881955623626709
1783202883576471600,1.696471435546875,-2.016506411394477,-2.0564234112411737,-12.972391328448056,-3.524991989135742,-0.9001203775405884,1.82050359249115
1783202883586409500,1.706409423828125,-2.6205557161107658,-3.0192180573165417,-15.82578753992319,-2.6904141902923584,-0.3922031223773956,1.7260196208953855
1783202883596346600,1.7163466796875,-2.6641706936925647,-4.211512363895774,-15.627085168743132,-2.4609262943267822,-0.131953164935112,1.6532641649246216
1783202883606283500,1.726283447265625,-2.531654905125498,-5.1706999253898855,-14.477525842040777,-2.69387435913086,-0.0051150526851415,1.534056544303894
1783202883616221400,1.736221435546875,-2.6335551906764505,-5.776391444355249,-13.453739259386062,-3.0537149906158447,0.1131371706724166,1.263248324394226
1783202883626158600,1.74615869140625,-2.947309882186353,-5.904945928075909,-13.316312317901849,-3.205771207809448,0.2676449716091156,0.8392745852470398
1783202883636096500,1.756096435546875,-2.797892350918054,-6.261138954603672,-13.977858995079991,-2.9062788486480717,0.4637551307678222,0.4005728960037231
1783202883646033400,1.766033447265625,-2.005485835686326,-6.776310829210281,-15.121231742101909,-1.9909758567810056,0.6046134233474731,0.0551409348845481
1783202883655970300,1.77597021484375,-0.8400456337630748,-6.911324864333868,-16.308631846898795,-0.770264744758606,0.7378907799720764,-0.075566753745079
1783202883665908200,1.785908203125,0.3885293619871139,-6.509898026850819,-15.940627386546137,0.3143797516822815,0.9282003045082092,-0.0086159519851207
1783202883675845400,1.795845458984375,1.4676163915812968,-5.614119399949908,-13.759067775595188,1.3589153289794922,1.006697177886963,0.1601205617189407
1783202883685783300,1.805783203125,2.046573194486648,-4.487008051899076,-11.561571759843826,2.333857774734497,0.8999587297439575,0.3167767524719238
1783202883695720400,1.815720458984375,1.946973148702085,-3.000240385124087,-9.169905171123146,2.989771842956543,0.7142803072929382,0.4752803742885589
1783202883705657600,1.82565771484375,1.7285821805812418,-1.6576659390978514,-6.084976916533709,3.286367416381836,0.5004734992980957,0.6281449794769287
1783202883715595500,1.835595458984375,1.3988976601421832,-0.5234792458333075,-3.1973879280775783,3.404651165008545,0.2663097679615021,0.7383129000663757
1783202883725532400,1.845532470703125,0.9541244328856467,0.5074222833931445,-1.0385516055881976,3.471513509750366,-0.0004052980802953,0.8172023892402649
1783202883735470300,1.85547021484375,0.6113258715905249,1.3641817360699175,0.4657914653658866,3.482316017150879,-0.307284951210022,0.8753541111946106
1783202883745407200,1.8654072265625,0.3697665015891194,2.053742939985544,1.70427995236516,3.356112480163574,-0.5935798287391663,0.908186376094818
1783202883755344400,1.875344482421875,0.168398710592091,2.5720357230916617,2.84023687017262,3.1083054542541504,-0.7560032606124878,0.883053183555603
1783202883765282300,1.8852822265625,-0.0718745651215314,3.0147435422509905,3.848704303142428,2.7807881832122803,-0.8026695847511292,0.8139668107032776
1783202883775219500,1.895219482421875,-0.2169526058807969,3.3805560455173254,4.483973798769712,2.4074623584747314,-0.7677363157272339,0.734229564666748
1783202883785156600,1.905156494140625,-0.2113521555252373,3.523352405080199,4.910630354577303,1.9848754405975344,-0.6786149144172668,0.6462118029594421
1783202883795094500,1.915094482421875,-0.2311062189176678,3.7111519817128777,5.2776434658050535,1.5131070613861084,-0.5564203858375549,0.5479325652122498
1783202883805031400,1.925031494140625,-0.2353992399364709,3.793045836545527,5.538363609480857,1.01545250415802,-0.42558354139328,0.457029789686203
1783202883814969300,1.93496923828125,-0.2259188794076442,3.7487358624368894,5.639335089749098,0.5143100619316101,-0.276686817407608,0.3460946083068847
1783202883824906200,1.94490625,-0.3634422670036554,3.687824882139265,5.613255476596951,-0.0010267915204167,-0.1039643213152885,0.2349528968334198
1783202883834843400,1.954843505859375,-0.4784942950725555,3.517328907006979,5.533886171805858,-0.5570316910743713,0.0636001080274581,0.122911736369133
1783202883844781300,1.96478125,-0.5645090292274951,3.319184461970627,5.417598464462161,-1.0413552522659302,0.1892073005437851,0.0088160578161478
1783202883854718500,1.974718505859375,-0.6533698004633188,3.101629798543453,4.962822898629307,-1.4474610090255735,0.2546755075454712,-0.0622975341975688
1783202883864656400,1.984656494140625,-0.6113853466928005,2.864272702537477,4.426211345630884,-1.7245104312896729,0.2659052610397339,-0.1217582002282142
1783202883874593300,1.99459326171875,-0.6748911657892167,2.7731495393276213,3.81914093952775,-1.9360740184783936,0.2643324732780456,-0.1548784077167511
1783202883884530400,2.004530517578125,-0.6008863106407225,2.477859894312918,3.313621274885535,-2.167351245880127,0.2644275724887848,-0.143584206700325
1783202883894468400,2.01446826171875,-0.4376185331963002,2.070851165044308,2.931902761957049,-2.4082696437835693,0.2791582942008972,-0.1261778473854065
1783202883904405200,2.0244052734375,-0.3387909330889582,1.7937417582340538,2.508785486191511,-2.6405208110809326,0.3056588768959045,-0.1085128337144851
1783202883914343400,2.034343505859375,-0.2397480827957391,1.5404428506001828,2.0610914030522105,-2.824176073074341,0.3174489140510559,-0.096077524125576
1783202883924280300,2.0442802734375,-0.1486871711671352,1.2159626208059489,1.4885212324440478,-2.9466452598571777,0.2969074249267578,-0.0832384303212165
1783202883934217500,2.054217529296875,-0.077875997493416,0.9428861227735876,0.8142214566767215,-3.013308525085449,0.2522564530372619,-0.0661230683326721
1783202883944155400,2.0641552734375,0.0007823825493454,0.6583451777230948,0.1092442185729742,-3.041391611099243,0.1753720492124557,-0.0320279449224472
1783202883954092300,2.07409228515625,-0.0475491021603345,0.3460943149048834,-0.6790987004816532,-3.038602828979492,0.0979912057518959,0.0081581305712461
1783202883964030200,2.0840302734375,-0.374190017119795,-0.094604283323884,-1.607021355140209,-2.995791435241699,0.0640327036380767,0.0428897477686405
1783202883973967400,2.09396728515625,-0.8157678093358874,-0.6817825327381491,-2.624186473828554,-2.8372106552124023,0.1034694015979766,0.0531658753752708
1783202883983904300,2.103904296875,-1.2418820749603212,-1.3892624013125896,-3.684129242491722,-2.55134391784668,0.1585505008697509,-0.0049235243350267
1783202883993842400,2.113842529296875,-1.5366342520974576,-1.8588082507759327,-4.694986200946569,-2.1441586017608643,0.1770051717758178,-0.1056786701083183
1783202884003779300,2.123779296875,-1.558335942426324,-2.170153396926075,-5.716567382511496,-1.6951950788497925,0.0804309695959091,-0.2180877774953842
1783202884013717500,2.133717529296875,-1.4584715466171505,-2.466308572728932,-6.725913936403393,-1.2250474691390991,-0.0520429126918315,-0.3239863514900207
1783202884023654400,2.143654296875,-1.3926909144565462,-2.6704899598419667,-7.640832148060202,-0.7229219675064087,-0.1961420327425003,-0.411307156085968
1783202884033592600,2.153592529296875,-1.3330365100912749,-2.7465312892541287,-8.778094303247332,-0.2284864038228988,-0.269362598657608,-0.4190312922000885
1783202884043529200,2.163529296875,-1.05556075418666,-2.939024868921936,-9.89113211776018,0.2929514646530151,-0.1555995494127273,-0.3392704129219055
1783202884053466400,2.17346630859375,-0.9608628012299536,-2.987218406465649,-10.715749880766868,0.886241614818573,0.0513250865042209,-0.255871444940567
1783202884063404300,2.183404296875,-1.0184073738344013,-2.6916578355550764,-11.340469340807198,1.566993236541748,0.2872265577316284,-0.2201693654060363
1783202884073341400,2.193341552734375,-1.0594394953161477,-2.172753496421873,-11.658384951388836,2.27634596824646,0.3870334923267364,-0.2601369619369507
1783202884083279400,2.203279296875,-1.3675357226729392,-1.3461524506434797,-11.827689378648996,2.8232479095458984,0.3568364381790161,-0.4111062288284302
1783202884093216500,2.213216552734375,-2.035702402512729,-0.4342379143146798,-11.718906347846984,3.068716049194336,0.4083377420902252,-0.6370033025741577
1783202884103153400,2.2231533203125,-2.8208710754454134,0.0567811870165169,-11.237688180768489,3.04324722290039,0.5204863548278809,-0.9498895406723022
1783202884113091600,2.233091552734375,-3.6549727061122654,0.4339445939239114,-11.085834070003031,2.8707115650177,0.7731177806854248,-1.28060781955719
1783202884123028200,2.2430283203125,-3.962556892293692,0.3717623515814542,-11.052263808834551,2.749511241912842,1.2879464626312256,-1.5225727558135986
1783202884132966400,2.25296630859375,-3.555083175861835,0.1954243724226951,-10.936930625736712,2.8182761669158936,1.910268783569336,-1.624263882637024
1783202884142903300,2.2629033203125,-2.705139248418808,0.4628269164718687,-10.874295598125457,3.0941550731658936,2.4826245307922363,-1.569413423538208
1783202884152840400,2.27284033203125,-1.7101330623075366,0.939372707825154,-10.467062704712152,3.492914915084839,2.80566143989563,-1.427237629890442
1783202884162778400,2.2827783203125,-1.350753953089565,1.88893392444849,-9.891959800755975,3.880017757415772,2.9369683265686035,-1.2769852876663208
1783202884172715500,2.292715576171875,-1.5140467188447713,2.871423451074958,-8.926670999777317,4.182077884674072,2.9654860496521,-1.1288936138153076
1783202884182653400,2.3026533203125,-1.655843545976281,3.4291488115116957,-7.783949994662404,4.447147369384766,2.9907474517822266,-0.9518359899520874
1783202884192590600,2.312590576171875,-1.5863585063397885,3.531697039577365,-6.644293637815117,4.732760906219482,3.005722045898437,-0.7761606574058533
1783202884202527200,2.32252734375,-1.6317998225659132,3.642707098779082,-5.550142894601821,5.078696250915527,3.0550811290740967,-0.6229444742202759
1783202884212465400,2.33246533203125,-1.7228259551420806,4.078291641929745,-4.231906332626939,5.421438694000244,3.0646793842315674,-0.499872088432312
1783202884222402300,2.34240234375,-1.712523318444937,4.815542671650648,-2.7487404897361998,5.642467498779297,3.0123984813690186,-0.3965800702571869
1783202884232340200,2.35234033203125,-1.573397317957878,5.463950465792418,-0.967111924752593,5.656447887420654,2.933211326599121,-0.2803609371185303
1783202884242277400,2.36227734375,-1.333939742541313,5.899750697520375,0.9932131652146576,5.5548930168151855,2.7991433143615723,-0.1362338662147522
1783202884252214500,2.372214599609375,-1.2213805542014535,6.4526137126177545,2.552916888862848,5.360522747039795,2.575073003768921,0.0271792411804199
1783202884262152400,2.38215234375,-1.1642879631482064,6.9826119849562645,3.8268916997849938,4.9132609367370605,2.351173162460327,0.1958404183387756
1783202884272089600,2.392089599609375,-1.2199557820953428,7.2497116005361075,5.434392947396636,4.327592849731445,2.1908740997314453,0.310249000787735
1783202884282027500,2.402027587890625,-1.3833661828808486,7.431250070947408,6.607075960054993,3.8175008296966553,2.06545639038086,0.3691674470901489
1783202884291964400,2.41196435546875,-1.7108134457871318,7.630526442623138,7.058731932562589,3.390925168991089,1.970212459564209,0.364621490240097
1783202884301901300,2.4219013671875,-2.0081199835821986,7.748991494005918,7.4339914786100385,3.0113322734832764,1.8840583562850952,0.3500204384326935
1783202884311839200,2.431839111328125,-2.1282909621000288,7.780959580674767,7.812823037925362,2.646942615509033,1.7658215761184692,0.3330410718917846
1783202884321776400,2.4417763671875,-2.171923767599463,7.798647797578573,8.163231635832785,2.272698402404785,1.5852301120758057,0.2934558391571045
1783202884331714300,2.45171435546875,-2.200456765253097,7.831776744720339,8.380771393951774,1.8776874542236328,1.3359471559524536,0.2605453729629516
1783202884341651500,2.4616513671875,-2.123836174648255,7.816107466423511,8.601572784215211,1.4377646446228027,1.091458082199097,0.2242369055747985
1783202884351589400,2.47158935546875,-2.001681182706356,7.811594372913241,8.82974207289815,1.006353497505188,0.8709083795547485,0.1675617694854736
1783202884361526500,2.481526611328125,-1.904038554599881,7.87897922540009,8.912576423451304,0.6250538229942322,0.6831315755844116,0.1187803894281387
1783202884371463400,2.49146337890625,-1.8222288709193464,7.978978061243891,8.808830217772721,0.3144460618495941,0.5052664279937744,0.0881052687764167
1783202884381401300,2.5014013671875,-1.6652236610010265,8.145437035945058,8.695551044595241,0.0531447008252143,0.3260913789272308,0.0856021642684936
1783202884391338200,2.511338134765625,-1.5581027181923388,8.294768934756517,8.633535610187053,-0.238147348165512,0.1480073183774948,0.1129559800028801
1783202884401276400,2.5212763671875,-1.4824004114761948,8.350779575791954,8.730873702389001,-0.5661625266075134,-0.0156191699206829,0.153857335448265
1783202884411213300,2.53121337890625,-1.5156483088225126,8.475026717707514,8.836197532647848,-0.9187445044517516,-0.1660788357257843,0.1856750398874282
1783202884421150500,2.541150390625,-1.649968078071624,8.536559337034822,8.86340235043764,-1.2828017473220823,-0.3251115977764129,0.1900205165147781
1783202884431088400,2.55108837890625,-1.7959135493151843,8.548286015185713,8.825857340419292,-1.659187078475952,-0.5130339860916138,0.1830698400735855
1783202884441025300,2.561025390625,-1.9029922604173424,8.500053022414445,8.759165146371721,-2.041134119033813,-0.705935001373291,0.1695769429206848
1783202884450963200,2.570963134765625,-1.9981362035758792,8.459504738926887,8.657996682226658,-2.3875019550323486,-0.8852509260177612,0.1638002544641494
1783202884460900400,2.580900390625,-2.08628356584534,8.391113339745997,8.4542557323575,-2.677420854568481,-1.0459522008895874,0.1625786572694778
1783202884470837200,2.590837158203125,-2.23228632023409,8.355591359987855,8.216064815875887,-2.91342830657959,-1.1892143487930298,0.1574393808841705
1783202884480775400,2.600775390625,-2.3997398589305576,8.390393793299793,7.944788791394234,-3.054037570953369,-1.3179317712783811,0.1757733821868896
1783202884490712300,2.61071240234375,-2.5320260765254496,8.364136485493182,7.631117394253611,-3.142322540283203,-1.5030202865600586,0.2423553764820099
1783202884500650500,2.620650390625,-2.6541677705943583,8.307079550275207,7.343709150138497,-3.3165085315704346,-1.7601457834243774,0.2978929579257965
1783202884510587400,2.63058740234375,-3.0474229920595883,8.385204407963156,7.236401452586055,-3.660928726196289,-2.1616663932800293,0.3493092656135559
1783202884520524300,2.640524169921875,-3.5760827092707155,8.321513149297237,6.940273895442485,-4.058409690856934,-2.7411935329437256,0.4210023581981659
1783202884530462200,2.650462158203125,-3.967195950271189,7.963396461230516,5.981380348458885,-4.525435924530029,-3.3818202018737797,0.5212631821632385
1783202884540399400,2.6603994140625,-4.44330218116343,7.220636897221207,4.921029583516717,-5.016356945037842,-4.082180976867676,0.5899096727371216
1783202884550337300,2.670337158203125,-5.399773469436169,6.556108573883772,3.412975383085012,-5.479181289672852,-4.683363437652588,0.5646116733551025
1783202884560274400,2.6802744140625,-6.4355205389976495,5.925386658558249,1.6806734513282775,-5.931777477264404,-5.152918338775635,0.4350869655609131
1783202884570212400,2.69021240234375,-7.082948089930415,5.373316255143284,-0.5698159034639596,-6.333545207977295,-5.56189489364624,0.2644943594932556
1783202884580149500,2.7001494140625,-6.900120748752356,4.660190489636362,-3.7635938243508336,-6.543590068817139,-5.776815891265869,0.1286180466413498
1783202884590086400,2.71008642578125,-5.929967556607723,3.640378071309626,-7.5189394603163,-7.86877965927124,-5.140293598175049,0.1046783924102783
1783202884600024600,2.720024658203125,-4.526650910979509,1.509476049928367,-8.97946092520058,-8.108102798461914,-3.694710731506348,0.1821843683719635
1783202884609961200,2.729961181640625,-3.3043323452755806,0.3926946649730205,-13.61463592378497,-7.364550113677978,-2.0693647861480717,0.2540812790393829
1783202884619899400,2.7398994140625,-2.023075706782192,-0.5154882470794022,-18.56658262361288,-6.145885467529297,-0.1640960723161697,0.3675436675548553
1783202884629836300,2.749836181640625,-0.722979781653732,-1.7407549950644372,-19.20110217765569,-5.21070671081543,1.4051628112792969,0.3861690461635589
1783202884639772700,2.759772705078125,0.2108344152614474,-1.9756701047457756,-18.936252971351145,-4.394371509552002,2.346035480499268,0.3282876312732696
1783202884649710600,2.769710693359375,0.45816666957587,-2.1382643668428063,-17.89053629643917,-3.831851959228516,2.7322707176208496,0.1342629194259643
1783202884659647700,2.779647705078125,0.2010275992572307,-2.225869585059583,-16.590616896921397,-3.534290313720703,2.728879451751709,-0.1849829703569412
1783202884669585700,2.789585693359375,-0.2580091311514377,-2.6359590369477868,-15.309802010846138,-3.322693109512329,2.565110921859741,-0.5308917760848999
1783202884679522600,2.7995224609375,-0.2004953190114349,-3.556529867538809,-14.32930862647295,-2.9188053607940674,2.1584277153015137,-0.8053898811340332
1783202884689460500,2.80946044921875,0.4481416807763278,-4.576808149811625,-14.288765019160508,-2.314777374267578,1.7080658674240112,-0.9422908425331116
1783202884699397600,2.819397705078125,1.1692536227315664,-4.692082880720496,-13.624440693962573,-1.631732940673828,1.4196356534957886,-0.89586341381073
1783202884709334500,2.82933447265625,2.0727533454038203,-4.208678601774573,-12.075305710601803,-0.7263811230659485,1.1407434940338137,-0.7594347596168518
1783202884719272700,2.839272705078125,2.6831515807554123,-3.575595218014717,-11.016053846812248,0.2623032927513122,0.8525611758232117,-0.5140806436538696
1783202884729209600,2.849209716796875,3.11381415733397,-2.833004580831528,-9.536673367679118,1.1818324327468872,0.5989359021186829,-0.2177522778511047
1783202884739147800,2.859147705078125,3.1940921014025805,-2.0852814030654727,-7.664978162801265,1.930976390838623,0.3819745779037475,0.0644487738609314
1783202884749084700,2.869084716796875,2.839612016272545,-1.3095894373998045,-5.679623845517635,2.4445762634277344,0.1960523277521133,0.3169575035572052
1783202884759021600,2.879021484375,2.286805992059409,-0.6592448299765586,-3.734633102804422,2.7113163471221924,0.0207193903625011,0.5095770359039307
1783202884768959500,2.88895947265625,1.5450690490961074,0.0190223515843972,-2.002488407436013,2.7614755630493164,-0.0866937339305877,0.6190354228019714
1783202884778896600,2.898896728515625,0.7450181565910577,0.6972546810276806,-0.4816144729197025,2.6683149337768555,-0.1152550727128982,0.6647235751152039
1783202884788834600,2.90883447265625,0.0339017398788593,1.168152456556633,0.7603156789660453,2.487030506134033,-0.0891206562519073,0.6528679728507996
1783202884798771700,2.918771728515625,-0.5885164392154664,1.4748498499661684,1.7541659730404615,2.2652623653411865,-0.0605939403176307,0.6106523871421814
1783202884808708600,2.92870849609375,-1.1073598419416697,1.692556489084661,2.4942758993238208,2.031735897064209,-0.0267042722553014,0.5395306944847107
1783202884818646800,2.938646728515625,-1.515545871361345,1.9344788471795615,3.0663410430192948,1.7983853816986084,-0.0049246740527451,0.4787858426570892
1783202884828583700,2.948583740234375,-1.7557899209804833,2.053350871928036,3.4668361526101825,1.5463145971298218,-0.0309746209532022,0.4493709802627563
1783202884838521600,2.958521484375,-1.837027211600542,2.0058298268184065,3.822147135606408,1.2643864154815674,-0.0985664427280426,0.4292356371879577
1783202884848458500,2.96845849609375,-1.8740422063954172,2.0450062374308704,4.136771887949108,0.963557243347168,-0.2091203331947326,0.4011776745319366
1783202884858396400,2.978396484375,-1.831141368432343,2.0244649691835046,4.374062640720606,0.654298722743988,-0.3374873399734497,0.3752153217792511
1783202884868333600,2.98833349609375,-1.732131835886836,1.986223793594539,4.495958251073956,0.3492410480976105,-0.435183435678482,0.3279658555984497
1783202884878270700,2.998270751953125,-1.6618875023156403,1.997866008332372,4.456050603577494,0.1375139057636261,-0.4827336370944977,0.2628262639045715
1783202884888208600,3.008208740234375,-1.6198292526565492,1.899384299053252,4.191213087710738,0.0107514867559075,-0.5627310276031494,0.2031682878732681
1783202884898145800,3.018145751953125,-1.4871514053955672,1.7158491018667816,3.827315478155017,-0.1115858703851699,-0.6581989526748657,0.1650792211294174
1783202884908083700,3.028083740234375,-1.287808690485358,1.5955808004543184,3.727639882916212,-0.300720065832138,-0.7303218245506287,0.097956970334053
1783202884918020600,3.0380205078125,-1.221937603562325,1.5672235977590083,3.740052789765596,-0.5837802290916443,-0.7627308964729309,0.0081935320049524
1783202884927957500,3.04795751953125,-1.123571921878308,1.448263894727081,3.670103639748693,-0.8874403834342957,-0.7601984739303589,-0.0865783840417862
1783202884937895400,3.0578955078125,-0.972189593343064,1.3421730256184934,3.4130724137187003,-1.1385290622711182,-0.7269576787948608,-0.1868341565132141
1783202884947832600,3.06783251953125,-0.8666168298244475,1.3574027434542777,2.9236271010428667,-1.3513827323913574,-0.6579976081848145,-0.2878418862819671
1783202884957770500,3.0777705078125,-0.68755534398593,1.329500883311033,2.491768300417065,-1.5792747735977173,-0.5646365284919739,-0.3605450987815857
1783202884967707600,3.087707763671875,-0.3564262507617473,1.1360899696025997,2.174085329547524,-1.8279014825820925,-0.4716773927211761,-0.4194304347038269
1783202884977645600,3.0976455078125,-0.0821986829981207,0.9737140994966028,1.764030948972702,-2.028975009918213,-0.3878085911273956,-0.4657057821750641
1783202884987582700,3.107582763671875,0.1773470831360667,0.79474431052953,1.2064116792589423,-2.1637868881225586,-0.3174051642417907,-0.481798380613327
1783202884997519600,3.11751953125,0.4140750143930315,0.5269370581369847,0.5773743560194969,-2.2167859077453613,-0.2495970726013183,-0.4944358766078949
1783202885007457800,3.127457763671875,0.5577477914642542,0.2966445667549968,-0.0686146865427494,-2.2124876976013184,-0.1789498627185821,-0.492587685585022
1783202885017394400,3.13739453125,0.7070578437700867,0.0258207795528695,-0.6640823331356048,-2.1628730297088623,-0.1252629160881042,-0.4698975384235382
1783202885027332600,3.14733251953125,0.8336631661843508,-0.2720575302481651,-1.2055910105258223,-2.060141324996948,-0.0885403379797935,-0.4436123967170715
1783202885037269500,3.15726953125,0.8945843025498091,-0.4813361674349755,-1.7265619268000123,-1.9145499467849727,-0.080447256565094,-0.405276209115982
1783202885047207700,3.167207763671875,0.9380518344849348,-0.6908148572385311,-2.2164356940209866,-1.7189358472824097,-0.0837516188621521,-0.3638503849506378
1783202885057144600,3.17714453125,0.9350614935625344,-0.8517229198142886,-2.67385914401412,-1.485512375831604,-0.1442474424839019,-0.325651615858078
1783202885067081700,3.187081787109375,0.815140398152545,-0.9157919257514178,-3.2508991535127163,-1.2544225454330444,-0.1849503517150879,-0.309030532836914
1783202885077019600,3.19701953125,0.5898635429754853,-1.0677972815558314,-3.646704059460759,-1.0290889739990234,-0.1895229965448379,-0.2960066199302673
1783202885086956800,3.206956787109375,0.4740875845462083,-1.190706598996371,-3.9124890853106975,-0.8156574368476868,-0.2057081460952758,-0.2769849896430969
1783202885096894700,3.216894775390625,0.5480467008568346,-1.373469642766565,-4.178031534576416,-0.5962704420089722,-0.2471639662981033,-0.2438049614429474
1783202885106831600,3.22683154296875,0.5787624493770301,-1.5310197732165456,-4.405412887752056,-0.3804603219032287,-0.265215665102005,-0.2218340635299682
1783202885116768500,3.2367685546875,0.4378159554645419,-1.502818345604837,-4.499582871311903,-0.173151895403862,-0.2414469569921493,-0.2117385417222976
1783202885126706700,3.246706787109375,0.1448627905733883,-1.4461593236632644,-4.490402955034375,-0.0006026346236467,-0.1664978712797165,-0.2332188785076141
1783202885136643600,3.2566435546875,-0.1625232426874339,-1.4038602509856224,-4.549512146607041,0.1455316692590713,-0.0135477473959326,-0.2631421685218811
1783202885146581800,3.266581787109375,-0.3600678221344948,-1.4411274669758976,-4.670682949817181,0.3040613830089569,0.1650867164134979,-0.2635136842727661
1783202885156518700,3.2765185546875,-0.4116239679791033,-1.6221581339955329,-4.969796829295158,0.5349305868148804,0.3289254605770111,-0.2274819016456604
1783202885166456600,3.28645654296875,-0.3945264104448258,-1.6982064776703714,-5.183246687752008,0.8519546389579773,0.406722217798233,-0.172421246767044
1783202885176393500,3.2963935546875,-0.4374709414191544,-1.5466317683681845,-5.387323737707733,1.22831392288208,0.307872325181961,-0.132614716887474
1783202885186330600,3.30633056640625,-0.4879533205524086,-1.2286758257761596,-5.635583628261089,1.5949887037277222,-0.0198126044124364,-0.1327151209115982
1783202885196268500,3.3162685546875,-0.5473750852055848,-0.7534479851536452,-6.140134155610204,1.9098014831542969,-0.4908725321292877,-0.1454599499702453
1783202885206205700,3.326205810546875,-0.6911502266727387,-0.3786575179226696,-6.929715676549077,2.177741050720215,-0.8570775985717773,-0.1336054354906082
1783202885216143600,3.3361435546875,-0.9552525601327418,-0.3518868537664413,-7.760165798971056,2.479588031768799,-0.9255525469779968,-0.1288234591484069
1783202885226080800,3.346080810546875,-1.1213828874014318,-0.3760492351204156,-8.410347032526134,2.8871164321899414,-0.6599298119544983,-0.1090347245335578
1783202885236018700,3.356018798828125,-0.7335461838535964,-0.44336321432814,-8.65900089083314,3.36444091796875,-0.2907065153121948,-0.0338097475469112
1783202885245955600,3.36595556640625,0.0304427767977118,-0.4219883813334629,-8.670679053667188,3.829389095306397,-0.0049885897897183,0.0430367663502693
1783202885255892500,3.375892578125,0.4950833185628056,0.0808687495686113,-8.43461696590781,4.197933197021484,0.152615413069725,0.037764772772789
1783202885265830400,3.385830322265625,0.4432794815674424,0.8918853457894176,-8.084477248069643,4.412254333496094,0.3868333697319031,-0.0242558997124433
1783202885275767600,3.395767578125,0.2701388371452689,1.5054370036706328,-7.368368959620595,4.450762748718262,0.5781849026679993,-0.1026303321123123
1783202885285705500,3.40570556640625,-0.2735834246411919,2.0198188969433306,-7.079143436950445,4.358131408691406,0.8396780490875244,-0.2071443498134613
1783202885295642600,3.415642578125,-0.8336015721902251,2.1129437553644177,-6.990651499027013,4.222396373748779,1.2621290683746338,-0.3066461682319641
1783202885305579800,3.425579833984375,-1.2565684796996417,1.7825608773976562,-6.7402651178389785,4.108947277069092,1.7336596250534058,-0.3997006416320801
1783202885315517700,3.435517578125,-1.5723152218095957,1.856141369654238,-6.426627038446068,4.127030849456787,2.151375532150269,-0.4781123697757721
1783202885325454600,3.44545458984375,-1.5869532573625444,2.328620349960029,-6.163076639780402,4.21755313873291,2.485123634338379,-0.5283229351043701
1783202885335392800,3.455392822265625,-1.41817358462885,2.763898311379552,-5.6538896848022935,4.099576473236084,2.860612154006958,-0.5436207056045532
1783202885345329400,3.465329345703125,-1.2873287980139254,2.9620334040656684,-4.274522654560208,3.937475442886353,3.23095965385437,-0.5194651484489441
1783202885355267600,3.475267578125,-1.4114476373746991,3.3565494392469524,-3.222066442260146,3.942426919937134,3.506944179534912,-0.4898404479026794
1783202885365204500,3.48520458984375,-1.7962752222344278,4.047994118821621,-2.7100316966354847,4.082085609436035,3.687665462493897,-0.4589680433273315
1783202885375141600,3.4951416015625,-2.080047155673802,4.562331880691647,-1.9448568872004743,4.2503862380981445,3.7089531421661377,-0.398562490940094
1783202885385079600,3.50507958984375,-2.1730697227641937,4.879088968887925,-1.039672134050727,4.383742809295654,3.605888843536377,-0.3082717061042785
1783202885395016700,3.5150166015625,-2.148601051940024,5.1558594991326325,-0.0739864427089691,4.472120761871338,3.3845882415771484,-0.2031546384096145
1783202885404954600,3.52495458984375,-2.1244396934993564,5.765622213059664,0.8616074772298336,4.353276252746582,3.140791177749634,-0.075284942984581
1783202885414891800,3.534891845703125,-2.0337392857462167,6.23949001737535,2.0450147129982708,4.093854427337647,2.959352970123291,0.0505062788724899
1783202885424829700,3.54482958984375,-1.934046008720249,6.35360914850831,3.180513950166106,3.797825574874878,2.810688734054565,0.1849831789731979
1783202885434766600,3.5547666015625,-1.8271733415842053,6.387146676450968,3.940879313492775,3.545957326889038,2.6911814212799072,0.3008386790752411
1783202885444703500,3.564703369140625,-1.9279379011034965,6.627942806994914,4.59492774387002,3.329756498336792,2.563407182693481,0.39467254281044
1783202885454641700,3.5746416015625,-2.1470105678781866,6.937108124887943,5.199509840288758,3.093285083770752,2.3759007453918457,0.4640140831470489
1783202885464578600,3.58457861328125,-2.3603955444052813,7.1002446771681305,5.874540852940082,2.780174970626831,2.142145156860352,0.5166671872138977
1783202885474516700,3.594516845703125,-2.472010876023769,7.157267125594616,6.609589404180645,2.4269778728485107,1.8559283018112185,0.5558438301086426
1783202885484453600,3.60445361328125,-2.621599379944801,7.236360536053776,7.211313188558816,2.0789170265197754,1.534541368484497,0.5547300577163696
1783202885494391600,3.6143916015625,-2.8851649761795994,7.440829215675592,7.741106878235936,1.7300925254821775,1.1913979053497314,0.5055894255638123
1783202885504328700,3.62432861328125,-3.08828048762679,7.562486341097951,8.308606321451068,1.3380435705184937,0.7988623976707458,0.4152941703796386
1783202885514265600,3.634265625,-3.1244086165845397,7.567026322615146,8.81297389344871,0.8986952304840088,0.3917359113693237,0.3001414835453033
1783202885524203500,3.64420361328125,-3.0589132311061022,7.692756396564841,9.152975663632152,0.4446049630641937,0.0766930803656578,0.1768995821475982
1783202885534140700,3.654140625,-2.91520940130949,7.909293115121126,9.42946737693548,-0.0217837989330291,-0.1255393922328949,0.0747532323002815
1783202885544078600,3.66407861328125,-2.7384412140399217,8.170042484891415,9.53439490135312,-0.4889608919620514,-0.2392949312925338,-0.0066832657903432
1783202885554015700,3.674015625,-2.5855747113615277,8.381223229372502,9.527602172473072,-0.9465569257736206,-0.2975947260856628,-0.0712950155138969
1783202885563953700,3.68395361328125,-2.544932904371619,8.578039932936429,9.45949718901813,-1.3872156143188477,-0.3334031105041504,-0.1122236549854278
1783202885573890600,3.693890625,-2.473183134673536,8.668539703550934,9.389099710711836,-1.8213841915130613,-0.3996948003768921,-0.1383908241987228
1783202885583827700,3.70382763671875,-2.4411522119015454,8.718010713684558,9.361318554338812,-2.2605366706848145,-0.4993698596954345,-0.1628917902708053
1783202885593765600,3.713765625,-2.4515786211088297,8.720274566963315,9.397117597472668,-2.67519474029541,-0.642272412776947,-0.1752475202083587
1783202885603702500,3.72370263671875,-2.4304443554043766,8.694442791092396,9.359497184130548,-3.0463829040527344,-0.8076594471931458,-0.1668597906827926
1783202885613640400,3.733640380859375,-2.425909634584188,8.692874518862366,9.202582867366075,-3.352430582046509,-0.9937768578529358,-0.1320954263210296
1783202885623577600,3.74357763671875,-2.461964406044781,8.67457313849628,8.974872428366542,-3.5973987579345703,-1.1964237689971924,-0.0645008161664009
1783202885633514800,3.7535146484375,-2.522250532442331,8.686005802136659,8.708536782896518,-3.8039586544036874,-1.4296804666519165,0.0417862087488174
1783202885643454000,3.763453857421875,-2.585229843446612,8.636423148322105,8.445137190878391,-4.00323486328125,-1.7467693090438845,0.1608227789402008
1783202885653390800,3.773390869140625,-2.874835889866948,8.710270474821328,8.10115891827941,-4.353993892669678,-2.1082992553710938,0.2497073858976364
1783202885663328800,3.783328857421875,-3.328579190042615,8.74128169915676,7.917679250672459,-4.793153762817383,-2.6632773876190186,0.3187413215637207
1783202885673266000,3.793265869140625,-3.743674779655039,8.720715296468137,6.932946913555264,-5.360081672668457,-3.429558277130127,0.3695299327373504
1783202885683203800,3.803203857421875,-4.167983603292703,8.611828805291653,5.4785605904251335,-6.078022480010986,-4.341152667999268,0.4185870885848999
1783202885693141000,3.81314111328125,-4.391011729694903,8.26520147948861,3.4085400309860705,-6.766124248504639,-5.235860347747803,0.5222828984260559
1783202885703078000,3.823077880859375,-4.495164470347762,7.549996861881017,0.2151373731523752,-7.272583484649658,-5.955482482910156,0.6693997979164124
1783202885713015800,3.833015869140625,-4.783180324967205,6.612997751319408,-3.8023973099976778,-7.48024845123291,-6.396232128143311,0.7700755000114441
1783202885722953000,3.842952880859375,-5.040114812624454,5.454152709877491,-8.457337331759929,-7.564381122589111,-6.336592674255371,0.8304601907730103
1783202885732891000,3.852890869140625,-4.539442588013411,3.7292274443686,-12.67499126715064,-8.21183967590332,-5.030162811279297,0.8595243096351624
1783202885742827800,3.862827880859375,-3.7481086704492568,1.583408716623485,-14.783171169114112,-7.381717205047607,-3.368688106536865,0.8312653303146362
1783202885752766000,3.872765869140625,-3.0681425394833086,0.4249104427926242,-20.74322757451534,-6.194706439971924,-1.417442798614502,0.8115001320838928
1783202885762702800,3.882702880859375,-2.5022312422424555,-1.138465101236105,-22.77039624969959,-4.963454246520996,0.5113835334777832,0.7030474543571472
1783202885772640000,3.892639892578125,-1.9777980566851796,-2.2998970904313025,-22.550520157587528,-3.94570255279541,1.889315128326416,0.5684393048286438
1783202885782578000,3.902577880859375,-1.1468687724441289,-3.467687508742511,-21.398308270549773,-3.128007173538208,2.576283693313598,0.4025459289550781
1783202885792514800,3.912514892578125,-0.3965482716612518,-4.106818648234009,-19.814527505743506,-2.421999216079712,2.699448347091675,0.211403951048851
1783202885802452700,3.92245263671875,-0.1070331914599984,-4.388033590666949,-18.068581664037705,-1.754496693611145,2.4307358264923096,0.0819494575262069
1783202885812390000,3.932389892578125,0.2500393943812698,-4.904633744511008,-16.36510718283653,-1.0494521856307983,1.911173105239868,0.0470452755689621
1783202885822327800,3.942327880859375,0.624477614108473,-5.153930576896667,-14.82595934048295,-0.225826695561409,1.2518264055252075,0.1015678942203521
1783202885832265000,3.952264892578125,1.0027662987187504,-5.076950797590613,-13.472177417874336,0.5485723614692688,0.6195404529571533,0.2669728398323059
1783202885842201900,3.962201904296875,1.4728580916270613,-4.670037053129077,-11.582413472342491,1.2599916458129885,0.1288263201713562,0.4715636372566223
1783202885852140000,3.97214013671875,1.6839216394692658,-3.93286844099462,-9.528953002560138,1.93781054019928,-0.2130023837089538,0.6626406908035278
1783202885862076700,3.98207666015625,1.5996870667293668,-3.037770197573304,-7.639593546175955,2.444398880004883,-0.3770300149917602,0.8024115562438965
1783202885872014800,3.992014892578125,1.326618021351099,-2.0198545527786016,-5.439694560936093,2.7315752506256104,-0.3678005635738373,0.882025957107544
1783202885881951700,4.00195166015625,0.949647214406356,-1.1983154665648936,-3.299996069636941,2.852335929870605,-0.2590673565864563,0.8788206577301025
1783202885891890000,4.011889892578125,0.431228028441593,-0.4315085624160245,-1.5388713634997606,2.896092653274536,-0.1222908422350883,0.8178398609161377
1783202885901826800,4.021826904296875,-0.1629470941226929,0.314961656146869,-0.1477946062415838,2.940926551818848,-0.0071118334308266,0.7011193037033081
1783202885911764000,4.031763916015625,-0.7166574467644095,1.0138905539970844,0.9521990177810192,2.931837320327759,0.0339514464139938,0.6164960265159607
1783202885921702000,4.041701904296875,-0.9772137051153928,1.466493525031209,1.971557262599468,2.787761926651001,-0.0111827068030834,0.578831136226654
1783202885931639000,4.05163916015625,-1.096653008357808,1.872343147392571,2.959253125697374,2.5165855884552,-0.136682316660881,0.5741618275642395
1783202885941577000,4.061576904296875,-1.130466942089051,2.242076331233978,3.790055714818835,2.20398473739624,-0.3096058666706085,0.5832851529121399
1783202885951513900,4.071513916015625,-1.1234611549802125,2.5716619213432077,4.323076549848914,1.9269845485687256,-0.5130867958068848,0.5835149884223938
1783202885961451800,4.08145166015625,-1.130522763929516,2.872060872195661,4.501678966808319,1.6886030435562134,-0.6828434467315674,0.585685670375824
1783202885971389000,4.091388916015625,-1.1048350727044045,3.042783934082091,4.656283837586641,1.4477933645248413,-0.8374846577644348,0.5858073830604553
1783202885981325800,4.101325927734375,-1.0294039110798388,3.137779262550175,4.747635841116309,1.1970826387405396,-1.000638127326965,0.5823797583580017
1783202885991263700,4.111263671875,-0.9323035000912844,3.191181474652886,4.758609655073285,0.9438785910606384,-1.128069519996643,0.5593633651733398
1783202886001201000,4.121200927734375,-0.9079077483728528,3.237238292428851,4.665424006375671,0.6915124654769897,-1.2147016525268557,0.5411092042922974
1783202886011138800,4.131138916015625,-0.7758665915802121,3.145477708098292,4.376683636873961,0.4195741713047027,-1.23983895778656,0.5315337777137756
1783202886021076000,4.141075927734375,-0.655010553407669,2.9155890482768414,4.080584721302986,0.1354260146617889,-1.1968857049942017,0.4819483160972595
1783202886031014000,4.151013916015625,-0.6298417714901268,2.7811773629605767,3.786752581620216,-0.1641846597194671,-1.1103312969207764,0.3963444828987121
1783202886040950800,4.16095068359375,-0.5380820639424025,2.5620751778304576,3.479178332310915,-0.4906803667545318,-0.9835218787193298,0.2911393344402313
1783202886050888000,4.170887939453125,-0.3856071909300982,2.2905711898118257,3.1604812159627675,-0.8375222086906433,-0.8156271576881409,0.1735354661941528
1783202886060825900,4.180825927734375,-0.2891847522683441,2.042379103797674,2.815031117245555,-1.192163109779358,-0.6095482110977173,0.061150923371315
1783202886070762800,4.1907626953125,-0.1804967062734067,1.7787150156244635,2.3839620056927204,-1.5402840375900269,-0.4086840748786926,-0.0314477197825908
1783202886080701000,4.200700927734375,-0.0701877810783684,1.4728453782759603,1.8904285469204187,-1.8609097003936768,-0.2373852431774139,-0.107776366174221
1783202886090637800,4.210637939453125,0.0272302444919943,1.128133092314005,1.3424807763934137,-2.127575635910034,-0.102908119559288,-0.1780803650617599
1783202886100576000,4.220575927734375,0.0876022956073284,0.7863333327978849,0.766176095432043,-2.2899155616760254,-0.0144542269408702,-0.2451759129762649
1783202886110513000,4.230512939453125,0.1696855355322361,0.4410239577256142,0.0333814605981111,-2.310143232345581,0.0589792430400848,-0.2984479069709778
1783202886120451000,4.240451171875,0.2453001639649271,0.1153855708722025,-0.7442758137911558,-2.204439401626587,0.1148605719208717,-0.3484121263027191
1783202886130387700,4.2503876953125,0.2367331188887357,-0.1757750845789909,-1.4363748656213282,-2.0256876945495605,0.12949039041996,-0.3678912818431854
1783202886140324900,4.260324951171875,0.3089272713534534,-0.498145409547165,-1.9983231044501064,-1.8313392400741575,0.0881760418415069,-0.3509607017040252
1783202886150262800,4.2702626953125,0.4612058911412954,-0.839077373252809,-2.401893383702636,-1.6323628425598145,0.0211964752525091,-0.3075293600559234
1783202886160200000,4.280199951171875,0.5959494387604296,-1.0752189559891818,-2.7049703215926884,-1.4209650754928589,-0.0496246889233589,-0.2359480112791061
1783202886170137900,4.290137939453125,0.7040376191660761,-1.2307508784845471,-2.9212843373090025,-1.2144514322280884,-0.1108768582344055,-0.1361905336380005
1783202886180075000,4.300074951171875,0.7687142356075346,-1.3138102699652314,-3.0432705485552547,-1.0105239152908323,-0.1758254468441009,-0.0274757370352745
1783202886190013000,4.310012939453125,0.7085705864205956,-1.3297759008601306,-3.1765666738450524,-0.8002164959907532,-0.2585629522800445,0.0504741892218589
1783202886199950000,4.3199501953125,0.5154381243273616,-1.3509668651878832,-3.380520974203944,-0.5972281694412231,-0.3747629225254059,0.100905567407608
1783202886209886700,4.32988671875,0.2854876513160765,-1.4010983850568532,-3.7002433419466016,-0.4115992486476898,-0.5204394459724426,0.1343865543603897
1783202886219825000,4.339824951171875,-0.0329711262315511,-1.591185780365765,-4.164077243503928,-0.2256227284669876,-0.6485801935195923,0.1550941914319992
1783202886229761800,4.34976171875,-0.3065288319095969,-1.9086176990836856,-4.774178980126977,0.0125469686463475,-0.9273154139518738,0.1549525111913681
1783202886239700000,4.359699951171875,-0.5584814395010471,-2.2359958422765134,-6.156871355399489,0.381839781999588,-1.2223615646362305,0.1384656727313995
1783202886249636900,4.369636962890625,-0.6845091812230646,-2.685139247441292,-7.659549123489856,0.8765448331832886,-1.3908967971801758,0.102006196975708
1783202886259574800,4.37957470703125,-1.0745412028580903,-2.6307053542032834,-8.754890537792443,1.4395586252212524,-1.569215178489685,0.0319759547710418
1783202886269512000,4.389511962890625,-1.9655308419167996,-1.9633499907463787,-9.97067619459629,1.9610178470611568,-1.594322681427002,-0.037015363574028
1783202886279449000,4.399448974609375,-2.767910761891305,-1.4859638030461966,-10.79970592882633,2.382343053817749,-1.4248831272125244,-0.1059568226337432
1783202886289387000,4.409386962890625,-3.378089363142848,-1.1616200591132044,-11.565392194914818,2.6176414489746094,-1.115572214126587,-0.3014581501483917
1783202886299324000,4.419323974609375,-4.023230264443159,-0.8089641937356442,-12.31756431491375,2.635443925857544,-0.5150944590568542,-0.7042783498764038
1783202886309261800,4.42926171875,-4.611458607432246,-0.9515462529607116,-12.522834374046324,2.422112226486206,0.3714596033096313,-1.284748673439026
1783202886319198700,4.43919873046875,-5.119088396096229,-1.0561971523940563,-12.33339316768646,2.1119658946990967,1.3850367069244385,-1.9148025512695312
1783202886329137000,4.449136962890625,-4.852243924321234,-0.6706602502211928,-12.069590255564451,1.8512874841690063,2.323581457138061,-2.3512654304504395
1783202886339073800,4.45907373046875,-3.5829105094641447,-0.3428729417055845,-11.863969483298062,1.82288670539856,3.0027647018432617,-2.4071497917175293
1783202886349011000,4.469010986328125,-1.9247540103703733,0.0233490191444754,-11.782366720366475,2.0943899154663086,3.4125304222106934,-2.1697700023651123
1783202886358948900,4.478948974609375,-0.7017685051903129,1.0669070547178388,-11.376365999096633,2.608193635940552,3.5273232460021973,-1.7204402685165403
1783202886368886000,4.488885986328125,0.1438118202157318,2.080902603459358,-10.53275010563135,3.288099527359009,3.423508644104004,-1.1374553442001345
1783202886378823700,4.49882373046875,0.6485449375901371,2.7526120704725385,-9.128969349622723,4.100898742675781,3.1155648231506348,-0.5248004198074341
1783202886388760800,4.5087607421875,0.5588474232692271,3.480118535770476,-7.584324078896641,4.975045204162598,2.650946140289306,0.0250304490327835
1783202886398698800,4.51869873046875,0.0351445978131145,4.470451469373702,-5.88496930797398,5.770392417907715,2.1222825050354004,0.4320864081382751
1783202886408636000,4.528635986328125,-0.6382734997488558,5.4350014346838,-3.926742067068815,6.488875389099121,1.5961869955062866,0.6796882152557373
1783202886418573800,4.53857373046875,-1.1500428724355996,6.393199985140562,-2.083981864774227,7.144472122192383,1.1565059423446655,0.8433150053024292
1783202886428511000,4.548510986328125,-1.223550153325498,7.207732991984487,-0.3420212933123111,7.699347496032715,0.7682011723518372,0.9763060808181764
1783202886438447900,4.55844775390625,-1.0288336369112134,8.136245429229735,1.1749749229878186,7.912137031555176,0.4738104939460754,1.0972950458526611
1783202886448386000,4.568385986328125,-0.6796336841411889,9.089550946947933,3.235637871494889,7.563506603240967,0.3640091717243194,1.188977837562561
1783202886458322700,4.57832275390625,-0.5541495477765799,9.76388579402864,5.657194571566581,7.025216579437256,0.359340488910675,1.202488899230957
1783202886468260900,4.5882607421875,-0.6316043972484767,10.43241224709153,6.991523021164536,6.393824577331543,0.4864278733730316,1.1556308269500732
1783202886478197800,4.59819775390625,-0.8749144103094935,10.950262400996683,8.065177504315972,5.58372974395752,0.6738229990005493,1.0755794048309326
1783202886488135000,4.608135009765625,-0.937678324997425,11.078763693225383,9.186786747819184,4.562530517578125,0.8872308731079102,0.9676353931427002
1783202886498072800,4.61807275390625,-0.5401669073924422,10.60750110297203,10.266121614694594,3.4674112796783447,1.0320688486099243,0.8032618761062622
1783202886508010000,4.628010009765625,-0.3676829733133316,10.13089715169072,10.713739125466349,2.4357383251190186,1.112929344177246,0.5652024149894714
1783202886517948000,4.637947998046875,-0.306804726241529,9.721292852970958,10.724745672649144,1.5198839902877808,1.17878258228302,0.2919693887233734
1783202886527885000,4.647885009765625,-0.2666304636981338,9.398235787847636,10.596631333911418,0.7322856783866882,1.265968918800354,0.0093619357794523
1783202886537823000,4.657822998046875,-0.3747723470523953,9.195405523082613,10.337344437909126,0.0973283797502517,1.330815315246582,-0.2433204799890518
1783202886547759900,4.667759765625,-0.399821740373969,8.989563217020034,9.961514398497345,-0.37197145819664,1.3410226106643677,-0.4393483102321625
1783202886557697800,4.67769775390625,-0.3140209046980366,8.844078641286492,9.48681832666397,-0.7174442410469055,1.3009659051895142,-0.5654599070549011
1783202886567635000,4.687635009765625,-0.1086450836360454,8.665348798555135,9.128689948159456,-0.9740390181541444,1.2063744068145752,-0.6326090693473816
1783202886577571800,4.69757177734375,0.0490823030769825,8.66036224231422,8.91870221285522,-1.1706349849700928,1.0835548639297483,-0.6475172638893127
1783202886587509800,4.707509765625,0.1817474369868636,8.71427737237513,8.889797020888327,-1.3871827125549316,0.8806287050247192,-0.5932276844978333
1783202886597447000,4.717447021484375,0.3554731878206134,8.734434609740973,8.983372545686363,-1.7184306383132937,0.6385678648948669,-0.5063796043395996
1783202886607384800,4.727384765625,0.3169181239768862,8.802432625690102,9.29891792000532,-2.127828359603882,0.3517962694168091,-0.4299857318401336
1783202886617322000,4.737322021484375,0.0643360045765526,8.877513877898455,9.33241394689381,-2.55884861946106,0.0461039394140243,-0.361537754535675
1783202886627260000,4.747260009765625,-0.1820318068861961,8.653205356296896,9.105578537163138,-2.9288418292999268,-0.205836147069931,-0.3071940839290619
1783202886637196800,4.75719677734375,-0.5581541072428227,8.364863046202062,8.615492588496208,-3.219693899154663,-0.4372667968273163,-0.2850493788719177
1783202886647133000,4.7671328125,-1.0070277555555105,8.12665342501998,8.01935858694911,-3.443134307861328,-0.6682102680206299,-0.2990903854370117
1783202886657070800,4.77707080078125,-1.5179837660327553,7.848013009250163,7.452307472023367,-3.595106601715088,-0.892336905002594,-0.3456851840019226
1783202886667008000,4.787008056640625,-1.9219579499110575,7.5518673319280145,6.929250981646776,-3.6846203804016113,-1.125929355621338,-0.3996786475181579
1783202886676946000,4.79694580078125,-2.164107394760102,7.336996500757336,6.418441978424787,-3.752607822418213,-1.4158419370651243,-0.4340522587299347
1783202886686883000,4.806883056640625,-2.3844223166808485,7.295221305823325,5.870799328324199,-3.869574546813965,-1.800282597541809,-0.4603027701377868
1783202886696821000,4.816821044921875,-2.5849846365138887,7.318667647862434,5.302535330477356,-4.096370697021484,-2.193392515182495,-0.4451977014541626
1783202886706758000,4.8267578125,-2.5349293967515227,7.217392216211557,4.799746552103757,-4.400589466094971,-2.5526082515716557,-0.3455153107643127
1783202886716694800,4.83669482421875,-2.246462437363714,7.020706445550919,4.113672167390584,-4.745090484619141,-2.780033826828003,-0.1324854642152786
1783202886726633000,4.846633056640625,-1.921566904766857,6.796134889099002,3.30665669656992,-5.126522541046143,-2.8198015689849854,0.1696296483278274
1783202886736569900,4.85656982421875,-1.8070261872209608,6.484912054154276,2.41171393597126,-5.580639362335205,-2.719235897064209,0.52010577917099
1783202886746507800,4.8665078125,-1.901388916873932,6.109672966372966,1.2546890956938266,-6.101422786712647,-2.8403985500335693,0.8325614333152771
1783202886756445000,4.87644482421875,-2.7742978325799106,5.596303757274151,-0.9435743972986936,-6.93572473526001,-3.0107192993164062,0.9244198203086852
1783202886766382800,4.8863828125,-4.072850912180543,4.631583111572265,-2.767733944019675,-8.308162689208984,-2.572583675384521,0.8071696162223816
1783202886776320000,4.896320068359375,-5.113268896162509,2.6108546985685823,-3.959704425472021,-8.57685661315918,-2.24848747253418,0.4547447860240936
1783202886786258000,4.9062578125,-5.754482394886017,1.6262382429160176,-9.65024830893278,-8.183695793151855,-1.5978540182113647,0.0885830596089363
1783202886796194800,4.91619482421875,-5.501763186836242,0.0472145364437252,-13.023800028645992,-7.652255535125732,-0.963877022266388,-0.3761084079742431
1783202886806131700,4.926131591796875,-5.374099514475464,-0.3785814570117741,-15.976301926517486,-7.21189546585083,-0.4381138384342193,-0.7887839078903198
1783202886816070000,4.93606982421875,-4.4360266372025015,-0.8484217593770473,-17.87231441105008,-6.6817545890808105,-0.088869385421276,-1.1389838457107544
1783202886826006800,4.9460068359375,-3.020571517752111,-1.090611974627897,-19.95218474885225,-5.953090667724609,-0.1127685904502868,-1.590678334236145
1783202886835945000,4.955945068359375,-1.0626035123050213,-1.6821723115839062,-22.847179045128826,-4.915909767150879,-0.437017023563385,-1.6547547578811646
1783202886845881900,4.9658818359375,1.571835183207691,-2.844732428026199,-25.40944243900776,-3.5864572525024414,-0.3096931576728821,-1.496842622756958
1783202886855820000,4.975820068359375,3.2639608796596526,-2.6935207068175075,-25.311217042577265,-1.933733940124512,0.0931885093450546,-1.172023057937622
1783202886865757000,4.9857568359375,4.510989523728192,-2.7835210034772757,-24.42984220408201,-0.2013018727302551,0.5131192207336426,-0.7454197406768799
1783202886875693800,4.99569384765625,5.516950819095969,-2.7859406318396327,-22.36088488996029,1.36489737033844,0.9547334909439088,-0.2444361597299575
1783202886885631700,5.0056318359375,5.763160206860303,-2.310642064068466,-18.526236584699152,2.656862258911133,1.257096529006958,0.2237973660230636
1783202886895569000,5.01556884765625,5.07829812054634,-1.1772764779284597,-14.27205120024681,3.5150041580200195,1.3931187391281128,0.6666336059570312
1783202886905506800,5.0255068359375,4.138116872817277,-0.2666032103650271,-9.767961080643534,3.921608448028565,1.3353041410446167,1.0283979177474976
1783202886915444000,5.03544384765625,3.0018209323138,0.3970088749103247,-5.857747539049386,4.02157735824585,1.116410732269287,1.229358434677124
1783202886925382000,5.0453818359375,1.7064888605862856,1.0781241759113966,-2.8582471586376426,3.991630792617798,0.7974159121513367,1.2986949682235718
1783202886935319000,5.055319091796875,0.5995654373005033,1.5399467376463114,-0.7024199548363685,3.921873569488525,0.4815669655799866,1.252039909362793
1783202886945257000,5.065257080078125,-0.4192418956369161,1.951871588268131,0.9237374779284,3.8241679668426514,0.2941502034664154,1.1086821556091309
1783202886955193900,5.07519384765625,-1.4160859646998345,2.29019008153975,2.2492969301372767,3.662314176559448,0.2402734458446502,0.9052934050559998
1783202886965130800,5.085130859375,-2.193811043628305,2.5206141634121537,3.365181950774789,3.39711856842041,0.2707458734512329,0.6851663589477539
1783202886975069000,5.09506884765625,-2.700365458145737,2.6924317425370217,4.297949707376957,3.0337133407592773,0.34966841340065,0.4786036014556885
1783202886985005800,5.105005859375,-2.910321629267931,2.769034212963283,5.103416779711842,2.600660800933838,0.401300698518753,0.3022384345531463
1783202886994943700,5.11494384765625,-2.8719553659945727,2.8729437925100325,5.692582111290097,2.118530750274658,0.4109809994697571,0.1650642901659011
1783202887004881000,5.124880859375,-2.6828803625985977,2.976295153652132,6.104466629901528,1.6150304079055786,0.3805189728736877,0.0503036342561244
1783202887014818800,5.13481884765625,-2.452365387572348,3.0155835002064704,6.29616642884314,1.1275246143341064,0.3355006873607635,-0.0272055007517337
1783202887024756000,5.144755859375,-2.230210098481923,2.957386747303605,6.297715996372699,0.6789675354957581,0.2855459153652191,-0.0637592524290084
1783202887034692900,5.15469287109375,-2.095580240370333,2.868479798838496,6.118771049585938,0.2882412075996399,0.2360168546438217,-0.0902708396315574
1783202887044630800,5.164630859375,-2.115666458326578,2.915853836692869,5.810883496543765,-0.0766078531742096,0.236740693449974,-0.1046830713748931
1783202887054568000,5.17456787109375,-2.1087278912350533,2.753407312503457,5.539741912096739,-0.4324730038642883,0.2202802300453186,-0.1195120066404342
1783202887064505900,5.184505859375,-2.076474265623093,2.378453763665259,5.140578927892446,-0.7563067674636841,0.157876506447792,-0.1533224284648895
1783202887074442800,5.19444287109375,-2.036211228817701,2.049683873853087,4.671761392703652,-1.0307506322860718,0.0652965903282165,-0.22017702460289
1783202887084381000,5.204380859375,-2.0394598553501067,1.8254023863889275,4.1727562245219945,-1.2823491096496582,-0.002052092924714,-0.3104946911334991
1783202887094317800,5.21431787109375,-2.003536016792804,1.7009145675852897,3.745484751686454,-1.5280405282974243,0.0083899246528744,-0.4074803292751312
1783202887104256000,5.224256103515625,-1.828415304469317,1.5517134555466472,3.3646529584646223,-1.7801518440246582,0.0399041734635829,-0.4982312619686126
1783202887114193000,5.23419287109375,-1.5072155576504769,1.3444516380749645,2.9261820462226864,-2.0180141925811768,0.0432561784982681,-0.5747701525688171
1783202887124129800,5.2441298828125,-1.1206688939131797,1.0541912193991243,2.433245384299755,-2.2407963275909424,0.0386148206889629,-0.6617276668548584
1783202887134067700,5.254067626953125,-0.8178719420082866,0.8584016669258475,1.9985335323303937,-2.454313039779663,0.046057142317295,-0.7583449482917786
1783202887144004900,5.2640048828125,-0.5619719119653105,0.6998392906934022,1.5663970838069914,-2.5899789333343506,0.0396487787365913,-0.8474881649017334
1783202887153942800,5.27394287109375,-0.2956817130722105,0.5998550313642248,0.915346666201949,-2.6923253536224365,0.0365343876183033,-0.9117108583450316
1783202887163880000,5.2838798828125,0.0515194670960307,0.470508447417803,0.3368763316392898,-2.7692995071411133,0.0261464621871709,-0.9261170029640198
1783202887173817900,5.29381787109375,0.4596851113148033,0.2538829728658311,-0.2695002469807863,-2.7847166061401367,0.0003868145868182,-0.9056529402732848
1783202887183755000,5.303755126953125,0.8090838015273213,0.1428808960411697,-0.9789595989346505,-2.694416284561157,-0.0258543752133846,-0.8540440797805786
1783202887193692000,5.31369189453125,1.0117371022902428,0.0473884317059069,-1.7491864310622214,-2.518692970275879,-0.0644056648015976,-0.7706987261772156
1783202887203630000,5.323630126953125,1.2997526646487414,-0.171209384098649,-2.489853406706452,-2.284327268600464,-0.1337935179471969,-0.6609834432601929
1783202887213566700,5.333566650390625,1.5035608345352112,-0.3883570741601288,-3.167113201323152,-2.0222373008728027,-0.2424187362194061,-0.5587469339370728
1783202887223505000,5.3435048828125,1.5448219424672425,-0.5965634790055453,-3.846217162501812,-1.734963059425354,-0.3492932617664337,-0.4998494982719421
1783202887233441800,5.35344189453125,1.4034054929554465,-0.7058442301966249,-4.536360404089093,-1.384804606437683,-0.4001201391220093,-0.4844940900802612
1783202887243379700,5.363379638671875,1.353939305127412,-0.728994511898607,-5.140047012972832,-0.9933320879936218,-0.4082930982112884,-0.4527731835842132
1783202887253316900,5.37331689453125,1.4414754036307331,-0.8003963449418544,-5.646770208185911,-0.6278157234191895,-0.3886175155639648,-0.368193119764328
1783202887263254800,5.3832548828125,1.4683032048016786,-0.938403716662526,-5.995757833379507,-0.3089951574802398,-0.3302769660949707,-0.2442030012607574
1783202887273192000,5.39319189453125,1.3111856205500665,-1.1485206313043832,-6.2390054487288,-0.0086463242769241,-0.2860718965530395,-0.1177138984203338
1783202887283129000,5.403129150390625,0.9207296744145452,-1.4306855679385364,-6.714393009957671,0.3585114479064941,-0.3470103442668915,-0.0712268203496933
1783202887293067000,5.41306689453125,0.3518405304066836,-1.6670486844711006,-7.605592492374777,0.7833210825920105,-0.4622441828250885,-0.0996902883052825
1783202887303004000,5.42300390625,-0.2741163624741137,-1.7460880266554653,-8.36572755407691,1.2241469621658323,-0.5777207016944885,-0.1557612866163253
1783202887312941800,5.43294189453125,-0.9143300365053116,-1.7452832861438392,-8.998717998856305,1.656220316886902,-0.6607986688613892,-0.2056307345628738
1783202887322878700,5.442878662109375,-1.4855270190641283,-1.7559952342942355,-9.55901320978105,2.0615456104278564,-0.6806879639625549,-0.3039554357528686
1783202887332817000,5.45281689453125,-2.039459270828217,-1.4584110486015676,-10.076336709463597,2.437915086746216,-0.5958448052406311,-0.4310203492641449
1783202887342753800,5.46275390625,-2.1396302483685314,-1.1136917483769355,-10.502910263162851,2.770517587661743,-0.3830367028713226,-0.5097364783287048
1783202887352691000,5.47269091796875,-1.909611386296153,-1.165642592627555,-10.735354744946957,3.087634325027466,-0.1124404445290565,-0.5473275780677795
1783202887362628900,5.48262890625,-2.0066632089026277,-1.2577572510927917,-11.020588567632435,3.391350030899048,0.1577140837907791,-0.6562260985374451
1783202887372566000,5.49256591796875,-2.473842183104157,-0.6803381791487336,-11.308027206885814,3.644206285476685,0.4368663132190704,-0.8529258966445923
1783202887382504000,5.50250390625,-2.782116689637303,0.1709753561470657,-11.470337245213983,3.7771692276000977,0.803875207901001,-1.044816255569458
1783202887392440800,5.51244091796875,-2.7737808229684826,0.6431535999406128,-11.363644464689491,3.813515901565552,1.2679250240325928,-1.203909993171692
1783202887402378800,5.522378662109375,-2.831296607869864,1.079726204280555,-11.12326802086234,3.812578439712525,1.8628469705581665,-1.3209198713302612
1783202887412316000,5.53231591796875,-2.771130600720644,1.4025361627750097,-10.65330657633543,3.846390724182129,2.4806087017059326,-1.365073800086975
1783202887422253800,5.54225390625,-2.5330691558375955,1.6006144107073546,-10.11101990031004,3.9509451389312735,3.038597345352173,-1.337190866470337
1783202887432191000,5.55219091796875,-2.3045472543247043,2.057422359150648,-9.32100291056335,4.132575988769531,3.485233783721924,-1.2437824010849
1783202887442128000,5.5621279296875,-2.218877534215152,2.778689345537126,-8.227706738352776,4.361294746398926,3.808458089828491,-1.1211185455322266
1783202887452066000,5.572066162109375,-2.37655903595984,3.656413552570343,-6.873332695069909,4.582809925079346,4.019567489624023,-0.9577375054359436
1783202887462003000,5.5820029296875,-2.465089260067045,4.336766052505373,-5.255596469169855,4.734931468963623,4.136057376861572,-0.7749125361442566
1783202887471940900,5.59194091796875,-2.500237730337679,4.859633450050652,-3.5117683502703905,4.711920261383057,4.201325416564941,-0.57938152551651
1783202887481877800,5.601877685546875,-2.613688460689783,5.335526330453157,-1.6454139218986032,4.742823123931885,4.157678127288818,-0.3933720290660858
1783202887491815700,5.611815673828125,-2.9632541780322788,5.954284251740575,-0.3990034097284078,4.923050403594971,3.897381067276001,-0.2414092421531677
1783202887501752800,5.6217529296875,-3.460308504407108,6.695158148133754,0.3022778964668512,5.008804798126221,3.559016466140747,-0.1017256379127502
1783202887511690800,5.631690673828125,-3.61201443887353,6.843789789721369,1.6500035877764223,4.864757537841797,3.2046823501586914,0.0269118398427963
1783202887521628000,5.6416279296875,-3.393031788469851,6.716635820448398,3.144391081905365,4.585367679595947,2.806710720062256,0.0976251512765884
1783202887531565000,5.65156494140625,-3.2667022873222824,6.8862798549264665,4.102600738278031,4.3273024559021,2.4402458667755127,0.1080860793590545
1783202887541503000,5.6615029296875,-3.2681396266490217,7.246698974716663,4.807700725978613,4.1581315994262695,2.138912916183472,0.0939564108848571
1783202887551440000,5.67143994140625,-3.1829742027997967,7.579426954504847,5.353790885940194,3.98108983039856,1.8852250576019287,0.0838141441345214
1783202887561377800,5.681377685546875,-3.042014995536208,7.7984940683215855,6.017973756840825,3.725733757019043,1.668662428855896,0.0919535607099533
1783202887571314700,5.691314697265625,-2.936800470870733,7.9527026332587,6.751243023449182,3.385539531707764,1.4335414171218872,0.1220321655273437
1783202887581252900,5.7012529296875,-2.799794969668984,8.136362918129564,7.3382923857867715,2.978491306304932,1.219352960586548,0.1504789888858795
1783202887591189800,5.711189697265625,-2.683899768774211,8.331120935598015,7.904357412284612,2.559337854385376,1.0556137561798096,0.1556599289178848
1783202887601127000,5.721126953125,-2.6301374911874533,8.48646639561057,8.355005084532499,2.13470458984375,0.8993031978607178,0.1472475379705429
1783202887611064800,5.73106494140625,-2.54288970810622,8.495005091375113,8.641733529689908,1.7301864624023438,0.7599004507064819,0.1381197273731231
1783202887621002000,5.741001953125,-2.421812720659375,8.494976449802518,8.869868916103243,1.3505206108093262,0.6401921510696411,0.1184205785393714
1783202887630940000,5.75093994140625,-2.32972831120193,8.574929691961406,9.072623777544498,0.9743244051933287,0.5296214818954468,0.0960292145609855
1783202887640876800,5.760876708984375,-2.209746717776358,8.646219150671362,9.289590119689702,0.5995409488677979,0.4100753962993622,0.0878775492310524
1783202887650814500,5.770814453125,-2.059148744551837,8.706367622163892,9.477097727638483,0.2261487245559692,0.2795422971248626,0.0862408652901649
1783202887660751600,5.780751708984375,-1.9436095174878836,8.807316306078434,9.611503275474906,-0.1218249648809433,0.1341464817523956,0.0991231128573417
1783202887670689500,5.790689453125,-1.901142248636484,8.92548909651637,9.692316349333524,-0.4586807191371918,-0.0273264087736606,0.1255594342947006
1783202887680626400,5.80062646484375,-1.963621793425083,9.046122139587998,9.757061500966548,-0.8196202516555786,-0.2093460112810135,0.143569067120552
1783202887690563300,5.810563232421875,-2.138253260926902,9.21238179232478,9.875174670171736,-1.2069953680038452,-0.423258900642395,0.157512679696083
1783202887700501500,5.82050146484375,-2.265064992633462,9.286720117211342,9.942312854421138,-1.6448768377304075,-0.6732666492462158,0.1642230600118637
1783202887710438400,5.8304384765625,-2.3711337960407137,9.25399390565157,9.88938089017868,-2.1240413188934326,-0.9427792429924012,0.1035811528563499
1783202887720376600,5.84037646484375,-2.505553664663434,9.114646225237848,9.700501993876696,-2.6364686489105225,-1.096460461616516,0.0402727574110031
1783202887730313500,5.8503134765625,-2.759748205962777,8.901869735997915,9.590518355113268,-2.9054043292999268,-1.2147635221481323,-0.0282759647816419
1783202887740251600,5.860251708984375,-3.031406800021231,9.256550019875167,8.726534796401857,-3.110764980316162,-1.3506728410720823,-0.0884953588247299
1783202887750188500,5.8701884765625,-3.214378225845098,9.220798907536269,8.339457971310615,-3.330545663833618,-1.5968239307403564,-0.1053989380598068
1783202887760125400,5.88012548828125,-3.2388129943996664,9.112654759159684,8.025118465650081,-3.58255672454834,-1.9339739084243772,-0.1010526642203331
1783202887770063400,5.8900634765625,-3.2839386688053605,9.05659794089496,7.682386393719911,-3.871175765991211,-2.3384757041931152,-0.1062583774328231
1783202887780000500,5.90000048828125,-3.455691073739529,8.896109857296944,7.202367081037163,-4.23001766204834,-2.806723117828369,-0.1120970919728279
1783202887789938400,5.9099384765625,-3.7132781800866126,8.651992473375797,6.399019485074281,-4.639056205749512,-3.3473801612854004,-0.0972654148936271
1783202887799875600,5.91987548828125,-3.788007842378318,8.141684405413269,5.000442727449536,-4.99412727355957,-3.921920776367188,0.0127550894394516
1783202887809813500,5.9298134765625,-3.315029095856845,7.101093402951955,2.9830186166882515,-5.221278667449951,-4.379376411437988,0.2597732543945312
1783202887819750700,5.939750732421875,-2.8224361328050493,6.012378128790855,0.7690957822710275,-5.210967540740967,-4.657781600952148,0.5762428045272827
1783202887829688600,5.9496884765625,-2.534587451446056,5.217757444640994,-1.753653931865096,-4.936931610107422,-4.7448410987854,0.9283971786499025
1783202887839625500,5.95962548828125,-2.3282611612588164,4.256581047417223,-4.307634650567174,-4.489813327789307,-4.689217567443848,1.2936909198760986
1783202887849562400,5.969562255859375,-2.262064349512756,3.0301790117919443,-6.571145984017849,-3.940012216567993,-4.642547607421875,1.650692105293274
1783202887859500300,5.979500244140625,-2.4056052438326176,1.6565423418954013,-8.75021670076251,-3.413606882095337,-4.633254051208496,1.93879508972168
1783202887869437400,5.9894375,-2.84181186440438,0.2344321484699845,-10.559836849999428,-3.11068058013916,-4.4927287101745605,2.083031177520752
1783202887879375400,5.999375244140625,-3.524852288249135,-1.176447625888884,-11.382717413949964,-3.83428406715393,-3.78820538520813,2.1311659812927246
1783202887889312500,6.0093125,-4.311290250465274,-2.9267379265397784,-10.40292662488818,-3.663907766342163,-3.011169910430908,1.925693154335022
1783202887899250400,6.01925048828125,-5.471359865266084,-3.4564161731436847,-13.082497716808318,-3.233618259429932,-2.376969337463379,1.6319904327392578
1783202887909187600,6.0291875,-5.8800844585418695,-4.571349299883842,-14.927223081696033,-3.2026281356811523,-1.760487079620361,1.268423080444336
1783202887919124500,6.03912451171875,-5.6455526490896935,-5.446866060000658,-14.264718957662582,-3.968196630477905,-0.9503127336502076,0.9395185112953186
1783202887929062700,6.049062744140625,-4.873783555956185,-6.193616154950857,-12.757599407732489,-4.63897705078125,-0.0849844962358474,0.4855689108371734
1783202887938999300,6.058999267578125,-4.236226533913612,-5.895344571515918,-13.301356740832327,-4.719793319702148,0.7284365296363831,-0.1169680655002594
1783202887948937500,6.0689375,-3.376576620492339,-5.314681695345044,-14.559537770295142,-4.018427848815918,1.2263126373291016,-0.692577064037323
1783202887958874400,6.078874267578125,-1.848621933934837,-5.474026454126834,-16.176152298688887,-2.780252695083618,1.372488021850586,-1.0563383102416992
1783202887968812500,6.0888125,-0.236533943054825,-5.541721103215218,-16.60928301894665,-1.7606881856918335,1.518572211265564,-1.1204344034194946
1783202887978749400,6.09874951171875,1.210485796830058,-4.940508190968632,-14.324620760917664,-1.1619237661361694,1.702316164970398,-0.925160586833954
1783202887988686600,6.1086865234375,2.36499485489428,-4.084545441627502,-11.363510024654865,-0.471230149269104,1.7036962509155271,-0.5991737246513367
1783202887998624500,6.11862451171875,2.940372191877663,-3.116194038207829,-9.703313544166088,0.4128485321998596,1.4945744276046753,-0.2922649085521698
1783202888008561700,6.128561767578125,2.8096853723034263,-1.9060544244669375,-8.220307275751233,1.3331934213638306,1.135090947151184,-0.0280172210186719
1783202888018499600,6.13849951171875,2.4537410598397256,-0.9766418235115706,-6.339477162781358,2.1057004928588867,0.6767990589141846,0.1919843852519989
1783202888028436500,6.1484365234375,1.8680122785814104,-0.2600948513843119,-4.3836914698094125,2.569910049438477,0.2668355405330658,0.3502276539802551
1783202888038374400,6.15837451171875,1.1817941014833748,0.4111088945964351,-2.224218018460274,2.6859288215637207,-0.0065419510938227,0.4656279981136322
1783202888048311600,6.1683115234375,0.6194632930777967,0.9749993900667876,-0.2438911739498376,2.57862401008606,-0.172228991985321,0.5161257386207581
1783202888058248400,6.17824853515625,0.1362133279107511,1.5196647048570215,1.164183479860425,2.4098849296569824,-0.2403497099876403,0.4968827962875366
1783202888068186600,6.1881865234375,-0.2580385033763945,2.0006642607487737,2.079988995745778,2.2109389305114746,-0.2393934279680252,0.4405816793441772
1783202888078123500,6.19812353515625,-0.4964052148163318,2.3314975128315387,2.8113018675893544,1.962718486785889,-0.20811328291893,0.3873850405216217
1783202888088061700,6.208061767578125,-0.5380220043182373,2.4969179382652045,3.401898693275452,1.6789062023162842,-0.1918955296278,0.3696326017379761
1783202888097998600,6.21799853515625,-0.4596618765696882,2.554918291813135,3.8139749350667,1.3975865840911863,-0.2067503780126571,0.3751218914985657
1783202888107935500,6.227935546875,-0.4417053641185164,2.668601954138279,4.020140481734275,1.14229416847229,-0.243449404835701,0.3937993347644806
1783202888117873400,6.237873291015625,-0.4998258369147777,2.7483488600701094,4.074056196317076,0.9024240970611572,-0.2811067700386047,0.4381713271141052
1783202888127810600,6.247810546875,-0.4754410449817776,2.697167831148207,4.114365994873642,0.6533698439598083,-0.331118643283844,0.4821333289146423
1783202888137748500,6.25774853515625,-0.4816292320974171,2.647978560565412,4.132242427825927,0.3949470818042755,-0.3746546506881714,0.5112531185150146
1783202888147685600,6.267685546875,-0.4986855808384716,2.566012517279386,4.0802778473109,0.1268768161535263,-0.4100294113159179,0.5276125073432922
1783202888157622500,6.27762255859375,-0.5402734365068376,2.4508624356634914,3.959692150512337,-0.1413248181343078,-0.4022338092327118,0.524569034576416
1783202888167560700,6.287560791015625,-0.6481904981292784,2.309631133460253,3.7550931225091215,-0.4197262525558471,-0.3556809723377228,0.5101458430290222
1783202888177497300,6.297497314453125,-0.7151106557138264,2.074040316474437,3.509066690096259,-0.6974947452545166,-0.3129854500293731,0.4771321713924408
1783202888187435300,6.307435302734375,-0.7564566654503345,1.8135855457365515,3.1765929773300883,-0.9570594429969788,-0.3083141446113586,0.4260433912277221
1783202888197372400,6.317372314453125,-0.7088740994118153,1.5446112223260104,2.7370482983767985,-1.1799556016921997,-0.3289856016635895,0.3715937435626983
1783202888207310300,6.327310302734375,-0.6163686880633235,1.277742200631648,2.2355577431201934,-1.364084005355835,-0.3147498965263366,0.326155424118042
1783202888217247500,6.33724755859375,-0.5627775292597711,1.061926928217709,1.7881144198715686,-1.524277687072754,-0.268248438835144,0.2873246967792511
1783202888227184600,6.3471845703125,-0.4433937555968761,0.8613027951948344,1.3455243818730116,-1.648112654685974,-0.2039054036140442,0.2606898844242096
1783202888237122600,6.35712255859375,-0.240100841756165,0.6483494150180369,0.8436784373074769,-1.7188353538513184,-0.1431025117635727,0.260727971792221
1783202888247059500,6.3670595703125,0.0252177356258034,0.3335276787985116,0.3235696908205747,-1.7317861318588257,-0.1160223633050918,0.27962526679039
1783202888256997600,6.37699755859375,0.2793001948527991,-0.0045730070039629,-0.2283598428189754,-1.6965399980545044,-0.1208165809512138,0.3111256659030914
1783202888266934300,6.386934326171875,0.4712739884302019,-0.294480666719377,-0.7284066290080546,-1.6113454103469849,-0.1479106098413467,0.359853982925415
1783202888276871400,6.396871337890625,0.5395858926340937,-0.5697914631424471,-1.1969640519559384,-1.4907227754592896,-0.1752572804689407,0.4088454842567444
1783202888286809300,6.406809326171875,0.4072694260314107,-0.8200120227769017,-1.5504033958613872,-1.3573644161224363,-0.1946050822734832,0.4430187046527862
1783202888296746500,6.41674658203125,0.1928945616841316,-1.069230236968398,-1.871320526346564,-1.2129372358322144,-0.2521602213382721,0.4445292353630066
1783202888306684400,6.426684326171875,-0.0809378692820668,-1.3384677413597703,-2.272548041865229,-1.0839855670928955,-0.3387610614299774,0.4087610244750976
1783202888316621600,6.43662158203125,-0.3848024504184723,-1.6499124023616314,-2.647609434992075,-0.9675710797309875,-0.4331834316253662,0.3434888124465942
1783202888326558500,6.446558349609375,-0.67882032193169,-1.9177594753079117,-3.042376814585924,-0.8815638422966003,-0.488612413406372,0.2582548260688782
1783202888336496600,6.45649658203125,-0.8933267037041485,-2.125933585318923,-3.4895237852364778,-0.7979605197906494,-0.5071018934249878,0.1979757696390152
1783202888346433300,6.466433349609375,-1.0112401125535369,-2.4691622085943816,-4.132244765913486,-0.6471191048622131,-0.4671505987644195,0.155978187918663
1783202888356370400,6.476370361328125,-1.1567688196897503,-2.7442133677005764,-4.923562316864729,-0.4008763432502746,-0.3966303467750549,0.0857293307781219
1783202888366308400,6.486308349609375,-1.4643196881234646,-2.8012647499606014,-5.763271266019344,-0.0834183394908905,-0.3453187942504883,-0.0208200681954622
1783202888376245500,6.49624560546875,-1.82428317310065,-2.7394951070070266,-6.618647155383229,0.2190232872962951,-0.3540254533290863,-0.191630944609642
1783202888386183400,6.506183349609375,-2.4200389889851213,-2.2611732458919285,-7.428630828359722,0.3922686874866485,-0.3022029101848602,-0.4115779101848602
1783202888396120600,6.51612060546875,-2.898964076690376,-1.6405675047807395,-7.871284579244255,0.3792194724082947,-0.115088976919651,-0.610605001449585
1783202888406057500,6.526057373046875,-2.9983132164537905,-1.2608508331939576,-8.176998295378684,0.2447973787784576,0.2598018944263458,-0.7438944578170776
1783202888415995600,6.53599560546875,-2.6491742000907657,-1.2111341777361928,-8.466924659794568,0.0671536102890968,0.8044813871383667,-0.797368586063385
1783202888425932300,6.545932373046875,-2.0285776651993395,-1.4360950257666407,-8.722710854199528,-0.0327988564968109,1.4242498874664309,-0.8351021409034729
1783202888435870500,6.555870361328125,-1.450978560513258,-1.5890826706066727,-9.05870748039484,0.0193327870219945,1.996537208557129,-0.9199478030204772
1783202888445807400,6.565807373046875,-1.0925627433694898,-1.5372167281605302,-9.65462988501787,0.2391840666532516,2.4552552700042725,-1.0073617696762085
1783202888455744500,6.57574462890625,-0.832291512504965,-1.5924704133488237,-10.304297908353805,0.6331236362457275,2.908160448074341,-1.0906596183776855
1783202888465682400,6.585682373046875,-0.8822332088902592,-1.446004863753915,-10.626970358073711,1.18081796169281,3.344834566116333,-1.1674964427947998
1783202888475619600,6.59561962890625,-1.184837414702028,-0.8204043100301176,-10.61652845903635,1.8419075012207031,3.689204692840576,-1.2179359197616575
1783202888485556500,6.605556396484375,-1.4707359849065542,-0.0518652483263984,-10.376802003550528,2.539202213287353,3.8661839962005615,-1.228049397468567
1783202888495494700,6.61549462890625,-1.7477106594212353,0.8012573456853628,-9.85461703531146,3.218773365020752,3.9366564750671382,-1.1633412837982178
1783202888505431300,6.625431396484375,-1.7693842926993966,1.4294563184045257,-8.96959419570267,3.8605027198791504,3.824882745742798,-1.0206819772720337
1783202888515369500,6.635369384765625,-1.7254658021263778,2.1100996179796754,-8.147977368077635,4.475826740264893,3.5637452602386475,-0.8115656971931458
1783202888525306400,6.645306396484375,-1.5781797299288212,2.7592355802655217,-7.366340668663382,5.010249137878418,3.275320291519165,-0.5665075778961182
1783202888535243500,6.655243408203125,-1.666386567300558,3.5462925511628387,-6.308909590560197,5.477584838867188,3.026586532592773,-0.3234845399856567
1783202888545181400,6.665181396484375,-1.9349420807771385,4.370668614368141,-5.115936654067039,5.977487087249756,2.7520065307617188,-0.0647595524787902
1783202888555118600,6.67511865234375,-2.137300197985768,5.129842429822683,-4.154622601938248,6.3519287109375,2.44914174079895,0.1647788286209106
1783202888565055500,6.685055419921875,-2.303138702701032,5.915751984250545,-2.716303616511821,6.002763271331787,2.3242037296295166,0.3004377782344818
1783202888574993700,6.69499365234375,-2.4735899619087576,6.278769303840399,-0.0842751970112323,5.52573299407959,2.330467462539673,0.3589058816432953
1783202888584930300,6.704930419921875,-2.726913273331523,6.311864348712563,1.0956547180354594,5.257674694061279,2.4455554485321045,0.3219357430934906
1783202888594868500,6.714868408203125,-3.091448888529837,6.553343200823664,1.391048115685582,5.04764461517334,2.6465604305267334,0.2299679815769195
1783202888604805400,6.724805419921875,-3.428900974230468,6.738039843004942,2.1810323722064493,4.756779670715332,2.831766128540039,0.1758981347084045
1783202888614742500,6.734742431640625,-3.609758184379339,6.925970644801855,3.197787741050124,4.343216896057129,3.0423836708068848,0.118177056312561
1783202888624680400,6.744680419921875,-3.907265505443513,7.163924245396256,4.472497295987606,3.963833808898926,3.171863555908203,0.0713876858353614
1783202888634617600,6.75461767578125,-3.886936418642104,7.324093764564394,5.236898198440671,3.584885358810425,3.103515148162842,0.087784506380558
1783202888644554800,6.7645546875,-3.5057705711603164,7.296693131941557,5.767347721678018,3.2211928367614746,2.925171375274658,0.1830375492572784
1783202888654493000,6.774492919921875,-3.0792914177462456,7.318180741128325,6.331193318560719,2.874877691268921,2.6873791217803955,0.3043242990970611
1783202888664429800,6.784429931640625,-2.739872708147764,7.365553902199864,6.821002788373828,2.6164450645446777,2.349571943283081,0.4055651426315307
1783202888674367000,6.794366943359375,-2.519244044102728,7.428955238008498,7.033245024606585,2.4556567668914795,1.934497714042664,0.4763658046722412
1783202888684305000,6.804304931640625,-2.2826856972590086,7.550097399646043,7.162671030464768,2.327399015426636,1.4747098684310913,0.4963610470294952
1783202888694241800,6.81424169921875,-2.15605925899148,7.7376856716156,7.391929283428191,2.120623111724853,1.038310408592224,0.4948073625564575
1783202888704178700,6.8241787109375,-2.045186562433839,7.8636209127485746,7.801850393012166,1.7957454919815063,0.7021201848983765,0.5059889554977417
1783202888714116900,6.834116943359375,-2.0175217259168625,8.056406753361225,8.27831464356184,1.3901649713516235,0.4997521638870239,0.5007014870643616
1783202888724053800,6.8440537109375,-2.190446097239852,8.382426175421475,8.793649015253783,0.9686522483825684,0.3927086889743805,0.5031046271324158
1783202888733992000,6.853991943359375,-2.2384370979487893,8.507226859566568,9.08519099817276,0.5869879722595215,0.2956212759017944,0.5139412879943848
1783202888743928800,6.8639287109375,-2.3265739388242364,8.552339674490689,9.24378932250142,0.2162122428417205,0.1874100118875503,0.5262636542320251
1783202888753866000,6.873865966796875,-2.543334821525216,8.641249545565246,9.512895017206668,-0.1623204052448272,0.0481791496276855,0.5290727615356445
1783202888763804000,6.883803955078125,-2.8044980327934024,8.650779590454697,9.843242239338158,-0.5650001168251038,-0.1915361583232879,0.51906818151474
1783202888773740800,6.89374072265625,-3.141253952923417,8.742914268794655,10.042504582488537,-1.0143225193023682,-0.508313000202179,0.4987629055976867
1783202888783677700,6.903677734375,-3.2998958241328595,8.746982541146874,10.323177965390682,-1.488279104232788,-0.8844003677368164,0.4604375958442688
1783202888793616000,6.913615966796875,-3.4381706146180626,8.756435429146885,10.377383018308878,-1.9590239524841309,-1.2720433473587036,0.4171934425830841
1783202888803552800,6.923552734375,-3.553805703271925,8.70098183747232,10.212294162917136,-2.4496448040008545,-1.6310919523239136,0.3654561638832092
1783202888813490000,6.933489990234375,-3.773141989418864,8.728576531362533,10.049126046454903,-3.033031702041626,-1.9737592935562132,0.2963026463985443
1783202888823427800,6.943427734375,-3.927399946455657,8.723121188566088,9.916437239408491,-3.7022509574890137,-2.3028128147125244,0.2399470508098602
1783202888833365000,6.953364990234375,-3.863633868987858,8.602133340707422,9.577145663321016,-4.3624186515808105,-2.6201846599578857,0.2332273721694946
1783202888843302000,6.963302001953125,-3.752577340295911,8.479260994276403,8.810355235382914,-4.938941478729248,-2.9046027660369877,0.2939651906490326
1783202888853239800,6.97323974609375,-3.735949738360941,8.319715159964561,7.750579055458306,-5.420929908752441,-3.202221393585205,0.4136463403701782
1783202888863176700,6.9831767578125,-3.702105628687143,8.015130155599117,6.445493651479482,-5.807487487792969,-3.579167604446411,0.575536847114563
1783202888873113900,6.99311376953125,-3.584638063909113,7.602986109268665,4.861719900935888,-6.086172580718994,-4.069432735443115,0.7510567307472229
1783202888883051800,7.0030517578125,-3.287941474705934,7.182302782651782,2.979455955770612,-6.248695373535156,-4.6543049812316895,1.0029300451278689
1783202888892989000,7.012989013671875,-2.721245164567232,6.565988747385144,0.738570295625925,-6.268429756164551,-5.312674522399902,1.3601508140563965
1783202888902926000,7.022926025390625,-2.403413579007238,5.667802474820614,-1.970499862501025,-6.029619216918945,-5.857438087463379,1.821857213973999
1783202888912864000,7.032864013671875,-2.4402001718737183,4.118620437447727,-4.913512632015348,-5.360316753387451,-6.115943431854248,2.318475246429444
1783202888922801000,7.04280078125,-2.611808346031606,2.326207151338458,-7.848134589803219,-4.258830547332764,-6.120215892791748,2.690882444381714
1783202888932737800,7.05273779296875,-3.089959234493971,0.9989943789646027,-10.73965799509883,-2.858755111694336,-5.978844165802002,2.86602520942688
1783202888942675700,7.06267578125,-3.615335692250728,0.0488213140532374,-12.909769160318374,-2.54585075378418,-5.110438823699951,2.861171245574951
1783202888952612900,7.07261279296875,-4.011185021862388,-1.6797949149280786,-11.620734727430342,-1.848850131034851,-3.946125268936157,2.5663485527038574
1783202888962550000,7.082550048828125,-5.116868966481089,-1.9163176059365272,-12.645866879475117,-1.172494888305664,-2.7158312797546387,2.105462074279785
1783202888972488000,7.092488037109375,-5.522762135723233,-2.4499808305233715,-12.975822471940516,-0.5976225733757019,-1.7180954217910769,1.7110499143600464
1783202888982425000,7.102425048828125,-5.077774388933181,-3.6014012749224897,-12.03682078938484,-0.6918689012527466,-0.9868136048316956,1.409393072128296
1783202888992361700,7.11236181640625,-4.608087085172533,-4.201266571952402,-10.2179581800282,-1.6658422946929932,-0.2694373726844787,1.2037947177886963
1783202889002300000,7.1222998046875,-4.314541068954766,-4.767700431762635,-7.658773462942242,-2.8290328979492188,0.4009067416191101,0.9494308829307556
1783202889012236800,7.13223681640625,-4.176067248766124,-4.574714976924658,-7.117454755166173,-3.456679105758667,0.8615531921386719,0.5701794624328613
1783202889022174000,7.142174072265625,-3.844136264574528,-4.168635637460649,-8.6662349337399,-3.4573001861572266,1.0397416353225708,0.1678238362073898
1783202889032111900,7.15211181640625,-3.2319702888980504,-4.092211153949797,-10.535858593040704,-2.841495513916016,0.9421239495277404,-0.1230157315731048
1783202889042049000,7.162049072265625,-2.290036060021817,-4.359474435658752,-12.275858678084612,-1.881175756454468,0.7359752058982849,-0.2369224727153778
1783202889051986000,7.17198583984375,-1.206147767625749,-4.615864733436704,-12.979850996804236,-1.0177693367004397,0.625754177570343,-0.1610873639583587
1783202889061924000,7.181924072265625,-0.1431514566108584,-4.651050905369222,-12.134799517577886,-0.1935779601335525,0.559026300907135,-0.0076335780322551
1783202889071860700,7.19186083984375,0.4585620986342429,-4.142339458948373,-11.09348429249525,0.6235924959182739,0.5409500598907471,0.1039488762617111
1783202889081798000,7.2017978515625,0.5665779444560408,-3.22071619669497,-9.71707318944931,1.3781421184539795,0.5560784935951233,0.1416747868061065
1783202889091735800,7.21173583984375,0.4964057993382215,-2.387426174671948,-7.909182055962085,1.9673529863357544,0.5645449161529541,0.1111400350928306
1783202889101673000,7.2216728515625,0.2635617968425154,-1.518230142009258,-5.85378798776865,2.28753662109375,0.5925498008728027,0.0475670285522937
1783202889111609900,7.23160986328125,0.0523547488763928,-0.7759316196404397,-3.750027655813098,2.356272459030152,0.6365593075752258,-0.017670564353466
1783202889121548000,7.241548095703125,-0.0991036405697464,-0.1716230794660747,-1.907033644762635,2.2856407165527344,0.6616863012313843,-0.0632734224200248
1783202889131485000,7.25148486328125,-0.1930459528535604,0.3535707152001559,-0.5201864878982305,2.198899984359741,0.6390689015388489,-0.1010016277432441
1783202889141421800,7.261421875,-0.2804144397050142,0.8786249552652239,0.4255038786411285,2.1351375579833984,0.5789467692375183,-0.1266695857048034
1783202889151358700,7.271358642578125,-0.3585506955698132,1.3335958975397049,1.1847317623704672,2.029719352722168,0.484630674123764,-0.1404256075620651
1783202889161297000,7.281296875,-0.3711898123905062,1.6815793141268194,1.9359721544772384,1.817554235458374,0.3705334067344665,-0.1261920928955078
1783202889171233800,7.29123388671875,-0.334373116646707,1.8910227134212847,2.61809575573802,1.506898283958435,0.3149564266204834,-0.0998595580458641
1783202889181171000,7.3011708984375,-0.3879199979171157,2.0832621721975504,3.204357767090201,1.1484400033950806,0.3370841741561889,-0.0844948962330818
1783202889191108900,7.31110888671875,-0.583677840077877,2.2884783091858028,3.557171088051796,0.8317492008209229,0.4137829542160034,-0.0756497457623481
1783202889201046000,7.3210458984375,-0.8114949543222785,2.455994391724467,3.669580492657423,0.597578763961792,0.4811177849769592,-0.0686336457729339
1783202889210983000,7.33098291015625,-0.9407480878315866,2.5085686285704374,3.690717973232269,0.3913027942180633,0.461779236793518,-0.0676565319299697
1783202889220920800,7.3409208984375,-0.9500542608372866,2.393177870066464,3.720645493984222,0.1663721203804016,0.3630465865135193,-0.0666790604591369
1783202889230857700,7.350857666015625,-0.9368703696154056,2.212841176660359,3.7680391133219,-0.0668323636054992,0.2222138345241546,-0.0775013417005539
1783202889240795000,7.360794921875,-0.9471129466883836,2.0498101305812595,3.734370652475953,-0.2758505642414093,0.1021180525422096,-0.0981054231524467
1783202889250732000,7.37073193359375,-0.9453682949781416,1.892061993341148,3.5799651036620137,-0.4516085386276245,0.0037185128312557,-0.1189598366618156
1783202889260670000,7.380669921875,-0.9087827776417136,1.7612801889598368,3.293873202842474,-0.6272499561309814,-0.0359332747757434,-0.1383281946182251
1783202889270606800,7.39060693359375,-0.8146443582639098,1.578501363098621,3.0907126832097767,-0.8280249238014221,0.0010891919955611,-0.1538504213094711
1783202889280543700,7.400543701171875,-0.738282272464782,1.4482717857725915,2.971666617068648,-1.0337690114974976,0.0578576885163784,-0.1688687056303024
1783202889290482000,7.41048193359375,-0.6572422579824924,1.3526162398301065,2.775329221454262,-1.2333638668060305,0.1098670959472656,-0.1935658007860183
1783202889300418800,7.420418701171875,-0.5922267649754881,1.203015460949391,2.566853644278645,-1.4387181997299194,0.1274125277996063,-0.2307944297790527
1783202889310356000,7.43035595703125,-0.5688153481192887,1.0039201449289918,2.2847066816926,-1.6416921615600586,0.0900028273463249,-0.2812144756317138
1783202889320294000,7.4402939453125,-0.5613228004068136,0.8004444218672812,1.8547440700769424,-1.801352858543396,-0.0226536747068166,-0.3406495749950409
1783202889330231000,7.45023095703125,-0.4215098405689,0.4833566404119133,1.095888526791334,-1.8604758977890012,-0.1541917324066162,-0.3815424144268036
1783202889340167700,7.460167724609375,-0.136038994257152,0.0639686143025755,0.1570721376746892,-1.799949288368225,-0.2891407907009125,-0.3945282697677612
1783202889350104800,7.470104736328125,0.0652383419774472,-0.2375318680509924,-0.8790946186035871,-1.65187406539917,-0.3728066682815552,-0.3844282329082489
1783202889360042800,7.480042724609375,0.2650036662138998,-0.6062630352430045,-1.7999083180397748,-1.4513003826141355,-0.3401728272438049,-0.3714836537837982
1783202889369980000,7.48997998046875,0.425909536832571,-0.9627465691499412,-2.3205741138875484,-1.2426633834838867,-0.2531457841396332,-0.3581824898719787
1783202889379916800,7.499916748046875,0.4238900137037039,-1.1020819015387444,-2.5742951924562454,-1.0586925745010376,-0.1139822080731391,-0.3239818215370178
1783202889389855000,7.50985498046875,0.4751825401760637,-1.1084463220041243,-2.5781033525675534,-0.9162099957466124,0.0005813860334455,-0.2763549089431762
1783202889399791900,7.5197919921875,0.4811316578388214,-1.0758671176996082,-2.5250159055024386,-0.8084744215011597,0.0396259725093841,-0.218402698636055
1783202889409728800,7.529728759765625,0.5472631492637098,-1.166138121059537,-2.5600334428697824,-0.7173594236373901,0.0316556617617607,-0.1528252810239792
1783202889419666700,7.539666748046875,0.5576629627250135,-1.357805332905799,-2.638593769365549,-0.60038161277771,-0.0587531365454196,-0.0735201314091682
1783202889429603800,7.549603759765625,0.5109178704239428,-1.7625363265007734,-2.9463088884502646,-0.4473438560962677,-0.2701119780540466,-0.0028230594471096
1783202889439540700,7.559540771484375,0.3657086045004427,-2.011218972510844,-3.442101524326205,-0.214230477809906,-0.5472646951675415,0.0170632898807525
1783202889449478000,7.569477783203125,-0.0354769715726375,-1.628175056197494,-4.016490142533183,0.0886814668774604,-0.5615741610527039,0.0173165574669837
1783202889459415800,7.579415771484375,-0.3853051392436027,-1.4759481665968894,-3.784481129556894,0.421895682811737,-0.5030426979064941,0.0033227181993424
1783202889469353000,7.58935302734375,-0.7277426121413707,-1.3847101448357104,-4.001374406465888,0.7107831835746765,-0.4008835852146148,-0.0495346412062644
1783202889479289900,7.599289794921875,-1.108460423594713,-1.2239921249393373,-4.107030245158076,0.9229385256767272,-0.3871721923351288,-0.1143531948328018
1783202889489226800,7.609226806640625,-1.4483420745298266,-1.4893687891840934,-4.453268863904476,1.0348485708236694,-0.7253795266151428,-0.1990576982498169
1783202889499165000,7.6191650390625,-1.9516013930246232,-1.801164017189294,-5.821144778317213,1.1262285709381104,-1.1072369813919067,-0.2698524296283722
1783202889509101800,7.629101806640625,-2.175464801207185,-2.224544766196608,-7.044241634917259,1.2006607055664062,-1.385692119598389,-0.3298603892326355
1783202889519039000,7.6390390625,-2.2729858487606047,-2.4290447177395222,-8.34248988635242,1.3067246675491333,-1.3971656560897827,-0.3853888809680938
1783202889528977000,7.648976806640625,-2.2183584787771102,-2.7283418448299166,-9.394280912742015,1.5088993310928345,-1.114209771156311,-0.4594255685806274
1783202889538914000,7.6589140625,-2.164922364404797,-2.977385286976397,-10.297017103695868,1.7914083003997805,-0.7422149777412415,-0.64756840467453
1783202889548850700,7.6688505859375,-2.5681650191381573,-2.6638112127304074,-11.552114195668697,2.141450881958008,-0.1881514936685562,-0.9390454888343812
1783202889558787800,7.678787841796875,-2.8065792229816315,-2.443479778066277,-12.337943086075782,2.5863611698150635,0.7178307771682739,-1.2048324346542358
1783202889568725800,7.688725830078125,-2.736936654695868,-2.352648291279376,-12.147800453448294,3.0976130962371826,1.7742202281951904,-1.4046344757080078
1783202889578663000,7.698662841796875,-2.683495571887493,-1.528213775885105,-11.31092175928354,3.607646226882935,2.663098096847534,-1.5058876276016235
1783202889588599800,7.708599853515625,-2.631478092141449,-0.128491355356574,-9.8263448805511,4.029512405395508,3.27085542678833,-1.4934605360031128
1783202889598538000,7.7185380859375,-2.577636027316749,1.2928916928380727,-7.711568649062514,4.288759708404541,3.541006803512573,-1.4047893285751345
1783202889608475000,7.728474853515625,-2.5686630317881702,2.43364636631608,-5.619135182285309,4.371847629547119,3.5083141326904297,-1.252622127532959
1783202889618411800,7.738411865234375,-2.359076278500259,3.017208763320744,-3.874824248304963,4.305501461029053,3.1985085010528564,-1.0792274475097656
1783202889628349000,7.748348876953125,-2.05931664846465,3.324209012134373,-2.618538823330402,4.171858310699463,2.825462818145752,-0.9165719747543336
1783202889638286800,7.758286865234375,-1.7486977707624434,3.597910510197281,-1.5328957962214946,4.021475315093994,2.500699758529663,-0.7851304411888123
1783202889648225300,7.768225341796875,-1.653863916466385,4.052811748236418,-0.709640553739667,3.866033792495728,2.2795910835266118,-0.7330453991889954
1783202889658162400,7.778162353515625,-1.764347759836912,4.656966559153795,-0.0201169053554534,3.524645566940308,2.3503267765045166,-0.6943799257278442
1783202889668099300,7.788099365234375,-1.8280965939089653,4.717136657956242,1.1877134085297585,3.364785671234131,2.548022508621216,-0.6498188376426697
1783202889678037500,7.79803759765625,-1.97897177663967,4.969278942900896,1.5233955619484183,3.4953489303588867,2.6589696407318115,-0.6264938116073608
1783202889687974400,7.807974365234375,-2.152211059130728,5.574010676923394,1.5495505784243344,3.55956506729126,2.6709229946136475,-0.6405491828918457
1783202889697911300,7.817911376953125,-2.1366605849079785,5.797997711485624,2.3946891514122486,3.42177152633667,2.6169862747192383,-0.6755197644233704
1783202889707848200,7.82784814453125,-1.9912280316226183,5.838593925768136,3.558668048611283,3.145415544509888,2.5017940998077397,-0.7206496596336365
1783202889717786400,7.837786376953125,-1.99738860007897,6.046354632672667,4.416419434934855,2.892153739929199,2.366584300994873,-0.7542718648910522
1783202889727723300,7.84772314453125,-1.8320348101407289,6.328371831399202,4.947764445707202,2.679447650909424,2.2199835777282715,-0.7448184490203857
1783202889737660400,7.857660400390625,-1.572135481328517,6.499445021897554,5.397969050362706,2.430469036102295,2.1011502742767334,-0.7040992975234985
1783202889747598300,7.867598388671875,-1.3592388728402554,6.677118049052357,6.028077217704057,2.1416404247283936,2.007673978805542,-0.6406438946723938
1783202889757535500,7.877535400390625,-1.2644849519126116,6.945087433204055,6.6137389250755305,1.8505452871322632,1.93582546710968,-0.5787333250045776
1783202889767472400,7.887472412109375,-1.2314569809272884,7.230387306863069,7.124935466310381,1.5500741004943848,1.8565919399261477,-0.5109870433807373
1783202889777409300,7.8974091796875,-1.2225009365335109,7.412703191387653,7.568543156918883,1.3063344955444336,1.742309331893921,-0.4442262947559356
1783202889787347200,7.90734716796875,-1.2533600390471518,7.550417717641592,7.839482496792078,1.0128486156463623,1.5892633199691772,-0.3809863328933716
1783202889797284400,7.917284423828125,-1.2051799455069006,7.620871894571184,8.272319787061214,0.6528480648994446,1.408514380455017,-0.3180144727230072
1783202889807221500,7.927221435546875,-1.209310177179426,7.647592728236317,8.810441160100698,0.2619040012359619,1.1427042484283447,-0.2420257329940796
1783202889817158400,7.937158447265625,-1.2075929979979991,7.629176197057962,9.138601685842872,-0.0929858312010765,0.8042236566543579,-0.1481610238552093
1783202889827096600,7.9470966796875,-1.167570199689269,7.592449517685174,9.330390916633606,-0.4070627987384796,0.436526358127594,-0.0482671894133091
1783202889837033200,7.957033203125,-1.2324264104813336,7.649772410362958,9.523474278888106,-0.7076631784439087,0.0681139081716537,0.0506947636604309
1783202889846970400,7.966970458984375,-1.4141758932948112,7.812059067815542,9.754964236426352,-1.0270112752914429,-0.300093412399292,0.1647827178239822
1783202889856907300,7.9769072265625,-1.5965207116529343,7.920738053721189,9.91293712233305,-1.40534770488739,-0.6819136142730713,0.2626769244670868
