time,seconds_elapsed,ax,ay,az,gx,gy,gz
1783202650384105500,0.10610546875,-5.5217322081536055,-1.6327733437731862,-9.367210534986851,2.6065073013305664,-0.0380794294178485,-0.9861143231391908
1783202650394042400,0.11604248046875,-5.035788766118884,-1.4224968546554446,-9.146019853144884,2.767768859863281,0.0725012496113777,-0.9706883430480956
1783202650403979300,0.125979248046875,-4.529477658838033,-1.5040928955852984,-9.066737642115354,2.965599775314331,-0.1214471831917762,-1.0095031261444092
1783202650413916200,0.135916259765625,-4.278101682090759,-1.35086106672585,-9.2355668530792,3.235931634902954,-0.4016110002994537,-1.1530126333236694
1783202650423854000,0.14585400390625,-4.410941295784712,-0.6678197660982609,-8.74021728479564,3.5126216411590576,-0.4868752956390381,-1.3842580318450928
1783202650433791200,0.155791259765625,-4.546626069776714,0.3029810763001442,-7.167780336302519,3.673027753829956,-0.4377260208129883,-1.718854904174805
1783202650443728100,0.16572802734375,-4.943051445710659,1.32220517334491,-5.622897165167331,3.725156545639038,-0.2906822264194488,-2.14017915725708
1783202650453665300,0.175665283203125,-5.16826889885068,2.0732325072228908,-4.280190763324499,3.7171108722686768,-0.1784578114748001,-2.595855712890625
1783202650463603200,0.185603271484375,-4.924090724653006,2.9253204609572885,-3.09434256414473,3.6306419372558594,-0.1186016649007797,-2.9966275691986084
1783202650473540400,0.195540283203125,-4.2577521370232105,3.8935453153878448,-1.952760207670927,3.479524850845337,-0.1342238932847976,-3.319518566131592
1783202650483477000,0.20547705078125,-3.249668442673981,4.709648348027468,-1.2497604071199893,3.34637451171875,-0.1640558242797851,-3.5511622428894043
1783202650493414100,0.2154140625,-2.3858786529690024,5.54268614885509,-0.7345891170352697,3.266608953475952,-0.0594025626778602,-3.681942939758301
1783202650503352000,0.22535205078125,-1.2432011947348711,6.583591624093056,0.0600759907782077,3.2597250938415527,0.0280748233199119,-3.628359794616699
1783202650513289200,0.235289306640625,0.406091906684637,7.56287797076404,0.5597919375777244,3.2909750938415527,-0.0169317740947008,-3.397221565246582
1783202650523226400,0.245226318359375,1.4977847353518008,8.301964399218559,0.8813222315251826,3.313105821609497,0.0694169625639915,-3.079357385635376
1783202650533163300,0.255163330078125,2.621564600892365,8.538274908781052,2.3358307197302577,3.205818891525269,0.0517187379300594,-2.780177593231201
1783202650543101200,0.26510107421875,3.299176277686655,8.45263602220118,3.431422309401631,2.999488353729248,-0.1325416564941406,-2.532212734222412
1783202650553038000,0.2750380859375,3.802068516434729,8.34028799239397,4.053780008746683,2.7799713611602783,-0.4506014585494995,-2.3217005729675293
1783202650562975200,0.284975341796875,4.103702854301035,8.367465337654949,4.424945563478768,2.5839877128601074,-0.7671061754226685,-2.1170766353607178
1783202650572912000,0.294912109375,4.21417632240802,8.367483457833528,4.847464288829267,2.4003400802612305,-1.0898154973983765,-1.953721046447754
1783202650582850300,0.304850341796875,4.228543578195572,8.563898010337352,5.16394051425755,2.25981879234314,-1.351729393005371,-1.834694027900696
1783202650592787200,0.314787109375,4.191888795015216,8.653898599258065,5.387866758543253,2.1065592765808105,-1.5323622226715088,-1.7398310899734497
1783202650602724400,0.324724365234375,4.263545917993784,8.636881998005508,5.788937622195482,1.8939683437347408,-1.573673129081726,-1.6309314966201782
1783202650612661200,0.3346611328125,4.41348045887351,8.721416138213872,6.299511647617816,1.5694626569747925,-1.4430527687072754,-1.4968267679214478
1783202650622599200,0.34459912109375,4.707470419466495,8.925828703734279,6.982889048331976,1.133235216140747,-1.1855106353759766,-1.3189809322357178
1783202650632536000,0.3545361328125,5.126103827816248,9.015263475465774,7.501748087018727,0.6794766783714294,-0.9043939113616944,-1.1197296380996704
1783202650642473200,0.36447314453125,5.598148508358001,8.895487926006316,7.693928362953662,0.2438844740390777,-0.5963500738143921,-0.8895872831344604
1783202650652411100,0.3744111328125,6.151456929135322,8.722991424706578,7.952380561697483,-0.1694812327623367,-0.2823382914066314,-0.6252008080482483
1783202650662348300,0.384348388671875,6.584996230193973,8.577584590384363,8.030508341994882,-0.5478671193122864,0.0440518297255039,-0.3074931502342224
1783202650672285400,0.394285400390625,6.90876524297893,8.503251526194811,8.09117937605679,-0.8987837433815002,0.3610983192920685,0.0572039857506752
1783202650682222000,0.40422216796875,7.068217553788423,8.479435766321421,8.259858949416875,-1.2656879425048828,0.4817784130573272,0.4167027771472931
1783202650692160300,0.41416015625,7.0890054902732365,8.438455521157383,8.412803778028488,-1.646727204322815,0.4345133006572723,0.776006281375885
1783202650702097200,0.42409716796875,7.318878075742721,8.323736670565605,8.662576411232351,-2.0463342666625977,0.2424511909484863,1.133094072341919
1783202650712034300,0.434034423828125,7.325473820745945,8.52845084938109,8.703726167744398,-2.41721248626709,-0.030343348160386,1.512980818748474
1783202650721971200,0.44397119140625,7.15278267365694,8.862188882994651,8.510722300466895,-2.7755789756774902,-0.2612239718437195,1.9004652500152588
1783202650731909400,0.453909423828125,6.886708309471607,9.192722567608952,8.288343870145082,-3.167474269866944,-0.3843478858470917,2.2772645950317383
1783202650741846300,0.46384619140625,6.454867044502496,9.51462578652203,8.08222742331624,-3.634159803390503,-0.4372089505195617,2.6455845832824707
1783202650751783200,0.473783203125,5.926124909704924,9.819710557103155,7.74266696715951,-4.155351161956787,-0.4216723144054413,3.0162246227264404
1783202650761721000,0.48372119140625,5.365085602414608,10.042836590921878,7.18338882432282,-4.696087837219238,-0.3564379215240478,3.3540167808532715
1783202650771658200,0.493658203125,4.496802592943609,10.202144524824618,6.294986279147863,-5.132002830505371,-0.2046104222536087,3.6033878326416016
1783202650781595100,0.50359521484375,3.1334067465543747,10.447084915566444,5.076672565171123,-5.5024495124816895,-0.0407493188977241,3.793161630630493
1783202650791532300,0.5135322265625,1.2734417269587517,10.527068552863597,3.650060968673229,-5.779013156890869,0.1799830347299575,3.7767326831817623
1783202650801470200,0.52347021484375,-1.1173609384089709,10.449766701996326,2.198101580429077,-5.952445983886719,0.4323127269744873,3.587236166000366
1783202650811407000,0.533406982421875,-3.23072175014168,9.387436161413788,0.4778787935227155,-6.016246795654297,0.620051383972168,3.089242696762085
1783202650821344300,0.54334423828125,-5.664212925896048,9.202744195407629,-1.4115812006264925,-5.966917514801025,0.5536414384841919,2.4425861835479736
1783202650831281200,0.55328125,-6.578859334874153,8.317415066328644,-3.75209335617125,-5.822210311889648,0.3285668492317199,1.9629433155059812
1783202650841219000,0.563218994140625,-5.961404897400737,6.783667037191987,-5.981041910284757,-5.63185977935791,0.1701931953430175,1.6802111864089966
1783202650851156200,0.57315625,-5.265238157740235,6.284652516660094,-7.4716569001376625,-5.460349559783936,0.124170184135437,1.6125855445861816
1783202650861093400,0.58309326171875,-4.403143189254403,6.032149581709504,-8.618877554759383,-5.281541347503662,0.2495230436325073,1.701713800430298
1783202650871031300,0.59303125,-3.7785049777567385,5.581059426391124,-9.684758481299877,-5.040231704711914,0.4825615286827087,1.7783398628234863
1783202650880968200,0.60296826171875,-3.668365563909709,4.876704704099893,-10.747557223916052,-4.72878360748291,0.7661846876144409,1.745413064956665
1783202650890905000,0.612905029296875,-3.872615924605727,4.0080373714864255,-11.67903844783902,-4.493576526641846,1.0161749124526978,1.6335680484771729
1783202650900842200,0.62284228515625,-3.86370342709273,3.0040836165487765,-12.062532738268375,-4.1872382164001465,1.2265185117721558,1.486796498298645
1783202650910780200,0.6327802734375,-3.551918866612017,2.3919649871453643,-12.158139476633073,-4.126416206359863,1.323750376701355,1.6562491655349731
1783202650920717300,0.64271728515625,-2.774607921442389,0.8077529913149774,-11.526275990056993,-3.609670162200928,1.4640909433364868,1.9333703517913816
1783202650930654200,0.652654296875,-2.5243019120141863,-0.210464157176949,-11.968653846609593,-3.091766119003296,1.1442718505859375,2.0281693935394287
1783202650940592400,0.66259228515625,-3.526616375312209,-0.7696565579589456,-13.188160569763182,-2.808393716812134,1.013713240623474,2.060375928878784
1783202650950529000,0.672529052734375,-4.797800094211102,-2.264647205612808,-12.369511944293976,-2.545490026473999,1.0831347703933716,1.9682210683822632
1783202650960466200,0.682466064453125,-6.221383282798528,-3.152404000230133,-11.999698973214626,-2.043879270553589,0.9392916560173036,1.7087538242340088
1783202650970403000,0.692403076171875,-7.180513561147451,-3.670896835952997,-13.024354155397416,-1.3838107585906982,0.6067423224449158,1.398098707199097
1783202650980341200,0.70234130859375,-7.375007374721765,-4.654718195705115,-13.535496336096523,-0.7352096438407898,0.2201517522335052,1.1294584274291992
1783202650990278100,0.712278076171875,-7.428925427392125,-5.566132490894198,-13.03525665768385,-0.246781051158905,-0.0245617181062698,0.8804062604904175
1783202651000215300,0.72221533203125,-7.46532068285346,-6.131470372161269,-11.847608715605736,0.0816759094595909,-0.1926519274711609,0.5614045858383179
1783202651010153200,0.7321533203125,-7.503656550988555,-6.569070346787572,-11.278534570419788,0.6172093749046326,-0.2737978398799896,0.1733204573392868
1783202651020090000,0.742090087890625,-7.52979461632967,-6.252104584276676,-11.238889957773685,1.3185704946517944,-0.4065257906913757,-0.1859234571456909
1783202651030027300,0.75202734375,-7.02283059809804,-5.3741679035365575,-10.85166758673191,1.9180625677108765,-0.576488733291626,-0.4569172263145447
1783202651039964200,0.761964111328125,-5.902320840269327,-4.756196748712658,-9.328508756148814,2.297739028930664,-0.7932775020599365,-0.6552545428276062
1783202651049902000,0.771902099609375,-4.643224741788209,-4.457732857576012,-7.541232540667057,2.5296783447265625,-1.0857399702072144,-0.814177930355072
1783202651059839200,0.781839111328125,-3.610242460764944,-4.038673625029623,-6.267547652602195,2.6841490268707275,-1.3267970085144043,-0.9686276912689208
1783202651069776400,0.7917763671875,-2.789476697011292,-3.2586236102849244,-5.148730085644126,2.778144121170044,-1.5065655708312988,-1.0886038541793823
1783202651079714300,0.80171435546875,-2.071440070848167,-2.4084599026113747,-4.179752951541543,2.8117806911468506,-1.6601293087005615,-1.1597239971160889
1783202651089651200,0.811651123046875,-1.394679750186205,-1.6869180448062715,-3.444649455243349,2.8080201148986816,-1.6813209056854248,-1.2034697532653809
1783202651099588000,0.821588134765625,-0.8358610415548086,-1.0959586694180965,-2.727759076505899,2.773069381713867,-1.587023138999939,-1.24636971950531
1783202651109525200,0.831525146484375,-0.4562631740421056,-0.6539600214414298,-2.1902210563123226,2.683881998062134,-1.3946046829223633,-1.2841455936431885
1783202651119463200,0.841463134765625,-0.1390121648490428,-0.330846403825283,-1.695491665753722,2.547700881958008,-1.1605333089828491,-1.3080482482910156
1783202651129400300,0.851400390625,-0.0132248077541589,-0.0264539994224905,-1.4314765721857547,2.4291932582855225,-0.9110135436058044,-1.31511127948761
1783202651139337200,0.861337158203125,-0.0556093667581677,0.3160150376573205,-1.4852993477880954,2.304782629013061,-0.713558554649353,-1.2847435474395752
1783202651149275400,0.871275390625,-0.2518526543483138,0.5703093860693276,-1.7456448129326103,2.2091948986053467,-0.5842479467391968,-1.2534708976745603
1783202651159212000,0.8812119140625,-0.6478814321801066,0.5478127459704876,-2.392101473006606,2.18831729888916,-0.4886998832225799,-1.26545512676239
1783202651169149200,0.891149169921875,-1.1753016707241537,0.3105472737707197,-3.1183751816391942,2.2268624305725098,-0.4476968646049499,-1.3354040384292605
1783202651179087000,0.901087158203125,-1.507436945316195,0.20753318175897,-3.800981013458967,2.3230020999908447,-0.4160643815994262,-1.4096969366073608
1783202651189024300,0.911024169921875,-1.6221405983388424,0.082964698934555,-4.349312814867496,2.5009593963623047,-0.363521546125412,-1.423836588859558
1783202651198961200,0.920961181640625,-1.576537954071164,-0.047348611152172,-4.801145312985778,2.7576303482055664,-0.3423866927623749,-1.4158086776733398
1783202651208898300,0.930898193359375,-1.5849275967538357,-0.1036462524354457,-5.138392231503128,3.082348585128784,-0.3748920857906341,-1.425662636756897
1783202651218836200,0.940836181640625,-1.637777143409848,-0.0640562925860285,-5.246833901521563,3.3858344554901123,-0.4873685538768768,-1.4533473253250122
1783202651228773000,0.950773193359375,-1.6229551295921203,0.0223559164538979,-4.934363112342357,3.5479848384857178,-0.6628459692001343,-1.4939135313034058
1783202651238710300,0.960710205078125,-1.5792790694728494,0.2693631765976548,-4.270543229535222,3.507559061050415,-0.8175106644630432,-1.528418779373169
1783202651248648200,0.970648193359375,-1.685683680705726,0.6056666767850518,-3.658196344333887,3.399712324142456,-0.8696563243865967,-1.57746160030365
1783202651258585000,0.980585205078125,-1.9185273909404872,0.8433198331281543,-3.637707683056593,3.318123340606689,-0.800527036190033,-1.6418932676315308
1783202651268522200,0.990522216796875,-2.316699026019871,1.0406401023000478,-4.03930403188765,3.25160551071167,-0.6598362326622009,-1.7383540868759155
1783202651278460200,1.000460205078125,-2.8307626471236347,1.466482419115305,-4.4731864472955465,3.16883397102356,-0.4270823299884796,-1.865950107574463
1783202651288397300,1.010397216796875,-3.3141867998138066,1.9465742125123735,-4.752239535519481,3.155113458633423,-0.1133318170905113,-2.017094850540161
1783202651298334200,1.020334228515625,-3.557562425456941,2.374198152047396,-4.991619369524717,3.2412586212158203,0.1597761511802673,-2.172593593597412
1783202651308271000,1.03027099609375,-3.505830776914954,2.893203905728459,-5.259640776124597,3.38246488571167,0.3780078887939453,-2.300420999526977
1783202651318209300,1.040209228515625,-3.1703213497146963,3.573981353077292,-5.196026674348116,3.5179436206817627,0.4864214360713959,-2.371834516525269
1783202651328146200,1.050146240234375,-2.650720260488987,4.289280663231015,-4.918620768809318,3.620638847351074,0.5150936841964722,-2.4099879264831543
1783202651338083300,1.060083251953125,-2.250585800904036,5.0555122882425785,-4.5454736848711965,3.713572025299072,0.5155261754989624,-2.4334099292755127
1783202651348021200,1.070021240234375,-1.9549077410936355,5.770168039795756,-3.980843659612536,3.809133052825928,0.4787507355213165,-2.469637632369995
1783202651357958400,1.07995849609375,-1.5984756451129911,6.5255860098481175,-3.4086090045690534,3.910587072372437,0.4665204286575317,-2.513545513153076
1783202651367895000,1.08989501953125,-1.1459297380283475,7.16490448860526,-2.626236392095685,3.967637062072754,0.5209775567054749,-2.538632392883301
1783202651377833200,1.099833251953125,-0.5870616372972727,7.751644054341316,-1.6186474955260752,3.9497668743133545,0.5808600783348083,-2.5133650302886963
1783202651387770000,1.10977001953125,0.0076057988286018,8.294195518782734,-0.5794716205596924,3.855405330657959,0.6408573389053345,-2.4367380142211914
1783202651397707300,1.119707275390625,0.5998202888444065,8.675048354792594,0.5070043502420186,3.6907103061676025,0.6859196424484253,-2.3183915615081787
1783202651407644400,1.12964453125,1.119314995086193,9.010675563153624,1.493304959589243,3.460811853408813,0.6826735138893127,-2.175245523452759
1783202651417581600,1.13958154296875,1.61722126211524,9.167053288823366,2.348144842380285,3.148383617401123,0.6825046539306641,-2.0288548469543457
1783202651427518500,1.1495185546875,1.9962021667733787,9.200440010118484,3.066091159911453,2.844372510910034,0.5573181509971619,-1.8718514442443848
1783202651437455400,1.159455322265625,2.2601994324237107,9.204558551353216,3.5343966539248823,2.516573667526245,0.4445005059242248,-1.730135798454285
1783202651447393500,1.1693935546875,2.4938421840816734,9.242201761049031,3.9088668031603095,2.2058255672454834,0.353169173002243,-1.5972726345062256
1783202651457330400,1.179330322265625,2.6148750401258467,9.212603326120972,4.152385052144528,1.9348506927490237,0.2784696221351623,-1.4759966135025024
1783202651467267600,1.189267578125,2.649776549898088,9.189006761956216,4.235199528953433,1.695418119430542,0.2168650329113006,-1.3669880628585815
1783202651477205500,1.19920556640625,2.655478853192925,9.192778097188471,4.268759268727898,1.4619784355163574,0.1764531582593917,-1.2535414695739746
1783202651487142700,1.209142578125,2.738653395485878,9.212785696950554,4.3275066412508485,1.2624499797821045,0.1965941339731216,-1.127442479133606
1783202651497079300,1.219079345703125,2.9792803069427607,9.237892081156373,4.415618639945984,1.0504796504974363,0.225279301404953,-0.9962580800056458
1783202651507017500,1.229017578125,3.328359117551148,9.267762318763136,4.492260565599799,0.8113957643508911,0.3175106942653656,-0.8366702795028687
1783202651516954400,1.238954345703125,3.830877846811712,9.028013651445509,4.768071310901641,0.5273858904838562,0.463369607925415,-0.6212549209594727
1783202651526891500,1.2488916015625,4.215050474894047,8.775627620872855,5.131332960641384,0.2080718278884887,0.672716498374939,-0.3708274960517883
1783202651536829400,1.258829345703125,4.547433586767316,8.692035729950666,5.509996762174367,-0.1132358908653259,1.0156272649765017,-0.0762672275304794
1783202651546766600,1.2687666015625,4.843841714417934,8.442504504287243,5.810763669556379,-0.3939782381057739,1.192804932594299,0.267235666513443
1783202651556703500,1.278703369140625,4.932074709144234,8.12314454011619,5.82881545907557,-0.6679973006248474,1.304459810256958,0.5793991684913635
1783202651566641700,1.2886416015625,5.007818809175491,8.212435519462824,6.196084006369113,-0.9463169574737548,1.3385298252105713,0.8860849142074585
1783202651576578300,1.298578369140625,5.010524561002851,8.194318848013877,6.524767679202556,-1.219622254371643,1.4302363395690918,1.1252317428588867
1783202651586515500,1.308515380859375,5.05731846088171,8.032713158562778,6.834597598484158,-1.586582064628601,1.6253228187561035,1.3214342594146729
1783202651596453400,1.318453369140625,4.65828231792748,8.22044171578586,6.95964261277914,-1.8039525747299197,1.5127615928649902,1.5156383514404297
1783202651606390500,1.328390625,4.14972226267606,8.596319101470709,6.449075017097592,-1.93858015537262,1.181727647781372,1.698737621307373
1783202651616327400,1.338327392578125,3.904968334417045,8.699984643128515,6.152656368052959,-2.1696701049804688,0.903954029083252,1.773570895195007
1783202651626264600,1.3482646484375,3.6513393180459737,8.620513631528615,6.093630763110518,-2.463297843933105,0.899894654750824,1.8247841596603396
1783202651636202500,1.358202392578125,3.433554060733318,8.378824351537228,6.174342130160332,-2.843055009841919,0.9044864773750304,1.8491778373718264
1783202651646139400,1.368139404296875,3.021704905696213,8.312718432945012,5.375739682897925,-3.175973653793335,0.9480352401733398,1.820514440536499
1783202651656076500,1.37807666015625,2.2989089561767875,8.247704985764623,4.224342034852505,-3.5053634643554688,1.205048680305481,1.7264503240585327
1783202651666014500,1.388014404296875,1.7161356637232004,8.506058400309085,4.070315256223083,-3.9182708263397217,1.4984354972839355,1.600044846534729
1783202651675951400,1.397951416015625,1.596033658788353,8.83949423610568,3.758576288449764,-4.3003106117248535,1.6493229866027832,1.5773544311523438
1783202651685888500,1.407888427734375,1.9326168526999647,8.54072288645506,3.203513717481494,-4.5192060470581055,1.5970948934555054,1.6732184886932373
1783202651695826400,1.417826416015625,2.3905898993998766,8.168754198646544,2.7188585616916416,-4.613704681396484,1.261776566505432,1.941185712814331
1783202651705763300,1.427763427734375,3.051836716848612,7.5859034570425745,2.5087305411338803,-4.870266914367676,0.5005137920379639,2.410986423492432
1783202651715700500,1.437700439453125,3.303756883475184,7.083053303870559,2.0923013648301363,-5.267239093780518,-0.5391353368759155,2.998612403869629
1783202651725638400,1.447638427734375,2.455534372997284,6.854877585446834,0.9444505956113338,-5.504884719848633,-1.6974351406097412,3.6040308475494394
1783202651735575600,1.457575439453125,0.3088809479936957,6.721994717133045,-1.4048229585379362,-5.462278366088867,-2.859984874725342,4.039400100708008
1783202651745512400,1.467512451171875,-3.0598119335114955,6.623446664619445,-3.979626685038209,-5.180972099304199,-3.915569305419922,4.136269569396973
1783202651755450400,1.477450439453125,-6.525938476547599,5.86611496990025,-6.939194283512235,-4.638608932495117,-4.399914264678955,3.912802219390869
1783202651765387500,1.487387451171875,-8.904690638637542,4.450031197157502,-8.405159985277056,-4.140257358551025,-3.989062547683716,3.3881847858428955
1783202651775324400,1.497324462890625,-10.903766022759676,3.28910584231019,-7.830505409610271,-4.245952129364014,-2.8931543827056885,2.710841655731201
1783202651785262300,1.507262451171875,-11.729591407990457,2.0290663254991173,-6.70932228256464,-5.187768459320068,-1.508468508720398,2.25790810585022
1783202651795199500,1.517199462890625,-11.59213056423664,0.4832552258640527,-5.752738766089082,-6.174739837646484,0.0704017505049705,1.8863601684570312
1783202651805136400,1.527136474609375,-11.139301456296444,-0.3831684194758534,-6.623999037805199,-6.633364677429199,1.5559544563293457,1.8616535663604736
1783202651815074600,1.537074462890625,-9.915202729177476,-2.569282917252183,-9.672748894554376,-6.667793273925781,2.667689085006714,1.7250350713729858
1783202651825011500,1.547011474609375,-9.601094109663366,-3.8950855305671688,-13.00416360028386,-6.4462504386901855,3.2277698516845703,1.589247703552246
1783202651834948600,1.556948486328125,-9.620200376671551,-5.6351995973795646,-15.48745341069102,-6.014705657958984,3.5908331871032715,1.4070669412612915
1783202651844886500,1.566886474609375,-9.706662854593992,-6.252550574478507,-16.711436402475833,-5.132453441619873,3.793006420135498,1.074377417564392
1783202651854823400,1.576823486328125,-9.792109433472156,-5.796461003437638,-17.799248005795477,-3.967363119125366,3.552534341812134,0.7463201880455017
1783202651864760300,1.58676025390625,-9.237221634548902,-6.210266845500469,-18.8776301019907,-2.812966108322144,3.111002922058105,0.4192842841148376
1783202651874698500,1.596698486328125,-8.065467427173257,-6.712457657980918,-18.067782038092613,-1.572795867919922,2.4772961139678955,0.1119994297623634
1783202651884635400,1.606635498046875,-6.780498344027996,-6.580740910837054,-17.14648903070688,-0.2641615271568298,1.6653343439102173,-0.1021612584590911
1783202651894572500,1.616572509765625,-5.520308897352218,-5.914127013397216,-16.05783103969097,0.8836057782173157,0.7884595394134521,-0.2141453176736831
1783202651904510500,1.626510498046875,-4.133274108961224,-4.916087450939417,-13.963514827907083,1.750267744064331,-0.0680713355541229,-0.2338864058256149
1783202651914447600,1.636447509765625,-2.7971836181268093,-3.892652750462293,-11.41295940747857,2.4306678771972656,-0.7897997498512268,-0.2123861759901046
1783202651924384300,1.64638427734375,-1.6897043145239352,-2.9594875189751386,-8.92683174329698,2.921520948410034,-1.3387457132339478,-0.1971702128648758
1783202651934322400,1.656322509765625,-0.993626422190666,-1.995401371784508,-6.6741311421960585,3.1859726905822754,-1.7072383165359497,-0.1962399780750274
1783202651944259300,1.66625927734375,-0.5986725801140069,-1.1193566422708332,-4.631786525189876,3.2680697441101074,-1.8425509929656985,-0.2229852229356765
1783202651954196500,1.676196533203125,-0.3627338264733553,-0.2886735878758132,-2.673642870914936,3.1993484497070312,-1.7385324239730835,-0.3011359572410583
1783202651964134400,1.686134521484375,-0.2179518460512161,0.4986496327422559,-0.8637427356928586,3.007777214050293,-1.5084435939788818,-0.3709562122821808
1783202651974071600,1.696071533203125,-0.0067336921691894,1.0500675635978578,0.4980126500129699,2.7810425758361816,-1.2536805868148804,-0.4588298797607422
1783202651984008400,1.706008544921875,0.3279629573434591,1.530351372435689,1.4597592483401298,2.547673225402832,-1.0127257108688354,-0.5247836112976074
1783202651993946600,1.715946533203125,0.6837140853226185,1.9073564469762143,2.199043829715252,2.256706476211548,-0.7382009029388428,-0.5607107281684875
1783202652003883300,1.72588330078125,1.0739572654902934,2.2159563860714435,3.127346423602104,1.9123125076293943,-0.4213720560073852,-0.5837903618812561
1783202652013820400,1.7358203125,1.3750325081691146,2.542971248909831,4.053239618259668,1.562631130218506,-0.1168771386146545,-0.5997030138969421
1783202652023758300,1.74575830078125,1.6486889980465174,2.7163988935798407,4.7028053502649065,1.2193808555603027,0.1097156405448913,-0.5989545583724976
1783202652033695500,1.755695556640625,1.904372608859837,2.828744000777602,5.12891596262753,0.8843604922294617,0.2785938680171966,-0.5932636857032776
1783202652043633400,1.76563330078125,2.1500918750196694,2.968740208227932,5.491662648582458,0.5655827522277832,0.4133574068546295,-0.5765771865844727
1783202652053570600,1.775570556640625,2.337567334264517,3.052332391411066,5.870541554170846,0.2928574383258819,0.4902346134185791,-0.5571667551994324
1783202652063507500,1.785507568359375,2.5091747777700424,3.114811351677776,6.157881409224867,0.0736225768923759,0.4528829753398895,-0.521251380443573
1783202652073444400,1.7954443359375,2.705739552399516,3.17681451112628,6.32136341394186,-0.1570654958486557,0.3266938924789428,-0.4563661515712738
1783202652083382300,1.80538232421875,2.950659484875202,3.141757518531382,6.496185143318772,-0.4660624563694,0.15093594789505,-0.3556085228919983
1783202652093319400,1.8153193359375,3.1577900771826504,3.1206004564732317,6.846603678098321,-0.8452694416046143,0.0112451687455177,-0.2113544195890426
1783202652103257300,1.82525732421875,3.2558105986908075,3.066981971271336,7.136199787646532,-1.2612093687057495,-0.0735844075679779,-0.0747568607330322
1783202652113194500,1.835194580078125,3.0714252144157883,3.090900899258256,7.183364858925343,-1.6850024461746216,-0.1245597004890441,0.0349408760666847
1783202652123131400,1.84513134765625,2.7655332191050053,3.067843264275789,7.075415356338024,-2.1193151473999023,-0.1918852925300598,0.1481373757123947
1783202652133069600,1.855069580078125,2.371854803791642,2.886696131269633,6.720303695306182,-2.5733065605163574,-0.3022773265838623,0.2262729257345199
1783202652143006500,1.86500634765625,1.9047689147010445,2.668816473671794,6.258954596301913,-3.0220611095428467,-0.4686567485332489,0.2921361327171325
1783202652152943400,1.874943359375,1.310871586164832,2.2565084689512847,5.408522008559108,-3.390319585800171,-0.6464973092079163,0.3230977654457092
1783202652162881300,1.88488134765625,0.6331994113549589,1.6698707561545072,4.127231906187534,-3.5668513774871826,-0.7846166491508484,0.2923010885715484
1783202652172818400,1.894818359375,-0.0317366160005331,1.1677898337893189,2.396079728987813,-3.5806801319122314,-0.8398724794387817,0.2457716614007949
1783202652182755600,1.904755615234375,-0.7135781854495405,0.6958114234168082,0.6276420694887638,-3.49060320854187,-0.781338095664978,0.2224299907684326
1783202652192693500,1.914693603515625,-1.4551999776005744,0.2605855575107038,-0.878240632122755,-3.305403470993042,-0.5512534976005554,0.2043236941099167
1783202652202630400,1.92463037109375,-2.268193353787064,-0.0398702380955219,-2.1926006449252364,-3.050907611846924,-0.2371450811624527,0.196490928530693
1783202652212567600,1.934567626953125,-2.987005055975914,-0.3972412223614752,-3.595325754401088,-2.817509174346924,-0.0240397322922945,0.2045022547245025
1783202652222505500,1.94450537109375,-3.402602749891579,-1.1731608593031764,-5.417601971593498,-2.5670645236968994,0.033529408276081,0.1965731084346771
1783202652232442400,1.9544423828125,-3.735500533288717,-2.22955455718264,-7.353259653294086,-2.188170909881592,-0.0391844771802425,0.0899502635002136
1783202652242379500,1.964379638671875,-4.323732383409142,-3.1679987519860267,-9.363128818631171,-1.6790430545806885,-0.2452516853809356,-0.1033608838915824
1783202652252317400,1.9743173828125,-5.124963425609469,-3.729833885829151,-11.207660122251507,-1.1120734214782717,-0.3637738227844238,-0.3373094499111175
1783202652262254600,1.984254638671875,-5.8297658916682,-4.1067864995300765,-12.323690104317665,-0.5118471384048462,-0.3488989770412445,-0.6411745548248291
1783202652272191500,1.99419140625,-6.394225821056962,-4.331634534835815,-13.27622931383848,0.1271823048591613,-0.1773549318313598,-0.972337007522583
1783202652282129400,2.00412939453125,-6.684952395939827,-4.395769445616007,-14.150017058205604,0.7510663270950317,0.0996736213564872,-1.2548686265945437
1783202652292066300,2.01406640625,-6.369895097398757,-4.251383771035075,-14.739619612157345,1.340355634689331,0.4296680390834808,-1.425333857536316
1783202652302004200,2.024004150390625,-5.728450128006934,-3.731825059646368,-14.910008912044765,1.8914827108383176,0.6557109355926514,-1.4983474016189575
1783202652311941400,2.03394140625,-5.247761537760496,-2.918833144764602,-14.86756677763462,2.3786983489990234,0.8083864450454712,-1.5458641052246094
1783202652321878500,2.04387841796875,-5.144270183625817,-2.176546458964049,-14.507426474785804,2.7690138816833496,0.9010568857192992,-1.650647521018982
1783202652331816400,2.05381640625,-5.353413869321346,-1.3016047222562133,-13.952511787855624,3.110579252243042,0.9699547290802002,-1.7867369651794434
1783202652341753600,2.063753662109375,-5.5169736154496665,-0.5456191814489663,-13.447540989267823,3.4976580142974854,1.0804799795150757,-1.9078702926635744
1783202652351690500,2.0736904296875,-5.43395747858882,-0.0212877027004957,-12.905492798173428,3.9194977283477774,1.2178200483322144,-2.015343427658081
1783202652361628400,2.08362841796875,-5.352779078549147,0.6736708302140235,-12.170491593205927,4.353572368621826,1.3751966953277588,-2.11072325706482
1783202652371565300,2.0935654296875,-5.178123353388905,1.5189321527987718,-11.068394274902342,4.76093053817749,1.4486403465270996,-2.22306227684021
1783202652381502500,2.10350244140625,-4.938004683715104,2.597121356770396,-9.877167889815569,5.1910905838012695,1.3965036869049072,-2.319697856903076
1783202652391440400,2.1134404296875,-4.563137936377525,3.9108158914014695,-8.588867616420984,5.540877819061279,1.2118542194366455,-2.3697755336761475
1783202652401377500,2.12337744140625,-3.95254461684525,5.248810170030594,-7.062066629943251,5.692686557769775,1.005279302597046,-2.357313871383667
1783202652411314400,2.133314453125,-3.185846251104772,6.256046599900722,-5.112166487878561,5.727461814880371,0.7896662950515747,-2.3193180561065674
1783202652421252600,2.143252685546875,-2.5223431791618465,7.17749450558722,-3.427814055776596,5.737727165222168,0.5937122106552124,-2.261027812957764
1783202652431189500,2.153189453125,-1.97423963355124,7.968829007673263,-2.114971461799741,5.706106662750244,0.4242571592330932,-2.199047565460205
1783202652441126400,2.16312646484375,-1.5236056975677608,8.522269530397653,-0.8891729450255632,5.575387001037598,0.307232528924942,-2.157531499862671
1783202652451064300,2.173064208984375,-1.1760998353645205,9.032420946493744,0.3977139544397592,5.332955360412598,0.2883906662464142,-2.1484766006469727
1783202652461001500,2.18300146484375,-0.8060258752614259,9.466962702593207,1.6718004090428351,5.004086971282959,0.3731434643268585,-2.1467134952545166
1783202652470939400,2.192939453125,-0.4041133000880479,9.560611292627453,2.7547207331895827,4.606563568115234,0.5168662667274475,-2.150069236755371
1783202652480876500,2.20287646484375,-0.0145747610583901,9.687142746087908,3.630286008623242,4.168446063995361,0.6977854371070862,-2.1373088359832764
1783202652490813400,2.2128134765625,0.4104768437705934,9.724379128548502,4.36150418792069,3.727332353591919,0.8937541246414185,-2.0826122760772705
1783202652500751600,2.222751708984375,0.8653514860637486,9.720976042106749,4.9332010828256605,3.3069403171539307,1.0544151067733765,-1.999980926513672
1783202652510688500,2.2326884765625,1.3225520870864391,9.699072253334522,5.290568413829803,2.942556858062744,1.1296018362045288,-1.879829287528992
1783202652520625400,2.24262548828125,1.799816255842149,9.58756476600468,5.48321046205759,2.651034116744995,1.0938167572021484,-1.738605499267578
1783202652530563300,2.252563232421875,2.250029628325999,9.47406288998723,5.481784813168645,2.4068782329559326,0.9679455757141112,-1.5644736289978027
1783202652540500500,2.26250048828125,2.687591024507582,9.40097310385704,5.511155284559727,2.1554601192474365,0.7735690474510193,-1.360102891921997
1783202652550437400,2.272437255859375,3.044990504215657,9.288493556624651,5.575081521025299,1.9208285808563232,0.5219925045967102,-1.1321834325790403
1783202652560375600,2.28237548828125,3.272388224004209,9.171852213537692,5.52701920864582,1.7345834970474243,0.2808741629123688,-0.8870391845703125
1783202652570312400,2.2923125,3.388591467934847,9.051242551341652,5.470908614367247,1.5797635316848757,0.075586512684822,-0.6392298936843872
1783202652580249600,2.30224951171875,3.363394775097072,8.95245776746273,5.412008681631088,1.44465970993042,-0.0701721385121345,-0.4126713871955871
1783202652590187500,2.3121875,3.258857711301744,8.826897204861044,5.417886633753776,1.324428915977478,-0.1934615820646286,-0.2018079161643982
1783202652600124400,2.32212451171875,3.2049583633318544,8.587775145009159,5.301266333454847,1.191801905632019,-0.2322763800621032,-0.0221091993153095
1783202652610062300,2.332062255859375,3.1856752784520386,8.05303932275474,5.295681226798892,1.0302507877349854,-0.1941505670547485,0.0983996391296386
1783202652619999500,2.34199951171875,3.1783725542232397,7.781039660173654,5.516195032292604,0.8599851727485657,-0.1392909735441208,0.1817645579576492
1783202652629936400,2.351936279296875,3.25063085796535,7.757732434344291,5.767831705802679,0.609578549861908,-0.0379880480468273,0.2789462506771087
1783202652639874600,2.36187451171875,3.500590245912969,7.460606513813137,6.263032805526256,0.26808962225914,0.0639817640185356,0.4223916232585907
1783202652649811500,2.3718115234375,3.768563137196004,7.225597734498977,6.654521017318964,-0.0964076593518257,0.170677050948143,0.5960707664489746
1783202652659748600,2.38174853515625,3.987302626493573,7.123253796833753,6.977218016958236,-0.4593551456928253,0.2743315100669861,0.7768622636795044
1783202652669686500,2.3916865234375,4.191175093787908,7.080640397509932,7.14161129130125,-0.8097379207611084,0.290772795677185,0.967196762561798
1783202652679623400,2.40162353515625,4.392810595810413,7.03666798479259,7.207256606644392,-1.1346794366836548,0.2433793544769287,1.166589856147766
1783202652689560300,2.411560302734375,4.648455335918069,7.028669387254118,7.2488675509274,-1.450467228889465,0.2031954526901245,1.3908815383911133
1783202652699498500,2.42149853515625,4.964082543301582,7.080722815096378,7.275884152668714,-1.783113718032837,0.2708432376384735,1.6560008525848389
1783202652709435400,2.431435302734375,5.236867218780517,7.2344929886162275,7.362778007745742,-2.183347225189209,0.5286018252372742,1.957708716392517
1783202652719373600,2.44137353515625,5.347770894998312,7.3866989815592765,7.284316465449333,-2.5698187351226807,0.9096510410308838,2.2940731048583984
1783202652729310500,2.451310546875,5.181101492416858,7.561976053488254,6.997540674018859,-2.88623309135437,1.2502557039260864,2.5871741771698
1783202652739247600,2.46124755859375,4.723149050113559,7.973001909443735,6.668580522331595,-3.171334981918335,1.4321093559265137,2.822082996368408
1783202652749185500,2.471185546875,4.211933804178238,8.162894366702437,6.504017152118682,-3.472331523895264,1.4088457822799685,3.012638092041016
1783202652759122400,2.481122314453125,3.849531986138224,8.342106439992785,6.499964077335596,-3.725839376449585,1.2122091054916382,3.1701128482818604
1783202652769059300,2.491059326171875,3.509328848163783,8.643716227939725,6.38704964581728,-3.950277328491211,0.8634911179542542,3.365541934967041
1783202652778997500,2.50099755859375,3.1397336114883423,8.921177663058042,6.206760298684239,-4.230449199676514,0.2926731407642364,3.53504490852356
1783202652788934400,2.510934326171875,1.9764450346410276,9.436161906138064,5.815595327496529,-4.657629013061523,-0.3371694982051849,3.637076616287232
1783202652798871600,2.52087158203125,0.4211109043791889,9.57490343735218,5.641656226173043,-5.169983863830566,-1.0589550733566284,3.7341041564941406
1783202652808809500,2.5308095703125,-1.012375546324253,9.15699308257997,4.818036242032051,-5.656246185302734,-1.913968205451965,3.8261334896087646
1783202652818746600,2.54074658203125,-2.389801963892579,8.62281840133965,3.134845839446783,-6.028432369232178,-2.7311196327209477,3.818116188049317
1783202652828684500,2.5506845703125,-4.023780591802299,8.501564596021176,1.1736375369042158,-6.215439319610596,-3.336268186569214,3.778816938400269
1783202652838621400,2.560621337890625,-4.948610248881578,7.710595420116186,-1.166121169924736,-6.282371520996094,-3.701878786087036,3.6903271675109854
1783202652848558300,2.570558349609375,-6.604805092513561,7.186639935073256,-3.664541913968325,-6.257011890411377,-3.778934001922608,3.439990282058716
1783202652858496500,2.58049658203125,-9.393035296595096,6.793679897162318,-6.182692609876394,-6.170506000518799,-3.018042802810669,2.972629308700561
1783202652868433400,2.590433349609375,-11.810452997165918,5.6967620273232455,-7.736148379045725,-6.004952907562256,-1.501360535621643,2.317715167999268
1783202652878370600,2.60037060546875,-13.06826577783823,4.579216379997134,-8.388169102987646,-5.956618309020996,0.1058943346142768,1.6805469989776611
1783202652888308500,2.61030859375,-12.404439465290308,2.991341623875498,-9.292938845595716,-6.032195568084717,1.1000009775161743,1.1458319425582886
1783202652898245600,2.62024560546875,-10.677236902499198,1.6207602498963474,-11.81443709836602,-5.839581489562988,1.7750858068466189,0.8792660236358643
1783202652908183300,2.630183349609375,-9.02459536743462,0.5404749504283071,-14.375255554133652,-5.756885528564453,2.4690818786621094,0.9633774161338806
1783202652918120400,2.640120361328125,-7.564884634411334,-1.2203044494025408,-15.437676695609092,-4.859329700469971,3.105563163757324,1.184017539024353
1783202652928057300,2.650057373046875,-7.078460715383291,-2.187618034207076,-17.717957377552985,-3.57936954498291,3.377694606781006,1.2802157402038574
1783202652937995500,2.65999560546875,-7.407428465855121,-3.2233690492913123,-19.575016154313087,-2.669253349304199,3.2425334453582764,1.2494854927062988
1783202652947932400,2.669932373046875,-7.570340561729669,-4.293480453008413,-18.62710168198347,-1.9667662382125852,2.7696661949157715,1.017550349235535
1783202652957869600,2.67986962890625,-7.670866636317968,-4.510058672618865,-17.35595128083229,-0.8985203504562378,1.9491963386535645,0.6964642405509949
1783202652967807500,2.689807373046875,-7.493415142959356,-4.5809641004472965,-17.13377217247486,0.2587405443191528,0.8816817998886108,0.4197285175323486
1783202652977744400,2.699744384765625,-6.89188600437045,-4.441871271577477,-15.992156498253344,1.1939014196395874,-0.1591593325138092,0.1745150089263916
1783202652987681300,2.709681396484375,-5.916868421059847,-4.125358805792033,-13.563880719059703,1.9072421789169312,-0.9796209335327148,-0.0134527627378702
1783202652997619500,2.719619384765625,-4.76690840460211,-3.76035498856008,-11.03728835802078,2.397763967514038,-1.5312483310699463,-0.1620865315198898
1783202653007556400,2.729556396484375,-3.6263515917837617,-3.113524234476685,-8.640529414597154,2.6677165031433105,-1.7905265092849731,-0.2517975270748138
1783202653017494500,2.73949462890625,-2.601121532322466,-2.476768884205818,-6.403706181585789,2.7830467224121094,-1.7590887546539309,-0.3235706984996795
1783202653027431400,2.749431396484375,-1.8142977856591345,-1.8340696769692,-4.500342165246606,2.789703130722046,-1.5273995399475098,-0.3883507549762726
1783202653037368600,2.75936865234375,-1.2028420040786263,-1.2728738639429211,-2.915132244420052,2.711242437362671,-1.2110557556152344,-0.4667026996612549
1783202653047306500,2.769306396484375,-0.6929249812602997,-0.6648487874634563,-1.5406950717955827,2.5539236068725586,-0.8971537947654724,-0.5410546660423279
1783202653057243400,2.779243408203125,-0.201183666601777,-0.1129307981312274,-0.4198100509136915,2.339926481246948,-0.6177331209182739,-0.5917989611625671
1783202653067180300,2.78918017578125,0.3470274310365319,0.3220575326919555,0.5040379016518592,2.0734848976135254,-0.3597652316093445,-0.6273324489593506
1783202653077118500,2.799118408203125,0.9037474138230084,0.7137031270034611,1.400584005793929,1.7795215845108032,-0.1373206973075866,-0.6286588907241821
1783202653087055400,2.809055419921875,1.4100000689148902,0.9785133164718748,2.0732102953910827,1.487109661102295,0.0570029765367507,-0.607597291469574
1783202653096993500,2.81899365234375,1.8284470147818328,1.243307723849267,2.514085346165299,1.240983486175537,0.2261338680982589,-0.5708824992179871
1783202653106930400,2.828930419921875,2.097971811681986,1.4512616152383386,2.7587790686696767,1.040608286857605,0.3558870851993561,-0.53248530626297
1783202653116867600,2.83886767578125,2.2547943585097787,1.6087611845448613,2.87684722968936,0.8804797530174255,0.3963948488235473,-0.4945913255214691
1783202653126805500,2.848805419921875,2.341843111887574,1.7766956386260688,2.832425319638848,0.8091017007827759,0.3430083096027374,-0.4646954834461212
1783202653136742400,2.858742431640625,2.365641628365218,1.9011334808081388,2.604233234602213,0.8058553338050842,0.2059221863746643,-0.4224746823310852
1783202653146679300,2.86867919921875,2.441680327428877,2.043727303536236,2.5136703356236216,0.8040798306465149,0.0448965430259704,-0.3744746744632721
1783202653156617500,2.878617431640625,2.5363494926825165,2.1996619616135957,2.7111300132662057,0.7617277503013611,-0.1209576278924942,-0.3131198287010193
1783202653166554400,2.888554443359375,2.5295906660720706,2.274577063474804,2.967804680943489,0.6777132749557495,-0.2735285460948944,-0.2465794086456298
1783202653176492500,2.898492431640625,2.497958971750736,2.2804775196902454,3.1663574145197866,0.5503711700439453,-0.4043274223804474,-0.1769519448280334
1783202653186429400,2.908429443359375,2.2938965348422524,2.2591835333794354,3.2834745584249494,0.3461948335170746,-0.4799406826496124,-0.1133817657828331
1783202653196366600,2.91836669921875,2.0393536184966563,2.1563746085509656,3.3509313071042297,0.1122692823410034,-0.466693639755249,-0.0356110483407974
1783202653206304500,2.928304443359375,1.7679688729435203,1.9824061350025235,3.31625980669558,-0.06958519667387,-0.3617395460605621,0.010516501031816
1783202653216241400,2.938241455078125,1.3574527200758455,1.865242959998548,3.09775734102428,-0.2298870533704757,-0.2341090440750122,0.0421361476182937
1783202653226178300,2.94817822265625,1.0877543201744555,1.5718316760763524,2.7588036185890434,-0.3871158361434936,-0.1267642229795456,0.0731340125203132
1783202653236116500,2.958116455078125,0.9570692541658876,1.2983784536860885,2.433269349697232,-0.5153141617774963,-0.0248681586235761,0.0951049998402595
1783202653246053400,2.968053466796875,0.7423270178109407,1.059259608704597,2.1476094105541703,-0.6063817739486694,0.0567372217774391,0.1154113337397575
1783202653255991600,2.977991455078125,0.5387877279937267,0.7819875586785375,1.869064856374264,-0.6652156710624695,0.0976710990071296,0.1308874189853668
1783202653265928400,2.987928466796875,0.4393602622970938,0.5773568203628063,1.5771224759608506,-0.6946588158607483,0.0575865283608436,0.1614967286586761
1783202653275865600,2.997865478515625,0.4752712413728236,0.3844663503319024,1.126357314813137,-0.6860543489456177,-0.0604746639728546,0.2245395183563232
1783202653285803500,3.007803466796875,0.4712438855528831,0.2501986035309732,0.6141027889579534,-0.6590086221694946,-0.1946465969085693,0.2998537123203277
1783202653295740400,3.017740478515625,0.2878027963906526,0.1116517181061208,0.2257739179790019,-0.6298951506614685,-0.3145846128463745,0.3566750586032867
1783202653305677300,3.02767724609375,-0.0338712899416685,-0.1369696992360055,-0.0791466019511222,-0.5909674763679504,-0.4113641679286957,0.371593028306961
1783202653315615500,3.037615478515625,-0.3621779461562633,-0.4578855145469307,-0.3709960433840751,-0.5534032583236694,-0.4606884121894836,0.3497762382030487
1783202653325552400,3.047552490234375,-0.7121607198670507,-0.7356452019594609,-0.6578437310069799,-0.5208871364593506,-0.4613222479820251,0.2941606342792511
1783202653335490600,3.057490478515625,-1.0298030664652584,-0.979650211547315,-0.8475590781331062,-0.500016987323761,-0.4292058646678924,0.2082470655441284
1783202653345427500,3.067427490234375,-1.2726093677878378,-1.1988352526552974,-1.093466268080473,-0.4740495383739471,-0.3425157070159912,0.102847933769226
1783202653355364600,3.077364501953125,-1.4663094006359576,-1.4136558149434626,-1.3614789068520068,-0.4338906109333038,-0.2371163666248321,-0.0043437532149255
1783202653365302500,3.087302490234375,-1.5049994890362024,-1.6019931517146526,-1.6117670883625743,-0.39767587184906,-0.160539299249649,-0.0715635418891906
1783202653375239400,3.097239501953125,-1.4908090511202812,-1.7267130257084964,-1.948742788723111,-0.359190285205841,-0.1216795071959495,-0.089966781437397
1783202653385176300,3.10717626953125,-1.5098013363599776,-1.919162912365049,-2.347083350628614,-0.2999096512794494,-0.138571947813034,-0.0616645663976669
1783202653395114500,3.117114501953125,-1.766844837349653,-2.1648637660853565,-2.864930581924319,-0.1949783414602279,-0.1985614150762558,-0.0177510473877191
1783202653405051400,3.127051513671875,-2.320239182844758,-2.486336338496208,-3.51796019064784,-0.0429571270942688,-0.3147729635238647,-0.0176823381334543
1783202653414989300,3.1369892578125,-3.108112146300077,-2.805055082154274,-4.320831401270628,0.1302697211503982,-0.4749173521995544,-0.0758783891797065
1783202653424926200,3.14692626953125,-3.943736456489563,-3.1145775429219005,-5.196917485707998,0.3418932855129242,-0.5666022300720215,-0.1859641373157501
1783202653434863000,3.156863037109375,-4.782291559433936,-3.4022599278032777,-6.044011868938803,0.6298986673355103,-0.5513735413551331,-0.3677792847156524
1783202653444801000,3.166801025390625,-5.453924746340513,-3.6022163906976576,-6.915943756306171,0.9620388150215148,-0.4901405572891235,-0.6051350831985474
1783202653454738200,3.17673828125,-5.737064227095246,-3.750323716150224,-7.661526561042666,1.2744688987731934,-0.3692880570888519,-0.8551168441772461
1783202653464676000,3.186676025390625,-5.7505590839624405,-3.675834000094235,-8.093663009566068,1.535755634307861,-0.1851270198822021,-1.0521550178527832
1783202653474613200,3.19661328125,-5.755220061510801,-3.377746248793602,-8.273937743651867,1.7322938442230225,0.0412298068404197,-1.1596020460128784
1783202653484550100,3.206550048828125,-5.672888984304667,-3.153602562364936,-8.321234916877746,1.8617374897003172,0.2495395988225937,-1.2251170873641968
1783202653494488300,3.21648828125,-5.687382204559445,-2.881441864003241,-8.390704174423217,1.96370542049408,0.4081498384475708,-1.30566143989563
1783202653504425200,3.22642529296875,-5.9701803245306015,-2.465155603301525,-8.47203455015421,2.110140562057495,0.509215772151947,-1.452190637588501
1783202653514362000,3.236362060546875,-6.31105069424212,-1.954753719575703,-8.650127264025807,2.325160264968872,0.5583622455596924,-1.67400324344635
1783202653524300000,3.246300048828125,-6.633430298495292,-1.2721721454143524,-8.773943028786778,2.631777286529541,0.6288211941719055,-1.9534199237823489
1783202653534237200,3.2562373046875,-6.51118280596435,-0.4667641097903251,-8.642333249148725,3.049342155456543,0.6892632842063904,-2.231966018676758
1783202653544175000,3.266175048828125,-5.819181953811645,0.471650712788105,-8.300643964269756,3.471954584121704,0.7005652189254761,-2.4420082569122314
1783202653554112300,3.2761123046875,-4.871399583429098,1.665588402660191,-7.404313548704981,3.787610292434693,0.7390626668930054,-2.552064895629883
1783202653564049200,3.286049072265625,-3.7524192271247503,2.816197822937369,-5.871783663186431,4.03670072555542,0.7830402255058289,-2.586120367050171
1783202653573987300,3.2959873046875,-2.6506939570039507,4.029935899561643,-4.31015920060873,4.255763530731201,0.751434326171875,-2.5543484687805176
1783202653583924200,3.30592431640625,-1.600251422613859,5.077058349618316,-2.859032171535492,4.388318061828613,0.6839320063591003,-2.47243070602417
1783202653593861000,3.315861083984375,-0.6622679771900176,5.959714460095763,-1.3119605504453182,4.400306701660156,0.5835506916046143,-2.361358880996704
1783202653603799000,3.325799072265625,0.2142813408449292,6.666797730568051,0.2996481324851512,4.284756183624268,0.4449382126331329,-2.230224609375
1783202653613736200,3.335736083984375,0.9648273209467528,7.286245972207189,1.722162815058231,4.076397895812988,0.3308188319206238,-2.078552722930908
1783202653623674000,3.345674072265625,1.6654159687027337,7.758307019361853,2.9789006599754093,3.8115234375,0.2402918487787246,-1.9192429780960083
1783202653633611300,3.355611328125,2.3292779370859265,8.105679026052355,3.932383287826181,3.515532970428467,0.1701292395591735,-1.7643117904663086
1783202653643548200,3.365548095703125,2.9122827002078293,8.328612167647481,4.647916991257667,3.19504976272583,0.1706626713275909,-1.6059564352035522
1783202653653486300,3.375486328125,3.4279739225134254,8.497503922453522,5.314641947856545,2.875173330307007,0.219824805855751,-1.4516687393188477
1783202653663423200,3.38542333984375,3.883914148211479,8.626458219146729,5.9319993546962735,2.5506839752197266,0.2676330804824829,-1.2841495275497437
1783202653673361400,3.395361328125,4.3625282702714205,8.69307150273919,6.4581900514453645,2.2239718437194824,0.2947860658168793,-1.081270694732666
1783202653683298000,3.405298095703125,4.863763973984122,8.685268720033765,6.90742201167643,1.881012797355652,0.2902888059616089,-0.8472879528999329
1783202653693235200,3.415235107421875,5.319212324512004,8.740283335769176,7.282074824002385,1.5333014726638794,0.2702552378177643,-0.5970517992973328
1783202653703173000,3.425173095703125,5.6662049764961,8.796908309310675,7.626123823750018,1.1911423206329346,0.2798692584037781,-0.3454829752445221
1783202653713110300,3.4351103515625,5.922039686217904,8.794614060893654,8.063976311832667,0.8444603085517883,0.2823580205440521,-0.1088691428303718
1783202653723047200,3.445047119140625,6.094022392776608,8.829136508220433,8.419117198958993,0.4931723177433014,0.2761062383651733,0.1183861121535301
1783202653732985300,3.4549853515625,6.250615222501755,8.83787394142747,8.697913097551465,0.146072044968605,0.297461599111557,0.3423371315002441
1783202653742922200,3.464922119140625,6.3460699851751325,8.899922693583369,8.9902623052001,-0.2099140286445617,0.2720244228839874,0.5758748054504395
1783202653752860400,3.4748603515625,6.3349582240521904,8.9476646879673,9.18683058696091,-0.6045758128166199,0.2039342671632766,0.7975971698760986
1783202653762797000,3.484797119140625,6.379048125669359,8.933229919901489,9.446600882565974,-1.009675145149231,0.1492031067609787,1.0089483261108398
1783202653772734200,3.494734130859375,6.394441509634256,8.982154986590146,9.726655841308832,-1.4433258771896362,0.0985187888145446,1.2177923917770386
1783202653782672100,3.504672119140625,6.314077348586917,9.043878160053492,9.847526784789562,-1.8720004558563232,0.0374562256038188,1.4184778928756714
1783202653792609300,3.514609375,6.250196120306849,9.09514891308546,9.823327578556537,-2.3040339946746826,-0.0014521665871143,1.6175823211669922
1783202653802546200,3.524546142578125,6.16721914641261,9.15074921975434,9.80942764801979,-2.803980827331543,-0.0292169507592916,1.8067305088043213
1783202653812484400,3.534484375,5.956907001459598,9.406091177523136,9.844889422023297,-3.380135059356689,-0.0407759919762611,1.984862208366394
1783202653822421200,3.544421142578125,5.702618936657905,9.711583944383262,9.814233586996794,-3.9890103340148926,-0.064449094235897,2.1377322673797607
1783202653832359400,3.554359375,5.244282463473081,10.01114498310685,9.444493681153654,-4.549280643463135,-0.1024871245026588,2.249321222305298
1783202653842296000,3.564296142578125,4.737018000990152,10.162412233895065,8.830152407264709,-5.085390567779541,-0.1900553107261657,2.333590507507324
1783202653852233200,3.574233154296875,4.229553339760005,10.195199235731362,8.126517815941572,-5.592837810516357,-0.3368153572082519,2.419581413269043
1783202653862171100,3.584171142578125,3.515218490724265,10.283479576730729,7.146020924437046,-6.099510669708252,-0.57874596118927,2.5550131797790527
1783202653872108300,3.5941083984375,2.578606041392684,10.241595076203346,5.76104014596641,-6.4660325050354,-0.8471646904945374,2.685505151748657
1783202653882046200,3.604046142578125,1.542087987458706,10.038894575297832,3.786984052288532,-6.588565826416016,-1.1543384790420532,2.7887251377105717
1783202653891983400,3.6139833984375,0.3707151806160807,9.550753330957887,1.332666069343686,-6.445990085601807,-1.4192612171173096,2.848247766494751
1783202653901920300,3.623920166015625,-1.2169698981523511,9.025796559917929,-1.119632390472293,-6.1470136642456055,-1.5704281330108645,2.8500075340271
1783202653911858400,3.6338583984375,-3.2733009549349545,8.198087845158577,-3.185705673590302,-5.816243171691895,-1.6942180395126345,2.714266061782837
1783202653921795000,3.643795166015625,-5.453806672918796,7.041954400762915,-5.457439476463199,-5.449136257171631,-1.6633727550506592,2.419722080230713
1783202653931733200,3.653733154296875,-7.031941540792584,5.561632256865501,-8.06971164061427,-4.98808479309082,-1.5448765754699707,2.038448572158813
1783202653941670100,3.663670166015625,-8.258380693557857,4.164667318351566,-11.13035593329668,-4.395278453826904,-1.1684675216674805,1.6928051710128784
1783202653951607300,3.673607177734375,-9.047583444312217,3.0139962310150263,-13.415201731199025,-3.868170976638794,-0.537533164024353,1.4644538164138794
1783202653961545200,3.683545166015625,-9.318990986219047,2.1286910673335195,-14.63063901295662,-3.1027417182922363,0.1217361241579055,1.287700891494751
1783202653971482400,3.693482421875,-9.281364727658032,1.4452974461369217,-15.781810451030733,-2.3579747676849365,0.5466632843017578,1.1773625612258911
1783202653981419000,3.7034189453125,-8.774937300521135,0.2425672318696975,-16.197639323353766,-1.7948702573776243,0.6781883239746094,1.0882569551467896
1783202653991357200,3.713357177734375,-8.126197497946023,-0.9078593791864812,-15.479557689005135,-1.9113881587982176,0.5583975315093994,1.0640277862548828
1783202654001294000,3.723294189453125,-7.537531932583451,-2.356270865690708,-13.840745357328652,-1.4412691593170166,0.670418918132782,0.9846171140670776
1783202654011232300,3.733232177734375,-7.529752530753612,-2.409795681259781,-14.012806389820575,-0.7045847177505493,0.62326979637146,0.8907516002655029
1783202654021169200,3.743169189453125,-7.570948464494943,-3.203145468690991,-14.724244348371029,-0.4086039066314697,0.5077357292175293,0.7666277885437012
1783202654031106300,3.753106201171875,-7.125627540227771,-4.142304387634993,-13.133309035634994,-0.0634819641709327,0.4932262003421783,0.5451985597610474
1783202654041044200,3.763044189453125,-7.057650567066669,-4.28142001285851,-12.267018369024992,0.3906437158584595,0.4968360960483551,0.408562421798706
1783202654050981400,3.7729814453125,-6.570922696655988,-4.1783541906595225,-11.576848823952677,0.822727382183075,0.5298923254013062,0.3046793341636657
1783202654060919300,3.782919189453125,-5.741523544591665,-3.7748739277780055,-9.859562090498208,1.2446107864379885,0.4224513471126556,0.1909381002187729
1783202654070856200,3.792856201171875,-4.992727623027563,-3.641979661287367,-8.39375713225305,1.5441837310791016,0.2373302429914474,0.1086411774158477
1783202654080793000,3.80279296875,-4.235561348003149,-3.352924234487116,-6.606343554127216,1.7589609622955322,0.0406259708106517,0.0374660640954971
1783202654090731300,3.812731201171875,-3.589989069548249,-2.863960275587439,-4.941490772265196,1.8967504501342771,-0.1738627552986145,-0.0463546440005302
1783202654100668200,3.822668212890625,-2.9917654022455213,-2.428199937478453,-3.603625380712747,1.9067996740341189,-0.3543944656848907,-0.1378262490034103
1783202654110606000,3.832606201171875,-2.3563135357886558,-1.95712746296972,-2.2896558285325765,1.8120460510253904,-0.4253504574298858,-0.233704462647438
1783202654120543200,3.842543212890625,-1.803418371987343,-1.544120808460563,-1.1527554923951626,1.645549178123474,-0.3644927144050598,-0.3273148238658905
1783202654130480400,3.85248046875,-1.292462069249153,-1.0872589378729465,-0.334915845221281,1.5098223686218262,-0.1993223130702972,-0.3991038203239441
1783202654140418300,3.862418212890625,-0.7583037546217442,-0.6394356753960252,0.1233306115925312,1.4293798208236694,-0.0306744277477264,-0.4437682330608368
1783202654150355200,3.872355224609375,-0.2011117704093456,-0.2247660561107099,0.3405997360765934,1.3644737005233765,0.1045335084199905,-0.4592476785182953
1783202654160293000,3.882293212890625,0.3546352756917476,0.1493726692132651,0.6025953065156936,1.235573172569275,0.1794298589229583,-0.4422668218612671
1783202654170230300,3.892230224609375,0.8787287079006433,0.4164727231845259,0.972404770463705,1.1122885942459106,0.2659139037132263,-0.3975059986114502
1783202654180167200,3.902167236328125,1.2464327240020037,0.7160137420333922,1.3849445381134748,1.0796397924423218,0.320397138595581,-0.3519251942634582
1783202654190105000,3.91210498046875,1.4915397034823894,0.9053598905209452,1.4990502252429725,1.069920301437378,0.3056825995445251,-0.2926477789878845
1783202654200042200,3.922042236328125,1.7369874592244623,0.9842482068620622,1.680271300268173,1.0124448537826538,0.2408053278923034,-0.2288970053195953
1783202654209979400,3.9319794921875,1.893984778097272,1.1453600483816115,2.017349291959405,0.955351948738098,0.1737020611763,-0.1682289689779281
1783202654219917300,3.941917236328125,1.94908064237535,1.2890873321190477,2.2617647820442914,0.9377239346504213,0.0835545733571052,-0.0951401144266128
1783202654229854200,3.951854248046875,1.9982786807864903,1.3989844616428018,2.331455573385954,0.915373921394348,-0.0438304468989372,-0.0175181739032268
1783202654239792000,3.961792236328125,1.9710422988146543,1.5212684867918491,2.399249591195584,0.8789941072463989,-0.1638580560684204,0.0566545911133289
1783202654249729300,3.971729248046875,1.8774299491375683,1.5618242229335009,2.525171388325095,0.8314541578292847,-0.2798320055007934,0.1241315603256225
1783202654259666200,3.981666259765625,1.679082382744551,1.596458167810738,2.595337395963073,0.7750830054283142,-0.3549957275390625,0.1701927930116653
1783202654269604000,3.99160400390625,1.288523560756445,1.6342156515359878,2.7321915059953925,0.6851626038551331,-0.3731569945812225,0.1777893751859665
1783202654279541200,4.001541259765625,0.902256298482418,1.584330946034938,2.8455273777961727,0.5867129564285278,-0.3572550117969513,0.1619638055562973
1783202654289479200,4.011479248046875,0.6644611033201218,1.4443911449469624,2.8629098897516725,0.4347141981124878,-0.3138986825942993,0.1409024149179458
1783202654299416300,4.021416259765625,0.5021089794158935,1.308681236513704,2.890674679511785,0.2603557109832763,-0.2371961772441864,0.1397615224123001
1783202654309353200,4.031353271484375,0.430838809928298,1.1523679543823002,2.896512299624085,0.0809720456600189,-0.148047849535942,0.1416735649108886
1783202654319291100,4.041291015625,0.326307006829977,1.0317660371012984,2.8071079230308533,-0.0983244776725769,-0.0653929263353347,0.1503959447145462
1783202654329228300,4.051228271484375,0.253743290400505,0.867658740092814,2.595689862662553,-0.2482212334871292,-0.0297426618635654,0.1618355065584182
1783202654339166200,4.061166259765625,0.2291746663331985,0.6477998913764953,2.185748294812441,-0.3396478295326233,-0.0597522221505641,0.167903795838356
1783202654349103000,4.07110302734375,0.2206926691919565,0.4365047267355024,1.616857689499855,-0.3722664713859558,-0.099287673830986,0.1721785962581634
1783202654359040300,4.081040283203125,0.1756412290662527,0.2890878677651285,1.2232371418535708,-0.3809438347816467,-0.1277965456247329,0.1778474003076553
1783202654368978200,4.090978271484375,0.1075017588198185,0.1993611273497343,0.93604633988142,-0.3910267651081085,-0.1549670845270156,0.180539458990097
1783202654378915300,4.100915283203125,-0.0170025727272033,0.0917168913193047,0.6973901439756155,-0.4052456319332123,-0.15381421148777,0.16746386885643
1783202654388853200,4.110853271484375,-0.1392214236855506,-0.0778783355809748,0.4647089308261871,-0.4120557606220245,-0.1418388038873672,0.1388623863458633
1783202654398790100,4.1207900390625,-0.2625742471098899,-0.2128669440023601,0.2610445533245801,-0.427747368812561,-0.1057434007525444,0.0956893488764762
1783202654408727300,4.130727294921875,-0.4227648090660572,-0.3229523626398295,0.1402531048208475,-0.4521183371543884,-0.0526796951889991,0.043018814176321
1783202654418666200,4.140666259765625,-0.5440963557958602,-0.4152934502720832,0.0046399347603321,-0.4667492210865021,-0.0179227776825428,-0.0096680959686636
1783202654428603400,4.150603271484375,-0.5123252530038357,-0.5499015349432825,-0.2376747836530208,-0.4582619667053222,0.0176702011376619,-0.0463336482644081
1783202654438541300,4.160541259765625,-0.4524398163616657,-0.671586717416346,-0.4563935224235058,-0.4390123784542084,0.060161467641592,-0.0593445226550102
1783202654448478500,4.170478515625,-0.4088426666975021,-0.7964682847779244,-0.5920476090162992,-0.4225157499313354,0.0923897624015808,-0.0477840155363082
1783202654458415600,4.18041552734375,-0.4097252947509288,-0.966719272173196,-0.6977011096209287,-0.4219666123390198,0.1183603703975677,-0.0253671240061521
1783202654468353500,4.190353515625,-0.5839531498879194,-1.128365658960864,-0.8322247308790683,-0.4208485782146454,0.1366537511348724,0.0014394160825759
1783202654478290400,4.20029052734375,-0.8256067740440368,-1.3425664088502525,-1.117103164255619,-0.4235671162605285,0.1230942606925964,0.0281674321740865
1783202654488228600,4.210228515625,-1.2136352007716893,-1.5677980366460975,-1.5818857448399066,-0.3790079355239868,0.0784905105829238,0.038086213171482
1783202654498165200,4.220165283203125,-1.8516946193784476,-1.8801194804824888,-2.324998360070586,-0.2697669267654419,-0.0196773391216993,0.0115374252200126
1783202654508102400,4.230102294921875,-2.632041863504052,-2.2761077801734206,-3.210249747738242,-0.1258087158203125,-0.185965821146965,-0.0617426484823226
1783202654518040300,4.240040283203125,-3.489488129401207,-2.824196128214896,-4.164165506309271,0.0505892299115657,-0.3488095700740814,-0.1630913764238357
1783202654527977500,4.2499775390625,-4.379319246074557,-3.3060376878887414,-5.15849335476756,0.2644998729228973,-0.4927085041999817,-0.3058507144451141
1783202654537914600,4.25991455078125,-5.448535454517603,-3.4670413197934624,-6.202795486706495,0.5316415429115295,-0.5558696389198303,-0.5045337677001953
1783202654547852500,4.2698525390625,-6.620910424140095,-3.619968905009329,-7.2701768809378144,0.834490180015564,-0.5383380055427551,-0.7652816772460938
1783202654557789400,4.27978955078125,-7.465685424512625,-3.824379716964066,-8.317682192832232,1.134174108505249,-0.512495219707489,-1.0377826690673828
1783202654567727600,4.2897275390625,-8.063615661826729,-3.7814480454713104,-9.211728881374,1.377178192138672,-0.405826061964035,-1.2871451377868652
1783202654577664300,4.299664306640625,-8.668588218867779,-3.6347149309813975,-9.794780698508024,1.6035897731781006,-0.1578844338655471,-1.5442157983779907
1783202654587601400,4.309601318359375,-9.23017639221251,-3.376354209913313,-10.356699126720429,1.876184582710266,0.1609614938497543,-1.85004985332489
1783202654597539300,4.319539306640625,-9.480727024051546,-2.9715897524401544,-10.928007314568758,2.2096738815307617,0.5000921487808228,-2.1900594234466557
1783202654607476500,4.3294765625,-9.39532253074944,-2.271142266720533,-11.197858859205246,2.5900027751922607,0.81205815076828,-2.5197741985321045
1783202654617414400,4.339414306640625,-8.923640253779292,-1.2799527162879705,-11.217470737648007,3.022961139678955,1.0308064222335815,-2.7872679233551025
1783202654627351600,4.3493515625,-8.105014424663782,-0.0444321391835808,-11.13968022648096,3.516918420791626,1.1247618198394775,-2.9765048027038574
1783202654637288400,4.359288330078125,-7.187243746185303,1.238824587085843,-10.82479360833168,4.077470302581787,1.0825743675231934,-3.1147208213806152
1783202654647226600,4.3692265625,-6.320322964978217,2.671315304750204,-10.147725536894798,4.574502944946289,0.9133982062339784,-3.201270580291748
1783202654657163300,4.379163330078125,-5.383813683760166,3.994171050958335,-9.064607644349335,4.874634742736816,0.7317618131637573,-3.2529215812683105
1783202654667101400,4.389101318359375,-4.549006535172462,5.099698051449656,-7.476276376631856,5.0335798263549805,0.5880783796310425,-3.294527530670166
1783202654677038300,4.399038330078125,-3.777474465665221,6.203164320018887,-6.06861790240705,5.174511909484863,0.5507912039756775,-3.314924955368042
1783202654686975500,4.4089755859375,-2.920300879229605,7.13221217931509,-5.007832253178954,5.299167156219482,0.6085630655288696,-3.3139922618865967
1783202654696913400,4.418913330078125,-2.167418272873759,8.041834622651338,-3.99706180396378,5.381262302398682,0.77666175365448,-3.296269655227661
1783202654706850600,4.4288505859375,-1.4503972534939646,8.9250793466717,-2.8720161562711,5.428756713867188,1.0029897689819336,-3.248732566833496
1783202654716788500,4.43878857421875,-0.7730673162505031,9.834823955082893,-1.724013411360979,5.428807735443115,1.2009776830673218,-3.148395776748657
1783202654726725400,4.448725341796875,-0.0783876002773642,10.63590185254812,-0.6519295385271311,5.350136280059815,1.3659428358078003,-3.0331506729125977
1783202654736662300,4.458662353515625,0.5422162411376834,11.27668748124838,0.5637351222455501,5.236716270446777,1.458844542503357,-2.901698589324951
1783202654746600400,4.468600341796875,1.3740074029050766,11.519522424143553,1.7171511243760584,5.098414421081543,1.4132133722305298,-2.714007616043091
1783202654756537300,4.478537353515625,2.324755198964477,11.757342169225216,2.895071453166008,4.811940670013428,1.2994167804718018,-2.494080781936645
1783202654766475500,4.4884755859375,3.193316733115912,11.851277174985407,4.193611673285067,4.488399028778076,1.0902554988861084,-2.2379910945892334
1783202654776412400,4.498412353515625,3.9316149338021873,11.700491570234298,5.172457582712173,4.137252807617188,0.8101397156715393,-1.9558459520339968
1783202654786349600,4.508349609375,4.490314107707143,11.58472467189431,6.082706048992276,3.7234644889831534,0.5213972926139832,-1.6507407426834106
1783202654796287500,4.51828759765625,5.014994399893284,11.429495531737803,7.008243269819021,3.2133913040161133,0.1734843403100967,-1.3225836753845217
1783202654806224400,4.528224365234375,5.2858431388735765,11.299686079519986,7.705106759572029,2.569636106491089,-0.1200129687786102,-0.9986935257911682
1783202654816162300,4.538162353515625,5.52511834346056,11.066152048933503,8.231702529990672,1.9215474128723145,-0.1494760513305664,-0.7039276957511902
1783202654826099500,4.548099365234375,5.736657984381914,10.85254436956644,8.432007075670361,1.3587881326675415,0.0385581478476524,-0.4245932996273041
1783202654836036400,4.558036376953125,5.760954221248626,10.661704986846448,8.141704863679408,0.8830110430717468,0.2478754222393036,-0.1553128212690353
1783202654845974500,4.567974609375,5.649484727841616,10.570959132516384,7.799834961536527,0.4652838706970215,0.426910251379013,0.0958169251680374
1783202654855911400,4.577911376953125,5.623397515904903,10.43168510186076,7.696615994602442,0.0675929486751556,0.567870557308197,0.3309652805328369
1783202654865849600,4.587849609375,5.637585031211376,10.299972446370123,7.893127577739953,-0.3425647318363189,0.698390781879425,0.5726494193077087
1783202654875786500,4.597786376953125,5.655381969186664,10.211141485750677,8.29623725374341,-0.7755542397499084,0.7464195489883423,0.8289811015129089
1783202654885723400,4.607723388671875,5.611081639689207,10.106385810768604,8.61259920514226,-1.200672626495361,0.7648569941520691,1.065014123916626
1783202654895661300,4.617661376953125,5.5095431731879705,10.0690138192296,8.932022297677397,-1.626284122467041,0.7144843935966492,1.275774002075195
1783202654905598500,4.627598388671875,5.310051697456837,10.096853427791595,9.156326143103838,-2.0599398612976074,0.6134963631629944,1.4696526527404783
1783202654915536400,4.637536376953125,5.033050281065703,10.17362453278303,9.325844505375624,-2.5111019611358643,0.4829263985157013,1.6476671695709229
1783202654925473500,4.6474736328125,4.764612110358477,10.36432479929328,9.511011687678096,-3.0194759368896484,0.3518430888652801,1.799371600151062
1783202654935410400,4.657410400390625,4.500561068694293,10.6517950027287,9.634520578446985,-3.5229945182800293,0.2618474066257477,1.9244282245635984
1783202654945348600,4.6673486328125,4.1836560964599245,10.878999830293656,9.426097608241438,-3.982706308364868,0.178947776556015,2.024282217025757
1783202654955285500,4.677285400390625,3.730892162710428,11.081445479655263,8.902898494523763,-4.461873531341553,0.0975221544504165,2.095792293548584
1783202654965223400,4.687223388671875,3.1516911757856607,11.232425145673751,8.509932611393928,-5.0066752433776855,-0.0085105383768677,2.115485668182373
1783202654975160300,4.697160400390625,2.601042329606414,11.351999619603156,8.043442642369866,-5.532271385192871,-0.1099351644515991,2.100123882293701
1783202654985097500,4.707097412109375,2.26779602503255,11.539113259798288,7.227432548710704,-5.959333419799805,-0.15692038834095,2.11064076423645
1783202654995035400,4.717035400390625,2.1135691937863825,11.799672075432538,6.286223711499572,-6.305076122283936,-0.1711536645889282,2.1723616123199463
1783202655004972500,4.72697265625,2.0520237149775027,11.960503273379802,5.484943569460511,-6.643771648406982,-0.2295262664556503,2.3409574031829834
1783202655014910500,4.736910400390625,1.868868457019329,12.021135728996992,4.81266682395339,-6.994997501373291,-0.5215967893600464,2.6371850967407227
1783202655024847600,4.74684765625,1.3955796216353773,11.813367423307897,3.514693882328272,-7.261754989624023,-1.2336738109588623,3.0510621070861816
1783202655034784500,4.756784423828125,0.5273959808856249,11.352882247656582,1.0064438181877136,-7.293402194976807,-2.322268009185791,3.4154374599456787
1783202655044722400,4.766722412109375,-1.2252516965463758,10.72350531719923,-2.366585923478007,-6.9915947914123535,-3.469814777374268,3.654430389404297
1783202655054659300,4.776659423828125,-3.7388320157989856,9.566675707232951,-5.699304697543382,-6.436110019683838,-4.21095609664917,3.726914405822754
1783202655064597200,4.78659716796875,-6.416301459264755,8.13118463870883,-7.973006001096963,-5.905299186706543,-4.451663970947266,3.6001367568969727
1783202655074534400,4.796534423828125,-9.310555166307092,6.955989350968599,-9.386547688141464,-5.514030933380127,-4.048909187316895,3.200023412704468
1783202655084471600,4.806471435546875,-11.731177800399063,5.65421350992918,-10.256516751003264,-5.286010265350342,-3.0920772552490234,2.550806999206543
1783202655094409500,4.816409423828125,-12.936776409709452,4.379138336549699,-11.59985443648696,-5.249938011169434,-1.766532301902771,1.9228488206863403
1783202655104346600,4.8263466796875,-12.949680314946171,3.0442984302982685,-13.217393678510188,-5.047314167022705,-0.1563480347394943,1.5013736486434937
1783202655114284500,4.836284423828125,-12.04948620969057,1.911601683330536,-14.75156256340742,-5.091084003448486,1.3794564008712769,1.381062150001526
1783202655124221400,4.846221435546875,-10.528321767795084,0.2181678268894553,-15.248108063477275,-4.739851474761963,2.706242561340332,1.4878495931625366
1783202655134158300,4.856158447265625,-9.299653833064436,-1.0550001976944503,-15.792530582487585,-4.085262298583984,3.250261783599853,1.5989701747894287
1783202655144096300,4.86609619140625,-8.832151472127437,-2.6982114949822424,-18.14904694737196,-3.707932710647583,3.2453765869140625,1.4426349401474
1783202655154033400,4.876033447265625,-8.801794912308454,-4.190458469951152,-18.49043344991207,-3.033696174621582,3.0801258087158203,1.160847544670105
1783202655163971300,4.885971435546875,-9.115155928325652,-5.016873637768626,-19.123741874599457,-1.9450546503067017,2.689969539642334,0.8993521928787231
1783202655173908500,4.895908447265625,-9.091436030042171,-5.145355640774965,-19.70619689488411,-0.7303652167320251,2.006889581680298,0.7444958090782166
1783202655183845600,4.905845703125,-8.074251622131467,-5.132165319812297,-18.405182101345066,0.4931659996509552,0.9949567317962646,0.625061571598053
1783202655193783600,4.915783447265625,-6.925853740423918,-5.104525033214688,-16.571084513455627,1.440920352935791,-0.0475811213254928,0.4966819882392883
1783202655203720400,4.925720458984375,-6.067220895090699,-4.864705054226517,-13.715004177463054,2.156665325164795,-0.8270854949951172,0.3222532868385315
1783202655213658600,4.93565869140625,-5.451511839979887,-4.364536102962494,-10.546509750914574,2.6070377826690674,-1.3805508613586426,0.1652445197105407
1783202655223595300,4.94559521484375,-4.69325981554538,-3.71688234205842,-7.8941627660065885,2.811084032058716,-1.6477481126785278,0.0072870254516601
1783202655233533400,4.955533447265625,-3.921469679623842,-3.0562177084118125,-5.266178653460741,2.837883710861206,-1.6146703958511353,-0.1634775251150131
1783202655243470300,4.96547021484375,-3.183129393361509,-2.5262702894777056,-3.059913055798411,2.7316062450408936,-1.422474384307861,-0.3288603127002716
1783202655253407500,4.975407470703125,-2.398894201886654,-1.9584126804746689,-1.3711667726516723,2.5612261295318604,-1.1729875802993774,-0.4816842377185821
1783202655263345400,4.985345458984375,-1.5827023219197986,-1.3939037973776458,-0.1349602591097354,2.347054243087769,-0.8972686529159546,-0.6214058995246887
1783202655273282600,4.995282470703125,-0.9210749807208776,-0.8595007142089307,0.8578817347049713,2.066843271255493,-0.6074267029762268,-0.7476088404655457
1783202655283220500,5.005220458984375,-0.3456085041493177,-0.3611404198020696,1.7316957825571295,1.732227444648743,-0.3293367922306061,-0.8402953147888184
1783202655293157400,5.015157470703125,0.2839636566191911,0.0584133182629942,2.443756841441989,1.3909510374069214,-0.098414622247219,-0.9050228595733644
1783202655303094300,5.02509423828125,0.8733271411180495,0.4755572187073528,2.967484362947941,1.0944925546646118,0.096895083785057,-0.9399724006652832
1783202655313032400,5.035032470703125,1.3981570709079505,0.8526765672773122,3.3117052121311423,0.8209126591682434,0.2077358514070511,-0.9596145153045654
1783202655322969300,5.04496923828125,1.752113716685772,1.2062240477323531,3.4939848562985656,0.5960202813148499,0.2356462031602859,-0.9613623023033142
1783202655332907500,5.054907470703125,2.0415122578352687,1.3397400993831454,3.355912602648139,0.4336566925048828,0.2295395731925964,-0.9787836074829102
1783202655342844400,5.064844482421875,2.248679090499878,1.5620437109030785,3.174069011810422,0.3336056172847748,0.2124325186014175,-0.9694324731826782
1783202655352781600,5.074781494140625,2.4548580811709164,1.744112488798797,3.020610388457775,0.2686585783958435,0.183349996805191,-0.9164243340492249
1783202655362719500,5.084719482421875,2.6725261418446897,1.9811415218941864,2.915318122380972,0.189884141087532,0.1075035408139228,-0.8255239129066467
1783202655372656400,5.094656494140625,2.755311392559111,2.1905442969173192,2.8660382509052758,0.1226108372211456,0.0141016850247979,-0.7205793857574463
1783202655382594300,5.10459423828125,2.70910815204978,2.2871435534507034,2.712287366607785,0.0674567818641662,-0.084438644349575,-0.604432225227356
1783202655392531500,5.114531494140625,2.5310230369627478,2.280449608770013,2.459201663333177,0.0284688975661993,-0.1621632575988769,-0.504982590675354
1783202655402468400,5.12446826171875,2.2328256878077983,2.294990029167384,2.236069784295559,0.0030078561976552,-0.1978435069322586,-0.4325429201126098
1783202655412406000,5.134406005859375,1.97840756688565,2.234014313070476,2.071922593668103,-0.0334944948554039,-0.1966482698917389,-0.3636413514614105
1783202655422343000,5.144343017578125,1.7908955750226974,2.1489096794977782,2.001032363408804,-0.0992098972201347,-0.1734706759452819,-0.2653651535511017
1783202655432281000,5.154281005859375,1.681629144617915,2.0581215934611854,2.01974524718523,-0.2071478068828582,-0.1435830891132354,-0.1572698205709457
1783202655442218000,5.164218017578125,1.5208797797352074,1.9212066931523384,1.9893951171070337,-0.3351993858814239,-0.125198557972908,-0.0508970655500888
1783202655452155000,5.17415478515625,1.3869161304473876,1.6694444935664534,1.803184563231468,-0.4569700062274933,-0.1296553611755371,0.0496745482087135
1783202655462092800,5.1840927734375,1.2425906616210938,1.4073586144953965,1.4454682726591823,-0.5419207811355591,-0.1235885024070739,0.1575531661510467
1783202655472030000,5.194030029296875,1.0698656122624874,1.1167067122839391,1.0613573116362094,-0.6156008243560791,-0.1159502938389778,0.2574291527271271
1783202655481967900,5.2039677734375,0.7969687085807323,0.8550888891160487,0.6978676983594894,-0.6762983202934265,-0.0982174649834632,0.3283149003982544
1783202655491905000,5.213905029296875,0.4086047662883996,0.5457656041823328,0.3688157767355441,-0.7040823101997375,-0.0905446335673332,0.34029221534729
1783202655501842000,5.223842041015625,-0.0162122991323471,0.2036212690122425,-0.0816506937265396,-0.6804478168487549,-0.0928545892238617,0.2979952692985534
1783202655511780000,5.233780029296875,-0.4231283816814422,-0.1479874253999441,-0.6115455056905746,-0.5982744097709656,-0.0652975365519523,0.2140683978796005
1783202655521717000,5.243717041015625,-0.6652654054403304,-0.4209940730664879,-0.9916524917691946,-0.4761743545532226,-0.00059329951182,0.1413303762674331
1783202655531655200,5.2536552734375,-0.7093383559226989,-0.6328758784890175,-1.2311749491155146,-0.3449740409851074,0.0409157946705818,0.11301751434803
1783202655541591800,5.263591796875,-0.6083364805161953,-0.8091286635823547,-1.3510071971982718,-0.2520567774772644,0.0543087609112262,0.1107691824436187
1783202655551529000,5.273529052734375,-0.4648901326119899,-0.9189750127669424,-1.2813847949177026,-0.2001065015792846,0.0117969848215579,0.1296704262495041
1783202655561467000,5.283466796875,-0.4162292698174715,-1.0801394612565636,-1.2460165444165467,-0.1740682870149612,-0.0684143751859664,0.1442103832960128
1783202655571404000,5.293404052734375,-0.5600491272091865,-1.273125062225014,-1.3243489073753356,-0.1474856883287429,-0.1575035005807876,0.1422359049320221
1783202655581342000,5.303342041015625,-0.8641419641435146,-1.5089388743117451,-1.5110235716313123,-0.1063600778579711,-0.2051479965448379,0.103366807103157
1783202655591279000,5.313279052734375,-1.2357763054311277,-1.752917872675508,-1.7736814053714274,-0.0375647693872451,-0.2215914130210876,0.0345603115856647
1783202655601217000,5.323217041015625,-1.596627971419692,-1.952771751978248,-2.126112449017167,0.0616011917591095,-0.2419197708368301,-0.0410858243703842
1783202655611154000,5.33315380859375,-1.96206111997962,-2.1692826054409147,-2.5198072309434414,0.1561561971902847,-0.2717498540878296,-0.1391418129205703
1783202655621090800,5.3430908203125,-2.315141567444801,-2.3154995871022344,-2.8969477684319016,0.2061754763126373,-0.3005318343639374,-0.241502583026886
1783202655631029000,5.353029052734375,-2.5693618277072905,-2.4861022374793884,-3.2800890076398845,0.2209387123584747,-0.2997722923755646,-0.3148103654384613
1783202655640966000,5.3629658203125,-2.7941794678747653,-2.67886703530401,-3.787162331464887,0.2662596106529236,-0.2707771956920624,-0.3601109683513641
1783202655650904000,5.372904052734375,-3.180238055834174,-2.760415729960799,-4.5748599383533,0.3503566384315491,-0.1875230371952057,-0.346220463514328
1783202655660841000,5.382841064453125,-3.496611113148928,-2.937090101467073,-5.603754657801986,0.5159019231796265,-0.0276756361126899,-0.3069413304328918
1783202655670778000,5.392778076171875,-3.871449218913913,-3.234914233395457,-6.659645520725846,0.7508134841918945,0.0741804242134094,-0.3151731491088867
1783202655680716000,5.402716064453125,-4.434098299488425,-3.458948614230752,-7.858776395326852,1.0045688152313232,0.1471657305955886,-0.4085195362567901
1783202655690653000,5.41265283203125,-5.14176433828473,-3.537972174324095,-8.77034062038064,1.2490293979644775,0.1726700216531753,-0.5913345813751221
1783202655700590800,5.4225908203125,-5.930237605720758,-3.2636399771422147,-9.600801848718524,1.462470531463623,0.1801403164863586,-0.8422620296478271
1783202655710528000,5.432528076171875,-6.653946432301401,-2.8562825805664063,-10.44450132881403,1.7032008171081543,0.261297732591629,-1.1514774560928345
1783202655720465000,5.44246484375,-7.231575055342912,-2.5277275025486943,-11.228363887584209,2.083446979522705,0.4992024898529053,-1.5102355480194092
1783202655730403000,5.452403076171875,-7.418076116597652,-2.0908764465935525,-11.823156995916364,2.600703477859497,0.808627724647522,-1.830275297164917
1783202655740340000,5.462340087890625,-7.032377009600401,-1.30349930383116,-11.937321135234832,3.199380397796631,1.040009379386902,-2.017568826675415
1783202655750278000,5.47227783203125,-6.292972601237893,-0.1817740327328443,-11.5026870246768,3.7819595336914062,1.1429888010025024,-2.1091713905334477
1783202655760215000,5.482215087890625,-5.683479351902008,1.1586807907909151,-10.467671776521206,4.323677062988281,1.094651460647583,-2.12091064453125
1783202655770152000,5.49215185546875,-5.214569462254644,2.380043955466151,-9.109249919152258,4.759445667266846,0.8835237622261047,-2.146836996078491
1783202655780089900,5.50208984375,-4.838105508853495,3.39964477686882,-7.552973831865191,5.093944549560547,0.5626001954078674,-2.209725141525269
1783202655790027000,5.512027099609375,-4.45331679469943,4.434781605577468,-5.840891096794605,5.355548858642578,0.283529132604599,-2.301220417022705
1783202655799965000,5.52196484375,-3.969467110073566,5.362198064279556,-4.099902000713348,5.51338529586792,0.0638239905238151,-2.358753204345703
1783202655809902000,5.531902099609375,-3.377421254622936,6.191666189926862,-2.4206559518396853,5.505258560180664,-0.1149308383464813,-2.393673181533813
1783202655819839000,5.5418388671875,-2.8448510859698057,6.888922478389739,-0.7700462148636579,5.348134994506836,-0.2090523689985275,-2.4133260250091557
1783202655829777000,5.55177685546875,-2.2994655671462416,7.393336812138557,0.7316168232262135,5.125195026397705,-0.2326056361198425,-2.4547340869903564
1783202655839714000,5.561714111328125,-1.7299854715079068,7.8755837377429,1.879144351840019,4.823150157928467,-0.2138721048831939,-2.487557888031006
1783202655849652000,5.57165185546875,-1.1110349502578376,8.198040498885511,2.974662291753292,4.430030345916748,-0.1456784158945083,-2.5185561180114746
1783202655859588900,5.5815888671875,-0.522347173063457,8.573557819086313,4.042778429999947,3.980889320373535,-0.0316408425569534,-2.538594007492065
1783202655869526800,5.59152685546875,0.1260267188087105,8.901063095790148,4.839553077313304,3.5415756702423096,0.0801900848746299,-2.529232978820801
1783202655879464000,5.6014638671875,0.8384799918815493,9.093088473424316,5.35025511302948,3.1108548641204834,0.1918188333511352,-2.493936538696289
1783202655889400800,5.61140087890625,1.4634484582468867,9.229143542033434,5.778678093987703,2.697185039520264,0.2999975085258484,-2.45280122756958
1783202655899339000,5.621339111328125,1.9893577077060935,9.35378757431209,6.236089853543043,2.295620918273926,0.3574776649475097,-2.3946568965911865
1783202655909276000,5.63127587890625,2.2999185716107484,9.447609767347574,6.581538783216476,1.9055051803588867,0.3679625391960144,-2.3346869945526123
1783202655919214000,5.641214111328125,2.617134801751375,9.435135485699773,6.808755885741114,1.5697238445281982,0.3320557773113251,-2.2771847248077397
1783202655929151000,5.65115087890625,3.111586836673319,9.411018112531304,6.868244432020187,1.2747151851654053,0.2998158037662506,-2.168543815612793
1783202655939088000,5.661087890625,3.720962304848432,9.409811659350993,6.973268402549624,0.9675962328910828,0.3159674108028412,-1.9801762104034424
1783202655949025800,5.67102587890625,4.330164754544199,9.501580426988005,7.220478491789102,0.5979323983192444,0.3871662318706512,-1.7346580028533936
1783202655958963000,5.680962890625,4.783519639924168,9.632299979788064,7.621966704070568,0.2605584859848022,0.470808744430542,-1.4633946418762207
1783202655968900900,5.69090087890625,5.098032748585939,9.741769823810458,7.888083153831959,-0.0376226082444191,0.4824725985527038,-1.173311471939087
1783202655978838000,5.700838134765625,5.290661937332153,9.765362296321989,8.069959477895498,-0.3142178654670715,0.4335842430591583,-0.8682905435562134
1783202655988775000,5.71077490234375,5.508159609875083,9.749702370375394,8.37268336456418,-0.5930031538009644,0.2981917858123779,-0.5552484393119812
1783202655998713000,5.720713134765625,5.715761326825619,9.60763140247762,8.648972248771786,-0.8881228566169739,0.1043101623654365,-0.2177719324827194
1783202656008650000,5.73064990234375,5.900517590239644,9.537555411210656,8.948224659937619,-1.2154687643051147,-0.1736468821763992,0.1546522378921508
1783202656018588200,5.740588134765625,5.9814539982169865,9.501668105271458,9.232812001413109,-1.548597812652588,-0.5082373023033142,0.5580259561538696
1783202656028524800,5.75052490234375,6.084412268388271,9.527010636320709,9.391999523806572,-1.9332005977630613,-0.7834888100624084,0.9529961347579956
1783202656038462000,5.7604619140625,6.036009764268994,9.61386474390924,9.538996257668732,-2.354783535003662,-0.9582529664039612,1.313888669013977
1783202656048400000,5.77039990234375,5.669575914233922,9.787464822536707,9.540135490831732,-2.766836166381836,-1.090638518333435,1.6326652765274048
1783202656058337000,5.7803369140625,5.069354351112247,9.994620549285411,9.193091400921343,-3.159834861755371,-1.173817753791809,1.879582405090332
1783202656068275000,5.79027490234375,4.218461160120368,10.17696799799204,8.788474242964387,-3.588603973388672,-1.2064121961593628,2.029923915863037
1783202656078212000,5.800212158203125,3.328209479947388,10.359581988680365,8.489320031476021,-4.062646865844727,-1.195040225982666,2.105201482772827
1783202656088149000,5.81014892578125,2.605598385475576,10.468868877351284,8.14746532690227,-4.56394624710083,-1.1494349241256714,2.123077630996704
1783202656098087200,5.820087158203125,2.0506179398328066,10.561913071751594,7.644917371547222,-5.078349113464356,-1.124428629875183,2.1199986934661865
1783202656108023800,5.83002392578125,1.681808008316159,10.576229181873796,6.836016233110428,-5.583311080932617,-1.095181226730347,2.141432523727417
1783202656117962000,5.8399619140625,1.3358750945180653,10.525809492713211,5.767811832058429,-5.990213871002197,-1.061982035636902,2.2053463459014893
1783202656127899000,5.84989892578125,0.931935981953144,10.426870979577302,4.137730503848195,-6.233779430389404,-1.07103168964386,2.3114140033721924
1783202656137837000,5.859837158203125,0.6060808105438947,10.0865494759202,1.9036428332805635,-6.263914585113525,-1.1785640716552734,2.4613287448883057
1783202656147774000,5.86977392578125,0.348519130899012,9.55117886289358,-0.6404688178360461,-6.098146915435791,-1.3470195531845093,2.659715175628662
1783202656157711000,5.879711181640625,-0.0087669515624642,8.874469103375077,-3.066132953226566,-5.799278259277344,-1.6176230907440186,2.9339518547058105
1783202656167649000,5.88964892578125,-0.6628221039414406,7.969079183042049,-5.322489154225588,-5.353975296020508,-1.9150010347366333,3.213474035263061
1783202656177586000,5.8995859375,-1.818162059871852,6.830096195411682,-7.407127437081932,-4.840786933898926,-2.2773916721343994,3.4039855003356934
1783202656187523800,5.90952392578125,-3.6869627123519777,5.914805058789253,-9.384695922794938,-4.304837703704834,-2.5126729011535645,3.3989243507385254
1783202656197461000,5.9194609375,-6.308375337553024,4.854001289382577,-10.820731181198358,-3.7524313926696777,-2.4378771781921387,3.119945287704468
1783202656207398000,5.92939794921875,-8.719558527648449,3.511686224944889,-11.89474456079006,-3.2395594120025635,-2.119349479675293,2.635545253753662
1783202656217336000,5.939336181640625,-10.234681351292132,2.188256185980141,-12.902787630867955,-2.891865968704224,-1.6361244916915894,2.126162528991699
1783202656227273000,5.94927294921875,-10.86202180748582,0.5920270046196877,-13.305497493898867,-2.6054725646972656,-0.927845537662506,1.658782720565796
1783202656237211000,5.9592109375,-10.3611555216074,-0.5890614328123629,-13.165958090305327,-2.720029354095459,-0.1781947016716003,1.500117540359497
1783202656247148000,5.96914794921875,-8.817555960541963,-2.3382881958849726,-12.422640307891369,-2.19384503364563,0.5655872821807861,1.5011072158813477
1783202656257085000,5.9790849609375,-7.5596186767071485,-2.6412241178691387,-13.337647366875409,-1.682853937149048,0.8596502542495728,1.615307092666626
1783202656267022800,5.98902294921875,-6.923416284143924,-3.946739437697828,-14.155873967540265,-1.4921172857284546,0.8885772228240967,1.644422173500061
1783202656276960000,5.9989599609375,-7.15222445525229,-5.124126390263438,-13.290433195757863,-1.0917373895645142,0.91922265291214,1.4329694509506226
1783202656286898000,6.00889794921875,-8.034069833868742,-5.528768098139762,-13.377384333980082,-0.6440597772598267,0.8379624485969543,1.2371346950531006
1783202656296835000,6.0188349609375,-8.333205925178527,-5.89810059222579,-13.223009764826298,-0.1130007281899452,0.7798899412155151,1.0366960763931274
1783202656306772000,6.02877197265625,-7.976664523604512,-5.462072981482744,-12.209025614261629,0.5975040197372437,0.5549372434616089,0.819129228591919
1783202656316710000,6.0387099609375,-7.185753799888492,-5.327281649199128,-11.413243485116958,1.2210749387741089,0.1779109984636306,0.632017195224762
1783202656326647000,6.04864697265625,-6.143122231510281,-5.233135631036758,-9.884693024623392,1.7429932355880735,-0.1921163201332092,0.4508604705333709
1783202656336585000,6.0585849609375,-5.24318356232047,-4.671207265952229,-8.061383372730017,2.106992721557617,-0.5020388960838318,0.3189519941806793
1783202656346521900,6.06852197265625,-4.3462884986102575,-4.039466821233928,-6.268896729123592,2.316389799118042,-0.6665484309196472,0.2162958979606628
1783202656356459000,6.078458984375,-3.46152577124238,-3.320845380920172,-4.444002438387274,2.3874032497406006,-0.6885372996330261,0.1214024499058723
1783202656366397000,6.08839697265625,-2.687079860115051,-2.591477797925472,-2.8461808732688425,2.3293774127960205,-0.6551229357719421,0.0407110750675201
1783202656376333800,6.098333740234375,-1.9936960291713477,-1.9874346306890247,-1.6266297264516352,2.202685832977295,-0.613764226436615,-0.0503972955048084
1783202656386272000,6.10827197265625,-1.3681003708183763,-1.4126419617258013,-0.8190642205327748,2.0816128253936768,-0.5494757890701294,-0.1427125632762909
1783202656396209000,6.118208984375,-0.8094055808275937,-0.8921338406577706,-0.2041162129223346,1.8971182107925413,-0.4513737559318542,-0.2270226925611496
1783202656406146000,6.12814599609375,-0.3370370751589536,-0.4438711638502776,0.4143231439352035,1.6365647315979004,-0.2353849709033966,-0.2988888919353485
1783202656416083700,6.138083740234375,0.126760586041212,0.0633029900006949,1.1658055281043052,1.410719633102417,0.0151685001328587,-0.369860827922821
1783202656426020900,6.148020751953125,0.5045616332650185,0.4814588439665734,1.5021569590866566,1.2032870054244995,0.2447178065776825,-0.416181743144989
1783202656435958800,6.157958740234375,0.8278577678412199,0.7388776080094277,1.7446417733699082,1.0087004899978638,0.4322400391101837,-0.459430992603302
1783202656445896000,6.16789599609375,1.1590145527899265,1.0293231739938258,2.06131761302352,0.8601549863815308,0.532014012336731,-0.4909737110137939
1783202656455832800,6.177832763671875,1.50366093390882,1.196448649779707,2.173348831966519,0.7501488327980042,0.5260028839111328,-0.4909044802188873
1783202656465771000,6.18777099609375,1.7637579772502183,1.3749353314049542,2.2870091134160755,0.6368827223777771,0.4506197273731231,-0.4730410575866699
1783202656475707600,6.197707763671875,1.927786509934068,1.5956044735908508,2.4793074627727267,0.5082870125770569,0.334986537694931,-0.4477347135543823
1783202656485645800,6.207645751953125,2.0456232002854344,1.6817163845099508,2.6489865685641765,0.3787739872932434,0.1993248611688614,-0.4126065671443939
1783202656495582700,6.217582763671875,2.037788268876076,1.73289361403957,2.6413877839982507,0.2694974243640899,0.0882579386234283,-0.3897285461425781
1783202656505519900,6.227519775390625,2.0404449208647013,1.7718709949485956,2.4670845255374907,0.2228276580572128,-0.0128079578280448,-0.3510828912258148
1783202656515457800,6.237457763671875,2.029426683244109,1.8076453420326115,2.0134470238238573,0.2285256087779998,-0.0728907585144043,-0.2893660366535187
1783202656525395000,6.24739501953125,1.9880244132757183,1.859174161478877,1.6932342422157525,0.257545530796051,-0.1092256009578704,-0.1968049257993698
1783202656535331800,6.257331787109375,1.938352912133932,1.9018010048061609,1.5428700777471065,0.2706068754196167,-0.1170119047164917,-0.0922484695911407
1783202656545270000,6.26727001953125,1.818390315669775,1.9023397878579795,1.546264980882406,0.266364723443985,-0.1261753141880035,0.0168101117014884
1783202656555206700,6.27720654296875,1.6100824962764977,1.9098364272236823,1.5939099446326492,0.235402300953865,-0.1443957239389419,0.1276619136333465
1783202656565144800,6.287144775390625,1.3309300393313168,1.80084033819288,1.6217349401473995,0.1534666866064071,-0.1572111099958419,0.2306426167488098
1783202656575081700,6.297081787109375,0.9707236855089664,1.642301635096967,1.757165739378333,0.0387682393193244,-0.1678731739521026,0.3146223425865173
1783202656585019000,6.307018798828125,0.5931862576574087,1.4231886363118886,1.8071265788555144,-0.0701715648174285,-0.1639205068349838,0.3718041181564331
1783202656594956800,6.316956787109375,0.1968114428669214,1.1756892087370157,1.7195979330062865,-0.1582894772291183,-0.151307001709938,0.39686319231987
1783202656604894000,6.32689404296875,-0.1533797128975391,0.9152024354256688,1.6037737515211103,-0.2488777041435241,-0.1340784877538681,0.390842854976654
1783202656614830800,6.336830810546875,-0.3818780874043703,0.6827797270819544,1.4832576128274202,-0.3273392021656036,-0.1411193758249282,0.3721004724502563
1783202656624769000,6.34676904296875,-0.4699842408806085,0.4262413991354405,1.235104105257988,-0.3716358244419098,-0.1559065878391266,0.3470028638839721
1783202656634705700,6.35670556640625,-0.542179708519578,0.1832283231943845,0.9278858297795056,-0.3830412924289703,-0.1735835075378418,0.3172084987163543
1783202656644643800,6.366643798828125,-0.5917898348629475,0.0141368080325424,0.6206780756950379,-0.3741487264633178,-0.1722087860107422,0.2917089760303497
1783202656654580700,6.376580810546875,-0.5900023669242859,-0.1648814962513744,0.3944704424738883,-0.3672115504741668,-0.145088717341423,0.2753430902957916
1783202656664518000,6.386517822265625,-0.5484551355272531,-0.3750605163440108,0.2529249597549438,-0.3611619174480438,-0.1030826792120933,0.2510156631469726
1783202656674455800,6.396455810546875,-0.476962263199687,-0.5212264984704553,0.0999164182573556,-0.3483780324459076,-0.0608281232416629,0.2333189249038696
1783202656684393000,6.40639306640625,-0.4211562048256397,-0.658004912918061,-0.055310383811593,-0.3202726244926452,-0.0240546613931655,0.215188130736351
1783202656694329900,6.416329833984375,-0.4284305797427892,-0.7326347680971026,-0.168137721568346,-0.2788778841495514,-0.0218227636069059,0.1747130155563354
1783202656704268000,6.42626806640625,-0.4215437428385019,-0.8489270054854452,-0.2709457696139812,-0.2470853179693222,-0.0473648719489574,0.1388572752475738
1783202656714204700,6.43620458984375,-0.3665858257263898,-0.933566944155842,-0.3078758626043796,-0.2303390651941299,-0.1025870665907859,0.0920951664447784
1783202656724142800,6.446142822265625,-0.4525292482107877,-0.96196564790532,-0.3930822029858827,-0.2228763550519943,-0.1311633139848709,0.0468528568744659
1783202656734079700,6.456079833984375,-0.5201438178002834,-1.0898211895763874,-0.480973836928606,-0.2173134237527847,-0.1520286798477172,0.0074470955878496
1783202656744017000,6.466016845703125,-0.5342985998809338,-1.2362979912176728,-0.6200783562362193,-0.2142230868339538,-0.1515951156616211,-0.0390050895512104
1783202656753954800,6.475954833984375,-0.5487625940412283,-1.346081431233883,-0.7813537908196448,-0.2136338651180267,-0.1313288211822509,-0.0712352246046066
1783202656763892000,6.48589208984375,-0.5454635524958372,-1.3999446849770842,-1.0041951624780894,-0.2011574804782867,-0.0686460062861442,-0.0739942640066146
1783202656773828900,6.495828857421875,-0.5805109004795551,-1.478883197135478,-1.2347276731610295,-0.1614428609609604,0.0136256515979766,-0.0680124312639236
1783202656783767000,6.50576708984375,-0.6462164215773344,-1.5763076524466275,-1.6171470278352498,-0.0947762057185173,0.0295729264616966,-0.0405661575496196
1783202656793703700,6.51570361328125,-0.8223340359836816,-1.726905187279731,-2.2058605239927767,0.0220825709402561,0.0014665280468761,-0.013219479471445
1783202656803640800,6.525640869140625,-1.092329957526922,-1.9514954484321176,-2.7665952953785657,0.1590420305728912,-0.0346363484859466,0.0111748101189732
1783202656813578800,6.535578857421875,-1.479009307733178,-2.186759371551126,-3.1294191382229326,0.3022163212299347,-0.0733609646558761,0.0116230398416519
1783202656823516000,6.545515869140625,-1.984558198469877,-2.340152966843545,-3.399097079858184,0.4804744720458984,-0.1149254515767097,-0.025605022907257
1783202656833453800,6.555453857421875,-2.435277766910195,-2.515313426655531,-3.628979602199792,0.6420927047729492,-0.155885636806488,-0.1012344136834144
1783202656843391000,6.565390869140625,-2.809086529627442,-2.697682502672076,-3.731697049352527,0.7543486952781677,-0.1959534287452697,-0.1974251270294189
1783202656853328000,6.575327880859375,-3.0995851409733293,-2.8772265843957663,-3.824541337266564,0.8350796103477478,-0.2419017702341079,-0.3073146641254425
1783202656863265800,6.585265869140625,-3.4665894843727347,-3.006686784784496,-4.215370208367705,0.902243971824646,-0.251522421836853,-0.4027788639068603
1783202656873202700,6.59520263671875,-3.9578889004826543,-3.243499106389284,-4.746370935747027,0.9601080417633056,-0.1947176456451416,-0.5020316243171692
1783202656883139800,6.605139892578125,-4.570878759762644,-3.5549224323421718,-5.370717470821738,1.010889768600464,-0.0407877452671527,-0.6298766732215881
1783202656893077800,6.615077880859375,-5.191424733510613,-3.764469145880639,-6.072599080997705,1.0286136865615845,0.1378844231367111,-0.7955213189125061
1783202656903015000,6.625014892578125,-5.749396469923854,-3.638298050165176,-7.107917696014046,1.073193907737732,0.3074537515640259,-0.9592716097831726
1783202656912952000,6.6349521484375,-6.228688052853942,-3.4104569705232977,-8.394049393197893,1.1998740434646606,0.4609315991401672,-1.148745059967041
1783202656922890000,6.644889892578125,-6.798839471882581,-3.1529493591532107,-9.940117390203476,1.507336974143982,0.7795026898384094,-1.3961611986160278
1783202656932827000,6.654826904296875,-7.513459567600488,-2.953169129608572,-11.20267999575138,2.022734880447388,1.2076038122177124,-1.666654348373413
1783202656942763800,6.664763671875,-8.144307155132294,-2.281624497768283,-12.042030048465728,2.695966958999634,1.6730793714523315,-1.9377540349960327
1783202656952701700,6.67470166015625,-8.422243222025037,-1.2561626753777264,-12.13070552626252,3.4458446502685547,2.020454406738281,-2.164551019668579
1783202656962638800,6.684638916015625,-8.050179841670394,-0.2321215334400534,-11.542062757253646,4.128452301025391,2.104425430297852,-2.3427233695983887
1783202656972576000,6.694575927734375,-6.974637937337159,1.0332499920487404,-10.1328026930511,4.612450122833252,1.948171138763428,-2.444262981414795
1783202656982514000,6.704513916015625,-5.6718882828295225,2.246388933736086,-8.253746019494534,4.913853168487549,1.689808011054993,-2.454474925994873
1783202656992451000,6.714451171875,-4.554616191747784,3.3720155961871146,-6.319374870473146,5.09109354019165,1.4579013586044312,-2.427563428878784
1783202657002387700,6.7243876953125,-3.701670744401216,4.470201294004917,-4.539290612322092,5.129678726196289,1.2669310569763184,-2.3795926570892334
1783202657012326000,6.734325927734375,-3.042885640890896,5.248930581539869,-2.9985306585967537,5.04757022857666,1.1361517906188965,-2.358659267425537
1783202657022262800,6.7442626953125,-2.606895731809735,6.043101183834672,-1.594421401286125,4.895758152008057,1.0477031469345093,-2.3791792392730717
1783202657032200000,6.754199951171875,-2.301326100321114,6.873951119229197,-0.3316927915215492,4.718011379241943,1.0012660026550293,-2.426831007003784
1783202657042137900,6.764137939453125,-1.9371271697312595,7.600684262067079,0.7360065826177596,4.48519229888916,0.9627679586410522,-2.4689035415649414
1783202657052075000,6.774074951171875,-1.439868552955985,8.246189905026554,1.6947428932130335,4.173655986785889,0.9037910103797911,-2.493231773376465
1783202657062012000,6.784011962890625,-0.8722663800187408,8.749239964684843,2.565498722538352,3.851492404937744,0.8742045760154724,-2.499096393585205
1783202657071950000,6.7939501953125,-0.2740177244052291,9.164822753292322,3.4157390025794503,3.534195899963379,0.8410864472389221,-2.4660675525665283
1783202657081886700,6.80388671875,0.375982453494519,9.496244911178946,4.081391361510754,3.2030839920043945,0.8348447680473328,-2.3887176513671875
1783202657091823900,6.813823974609375,1.118161587267369,9.737425072604417,4.795872341018915,2.837800979614258,0.7828629612922668,-2.2492516040802
1783202657101761800,6.82376171875,1.8358309875532983,9.877132818502186,5.365714547967911,2.439316987991333,0.6221050024032593,-2.0537631511688232
1783202657111699000,6.833698974609375,2.4446207647949456,9.869787716436386,5.6647711443006985,2.084872245788574,0.3864821791648865,-1.850536584854126
1783202657121635800,6.8436357421875,2.872235936501622,9.836023394000527,5.606787741887569,1.8119215965271,0.1561877429485321,-1.6467773914337158
1783202657131574000,6.853573974609375,3.213016874364018,9.700219669803976,5.3142403813183305,1.6226357221603394,0.024226602166891,-1.4581998586654663
1783202657141511000,6.863510986328125,3.371042951762676,9.646140873613954,5.173907196998596,1.498094916343689,-0.04229037463665,-1.2743616104125977
1783202657151447800,6.87344775390625,3.471834983810782,9.63269862371683,5.076371536397934,1.4081789255142212,-0.0883040800690651,-1.0758448839187622
1783202657161385700,6.8833857421875,3.584735386803746,9.627378889998791,5.198063148611784,1.2834715843200684,-0.1448360830545425,-0.8710230588912964
1783202657171323000,6.893322998046875,3.7624645280599593,9.599937340843676,5.576334151434898,1.075767993927002,-0.1835101544857025,-0.6761510968208313
1783202657181259800,6.903259765625,3.941392815972864,9.480558681747317,6.13316548564136,0.8120883107185364,-0.2134994864463806,-0.4695097208023071
1783202657191198000,6.913197998046875,4.192847995436192,9.367541374376415,6.645965954941511,0.5008330345153809,-0.2336851507425308,-0.2353052496910095
1783202657201134800,6.923134765625,4.473753725789488,9.256927621015906,7.144916178065538,0.1296232640743255,-0.2130376547574997,0.0112848123535513
1783202657211072000,6.933072021484375,4.744270164075494,9.084302524900435,7.684576012718677,-0.2265793681144714,-0.1864680796861648,0.2764551639556885
1783202657221010000,6.943010009765625,4.968903679847717,8.91909384252131,8.001704856836795,-0.5552027821540833,-0.1702515482902526,0.5402812361717224
1783202657230946800,6.95294677734375,5.151610024994612,8.807071391406655,8.249114268040657,-0.8954285383224487,-0.1782440990209579,0.8081241846084595
1783202657240883700,6.9628837890625,5.213594479742646,8.763300638741255,8.50207839076221,-1.2236742973327637,-0.2045537382364273,1.0722954273223877
1783202657250820900,6.97282080078125,5.154980378210544,8.818844246786833,8.74607594769597,-1.5638810396194458,-0.2419937551021576,1.329817533493042
1783202657260758800,6.9827587890625,4.985818574291468,8.981229103916883,8.962339110007882,-1.9527795314788816,-0.3010498881340027,1.562072515487671
1783202657270696000,6.992696044921875,4.762938039666414,9.196318546274304,9.122644822776316,-2.402207612991333,-0.3665416836738586,1.7802540063858032
1783202657280633000,7.002633056640625,4.544947615170479,9.423674765008688,9.164538091132044,-2.8949100971221924,-0.4302623271942138,1.9766433238983157
1783202657290571000,7.012571044921875,4.353432525146007,9.681509708636998,9.06952639605105,-3.4083364009857178,-0.4868617057800293,2.1639556884765625
1783202657300508000,7.0225078125,4.193720102095604,9.96112510691881,8.830500197789073,-3.9001364707946777,-0.5331168174743652,2.3479650020599365
1783202657310444800,7.03244482421875,3.9958991899251934,10.239281538563969,8.360267535105347,-4.303816318511963,-0.5625671148300171,2.532609701156616
1783202657320382700,7.0423828125,3.77922978489995,10.516232686072588,7.672841735783219,-4.651580333709717,-0.5692737698554993,2.730188131332397
1783202657330320000,7.05231982421875,3.5605730054497715,10.69228249593973,7.006674413067102,-5.051313877105713,-0.5738338232040405,2.9757328033447266
1783202657340257000,7.062257080078125,3.437322181095183,10.572808559775352,6.514730269312858,-5.554875373840332,-0.6590754985809326,3.275343894958496
1783202657350194000,7.07219384765625,2.8530305930331346,10.422246242386102,5.673610868838429,-6.054790496826172,-0.8327136039733887,3.561946392059326
1783202657360132000,7.082132080078125,1.3813497284919023,10.419295575886965,4.144419187831878,-6.367910385131836,-1.2042187452316284,3.8330023288726807
1783202657370068700,7.09206884765625,-0.4978150816142558,10.000419006431102,1.4937737461447715,-6.406261920928955,-1.7534117698669434,3.958787441253662
1783202657380006000,7.102005859375,-3.0198858735755083,9.292029914057254,-1.5678636492282152,-6.152254104614258,-2.2990190982818604,3.883046865463257
1783202657389943800,7.11194384765625,-6.128519705662131,7.56797090998888,-4.260236355054379,-5.647566795349121,-2.7296628952026367,3.588831186294556
1783202657399881000,7.121880859375,-8.82004017857313,5.331861378204822,-6.714070353874564,-5.107325553894043,-2.8715100288391118,3.0759694576263428
1783202657409817900,7.13181787109375,-10.524745662873984,3.409646530923247,-8.634739140757917,-4.654216289520264,-2.6934032440185547,2.491220712661743
1783202657419756000,7.141756103515625,-10.944355222779512,1.6762407295778392,-10.09779450803399,-4.2834086418151855,-2.165973663330078,2.0235695838928223
1783202657429693000,7.15169287109375,-10.656052660173176,0.2616162157326936,-10.94641040174365,-4.002190589904785,-1.3090347051620483,1.682051420211792
1783202657439630000,7.161630126953125,-10.650537111622096,-0.4285968762204051,-11.301445490407945,-3.87898588180542,-0.2551936507225036,1.415608286857605
1783202657449568000,7.171568115234375,-10.705537114310264,-1.1265165970280766,-11.362166793352364,-3.784179925918579,0.7512055039405823,1.076646327972412
1783202657459505200,7.181505126953125,-10.29458899976611,-1.4646489200778303,-11.533563808977604,-3.919670581817627,1.4321675300598145,0.7709451913833618
1783202657469441800,7.19144189453125,-9.275500219538808,-2.3367532414026555,-11.653851399612426,-3.533687114715576,1.8540037870407104,0.4616066217422485
1783202657479379000,7.20137890625,-8.051513720622658,-2.342840744622797,-12.782462630832194,-2.902462959289551,1.7293022871017456,0.3471924364566803
1783202657489316900,7.21131689453125,-6.496700107103586,-3.1919071585789323,-14.192429966521262,-2.2240309715271,1.2706279754638672,0.3003040552139282
1783202657499254000,7.22125390625,-5.225405913567543,-4.011605877622962,-14.151562534081934,-1.5467365980148315,0.7593410015106201,0.3411921262741089
1783202657509191000,7.23119091796875,-4.779658580581844,-4.639256714940071,-13.880986182302236,-0.8389781713485718,0.4147288501262665,0.3996622264385223
1783202657519129000,7.241129150390625,-4.853963587720692,-4.503792013439536,-13.19946989928484,-0.2105834633111953,0.1739526987075805,0.3940213918685913
1783202657529066000,7.25106591796875,-4.879319855034352,-4.401169843354821,-12.217662509703636,0.3378463983535766,0.0009185476228594,0.3014974296092987
1783202657539003000,7.2610029296875,-4.771134790125489,-4.3875855546385045,-10.934424195873737,0.7460410594940186,-0.0582137517631053,0.18758524954319
1783202657548940000,7.27093994140625,-4.445206261219084,-4.068064262425899,-9.2157813716352,1.1013047695159912,-0.010407218709588,0.0594290383160114
1783202657558878000,7.2808779296875,-4.016932041081786,-3.4726106443583964,-7.542186480391025,1.421075463294983,0.0189706459641456,-0.040229644626379
1783202657568815000,7.290815185546875,-3.414082467544078,-2.964981440216303,-6.144722652444243,1.6333303451538086,0.0076610520482063,-0.1134927049279213
1783202657578752000,7.300751953125,-2.669917712911963,-2.5101234567970034,-4.575583576452732,1.725044012069702,-0.0500552430748939,-0.1750508695840835
1783202657588690000,7.31068994140625,-1.938511317566037,-2.0381981648512184,-3.166968239894509,1.767267107963562,-0.1428738832473755,-0.2170540988445282
1783202657598627000,7.320626953125,-1.2200900759994984,-1.5899788887940347,-2.140143312457204,1.813158392906189,-0.2680517733097076,-0.2462854832410812
1783202657608564000,7.33056396484375,-0.6045291971877217,-1.1514867876335977,-1.3995195914328098,1.7848578691482544,-0.3741556107997894,-0.255127876996994
1783202657618500900,7.3405009765625,-0.0388262820005416,-0.6718094202563166,-0.5531166975975036,1.6853421926498413,-0.3718471825122833,-0.2531227767467499
1783202657628439000,7.35043896484375,0.4329436732530594,-0.1939943396195769,0.3872176948666572,1.5251847505569458,-0.2645899653434753,-0.2358604222536087
1783202657638376000,7.3603759765625,0.7583604532450438,0.2374349835477769,1.1380670418292282,1.3318052291870115,-0.0822702348232269,-0.1989341080188751
1783202657648313000,7.37031298828125,0.9467156179338692,0.6206900583937763,1.7041349909365175,1.124498724937439,0.0942094251513481,-0.1722438633441925
1783202657658250000,7.38025,1.1257114181250334,0.8782572909966111,2.038102157130837,0.9167365431785583,0.2064922899007797,-0.1606183648109436
1783202657668188200,7.390188232421875,1.2583908728212116,1.0139655919946728,2.1944804673224687,0.7770840525627136,0.2556080520153045,-0.1613755524158477
1783202657678124800,7.400124755859375,1.343857909965515,1.146769988244772,2.1752935362935064,0.7043126225471497,0.2540128231048584,-0.1550569385290146
1783202657688062000,7.41006201171875,1.4655904387116432,1.2937705214992166,2.201810956341028,0.6190727353096008,0.195898562669754,-0.1334979981184005
1783202657698000000,7.419999755859375,1.6043828233301638,1.4295992340065538,2.308058915707469,0.5118532776832581,0.0794688910245895,-0.1013184860348701
1783202657707937000,7.42993701171875,1.6931453948885202,1.510327552191168,2.3769734619796274,0.410776823759079,-0.0628727599978447,-0.0636099204421043
1783202657717874200,7.439874267578125,1.7550000857770442,1.5180125537358224,2.2726374737143518,0.3373239040374756,-0.1902775764465332,-0.0078678270801901
1783202657727811000,7.44981103515625,1.6575339832812546,1.565552303545922,2.013036689457297,0.2676509916782379,-0.2553085088729858,0.0438944697380065
1783202657737749000,7.4597490234375,1.4162196740821005,1.5347273955628276,1.7664625600337982,0.2446724474430084,-0.2548972964286804,0.0740715488791465
1783202657747686000,7.469685791015625,1.1592834328591823,1.4476752811841669,1.5578379297763107,0.2233016639947891,-0.2078960537910461,0.0995829328894615
1783202657757623000,7.479623046875,0.9896107568085192,1.380379568285495,1.462151696434617,0.1811209172010421,-0.1188708245754242,0.1382040828466415
1783202657767560000,7.489559814453125,0.8609040051355957,1.3145793546415865,1.512975290220976,0.0910414308309555,-0.0223911106586456,0.1685117334127426
1783202657777498000,7.499498046875,0.6560600624606013,1.2306040173597632,1.6575433356314897,-0.0362584665417671,0.0435428991913795,0.1709351986646652
1783202657787435000,7.50943505859375,0.4588908921971917,1.0647270803302529,1.72026311891675,-0.153591901063919,0.0788169875741005,0.1552975177764892
1783202657797372200,7.5193720703125,0.3352265186056494,0.8258458434969186,1.6055974598169327,-0.2345567941665649,0.0874855741858482,0.144683226943016
1783202657807308800,7.529308837890625,0.2389861585125327,0.6079178167127073,1.3964052588045597,-0.2976278066635132,0.0800502970814704,0.1410690695047378
1783202657817247000,7.5392470703125,0.1813812340229749,0.3988942502655088,1.1618401316046714,-0.359466940164566,0.0456411838531494,0.1508564502000808
1783202657827183900,7.549183837890625,0.1177560263305902,0.2227529627226293,0.8777472956478595,-0.3917551040649414,0.0359424874186515,0.166832759976387
1783202657837121000,7.55912109375,0.0354024450317025,0.0239610135629773,0.6026175183475018,-0.3823847770690918,0.0345762856304645,0.1779586374759674
1783202657847058200,7.56905810546875,-0.0811105955004692,-0.1551553442679345,0.3692816406816244,-0.3596287071704864,0.0143483113497495,0.1784885376691818
1783202657856996000,7.57899609375,-0.1696130548179149,-0.3266756940118968,0.1481581788569688,-0.3362099528312683,-0.0230027884244918,0.1669993847608566
1783202657866933000,7.58893310546875,-0.2573050745353102,-0.4328622785799205,-0.0713145931512117,-0.3167403042316437,-0.0765120908617973,0.1419926434755325
1783202657876870000,7.598869873046875,-0.3874462429255247,-0.5630510855041444,-0.3974567648082971,-0.278646171092987,-0.0792373046278953,0.1108778715133667
1783202657886807000,7.60880712890625,-0.4966863698452711,-0.6997391913197935,-0.5888467671483755,-0.2327776253223419,-0.0748803615570068,0.0740904733538627
1783202657896745000,7.618744873046875,-0.6468389373898505,-0.7376692551329731,-0.8227163132995367,-0.1790129393339157,-0.0567000284790992,0.0290835835039615
1783202657906682000,7.62868212890625,-0.6918997298657894,-0.7593953492507338,-1.0418699363559485,-0.1097910925745964,-0.0326012447476387,-0.0006568611133843
1783202657916619000,7.638618896484375,-0.6015738545134663,-0.8033464269191026,-1.2138847916185855,-0.0442363172769546,-0.0237126797437667,-0.0061850510537624
1783202657926556200,7.64855615234375,-0.5153878554448486,-0.8134985492296516,-1.3139409106075763,0.0224451404064893,-0.0281054619699716,-0.0012308976147323
1783202657936494000,7.658494140625,-0.4705342759788036,-0.8637894974440335,-1.3959785578250885,0.0947688668966293,-0.0408289767801761,0.0068720360286533
1783202657946431000,7.668430908203125,-0.45944414216578,-0.9165547268174588,-1.4294821834981442,0.1543366909027099,-0.086942434310913,0.020077284425497
1783202657956368000,7.678367919921875,-0.5108429054915905,-0.992389135480672,-1.5782511877298355,0.2136103957891464,-0.1285173147916793,0.0416166670620441
1783202657966305000,7.688304931640625,-0.6269985108882189,-1.1033918881587683,-1.7109961088776589,0.2504337728023529,-0.160055786371231,0.0448722951114177
1783202657976243000,7.698242919921875,-0.9083031774312256,-1.2004825814709066,-1.8631699531167745,0.2656545341014862,-0.1490393579006195,0.0210268832743167
1783202657986180000,7.70818017578125,-1.249531566800177,-1.3168383856147527,-2.0631021583527325,0.3169134557247162,-0.1070474311709404,-0.0169412735849618
1783202657996117000,7.718116943359375,-1.522360081420839,-1.4124379635863005,-2.447104398304224,0.3824232220649719,-0.0861653238534927,-0.0398290120065212
1783202658006054000,7.728053955078125,-1.7633187090501188,-1.5436257184199988,-2.8441590120524167,0.4223507642745971,-0.1068155765533447,-0.0590033791959285
1783202658015991800,7.73799169921875,-2.041819716349244,-1.7566944686047732,-3.23505744125843,0.4418403208255768,-0.2236135601997375,-0.0666336044669151
1783202658025929000,7.747928955078125,-2.485059158167243,-1.903091044616699,-3.9952714134156704,0.4760107100009918,-0.3140899538993835,-0.0746214017271995
1783202658035866000,7.7578662109375,-3.1173025839716195,-2.191162721076608,-4.933224463701248,0.5713161826133728,-0.3543976843357086,-0.1203002035617828
1783202658045803000,7.767802978515625,-4.058539478233456,-2.482642160153389,-6.152271168127656,0.6933745741844177,-0.3042466044425964,-0.2329502999782562
1783202658055741200,7.7777412109375,-5.266984709146619,-2.7583430153399706,-7.443457226091623,0.8612520098686218,-0.1065028980374336,-0.4313861429691314
1783202658065677800,7.787677734375,-6.191508953538537,-3.089610274925828,-8.682156725493073,1.0825484991073608,0.1569297462701797,-0.672868549823761
1783202658075615000,7.797614990234375,-6.9503089672446245,-3.2035604792326686,-9.928754284667969,1.3033266067504885,0.4783618450164795,-0.9172253012657166
1783202658085551900,7.8075517578125,-7.605234764978289,-3.151603205241263,-10.997326934510468,1.5430008172988892,0.7474038600921631,-1.149937391281128
1783202658095490000,7.817489990234375,-8.186156584346294,-2.8479434990271923,-12.218691268229485,1.890743613243103,1.043670892715454,-1.396489143371582
1783202658105427000,7.827427001953125,-8.557591019147633,-2.497852588766813,-13.391072667592764,2.456870555877685,1.4327399730682373,-1.6440227031707764
1783202658115364000,7.837364013671875,-8.703913214749097,-2.097672828735411,-13.905849405401945,3.2013442516326904,1.8110430240631104,-1.901329040527344
1783202658125301000,7.847301025390625,-8.55422125045359,-1.0978592423424125,-13.467772460913658,3.984939336776733,2.080594301223755,-2.1349868774414062
1783202658135239000,7.857239013671875,-7.897731856665015,0.3517337090313434,-12.091403443443774,4.688037872314453,2.108782291412353,-2.3200645446777344
1783202658145175800,7.86717578125,-6.904346842014789,1.9591583842754363,-10.179045388787983,5.235197067260742,1.8919336795806885,-2.433056592941284
1783202658155113000,7.877113037109375,-5.891783664163947,3.5477813284158706,-7.921729987367987,5.595499038696289,1.5255231857299805,-2.502410888671875
1783202658165050000,7.887050048828125,-4.781369768413901,4.927574475115537,-5.663983793315291,5.800224304199219,1.115300178527832,-2.5551562309265137
1783202658174988000,7.896988037109375,-3.761879421648383,6.153250242292881,-3.583377542454004,5.909353733062744,0.7271098494529724,-2.610140323638916
1783202658184925200,7.90692529296875,-2.846995112261176,7.276552261188626,-1.7654361395955085,5.92830228805542,0.3952983319759369,-2.6470344066619877
1783202658194861800,7.91686181640625,-2.0239853689730167,8.324502394241094,-0.0156032273232936,5.8508076667785645,0.1210151314735412,-2.659111976623535
1783202658204799000,7.926799072265625,-1.2123305479139088,9.166105194318297,1.651841324597597,5.64020299911499,-0.0947822034358978,-2.6316068172454834
1783202658214736000,7.93673583984375,-0.4248440995581448,9.825779063361882,3.245975725635886,5.275486469268799,-0.2193371802568435,-2.5743248462677
1783202658224674000,7.946674072265625,0.3525936868615448,10.299316612809896,4.577579134184122,4.823519229888916,-0.23747618496418,-2.488633632659912
1783202658234611000,7.95661083984375,1.0572351171396672,10.54149689118862,5.535615187555552,4.326551914215088,-0.2085657119750976,-2.391826868057251
1783202658244548000,7.966548095703125,1.5842575885377823,10.592667106455565,6.252769770187139,3.81618595123291,-0.1639090180397033,-2.3007595539093018
1783202658254485000,7.976485107421875,1.9349941032253204,10.580853919064998,6.82935385261178,3.3086633682250977,-0.1081038117408752,-2.214883089065552
1783202658264423000,7.9864228515625,2.253138115735352,10.55347140662074,7.288615039426088,2.757736921310425,-0.0283258147537708,-2.124260663986206
