time,seconds_elapsed,ax,ay,az,gx,gy,gz
1783196751318615300,0.105615234375,0.3565826103672385,-0.6050099664419889,0.6745581344425677,0.5388569831848145,-0.2197380661964416,0.0058363289572298
1783196751328551200,0.11555126953125,0.2259256744746118,-0.2180544296428561,0.465410357093811,0.5152612924575806,-0.2038890123367309,-0.0137535436078906
1783196751338488000,0.125488037109375,0.0645535745836794,0.0627095541521906,0.2285550731301307,0.4755077064037323,-0.1992977112531662,-0.0306648835539817
1783196751348424200,0.135424072265625,-0.0445161642052233,0.0639786973051726,0.2325210541516542,0.418096661567688,-0.2372856438159942,-0.0388129651546478
1783196751358361000,0.145361083984375,-0.1655427366390824,-0.0436830743819475,0.1624818877637386,0.3987075388431549,-0.2466040402650833,-0.088867612183094
1783196751368297200,0.155297119140625,-0.2508704383779317,-0.170211605232954,0.2867366284638643,0.3324316442012787,-0.433003306388855,-0.2050831168889999
1783196751378234000,0.165234130859375,-0.4654530271917581,-0.2382810789830982,0.3115045744955539,0.0917801484465599,-0.37344491481781,-0.2517997622489929
1783196751388170000,0.175169921875,-0.932490474030748,-0.5086734524980188,0.5056272166699171,-0.1199191063642501,-0.2515960931777954,-0.3315831124782562
1783196751398107100,0.185107177734375,-0.8750817297004163,-0.5115257731892168,0.3877618847459554,-0.2572375535964966,-0.2189089655876159,-0.3911007642745971
1783196751408043300,0.195043212890625,-1.041008204960078,-0.6366605115942656,-0.1568500193566084,-0.391321986913681,-0.1775687336921692,-0.5607573986053467
1783196751417980200,0.204980224609375,-1.0140336157295853,-0.6012889000922441,-0.598577303045988,-0.5001254081726074,-0.1746320724487304,-0.730871856212616
1783196751427916000,0.214916015625,-0.7792600334107875,-0.7483370718806982,-1.1924375144422052,-0.5861979722976685,-0.1065677180886268,-0.8407109975814819
1783196751437853200,0.224853271484375,-0.7296951344486325,-1.4069802827022968,-1.8102695530563595,-0.6747909188270569,0.1252253055572509,-0.8755558133125305
1783196751447789300,0.234789306640625,-0.7246448653217404,-1.947194536367804,-2.298614211013913,-0.8344326615333557,0.5877872705459595,-0.8830235600471497
1783196751457726000,0.244725830078125,-0.6359970061842352,-1.83477446423769,-2.722973595795035,-0.9181757569313048,0.8251990675926208,-0.8480386734008789
1783196751467662000,0.254662109375,-0.4775346562601625,-1.6402295049980282,-3.4302632024943827,-0.8094372749328613,0.928739368915558,-0.7651754021644592
1783196751477599200,0.26459912109375,-0.1954801577305421,-1.9029095505699516,-4.246612318849564,-0.5056470632553101,1.0084201097488403,-0.6630674004554749
1783196751487535000,0.27453515625,-0.029185817272868,-2.1985900945983827,-4.547365197706222,-0.1311838924884796,0.9447981119155884,-0.5875481367111206
1783196751497472000,0.284471923828125,-0.0306087444817647,-2.2621925059370693,-4.634824285450578,0.2538761794567108,0.6773589849472046,-0.5341693758964539
1783196751507409200,0.2944091796875,-0.0580714825553819,-2.426725919403136,-5.099901465067267,0.6226545572280884,0.401200532913208,-0.4965218305587768
1783196751517345300,0.30434521484375,-0.0009838234055787,-2.783758903886377,-5.251379728257656,0.9557504653930664,0.1377872824668884,-0.4780139327049255
1783196751527282000,0.314281982421875,0.1218742022391408,-2.9417455260574816,-5.357400308609009,1.264615535736084,-0.0917616114020347,-0.4745774865150451
1783196751537218000,0.324218017578125,0.0790522107990924,-2.7919965708777306,-5.641380331841111,1.5289894342422483,-0.1923303008079528,-0.4867044389247894
1783196751547155200,0.3341552734375,-0.0632641192950308,-2.440883770223707,-5.838170147398114,1.736876130104065,-0.0622339881956577,-0.530208170413971
1783196751557091000,0.344091064453125,-0.3120121586915105,-2.087438142707944,-5.716468598312139,1.8771432638168333,0.1218921691179275,-0.6301688551902771
1783196751567028000,0.354028076171875,-0.6479174533415586,-1.8076897656962276,-5.514434452360868,1.9521825313568115,0.3183905482292175,-0.7610854506492615
1783196751576964000,0.363964111328125,-0.8473042265892028,-1.599152813722193,-5.40579346037805,1.967441201210022,0.537193238735199,-0.8910620808601379
1783196751586901200,0.3739013671875,-0.8791527785316109,-1.5778580967590212,-4.98930174023211,1.9246412515640257,0.6844024658203125,-1.0024791955947876
1783196751596837000,0.383837158203125,-0.8339270778175443,-1.4147680139690637,-4.660791085878015,1.8599944114685056,0.7539713978767395,-1.0909379720687866
1783196751606774000,0.39377392578125,-0.6932320744480938,-1.002390158882737,-4.355398272261024,1.81844961643219,0.7403512001037598,-1.139323353767395
1783196751616710100,0.403710205078125,-0.3848618524555117,-0.493430290658772,-4.055547310680151,1.8218985795974727,0.7091160416603088,-1.1230381727218628
1783196751626647000,0.41364697265625,-0.0312758666209876,0.0184936880677938,-3.750342128589749,1.85267972946167,0.6156011819839478,-0.9679640531539916
1783196751636583200,0.423583251953125,0.5362137493198738,0.8478302962899208,-3.1665064676016565,1.852622389793396,0.1445956081151962,-0.7830818295478821
1783196751646520000,0.43352001953125,0.5401689532190561,1.3494465237528086,-3.612894728839397,1.8197797536849976,0.1353515237569809,-0.5686208605766296
1783196751656456000,0.4434560546875,0.7196899463281035,1.6768538930401204,-2.108890680581331,1.776471734046936,0.1263937056064605,-0.3851096630096435
1783196751666393600,0.4533935546875,0.6599390958510339,2.394149053186178,-0.7485112594038248,1.7093993425369265,0.0055839410051703,-0.2293046712875366
1783196751676329500,0.46332958984375,0.2012126004353165,3.004762830984592,-0.3846241712421178,1.639423966407776,-0.1477307677268982,-0.0855009034276008
1783196751686266400,0.473266357421875,-0.0232743464730679,3.4546798508703707,0.2809013464391231,1.552716851234436,-0.2768996059894562,-0.0095614604651927
1783196751696202500,0.483202392578125,-0.313924348988384,3.8958322572812434,0.922775354897976,1.4545944929122925,-0.2875567972660064,-0.0122296810150146
1783196751706139600,0.4931396484375,-0.5632604174058884,4.26403691638112,1.9237907182961704,1.3631880283355713,-0.2273317724466323,-0.0988959744572639
1783196751716075500,0.503075439453125,-0.7161424829795956,4.36409478893578,2.797289124327898,1.307530403137207,-0.1760984063148498,-0.2761634290218353
1783196751726012400,0.513012451171875,-0.6730766637131571,4.215104835429788,3.397268695387244,1.2717552185058594,-0.1844444125890731,-0.5077756643295288
1783196751735948500,0.522948486328125,-0.7189343787204474,4.002812914836406,3.747144793853164,1.2582861185073853,-0.2123652696609497,-0.7539007067680359
1783196751745885400,0.532885498046875,-0.8823409070484339,3.9208249519795175,4.116974716067314,1.2641448974609375,-0.3087331354618072,-0.745732307434082
1783196751755821600,0.542821533203125,-0.9584596125457436,4.250839581155777,4.433737064960599,1.179447054862976,-0.1943101435899734,-0.6437026262283325
1783196751765758500,0.552758544921875,-0.763287388253212,4.617627066934109,4.841436991363763,0.9922703504562378,0.0142681170254945,-0.5886136293411255
1783196751775694300,0.5626943359375,-0.4542625017441808,4.34578054908812,5.186946711313724,0.8543082475662231,0.2676665484905243,-0.6058693528175354
1783196751785631500,0.572631591796875,-0.2099590937316417,4.230816199302673,5.27906619208455,0.7537453174591064,0.5509409308433533,-0.7013525366783142
1783196751795567600,0.582567626953125,-0.119135644120723,4.478711348196864,5.796223103028535,0.5992955565452576,0.8292683959007263,-0.9234921336174012
1783196751805504500,0.59250439453125,-0.1726943619593977,4.436173936718702,6.064096041068434,0.439085841178894,0.9202103614807128,-1.141682267189026
1783196751815440400,0.6024404296875,-0.4596794122263788,4.005449108558893,6.213634860628843,0.2733570635318756,0.7658109664916992,-1.28399658203125
1783196751825377500,0.61237744140625,-0.7675421230882405,3.500916701388358,6.140990480178594,0.1278267949819564,0.4283715784549713,-1.3159642219543457
1783196751835313700,0.622313720703125,-0.973725205412507,3.144460055488348,6.125932027256488,0.0025825947523117,0.0220408421009778,-1.2625782489776611
1783196751845250300,0.632250244140625,-1.0092894168771802,2.941168602952361,6.347354764288664,-0.1486996561288833,-0.4280517995357513,-1.1719813346862793
1783196751855186400,0.6421865234375,-0.9504128650166094,2.9373908379793163,6.662741148653626,-0.3693060576915741,-0.8797883987426758,-1.0925488471984863
1783196751865123600,0.65212353515625,-0.8204660501547157,3.0598867523133757,6.864225844028592,-0.6186548471450806,-1.320303201675415,-1.0177433490753174
1783196751875059500,0.6620595703125,-0.5249126396372914,3.2876807779431343,6.636271659401059,-0.8782871961593628,-1.666040062904358,-0.9347432851791382
1783196751884996400,0.671996337890625,-0.0349628845706582,3.483969658240676,6.0973114974498746,-1.1494157314300537,-1.8811694383621216,-0.8352540731430054
1783196751894932500,0.681932373046875,0.1333392337791621,3.555553715983033,5.959378360009193,-1.4368528127670288,-1.9756648540496824,-0.718882143497467
1783196751904869600,0.69186962890625,0.2455151218898594,3.523578030529618,5.912109243834018,-1.7186890840530396,-1.9754408597946167,-0.5626382827758789
1783196751914805500,0.701805419921875,0.345335532426834,3.476076859164238,5.99636807423234,-1.9602055549621584,-1.892168641090393,-0.3740825057029724
1783196751924742400,0.711742431640625,0.4606641854800283,3.4062089576900005,6.143209909793734,-2.128000020980835,-1.7133417129516602,-0.1619815677404403
1783196751934678500,0.721678466796875,0.6517858192075043,3.209307790713012,6.195308345821499,-2.2154901027679443,-1.306735873222351,0.0437481552362442
1783196751944615400,0.731615478515625,0.9509086126442998,2.810664738729596,5.762027403438091,-2.333348512649536,0.0529649145901203,0.1497080773115158
1783196751954552300,0.74155224609375,0.8243119119279086,2.721913273087144,6.177147835230827,-2.116950273513794,0.7245824337005615,0.3038273453712463
1783196751964488400,0.751488525390625,-0.2041618786949664,2.251616020734608,5.544609225872159,-2.017383575439453,1.0849640369415283,0.3023800551891327
1783196751974425600,0.761425537109375,-1.0711091825827956,2.5851398270756003,4.177482668522,-2.0525622367858887,0.4302217066287994,0.1909240782260894
1783196751984361500,0.771361572265625,-1.4970914923906324,3.2410283323615787,1.9729542699158191,-2.218832492828369,-1.135120868682861,0.0911310762166976
1783196751994298400,0.78129833984375,-1.622012588045001,2.884800819042325,-1.062074519994855,-2.4153101444244385,-1.1469799280166626,0.1456995159387588
1783196752004234500,0.791234375,-0.2721842253677546,1.7823197621181606,-0.718760264262557,-2.460960149765014,-1.3132078647613523,0.1975371241569519
1783196752014171400,0.80117138671875,-0.2540996295575052,0.7857152008995413,-0.2281570137232542,-2.3856117725372314,-0.8918910026550293,0.1180652156472206
1783196752024107500,0.811107421875,-0.8044923820838332,0.646342093783617,-0.6203945825785399,-2.174088478088379,-0.6609947085380554,0.0374705232679843
1783196752034044400,0.82104443359375,-0.8160884195923804,0.913906988787651,-1.997127172663808,-1.8857090473175049,-0.5330181121826172,-0.0098634362220764
1783196752043980300,0.830980224609375,-0.7632792049467563,1.147716621445119,-3.187638687479496,-1.5469300746917725,-0.4252855777740478,0.0353508368134498
1783196752053917400,0.84091748046875,-0.3645679830979556,0.9186591517508028,-3.5531817261546847,-1.256379246711731,-0.3910642266273498,0.1209048852324485
1783196752063853600,0.850853515625,-0.174860161691159,0.6647155164726078,-3.5565561710238454,-1.0707768201828003,-0.4697038531303406,0.1809064298868179
1783196752073790500,0.86079052734375,-0.2546035604916513,0.3847904677197337,-3.6119536485970016,-0.9956362843513488,-0.6301785111427307,0.1834420263767242
1783196752083726300,0.870726318359375,-0.4578553751369938,-0.0274669758573174,-3.6950808446168897,-0.9784027934074402,-0.77606201171875,0.1126801893115043
1783196752093663500,0.88066357421875,-0.5374608267715201,-0.517600855319202,-3.973039123341441,-0.993641436100006,-0.823136031627655,0.0012806891463696
1783196752103599600,0.890599609375,-0.5411826603062451,-1.0107222261592743,-4.310236942020058,-1.0018641948699951,-0.8040923476219177,-0.1191519424319267
1783196752113536300,0.900536376953125,-0.3386129096409305,-1.3005522905938327,-4.860141107311844,-0.9843286871910096,-0.7058318257331848,-0.2047877609729766
1783196752123472400,0.910472412109375,-0.0946277372647076,-1.3554801048286258,-5.403460633516311,-0.936096489429474,-0.5048559308052063,-0.2241435796022415
1783196752133409500,0.920409423828125,0.1218319339999929,-1.3579802510812875,-5.598298145961762,-0.8933290243148804,-0.2448402941226959,-0.1806038320064544
1783196752143345400,0.930345458984375,0.2940648889927193,-1.3382397778227924,-5.621493143588304,-0.8579674363136292,-0.0524323508143425,-0.0892501175403595
1783196752153282300,0.9402822265625,0.4421663326937705,-1.537161929233372,-5.617053115314245,-0.8066310286521912,0.0435154810547828,0.0047839665785431
1783196752163218400,0.950218505859375,0.4940051679372787,-1.9037148756034672,-5.723098245584964,-0.7265455722808838,0.0949686169624328,0.0668982788920402
1783196752173155600,0.960155517578125,0.4137124281583353,-2.2481258405312894,-5.718591581815481,-0.5922042727470398,0.0849791020154953,0.0739748328924179
1783196752183092500,0.970092529296875,0.247597554187104,-2.4291304963268336,-5.775845500910282,-0.3800437152385711,0.0294041913002729,0.0392101183533668
1783196752193028400,0.9800283203125,0.1175126094961538,-2.5179265317633748,-5.955620468780398,-0.0988170951604843,-0.0338834337890148,-0.0131074152886867
1783196752202965500,0.989965576171875,0.1175047915158793,-2.547425305709243,-6.080204879826307,0.1985508352518081,-0.1026109009981155,-0.0771002545952797
1783196752212901400,0.9999013671875,0.1185848783701658,-2.445437341874838,-6.120925597271323,0.4633335173130035,-0.1430957317352295,-0.1261335760354995
1783196752222838500,1.009838623046875,0.1429037654601037,-2.314309208273888,-6.06863602258563,0.6651001572608948,-0.1214338168501854,-0.1311564743518829
1783196752232774400,1.0197744140625,0.1783406972832977,-2.276222200333327,-5.889530332279205,0.7856406569480896,-0.0486237928271293,-0.0988528579473495
1783196752242711600,1.029711669921875,0.1604215577004477,-2.2702618306241926,-5.601666745612025,0.8279010057449341,0.0372012928128242,-0.058454617857933
1783196752252647400,1.0396474609375,0.0529924257254227,-2.1103027393363414,-5.388917728900909,0.8373821377754211,0.1405484527349472,-0.0239208787679672
1783196752262584300,1.049584228515625,-0.070212257932499,-1.9088029925227163,-5.263227986961603,0.86202073097229,0.2874784767627716,0.0057234307751059
1783196752272520400,1.0595205078125,-0.1558286404196172,-1.7917321719773112,-5.313543046703934,0.9604879021644592,0.4485989511013031,0.0359162203967571
1783196752282457300,1.069457275390625,-0.1795851809190586,-1.6760279636099933,-5.484762952196598,1.1336097717285156,0.6496616005897522,0.0658317655324935
1783196752292393500,1.0793935546875,-0.2311951210438273,-1.4569078044317665,-5.567537096995115,1.3395041227340698,0.868887722492218,0.0921901315450668
1783196752302330400,1.089330322265625,-0.2570117541445419,-1.1795802248261869,-5.17039363591969,1.5246107578277588,0.9936546087265016,0.1090044826269149
1783196752312266200,1.099266357421875,-0.3129235013827681,-0.8891431344091891,-4.718320899304747,1.66552996635437,1.0158331394195557,0.120673656463623
1783196752322203400,1.109203369140625,-0.3466797135774046,-0.6947089420676231,-4.19404509626627,1.7671852111816406,0.9767922163009644,0.1134745702147483
1783196752332140500,1.119140625,-0.345634588438645,-0.546146566323936,-3.6927076857447614,1.83156156539917,0.950368583202362,0.1033961027860641
1783196752342076400,1.129076416015625,-0.3976405238773673,-0.4140837822213769,-3.0884657810658216,1.8755003213882449,0.923305869102478,0.085474856197834
1783196752352013300,1.139013427734375,-0.4217671763308346,-0.2009679780244827,-2.581565475720167,1.9133049249649048,0.8933240175247192,0.0675081089138984
1783196752361949400,1.148949462890625,-0.4432748053923249,0.0512327591091394,-2.3163772467195987,1.9627760648727417,0.8874164819717407,0.0622394531965255
1783196752371886600,1.158886474609375,-0.4057612134255469,0.248685422489047,-2.006061589747667,2.020390510559082,0.8908948302268982,0.0603701844811439
1783196752381822500,1.168822509765625,-0.3682753131832927,0.4893453594326972,-1.655713197594881,2.0580430030822754,0.9145670533180236,0.0614145174622535
1783196752391759400,1.17875927734375,-0.4000706005685031,0.8035816969797015,-1.1747814462423325,2.08443021774292,0.9465577602386476,0.0622723177075386
1783196752401695500,1.188695556640625,-0.4072434148073196,1.0548945453628895,-0.6432616634249687,2.06792950630188,0.9348881244659424,0.0639252141118049
1783196752411632600,1.198632568359375,-0.4443232915319502,1.207880582767725,-0.1548772579789161,2.0274453163146973,0.8602830767631531,0.0663295164704322
1783196752421568500,1.208568603515625,-0.5563412126019597,1.3306228730782863,0.248870131406188,1.9986194372177124,0.7414677143096924,0.0610109977424144
1783196752431505400,1.21850537109375,-0.6696453740902245,1.4693454073309895,0.5410433979660272,2.015883207321167,0.7466776371002197,0.0263960286974906
1783196752441442600,1.228442626953125,-0.7416752759039401,1.690963666935265,1.369400932022929,2.0283102989196777,0.6211304068565369,-0.0611630417406559
1783196752451378400,1.23837841796875,-0.5409764702096581,1.9245885906755924,2.281699901092052,2.002965211868286,0.3083991706371307,-0.1569763869047165
1783196752461315300,1.2483154296875,-0.4238678018718957,2.0891662816748022,2.109774477678537,1.906191110610962,-0.0397400520741939,-0.1787907481193542
1783196752471251500,1.25825146484375,-0.3501233512252569,2.3139210857391355,2.441082653796673,1.7493338584899902,-0.2984469830989837,-0.1485532224178314
1783196752481188600,1.268188720703125,-0.3300909092828631,2.3656214623600245,2.689385214447975,1.559731125831604,-0.3673242926597595,-0.1008448451757431
1783196752491124500,1.27812451171875,-0.2814681865416467,2.5250270114183424,3.05926248293519,1.3550208806991575,-0.3105347752571106,-0.080178178846836
1783196752501061400,1.288061279296875,-0.4292176384672522,2.7037276280552147,3.2553964649319647,1.1869518756866455,-0.2182699888944625,-0.0809569209814071
1783196752510997500,1.29799755859375,-0.539217936104536,2.7311452118128536,2.942819292768836,1.113180160522461,-0.0672184228897094,-0.0935651212930679
1783196752520934700,1.3079345703125,-0.5324664160177112,2.671834360188245,2.6980682871192694,1.115156650543213,0.1042346581816673,-0.1264522671699524
1783196752530871300,1.317871337890625,-0.5751248235270381,2.717707638090849,2.845213489541411,1.1398417949676514,0.1937970221042633,-0.1878365278244018
1783196752540807400,1.327807373046875,-0.6534972262352705,2.9041455709815023,2.9289690465927123,1.166157364845276,0.2350988984107971,-0.2506166398525238
1783196752550744600,1.33774462890625,-0.6898034882389008,3.114220984569192,3.10156082496047,1.170706868171692,0.2709878981113434,-0.2987746000289917
1783196752560680400,1.347680419921875,-0.6874807443797588,3.2792747686475514,3.570800969475508,1.1261852979660034,0.2475389540195465,-0.3173283636569977
1783196752570617300,1.357617431640625,-0.5191983536437154,3.2168641974419354,4.00092315556705,1.0299122333526611,0.12266705930233,-0.3170082569122314
1783196752580553500,1.367553466796875,-0.3343453518569469,3.125497580865025,4.135566019290685,0.8800314664840698,-0.0706699341535568,-0.3184188902378082
1783196752590490600,1.37749072265625,-0.2924025452710688,3.149424399897456,4.218632425034046,0.7109705805778503,-0.2494743168354034,-0.3410541713237762
1783196752600426500,1.387426513671875,-0.3566565523862838,3.20219620514214,4.389076669979096,0.5591237545013428,-0.3401072919368744,-0.3310657143592834
1783196752610363400,1.39736328125,-0.183890440364927,3.2350551031708714,4.581496599888801,0.4013983011245727,-0.380888819694519,-0.2941623032093048
1783196752620300500,1.407300537109375,-0.0217912683084607,3.227248228812217,4.770608135902881,0.2289994060993194,-0.4468529522418976,-0.2654714584350586
1783196752630236400,1.417236328125,-0.0786241855122149,3.343463455441594,4.770033550885319,0.0505804009735584,-0.5111141800880432,-0.2468509078025818
1783196752640173300,1.42717333984375,-0.0843628752946853,3.582581423640251,4.658478717282415,-0.1223727390170097,-0.4771466851234436,-0.2264660000801086
1783196752650109400,1.437109375,-0.0153404847338795,3.709400461870432,4.869947046533227,-0.2948262691497803,-0.3864585757255554,-0.196980819106102
1783196752660046600,1.447046630859375,0.081186437215656,3.768774441859126,5.122451735049486,-0.4835076928138733,-0.2905281186103821,-0.1564306020736694
1783196752669982500,1.456982421875,0.1065494265310466,3.844407482731342,5.290507039031386,-0.6918164491653442,-0.2441068142652511,-0.11429113894701
1783196752679919400,1.46691943359375,0.0685807842731475,3.8938480977267034,5.399778145611286,-0.9102835655212402,-0.2866645753383636,-0.0675684586167335
1783196752689855500,1.47685546875,0.0669352090232074,3.868796074056625,5.364128155559301,-1.1409835815429688,-0.4078716933727264,-0.0031953277066349
1783196752699792600,1.486792724609375,0.1064059994723647,3.77094944781065,5.3889943012684585,-1.384907841682434,-0.5827558636665344,0.062806487083435
1783196752709729500,1.4967294921875,0.1191121171146631,3.614909575793147,5.43205310627222,-1.6274209022521973,-0.8008530735969543,0.1155067160725593
1783196752719665400,1.50666552734375,0.1164904633741825,3.4572634376227853,5.315692918214202,-1.8484872579574585,-1.0381652116775513,0.156773179769516
1783196752729602600,1.5166025390625,0.1019204515561461,3.349670493388176,5.0760769373655314,-1.9815174341201784,-1.171381592750549,0.1959176510572433
1783196752739538400,1.526538330078125,0.0760298581700772,3.230384188750386,4.797371055144072,-2.0130834579467773,-1.08306884765625,0.2349965572357177
1783196752749475600,1.5364755859375,-0.0170556180886924,3.105380675509572,4.792008066806197,-1.9507050514221191,-0.910370707511902,0.2670525014400482
1783196752759411500,1.546411376953125,-0.1700344220351427,3.0432629497706887,4.774091886365413,-1.8438117504119875,-0.755050778388977,0.2873283922672272
1783196752769348600,1.5563486328125,-0.235450202938728,3.022211978435516,4.677754495638609,-1.7178975343704224,-0.6312997937202454,0.3120861947536468
1783196752779285500,1.566285400390625,-0.0099644907839596,2.861903635318577,4.9567415328890085,-1.5889610052108765,-0.6231609582901001,0.3462586402893066
1783196752789221600,1.5762216796875,0.2525726391859352,2.659160464315116,5.399097177609801,-1.5928055047988892,-0.7601286172866821,0.3335428535938263
1783196752799158500,1.586158447265625,0.1426317435856908,2.852102956794202,5.954122339177132,-1.845922589302063,-1.0121426582336426,0.2465398609638214
1783196752809094400,1.596094482421875,-0.133637924464792,3.6153225405082106,6.449968751066923,-2.315131187438965,-1.3740018606185913,0.164267361164093
1783196752819031600,1.606031494140625,-0.248949845578894,4.242781070123613,6.347842840066551,-2.9395432472229004,-1.973991870880127,0.1889059841632843
1783196752828967700,1.6159677734375,-0.2204614907845854,4.263536565643549,5.182104531979561,-3.533904552459717,-2.589431047439575,0.380648523569107
1783196752838904600,1.625904541015625,-0.0318541414329782,3.814185362946987,2.0925380961954594,-3.8926146030426025,-2.721865177154541,0.6806596517562866
1783196752848841500,1.635841552734375,0.0200258660711348,3.101859223385155,-0.653611792525649,-3.966466188430786,-2.2592813968658447,0.9571138620376588
1783196752858777600,1.645777587890625,-0.0290940656024962,2.556862119357288,-3.05376037838757,-3.924290418624878,-1.6362676620483398,1.0636142492294312
1783196752868714500,1.655714599609375,-0.7477195975694805,2.4379491780765354,-5.595853675419092,-3.8736376762390137,-1.0369138717651367,1.0403928756713867
1783196752878650400,1.665650390625,-1.5466741462051867,1.996843971808255,-7.9329335184276095,-3.8103010654449454,-0.5493850111961365,0.994321882724762
1783196752888587500,1.67558740234375,-2.0496186996623877,0.6254236627869307,-9.852941795575616,-3.703680276870728,-0.2044843137264251,0.9267330169677734
1783196752898523600,1.685523681640625,-2.5266703947111964,-0.8990358751311898,-11.354912876701354,-3.470271587371826,-0.0132858986034989,0.7795870900154114
1783196752908460500,1.69546044921875,-3.010523878729343,-2.009079476264119,-12.537183217394352,-3.0708212852478027,0.156434953212738,0.5241186022758484
1783196752918397400,1.7053974609375,-3.3209722221702336,-2.6946511721521613,-13.32962655750513,-2.4930450916290283,0.321816086769104,0.2225470691919326
1783196752928333600,1.71533349609375,-3.065381258076429,-3.1558015337139365,-13.732611145824194,-1.8117327690124512,0.3971734344959259,-0.0292374938726425
1783196752938270500,1.7252705078125,-2.186497067353129,-3.5613945509657263,-14.170879813492297,-1.1359834671020508,0.3781690001487732,-0.1626444905996322
1783196752948206300,1.735206298828125,-1.0736053833127022,-3.8288977789103984,-14.260428566992282,-0.5591464042663574,0.307533711194992,-0.1560584902763366
1783196752958143500,1.7451435546875,-0.1697545091152191,-3.8726936660170552,-13.86783210169673,-0.0997294932603836,0.2456009685993194,-0.0318349003791809
1783196752968080600,1.75508056640625,0.4629893404919654,-3.890874634873867,-13.079413779318331,0.2804647088050842,0.1988848745822906,0.1487748175859451
1783196752978016500,1.7650166015625,0.7426594646357,-3.913356808055937,-12.144362295693158,0.6226102709770203,0.1614153087139129,0.2861151993274688
1783196752987953400,1.774953369140625,0.576049098765105,-3.7615140954673287,-11.138140595823526,0.9684484004974364,0.1178888604044914,0.3447630405426025
1783196752997889500,1.7848896484375,0.1487800370823591,-3.535172606733441,-10.286505062031743,1.3317488431930542,0.1232183501124382,0.3367323875427246
1783196753007826700,1.79482666015625,-0.2739621948257088,-3.4003707530558107,-9.47232569093108,1.6636765003204346,0.1452581286430359,0.2864918708801269
1783196753017763600,1.804763671875,-0.5706222514107823,-3.27108970862627,-8.479856037560104,1.9194270372390747,0.1513114869594574,0.2032362669706344
1783196753027699500,1.814699462890625,-0.8517234312709421,-2.917197360256314,-7.599157490891217,2.080366373062134,0.1667216122150421,0.111094631254673
1783196753037636600,1.82463671875,-0.9906221258081496,-2.477417411242425,-6.700785924887657,2.139451265335083,0.1647177785634994,0.0085049979388713
1783196753047572700,1.83457275390625,-1.0382027921505272,-1.9284227620109915,-5.948874501651525,2.121338129043579,0.1825420558452606,-0.0756714046001434
1783196753057509400,1.84450927734375,-1.0250454236093909,-1.3470502762660383,-5.440657853010297,2.0878570079803467,0.24874147772789,-0.1164188683032989
1783196753067445500,1.854445556640625,-0.9092360743671656,-0.9145257052078842,-5.151397843548655,2.095932006835937,0.379005491733551,-0.1179403290152549
1783196753077382700,1.864382568359375,-0.7938784874804318,-0.5544434161566197,-5.029171393805742,2.174768686294556,0.529768168926239,-0.1042981743812561
1783196753087319600,1.874319580078125,-0.6672437197759747,-0.2036189309246838,-4.849809098389745,2.304197072982788,0.657678484916687,-0.0984488129615783
1783196753097255400,1.88425537109375,-0.6518055468212812,0.2388084638580679,-4.635258585214615,2.4379804134368896,0.749571681022644,-0.1121241450309753
1783196753107192600,1.894192626953125,-0.6795235748302191,0.7004767118141054,-4.224617929184436,2.527527093887329,0.8165640234947205,-0.1076050251722335
1783196753117128700,1.904128662109375,-0.6244732301943003,1.0418903946220874,-3.652164662954211,2.569730281829834,0.8337253928184509,-0.075780488550663
1783196753127065300,1.9140654296875,-0.5422353842295706,1.2739525990903378,-3.098541184878349,2.5918469429016118,0.8110213875770569,-0.0218413565307855
1783196753137002500,1.92400244140625,-0.4524493879076093,1.4777046548753976,-2.658590263211727,2.6276609897613525,0.7535714507102966,0.0203481540083885
1783196753146938600,1.933938720703125,-0.4822679683923721,1.5992828698426484,-2.240843574568629,2.6899871826171875,0.6730039119720459,0.0249897763133049
1783196753156875500,1.94387548828125,-0.5989469400759786,1.847481970119476,-1.9363228676110504,2.765463829040528,0.6441383957862854,0.002968386048451
1783196753166811400,1.953811279296875,-0.6997757970031351,2.0654650880917904,-1.6081202562928198,2.8321475982666016,0.6540818810462952,-0.0432393215596675
1783196753176748500,1.96374853515625,-0.7608957438763231,2.228466908076405,-1.2049889529794453,2.859323740005493,0.6751177310943604,-0.0896496102213859
1783196753186685400,1.973685546875,-0.7911380296658724,2.40505564712584,-0.7654729155987501,2.84795880317688,0.6729333996772766,-0.1262403726577758
1783196753196621300,1.983621337890625,-0.7643441307645291,2.5407620484277604,-0.3017828064262867,2.815992832183838,0.677716851234436,-0.1516970694065094
1783196753206558500,1.993558349609375,-0.7470676364667713,2.6900141600012777,0.2366197216421365,2.75909161567688,0.6763562560081482,-0.1759211868047714
1783196753216494600,2.00349462890625,-0.7081019459955394,2.858646971610188,0.8182873909413814,2.676247358322144,0.637330174446106,-0.1997961401939392
1783196753226431500,2.013431396484375,-0.6646224313616752,3.047192690435052,1.3061246838986873,2.5829110145568848,0.5902857184410095,-0.191849797964096
1783196753236368400,2.023368408203125,-0.5705469942174851,3.104871556943655,1.6950649647742508,2.4947094917297363,0.5415408611297607,-0.1732839792966842
1783196753246304500,2.033304443359375,-0.5161415964215994,3.1245214293092487,1.974524880233407,2.418187141418457,0.5181590914726257,-0.171523630619049
1783196753256241700,2.04324169921875,-0.5679691065534949,3.202669667872786,2.2376590993136167,2.3532423973083496,0.4944808781147003,-0.1930059641599655
1783196753266178600,2.053178466796875,-0.636958325497061,3.344863385367393,2.5336656604260206,2.272245407104492,0.4687384963035583,-0.2335003912448883
1783196753276114400,2.063114501953125,-0.6755551826559006,3.485941835096478,2.8420781141251323,2.160663604736328,0.4274124503135681,-0.2766562402248382
1783196753286051600,2.073051513671875,-0.6295962722964584,3.5787048744678494,3.144788556790352,2.028188943862915,0.3922137022018432,-0.2973708212375641
1783196753295987700,2.08298779296875,-0.4659146898867562,3.5353158145964145,3.4054742136746645,1.8559541702270508,0.3501584231853485,-0.3010980784893036
1783196753305924400,2.09292431640625,-0.3032594913827255,3.481236433884501,3.584455400818586,1.6324180364608765,0.2800019681453705,-0.287354052066803
1783196753315861500,2.102861572265625,-0.2074675691768527,3.486346324244141,3.666405954274535,1.4059889316558838,0.2188177108764648,-0.2597952783107757
1783196753325797600,2.112797607421875,-0.1369550861887633,3.439624320557713,3.6352164507627487,1.2007145881652832,0.1888292133808136,-0.2360236048698425
1783196753335734500,2.122734619140625,-0.1410145907126367,3.303427797651291,3.656967679321766,1.0381498336791992,0.1467238515615463,-0.2317156344652176
1783196753345670400,2.13267041015625,-0.2464024261184036,3.228004600137472,3.445648987674713,0.9129490852355956,0.1465699225664138,-0.245837852358818
1783196753355607600,2.142607666015625,-0.363614700961113,3.1502497448056936,3.2235300850719213,0.8048447966575623,0.1407220214605331,-0.2621073126792907
1783196753365544400,2.15254443359375,-0.3388387542860582,3.013502602279186,3.065821403059364,0.7033096551895142,0.092267133295536,-0.2559740543365478
1783196753375480300,2.162480224609375,-0.231651431710273,2.8411364493608477,2.7033997112751007,0.6208445429801941,-0.001913852058351,-0.2170094400644302
1783196753385417500,2.17241748046875,-0.0879207139067351,2.58728385336697,2.2243314157068728,0.545846164226532,-0.1346274316310882,-0.1732446402311325
1783196753395353600,2.182353515625,0.0533585190914571,2.4434102199614047,1.7929273731112478,0.5164397954940796,-0.2764135599136352,-0.1242426261305809
1783196753405290500,2.19229052734375,0.2360138647034764,2.3106524393320083,1.3955115248352288,0.5678971409797668,-0.4035853743553161,-0.0785691514611244
1783196753415227400,2.202227294921875,0.3926246684767305,2.044260679760576,0.9747872816860677,0.6737006902694702,-0.4501503407955169,-0.0478072315454483
1783196753425163500,2.21216357421875,0.3903190218828618,1.748766159823537,0.5810118357390165,0.7813333868980408,-0.4160126149654388,-0.0424907617270946
1783196753435100700,2.2221005859375,0.2734879649100825,1.5409855791747569,0.5370066897958516,0.8316425085067749,-0.3639498054981231,-0.0580297857522964
1783196753445036300,2.232036376953125,0.0679336454760283,1.3805290597587825,0.5136643926531076,0.804822564125061,-0.3018712401390075,-0.0668041035532951
1783196753454973400,2.241973388671875,-0.0547056959167122,1.0954770233809947,0.4362070589631796,0.7149961590766907,-0.2346886545419693,-0.0496488064527511
1783196753464910600,2.25191064453125,-0.0517731861287727,0.7167471708744764,0.401054497039318,0.589516282081604,-0.1594927012920379,-0.0223498065024614
1783196753474846700,2.2618466796875,0.0137616911098361,0.4419511555731296,0.4034253178238868,0.4771409332752228,-0.0936118811368942,0.0091892750933766
1783196753484783400,2.271783447265625,0.058146045628935,0.3063017451554536,0.3160837189793586,0.4044523537158966,-0.0033903764560818,0.0385724641382694
1783196753494720500,2.281720458984375,0.0877685920849442,0.2607616447299719,0.2861053448230028,0.3638612329959869,0.0629777535796165,0.0583870857954025
1783196753504656600,2.29165673828125,0.0997061365075409,0.2530015321224927,0.2177291432112455,0.3568326234817505,0.113895796239376,0.0703539997339248
1783196753514593500,2.301593505859375,0.0800663471445441,0.1634755749762058,0.1384656368821859,0.3805611431598663,0.1476414650678634,0.0775487050414085
1783196753524529400,2.311529296875,0.0672666329346597,-0.015947510716319,0.1597749668926,0.4234822392463684,0.1313003152608871,0.0757665187120437
1783196753534466600,2.321466552734375,0.0218152337059378,-0.1327449211478233,0.1594306834995746,0.4961151778697967,0.0714884102344513,0.0679455772042274
1783196753544403500,2.331403564453125,-0.0194224933505058,-0.1552104354560375,0.1022457379877567,0.584317147731781,0.0060465540736913,0.0682020410895347
1783196753554339300,2.34133935546875,0.0161728439047932,-0.2049900731474161,0.1836708062648773,0.6604001522064209,-0.0828579515218734,0.064346045255661
1783196753564276500,2.3512763671875,0.0582148365488275,-0.1708925732344388,0.310079510128498,0.7012173533439636,-0.1735156774520874,0.068855307996273
1783196753574213600,2.361213623046875,0.0947312341718003,-0.102509941881895,0.4638900156587362,0.6968981027603149,-0.2386524975299835,0.0633320733904838
1783196753584149500,2.3711494140625,0.0868312747022137,-0.0612175620287656,0.6936819371074437,0.644581139087677,-0.2582155168056488,0.0466907806694507
1783196753594086400,2.38108642578125,0.045191542716138,0.0028846155256032,0.9875257672280072,0.5769244432449341,-0.2423627078533172,0.0273239742964506
1783196753604022500,2.3910224609375,-0.0102251875467598,0.0972773019254207,1.2859931654959915,0.4917158782482147,-0.1969249248504638,-0.0104284640401601
1783196753613959400,2.40095947265625,-0.1036956445351243,0.2363900045394897,1.588242420390248,0.3994292914867401,-0.1400695741176605,-0.0675018057227134
1783196753623896600,2.410896484375,-0.1526781770320609,0.3772042503744363,1.8459779952973123,0.3088458478450775,-0.0933222994208335,-0.1254601776599884
1783196753633832400,2.42083251953125,-0.1734881426855921,0.5669289498507977,1.9805220748215917,0.2352337092161178,-0.0609281882643699,-0.1685565263032913
1783196753643769600,2.43076953125,-0.1334371411956846,0.796950588402152,2.0862550704032183,0.1829976737499237,-0.0429997891187667,-0.189869537949562
1783196753653706500,2.44070654296875,0.0051373628884553,1.059588548398018,2.24365804746747,0.148911714553833,-0.0836248248815536,-0.1895999312400818
1783196753663642400,2.450642333984375,0.1324673828480765,1.3191297114223242,2.275982692489028,0.1275419741868972,-0.1425485908985138,-0.1602473556995391
1783196753673579800,2.460579833984375,0.1604898371636867,1.4521639709055425,2.182942589741945,0.116950012743473,-0.1739230155944824,-0.1153902858495712
1783196753683515600,2.470515625,0.1276332772225141,1.479389831483364,2.292422370636463,0.0830282643437385,-0.1966333836317062,-0.0838802903890609
1783196753693452500,2.48045263671875,-0.0139262340217828,1.6170856530368327,2.464664604914188,0.0054266368970274,-0.2218271195888519,-0.0672181323170661
1783196753703389700,2.4903896484375,-0.1485998216772452,1.8490221852988005,2.6004578077167277,-0.0782874375581741,-0.2200933992862701,-0.0511805787682533
1783196753713325600,2.50032568359375,-0.1210247092703357,1.848441170540452,2.723438875219226,-0.1578707695007324,-0.2027757912874221,-0.0301018003374338
1783196753723262500,2.510262451171875,-0.0022585925817489,1.7391583735227585,2.7783389246642587,-0.2273347973823547,-0.1932621896266937,-0.0176975950598716
1783196753733199600,2.52019970703125,0.1488477320237085,1.7367004589766264,2.7063953859597443,-0.2861697077751159,-0.2208698093891143,0.0095576345920562
1783196753743135700,2.5301357421875,0.2883739838747307,1.774976705878973,2.505296475031972,-0.3392070829868316,-0.2518349289894104,0.048243511468172
1783196753753072400,2.540072265625,0.3870778480045497,1.7514970460921524,2.420279519742727,-0.3963843584060669,-0.3131816387176513,0.0959943309426307
1783196753763009500,2.550009521484375,0.4364535810701548,1.7068623700737953,2.4263047713816164,-0.4948925673961639,-0.4048013091087341,0.1439703851938247
1783196753772945700,2.559945556640625,0.4902618897557258,1.6600123560935258,2.465021163266897,-0.6231874823570251,-0.5581151843070984,0.1895451694726944
1783196753782882800,2.5698828125,0.488344365696609,1.535694487029314,2.2903122466146946,-0.7570192813873291,-0.7218447327613831,0.2213387787342071
1783196753792818400,2.579818359375,0.3943472544856369,1.1972598200321196,1.7808277699947357,-0.8495036959648132,-0.7925370335578918,0.2542235553264618
1783196753802755600,2.589755615234375,0.4365251850016415,0.6027361762911081,1.1595084737867116,-0.8938583731651306,-0.8120045065879822,0.2979217767715454
1783196753812692700,2.599692626953125,0.5623072813995182,-0.0194447051823139,0.4192144231081008,-0.9271783232688904,-0.8489911556243896,0.338944137096405
1783196753822628600,2.609628662109375,0.6028685704991221,-0.4473106367796659,-0.3809364226400852,-0.9598270654678344,-0.9553740620613098,0.4001584947109222
1783196753832565500,2.6195654296875,0.5692435104034841,-0.8185159390002489,-1.1778846729546784,-0.952892541885376,-1.0790935754776,0.466927021741867
1783196753842502700,2.629502685546875,0.4478269157387316,-1.2919015127569435,-1.9864391899108889,-0.9056779146194458,-1.0911920070648191,0.5192874670028687
1783196753852438800,2.639438720703125,0.2095195698032155,-1.7762106315881012,-2.549107559707761,-0.8211467266082764,-0.984967052936554,0.5490213632583618
1783196753862375400,2.64937548828125,-0.0944068610556423,-2.126134660848975,-2.9968361296385524,-0.701405942440033,-0.8647998571395874,0.5284990072250366
1783196753872312600,2.6593125,-0.4463282016135751,-2.4524971972584724,-3.655313482373953,-0.5278991460800171,-0.7616457939147949,0.4588682055473327
1783196753882248700,2.669248779296875,-0.8254644429638981,-2.8187837477773425,-4.552468658325076,-0.3004164397716522,-0.5261089205741882,0.3442566692829132
1783196753892185600,2.679185546875,-1.171396333848685,-3.0921225500077005,-4.915767132943868,-0.0648735836148262,-0.2016617357730865,0.1878037005662918
1783196753902121500,2.68912158203125,-1.397030843356997,-3.130271371138096,-4.763655248025059,0.1510368883609771,0.0743115320801734,0.020000061020255
1783196753912058600,2.69905859375,-1.5414577267311511,-2.967086303541064,-4.644319259026647,0.3482208549976349,0.261115700006485,-0.1185939088463783
1783196753921995500,2.70899560546875,-1.384403270843625,-2.856668949535489,-4.475153363454342,0.514798104763031,0.3423351943492889,-0.2052811384201049
1783196753931931400,2.718931396484375,-0.98627079873085,-2.7836060514122245,-4.210845424419642,0.6550893187522888,0.3463726341724396,-0.2513892650604248
1783196753941868500,2.72886865234375,-0.6216074654996395,-2.612913969185948,-3.89793682834506,0.7720087766647339,0.3158051371574402,-0.2816425263881683
1783196753951805700,2.7388056640625,-0.4631900141632184,-2.334611407068372,-3.5069425375491377,0.8668189644813538,0.2867526710033417,-0.3086612820625305
1783196753961741600,2.748741455078125,-0.3969979151248932,-1.9959674812346693,-3.0622423755288124,0.9558098316192628,0.2495000958442688,-0.3243600726127624
1783196753971678500,2.758678466796875,-0.3528168280929327,-1.663777261584997,-2.6929543051064013,1.0421769618988037,0.2183054238557815,-0.3253804743289947
1783196753981615600,2.76861572265625,-0.32593305895105,-1.3681354421317578,-2.427253450408578,1.1349433660507202,0.2089223116636276,-0.3276945054531097
1783196753991551700,2.7785517578125,-0.3131314450450241,-1.0473159268021583,-2.1014713442355397,1.2146941423416138,0.2083030194044113,-0.3399467766284942
1783196754001488600,2.788488525390625,-0.2890532348431646,-0.6628332098573446,-1.7359926029682158,1.2615610361099243,0.2027436792850494,-0.3537659049034118
1783196754011425500,2.798425537109375,-0.2889883894460275,-0.3173720052242278,-1.3267144674628972,1.2639682292938232,0.2021325826644897,-0.3619808256626129
1783196754021361700,2.808361572265625,-0.2462593643859028,-0.0276905554801225,-0.8861176491081714,1.242688775062561,0.1707711964845657,-0.3596521615982055
1783196754031298600,2.818298583984375,-0.17186960157305,0.2135521497875452,-0.5707096374332904,1.2151668071746826,0.140257179737091,-0.349387913942337
1783196754041235700,2.828235595703125,-0.1042548767199274,0.4292436496913432,-0.398969507458806,1.1971931457519531,0.1365279555320739,-0.3396314084529876
1783196754051171600,2.838171630859375,-0.0312279358260333,0.6277426072537898,-0.214897134655714,1.177977204322815,0.1588704586029052,-0.3440334498882293
1783196754061108500,2.8481083984375,0.0115247258380055,0.8485989425748586,0.018342296898365,1.1267908811569214,0.1746110767126083,-0.3381087183952331
1783196754071044600,2.858044677734375,0.0258307575241895,1.055218662750721,0.2307616432636976,1.023313045501709,0.1772668659687042,-0.3173263669013977
1783196754080981500,2.8679814453125,0.0667312108837068,1.19655079497993,0.414641123843193,0.8867080211639404,0.1870028525590896,-0.2768788039684295
1783196754090918700,2.877918701171875,0.1660772819072008,1.2099644033044576,0.6032178223282099,0.750123143196106,0.1997749358415603,-0.2314038127660751
1783196754100854500,2.8878544921875,0.2093194806538522,1.188104453673959,0.7053945867329835,0.6397846341133118,0.2138422727584839,-0.2046632915735244
1783196754110791700,2.897791748046875,0.1808516571909189,1.168733982771635,0.7026771444678306,0.5751398801803589,0.2088770568370819,-0.1945400387048721
1783196754120728600,2.907728515625,0.1157461386797484,1.198469780343771,0.6511728749409318,0.5539525747299194,0.195249393582344,-0.2061964273452758
1783196754130664700,2.917664794921875,0.0482287549875676,1.2509785507380962,0.5578378809005021,0.5570329427719116,0.1938857436180114,-0.2154793739318847
1783196754140601600,2.9276015625,0.0184051330015063,1.2901613910913468,0.5080050517171621,0.5668469667434692,0.2024267762899398,-0.2092214822769165
1783196754150538800,2.937538818359375,0.0548411588646471,1.294172380298376,0.4733195227831602,0.5788477063179016,0.2017558366060257,-0.1826903820037841
1783196754160474600,2.947474609375,0.1339119191005826,1.2652929072946308,0.4776835632115602,0.5839322209358215,0.1891830563545227,-0.1514783948659896
1783196754170411500,2.95741162109375,0.2114534239426255,1.2109545833855866,0.5385866524636745,0.5832353830337524,0.1505724191665649,-0.1246750280261039
1783196754180348700,2.9673486328125,0.2663524322080425,1.1538918029487133,0.562267680041492,0.559429407119751,0.1089567989110946,-0.1036871895194053
1783196754190284500,2.977284423828125,0.3218579184666276,1.0776643033146858,0.5406868396133184,0.5196139216423035,0.0863959491252899,-0.072323128581047
1783196754200221400,2.987221435546875,0.3717931851111352,0.9904045375347136,0.5523246704369783,0.4708786308765411,0.0787683948874473,-0.0264445841312408
1783196754210158600,2.99715869140625,0.4234303968353197,0.9394833285927772,0.6034966392695903,0.4155873358249664,0.0747921019792556,0.0149003826081752
1783196754220094700,3.0070947265625,0.3792437933780253,0.9339403075128792,0.6208125157296657,0.3638663291931152,0.095665693283081,0.0379196852445602
1783196754230031600,3.017031494140625,0.2665060153345577,0.90846275190711,0.6270683612540364,0.3238438665866852,0.1381012350320816,0.032996155321598
1783196754239968500,3.026968505859375,0.1526293329216539,0.8219722169339656,0.6645908671796321,0.2894720435142517,0.1740310043096542,0.0234937295317649
1783196754249904600,3.036904541015625,0.0860042127609252,0.7487567585974931,0.6839081465899944,0.2613054513931274,0.17375048995018,0.0036794377956539
1783196754259841800,3.046841796875,0.036846780354809,0.7034796930223703,0.704737291868031,0.2277949005365371,0.1503522247076034,-0.0134233832359313
1783196754269778400,3.0567783203125,0.0109933954402804,0.681931878080964,0.8103010683625936,0.192306712269783,0.1044472530484199,-0.0300074778497219
1783196754279714600,3.066714599609375,0.0389563381209969,0.6518389376342296,0.8708902693599462,0.1656101197004318,0.0491094291210174,-0.0376092046499252
1783196754289651700,3.076651611328125,0.0508447827048599,0.5929197156757116,0.8214175056606531,0.1525688916444778,0.0106417126953601,-0.0390398427844047
1783196754299588600,3.086588623046875,0.0313197057627141,0.5436532882034778,0.7329951258420944,0.1391332447528839,-0.017759833484888,-0.0444838777184486
1783196754309524500,3.0965244140625,0.0048728302007541,0.5488274759709835,0.6534115937784314,0.1222143918275833,-0.0450100563466548,-0.04627475887537
1783196754319461600,3.106461669921875,-0.0203843606526032,0.55605158200562,0.5754784592702984,0.1009511798620224,-0.0550200827419757,-0.0296784713864326
1783196754329398500,3.1163984375,0.0041145957119762,0.4743582181811332,0.5323381134629249,0.0753554478287696,-0.0545140020549297,-0.0094028376042842
1783196754339334400,3.12633447265625,0.0602075447360053,0.4046662577956915,0.5587707778364419,0.0407021306455135,-0.0587915740907192,0.0090334275737404
1783196754349271600,3.136271484375,0.0651161769025027,0.3987082261741161,0.5748609118938446,-0.0016875015571713,-0.0658280998468399,0.0193927809596061
1783196754359208700,3.146208740234375,0.0402146310864016,0.4337783705115318,0.5964788694620132,-0.0470041185617446,-0.0601955130696296,0.0182239189743995
1783196754369144600,3.15614453125,-0.0375060114485211,0.4547399099975824,0.6391159419223665,-0.0926821678876876,-0.0370629876852035,0.0101210800930857
1783196754379081500,3.16608154296875,-0.1144102230340242,0.440223308867216,0.6718798551440238,-0.1255698055028915,-0.007059815339744,-0.0059987674467265
1783196754389018600,3.1760185546875,-0.1633436374259181,0.4237099809616804,0.6574243365511298,-0.136054053902626,0.0172697305679321,-0.0226788558065891
1783196754398954800,3.185954833984375,-0.1839079760216176,0.4632803593277931,0.6389490609228611,-0.1312140226364135,0.0420672222971916,-0.0405579879879951
1783196754408891600,3.1958916015625,-0.1595538714878261,0.5585965903133153,0.6921405528843403,-0.117863580584526,0.0612700432538986,-0.0567980259656906
1783196754418828500,3.20582861328125,-0.1201246186254546,0.7035241166859865,0.8425187458783387,-0.1285409927368164,0.0764149129390716,-0.0678392201662063
1783196754428764700,3.2157646484375,-0.0425944023624062,0.8520908763438463,1.1292530362546442,-0.1915048658847808,0.057099662721157,-0.0700145661830902
1783196754438701600,3.22570166015625,-0.0294988104784861,1.057488361248374,1.4369807225599884,-0.2855115234851837,0.0424709171056747,-0.0720758512616157
1783196754448638700,3.235638671875,7.59878456592e-05,1.2365163101434706,1.6940788763463497,-0.3957427442073822,0.0258129835128784,-0.0642883777618408
1783196754458574600,3.24557470703125,0.0717059305563569,1.329046125280857,1.858842153045535,-0.4877499043941498,0.006224101409316,-0.0535957887768745
1783196754468511500,3.255511474609375,0.1190855213686823,1.4780179586082696,1.9559335770100357,-0.5701473951339722,-0.0202844813466072,-0.0357661098241806
1783196754478448600,3.26544873046875,0.1087330176478251,1.7320149315088986,2.045340291690826,-0.6417765617370605,-0.0531436279416084,-0.0187152195721864
1783196754488384500,3.275384521484375,-0.0026955957595258,2.011778798350692,2.1595117375329136,-0.7130268216133118,-0.0743926689028739,-0.0154590960592031
1783196754498321400,3.2853212890625,-0.1622114002592861,2.241334572955966,2.257923304185271,-0.7822011113166809,-0.0525139980018138,-0.0196631625294685
1783196754508258600,3.295258544921875,-0.281918158798851,2.428582653185725,2.4310776848718523,-0.8582634329795837,0.0007443125359714,-0.0337137505412101
1783196754518194700,3.305194580078125,-0.3607055355161428,2.6289970889806744,2.7053672119557857,-0.9467094540596008,0.0680674314498901,-0.0550089217722415
1783196754528131600,3.315131591796875,-0.3901319748781621,2.8752620063245296,2.996733838307857,-1.04435133934021,0.1292757242918014,-0.0813587084412574
1783196754538068500,3.325068359375,-0.3795816835628822,3.096934334203601,3.2671012235119936,-1.1505438089370728,0.1868332922458648,-0.1172772943973541
1783196754548004600,3.335004638671875,-0.3865845480622723,3.325341523295641,3.575632335154712,-1.2751092910766602,0.2527396380901336,-0.1592911481857299
1783196754557941800,3.344941650390625,-0.3525728267366066,3.574867488262057,3.969521470609307,-1.4156447649002075,0.3356819152832031,-0.2179936170578003
1783196754567878400,3.35487841796875,-0.2777788305044174,3.799544843176007,4.400722099587321,-1.5807011127471924,0.4352771639823913,-0.282896488904953
1783196754577814500,3.364814453125,-0.13252265669927,3.981385511404276,4.799747136625648,-1.7244478464126587,0.5290324091911316,-0.3243845403194427
1783196754587751700,3.374751708984375,-0.0137071844436228,4.32668304990828,5.016050046426058,-1.8556010723114011,0.6009513139724731,-0.328945130109787
1783196754597688600,3.3846884765625,0.2450638709910214,4.380030609214305,5.211270420709252,-1.9815398454666135,0.4728263616561889,-0.3424888849258423
1783196754607624400,3.39462451171875,0.1215159633859992,4.600684699961543,5.297964953821897,-2.118348836898804,0.2507565319538116,-0.3554369211196899
1783196754617561600,3.4045615234375,-0.0738009300742298,4.9663738691091535,5.1595168525964015,-2.3221120834350586,0.0266518089920282,-0.3452543318271637
1783196754627498800,3.414498779296875,-0.1190726618871092,4.889740711283683,5.294045734551549,-2.6427996158599854,-0.1035687252879142,-0.292088896036148
1783196754637434400,3.424434326171875,-0.1811493249632418,4.678195809665322,5.546592508643865,-3.0601284503936768,-0.1236702650785446,-0.1740658432245254
1783196754647371500,3.43437158203125,-0.0211781048461794,4.280124712350965,5.800030094096064,-3.5159144401550293,-0.2340622246265411,-0.0135465962812304
1783196754657308700,3.44430859375,0.1442494809806346,3.562472117069363,5.647775585836172,-3.963430166244507,-0.6052823662757874,0.084238551557064
1783196754667244800,3.454244873046875,-0.1862938482448458,3.2587831847608086,4.601792368942499,-4.337487697601318,-1.1428008079528809,0.108535349369049
1783196754677181400,3.464181396484375,-0.5252873547011986,3.3817741891354323,3.6365567594558,-4.630753517150879,-1.5851832628250122,0.0988267958164215
1783196754687118600,3.47411865234375,-0.7152164541758597,3.4688878244429824,3.222765530440211,-4.859571933746338,-1.9091272354125977,0.0654356032609939
1783196754697054700,3.4840546875,-0.8082057035185396,3.366438672837615,2.7658979607641694,-4.941027641296387,-1.899168610572815,0.0852644294500351
1783196754706991600,3.49399169921875,-0.9221667214803396,3.0948166113972664,1.3682973546952009,-4.973292350769043,-1.5802959203720093,0.1434605866670608
1783196754716928500,3.503928466796875,-1.466860897038877,2.781583897934854,0.7208031682670116,-4.986219882965088,-1.3010309934616089,0.2243170887231826
1783196754726865400,3.513865478515625,-1.6851777770102023,2.5027777702093124,-0.6392892526626587,-4.986856937408447,-1.3399630784988403,0.2271926254034042
1783196754736801500,3.523801513671875,-2.0478020056292414,2.532103525675833,-2.9208108745783568,-4.902278900146484,-1.3544284105300903,0.2046428471803665
1783196754746738700,3.53373876953125,-1.9287388422228395,1.9628186603486537,-4.773231470143795,-4.752832412719727,-1.207283616065979,0.1506461203098297
1783196754756675600,3.543675537109375,-1.7679022374480962,1.001306747560203,-6.114341542705893,-4.588052749633789,-0.997718334197998,0.0347125865519046
1783196754766611500,3.553611572265625,-1.7435674221366644,0.5405497692301869,-7.531331908899546,-4.394229888916016,-0.670717179775238,-0.0844356641173362
1783196754776548600,3.563548583984375,-1.6333540662705897,0.2374576337710023,-9.005642829683422,-4.169418811798096,-0.3067049086093902,-0.1451402902603149
1783196754786485800,3.57348583984375,-1.1831927162349225,-0.2923665971748531,-10.236780953919888,-3.8888251781463614,-0.0414580032229423,-0.1472148001194
1783196754796421600,3.583421630859375,-0.3800380855608731,-0.8179637119449674,-11.670780322581528,-3.5159802436828613,0.1400228440761566,-0.0899232774972915
1783196754806358500,3.593358642578125,0.4535334933498874,-1.300884737418592,-12.910380570214986,-3.0190188884735107,0.2672179639339447,-0.0106393946334719
1783196754816295700,3.603295654296875,0.984383962070942,-1.649534216699004,-13.722729218757152,-2.421237707138061,0.3371866643428802,0.069856509566307
1783196754826231600,3.6132314453125,1.14658221058771,-1.896108638383448,-14.18993288900852,-1.803933024406433,0.3749193549156189,0.1225602477788925
1783196754836168400,3.62316845703125,0.9853704888902604,-2.0949138854160902,-14.169930549943446,-1.2228529453277588,0.4007267355918884,0.1366363763809204
1783196754846105600,3.633105712890625,0.7527798766337335,-2.260734562213719,-13.743556902730464,-0.6994484663009644,0.4080182611942291,0.1400917470455169
1783196754856041700,3.643041748046875,0.6609110826883464,-2.492417119714617,-13.171098375803233,-0.2221897840499878,0.399100661277771,0.1568563431501388
1783196754865978400,3.652978271484375,0.6944809054654091,-2.7946307187736035,-12.53641983180642,0.2213101983070373,0.3672004342079162,0.1870010942220688
1783196754875915500,3.66291552734375,0.7784865648202598,-2.95066299200654,-11.837512853527068,0.6406843066215515,0.3377629220485687,0.2107226699590683
1783196754885851600,3.6728515625,0.7851650196708738,-2.8578216267019507,-11.029149475228786,1.0004733800888062,0.3485006988048553,0.2114113122224807
1783196754895788500,3.68278857421875,0.7063160854920745,-2.600968972109258,-10.08882443511486,1.2533352375030518,0.3510770201683044,0.1846814304590225
1783196754905725400,3.692725341796875,0.529589837668091,-2.281547340878844,-9.142952282267808,1.403674840927124,0.3347978591918945,0.1459186673164367
1783196754915662600,3.70266259765625,0.2630651724319905,-1.9274911802493035,-8.514016081315278,1.4713417291641235,0.4118953347206116,0.0888521820306778
1783196754925598700,3.7125986328125,0.0494583333151414,-1.6364714676387606,-7.920878338974714,1.5006911754608154,0.573081374168396,0.0253749601542949
1783196754935535600,3.72253564453125,-0.0300673493477515,-1.4039436914853751,-7.341642280736565,1.533078670501709,0.7756403684616089,-0.0064508793875575
1783196754945472500,3.732472412109375,-0.048725525528565,-1.205571721303463,-6.77465312513113,1.5952879190444946,0.9750465750694276,-0.014277177862823
1783196754955408600,3.74240869140625,-0.0822722688241396,-0.9233983091019092,-6.09476415105462,1.6855822801589966,1.1073086261749268,-0.0092078503221273
1783196754965345500,3.752345458984375,-0.1927216528026387,-0.4630053417786955,-5.421992900028824,1.8192235231399536,1.1840953826904297,0.0104286074638366
1783196754975282700,3.76228271484375,-0.3113131070440635,-0.0726452572330832,-4.738573998260498,1.9888466596603396,1.2107064723968506,0.0355850905179977
1783196754985218600,3.772218505859375,-0.4501104235660284,0.204568632864952,-4.044766388946772,2.169591188430786,1.1943036317825315,0.0561984218657016
1783196754995155500,3.782155517578125,-0.6124537796419114,0.4722155070640146,-3.346068084982037,2.336033582687378,1.1501952409744265,0.0640960335731506
1783196755005092600,3.792092529296875,-0.8008839092630893,0.6954264426872134,-2.526768302127719,2.453154802322388,1.064385175704956,0.0397667028009891
1783196755015028500,3.802028564453125,-1.0455081467278302,0.9438877010315656,-1.7047428937017917,2.5201423168182373,0.95184987783432,0.0117822047322988
1783196755024965600,3.811965576171875,-1.2275257789582013,1.1575243142321705,-0.973659738960862,2.567511558532715,0.830122172832489,-0.022462697699666
1783196755034902500,3.821902587890625,-1.3355137138597666,1.3097124792575836,-0.4217974253386259,2.599452257156372,0.7366745471954346,-0.0589509345591068
1783196755044839700,3.831839599609375,-1.4131937503896652,1.5025088412642478,0.0703863723903894,2.6278955936431885,0.6916351914405823,-0.1098107397556305
1783196755054775600,3.841775634765625,-1.3921496471866963,1.6908473470792174,0.5114508082568645,2.650658369064331,0.681496262550354,-0.1661810725927353
1783196755064712400,3.85171240234375,-1.36569228676334,1.8258020532310009,0.9677519762217998,2.6319580078125,0.6870667338371277,-0.2195771038532257
1783196755074649600,3.861649658203125,-1.343999948784709,1.9833321638062595,1.5038859748363491,2.5809569358825684,0.6402376890182495,-0.2796058356761932
1783196755084585700,3.871585693359375,-1.3266777887143193,2.2051468227654696,1.887949589586258,2.4892094135284424,0.6035938262939453,-0.3331829011440277
1783196755094522400,3.8815224609375,-1.4216012209899722,2.476894264151156,2.2249662064790723,2.344225645065308,0.583141028881073,-0.3846442401409149
1783196755104459500,3.89145947265625,-1.4421467270210384,2.666352129384875,2.7612264618217943,2.1495449542999268,0.5072947144508362,-0.4309529960155487
1783196755114395600,3.901395751953125,-1.3257725104376672,2.778300930741429,3.080385350462794,1.9306132793426516,0.3601494431495666,-0.468177318572998
1783196755124332500,3.91133251953125,-1.1601543704748154,2.7878607862472533,3.1870185097545383,1.7047851085662842,0.1508536636829376,-0.5263180732727051
1783196755134269400,3.92126953125,-1.0311648563377558,2.852250548571348,3.2050299672633407,1.4654287099838257,-0.094462089240551,-0.6119429469108582
1783196755144206600,3.93120654296875,-0.9809145323947072,3.039316257971525,3.195881030645966,1.2115336656570437,-0.37676602602005,-0.705988883972168
1783196755154142700,3.941142822265625,-0.8849731552481651,3.268904181280732,3.212234199553728,0.9484269022941588,-0.6883941888809204,-0.7372197508811951
1783196755164079600,3.95107958984375,-0.5654357886835932,3.3441730650156734,3.062010904860496,0.7139011025428772,-0.959788739681244,-0.7370691299438477
1783196755174016500,3.9610166015625,-0.1961614545255899,2.557044782447815,2.931812161064148,0.4867393374443054,-1.209725856781006,-0.6767818331718445
1783196755183952600,3.97095263671875,-0.4622869643762707,2.3348428777366874,2.790119378829002,0.2715429067611694,-1.146514654159546,-0.6496018767356873
1783196755193889500,3.9808896484375,-0.5903714924976229,2.8032600154310465,2.875152700731158,0.2013704776763916,-0.9054011106491088,-0.643406331539154
1783196755203826700,3.99082666015625,0.1098411615528166,2.7578672145217658,2.7756951321572063,0.2840252220630646,-0.6001298427581787,-0.6486965417861938
1783196755213762600,4.000762451171875,-0.0312485402226448,2.7825714476674794,2.722731603732705,0.4386962950229645,-0.3287284672260284,-0.6744745969772339
1783196755223699500,4.010699462890625,-0.2951290476255118,2.9691654479026792,2.985304681798816,0.5689527988433838,-0.1386416107416153,-0.7272983193397522
1783196755233636600,4.02063671875,-0.3183763599611818,3.3212428558051585,3.318938670516014,0.6471413373947144,-0.0153945013880729,-0.7516060471534729
1783196755243573800,4.03057373046875,-0.2903098107755184,3.5269787788838145,3.820784030559659,0.684796154499054,0.0449664518237113,-0.7026488780975342
1783196755253509600,4.040509521484375,-0.1247504152625799,3.321370866099,4.192190992832184,0.6913629770278931,0.0353827998042106,-0.5803263783454895
1783196755263446500,4.050446533203125,0.1276731708414852,3.0475235298246144,4.503735314816236,0.6571453809738159,-0.0255855210125446,-0.4460083544254303
1783196755273383700,4.0603837890625,0.2831424033641815,2.901622774505615,4.750388939216733,0.6026400923728943,-0.1072122082114219,-0.3399533033370971
1783196755283319600,4.070319580078125,0.2234188792854547,2.948056024378538,5.000675367161631,0.5291410684585571,-0.1564901620149612,-0.2875009477138519
1783196755293256400,4.08025634765625,-0.0175761348314583,3.121042939543724,5.386769610956311,0.4197040796279907,-0.1666091084480285,-0.2711464762687683
1783196755303193600,4.090193603515625,-0.2032151724293827,3.277291485875845,5.74293165782392,0.2579156160354614,-0.1256108582019806,-0.2459065616130828
1783196755313129700,4.100129638671875,-0.358346843560785,3.365218775653839,5.9919648708373305,0.0583492405712604,-0.0102067729458212,-0.205998033285141
1783196755323066400,4.11006640625,-0.5379271656416357,3.3869425316840407,6.308137437143921,-0.1678609699010849,0.1334696859121322,-0.1673787832260131
1783196755333003500,4.12000341796875,-0.6054315528549253,3.3470167640089987,6.471250608548521,-0.408159077167511,0.2714619040489197,-0.1374254077672958
1783196755342940700,4.129940673828125,-0.5237310286372899,3.193473969504237,6.404623296430707,-0.642052173614502,0.4134838283061981,-0.0912792459130287
1783196755352876500,4.13987646484375,-0.4213553806595504,3.0157787305176256,6.29959874137938,-0.8562070727348328,1.0147137641906738,0.0185588374733924
1783196755362813400,4.1498134765625,-0.1252414136499166,3.080715020808577,6.387576884561777,-0.9699344038963318,1.0970816612243652,0.1243897080421447
1783196755372750600,4.15975048828125,-0.0699479809731245,2.865410474395752,6.046589610472322,-1.070730209350586,0.9267522096633912,0.1311011463403701
1783196755382686700,4.169686767578125,-0.8367965688392519,2.743265273195505,5.757284008303285,-1.1592353582382202,0.828838050365448,0.0943462550640106
1783196755392623600,4.17962353515625,-0.9013952977389096,2.9592396816939117,5.968025192323327,-1.295001983642578,0.6719081401824951,0.0714766234159469
1783196755402560500,4.189560546875,-0.7843836600348353,3.028319063138962,5.879796289250255,-1.51418137550354,0.438684731721878,0.0917573645710945
1783196755412497400,4.199497314453125,-0.8383969897732139,2.8070518089294434,5.496189186096191,-1.801998257637024,0.1436698883771896,0.2152172476053238
1783196755422433500,4.20943359375,-0.6847916514262556,2.348569789794088,4.874030516454577,-2.14702582359314,-0.3246880769729614,0.3587117195129394
1783196755432370700,4.21937060546875,-0.7949176212698221,2.138953225889802,3.821782393947244,-2.496068954467773,-0.8031497001647949,0.4472256302833557
1783196755442307600,4.2293076171875,-1.1933937922537323,2.36935947984457,2.8338626589655878,-2.7957987785339355,-1.1727344989776611,0.5025634765625
1783196755452243500,4.239243408203125,-1.154432047305256,2.145427098079025,2.335764668756723,-3.02510929107666,-1.364315390586853,0.5596693754196167
1783196755462180600,4.2491806640625,-1.0564899978607891,1.582852836306393,1.689165969863534,-3.1723945140838623,-1.337796330451965,0.5936265587806702
1783196755472117800,4.25911767578125,-1.203743921354413,1.0560925229758025,0.8525994103878736,-3.2539103031158447,-1.1133960485458374,0.5616428256034851
1783196755482053600,4.2690537109375,-1.6959211432121692,0.8079048208758235,-0.0098281510531902,-3.271164655685425,-0.8295772671699524,0.4206032156944275
1783196755491990500,4.278990478515625,-2.333633501946926,0.7433493465960025,-0.9115542881816624,-3.2177133560180664,-0.6358930468559265,0.1952449232339859
1783196755501927700,4.288927734375,-2.707183321467042,0.6824120628133415,-1.8645494247764347,-3.102193117141724,-0.575040340423584,-0.0425671525299549
1783196755511864600,4.298864501953125,-2.438627807990461,0.5358756399393081,-2.6052275063365697,-2.927978277206421,-0.6537055969238281,-0.2512146234512329
1783196755521800400,4.308800537109375,-1.9124734977290032,0.2872860790401697,-3.130834265717864,-2.7188611030578613,-0.8477457761764526,-0.4138303995132446
1783196755531737600,4.318737548828125,-1.2577042057313024,0.1353301153354346,-3.4362609816044567,-2.512612581253052,-1.1466025114059448,-0.517439067363739
1783196755541674500,4.328674560546875,-0.5845545498471707,0.1390624337315559,-3.728689099708199,-2.335559129714966,-1.5416479110717771,-0.5593793392181396
1783196755551610600,4.338610595703125,-0.0543900540962815,0.1719704315990209,-3.995978684902191,-2.1977925300598145,-1.9841127395629885,-0.545178234577179
1783196755561547500,4.348547607421875,0.2990910465916618,0.1707768379002809,-4.30812564895451,-2.091799259185791,-2.343782663345337,-0.489167183637619
1783196755571484700,4.358484619140625,0.5637096955433487,-0.0204316703930497,-4.452662714704871,-2.0199131965637207,-2.611497163772583,-0.4334330856800079
1783196755581421600,4.368421630859375,0.8033644009672105,-0.3111319417908788,-4.63103483003974,-1.9475163221359253,-2.8335211277008057,-0.4007609784603119
1783196755591357700,4.378357666015625,0.8939255463801323,-0.5480433398559689,-5.218448934036493,-1.7202470302581787,-2.303133487701416,-0.2786369323730469
1783196755601294600,4.388294677734375,1.3451109787665307,-0.8107740196365862,-5.734665933781862,-1.4939069747924805,-1.885183572769165,-0.2328776866197586
1783196755611231500,4.3982314453125,0.5773528748400509,-0.9273819719105958,-5.702884309595823,-1.2967137098312378,-1.6098095178604126,-0.1634030044078827
1783196755621167600,4.408167724609375,0.1248544601589441,-0.6191371298633516,-7.233502808535099,-1.113385796546936,-1.292604684829712,-0.0699189379811286
1783196755631104800,4.418104736328125,0.2968376781743019,-0.8693371216338127,-7.437285843980312,-0.92815101146698,-0.977001965045929,0.0538054034113884
1783196755641041400,4.42804150390625,0.3801747906178235,-1.369572489197552,-7.5946888210445636,-0.7593082785606384,-0.7461691498756409,0.165218710899353
1783196755650978600,4.437978515625,0.4525374315172433,-1.7883289394050836,-7.785912819167971,-0.5864025354385376,-0.6062309741973877,0.2259321361780166
1783196755660914700,4.447914794921875,0.4294011783406138,-2.1582154141120613,-7.980178084683418,-0.4038837254047394,-0.5064010620117188,0.2337304353713989
1783196755670851600,4.4578515625,0.2768732599668204,-2.490419223895669,-8.127107598528266,-0.2129438668489456,-0.4314855635166168,0.1975319534540176
1783196755680788700,4.467788818359375,0.0786916977904736,-2.7865236924245957,-8.194186161544918,-0.0122914817184209,-0.389703631401062,0.1310492157936096
1783196755690724900,4.477724853515625,-0.0805282655678689,-3.0029347387745973,-8.388146891155838,0.2083141207695007,-0.3613931834697723,0.0576426498591899
1783196755700661800,4.487661865234375,-0.2443555765911936,-3.1043671145528555,-8.653692847552895,0.4626147449016571,-0.298713356256485,-0.0087885465472936
1783196755710598700,4.4975986328125,-0.4011224477089941,-3.1027818911880254,-8.745090443789959,0.757429301738739,-0.1897895634174347,-0.0633668377995491
1783196755720535800,4.507535888671875,-0.5131732481352984,-2.996426964315772,-8.793062155276536,1.0620779991149902,-0.0313649140298366,-0.1174177601933479
1783196755730472000,4.517471923828125,-0.6162497378587722,-2.769802859248221,-8.77015357337594,1.3684659004211426,0.1325409263372421,-0.1746940910816192
1783196755740408600,4.52740869140625,-0.6626679362930357,-2.436913259157538,-8.760295611706375,1.6745798587799072,0.2667515277862549,-0.221935898065567
1783196755750345700,4.537345703125,-0.5803212231263518,-2.0869576657146216,-8.715957872807978,1.9836745262146,0.3711996376514435,-0.2487861663103103
1783196755760281900,4.54728173828125,-0.3217205558225512,-1.8109870536759491,-8.561722419863939,2.294644832611084,0.4665521085262298,-0.2561336755752563
1783196755770218800,4.55721875,-0.077015800467506,-1.5064457423217594,-8.25020907754004,2.590917587280273,0.5478333830833435,-0.244004026055336
1783196755780155600,4.56715576171875,-0.0106703009657561,-1.0586047980576754,-7.74471630090475,2.8440041542053223,0.6491973400115967,-0.2200158685445785
1783196755790092800,4.5770927734375,-0.1620836091611534,-0.533981935147196,-7.047116898092627,3.043172597885132,0.7706190943717957,-0.1900196224451065
1783196755800029000,4.58702880859375,-0.3426170672483742,-0.0995142671972513,-6.1720017045140265,3.169384479522705,0.9009294509887696,-0.165199801325798
1783196755809965800,4.5969658203125,-0.5012778623539954,0.266813199853897,-5.240488331887126,3.2128214836120605,0.9876936674118042,-0.1786860525608062
1783196755819902700,4.60690283203125,-0.6417036203280091,0.6272814194828271,-4.301373836606741,3.172050952911377,1.0447688102722168,-0.2145217806100845
1783196755829839600,4.616839599609375,-0.7429549404509365,0.90619685280174,-3.372313117828965,3.083393812179565,1.0812839269638062,-0.2503902912139892
1783196755839775700,4.626775634765625,-0.835674067615345,1.0348080351457,-2.459589785867929,2.96685004234314,1.1146636009216309,-0.290094643831253
1783196755849713000,4.636712890625,-0.9935508727364242,1.1396280075356364,-1.6816893503725527,2.8387012481689453,1.144822359085083,-0.3398092091083526
1783196755859649500,4.6466494140625,-1.1389754619110375,1.3976555511265991,-0.9211462923914192,2.7112762928009038,1.1595211029052734,-0.3929910957813263
1783196755869585700,4.656585693359375,-1.2797595318034292,1.713177544569969,-0.2307791789203882,2.6003992557525635,1.1620553731918335,-0.453642189502716
1783196755879522800,4.666522705078125,-1.402396608173847,2.087509162117541,0.2583691966354847,2.515899896621704,1.1819349527359009,-0.511795699596405
1783196755889460000,4.6764599609375,-1.3599571041122078,2.411133505734801,0.6593126345157623,2.4603188037872314,1.1925973892211914,-0.5633075833320618
1783196755899396600,4.686396728515625,-1.2313505979433654,2.6768621252223848,1.0465583864331245,2.4180479049682617,1.1622751951217651,-0.5955801606178284
1783196755909332700,4.696332763671875,-1.1014054635819046,2.960383591032028,1.379690270847082,2.383486270904541,1.1052640676498413,-0.6061803102493286
1783196755919270000,4.706269775390625,-0.959588178184256,3.2200492572188377,1.6962737560421228,2.37644100189209,1.0492076873779297,-0.595565140247345
1783196755929206800,4.716206787109375,-0.8621878344010562,3.4632781678676605,1.9851263537466528,2.3773345947265625,1.0190523862838743,-0.5590817332267761
1783196755939142700,4.726142578125,-0.7646792810030281,3.597501344874501,2.333614797246456,2.3655927181243896,0.9900187253952026,-0.5165756940841675
1783196755949079800,4.736079833984375,-0.6669355306096375,3.71266793923378,2.6383868486166,2.3355355262756348,0.959736168384552,-0.4783391654491424
1783196755959016700,4.7460166015625,-0.5937291323624551,3.799703248608112,2.9191818120718,2.294918775558472,0.9208021759986876,-0.4329605996608734
1783196755968953900,4.755953857421875,-0.5256124584697187,3.805760064429045,3.236930249392986,2.243394613265991,0.8618613481521606,-0.398800253868103
1783196755978889700,4.7658896484375,-0.5289608921147883,3.787240072876215,3.5646237421452995,2.1627657413482666,0.7949861884117126,-0.3976028859615326
1783196755988826600,4.77582666015625,-0.7965671420425177,3.9784389365583657,3.959968629366159,2.062346935272217,0.8543049097061157,-0.386399507522583
1783196755998763800,4.785763671875,-0.7570375340782105,4.080550234511494,4.3073125790059565,1.9031591415405276,0.8649965524673462,-0.4009870886802673
1783196756008699600,4.79569970703125,-0.909389072971791,3.85972254076302,4.875951839905977,1.6961917877197266,0.760120689868927,-0.4407273232936859
1783196756018636800,4.80563671875,-1.01744481241256,3.994476463645696,4.783212765932083,1.423778772354126,0.6177308559417725,-0.4853319823741913
1783196756028573700,4.81557373046875,-0.8665408419787883,4.147122601571679,4.80078758558929,1.1089534759521484,0.4783245027065277,-0.5045291185379028
1783196756038510800,4.8255107421875,-0.8155321008838713,4.107034336811304,4.954718502628803,0.769188404083252,0.3355163633823395,-0.5046886801719666
1783196756048446700,4.83544677734375,-0.7401783153444528,4.009580509275198,4.962047238081693,0.4267783164978027,0.154099702835083,-0.5115223526954651
1783196756058383600,4.845383544921875,-0.7191931027218699,4.041641534924507,4.737306754803657,0.1184648871421814,-0.0141522819176316,-0.5109415650367737
1783196756068320800,4.85532080078125,-0.6993593982219696,4.076113128846884,4.413958013257384,-0.1350808292627334,-0.0566203780472278,-0.4977205693721771
1783196756078258000,4.8652578125,-0.5390528086706996,3.951913333204388,4.317234838083386,-0.3380638360977173,-0.0157252419739961,-0.4673996865749359
1783196756088193500,4.875193603515625,-0.3821465290822088,3.740029408890009,4.278806615489721,-0.5085150003433228,0.0193794816732406,-0.4228620529174804
1783196756098130700,4.885130615234375,-0.2776416139908135,3.523949201929569,3.986863066032529,-0.6500205993652344,0.0037466674111783,-0.3826093077659607
1783196756108067800,4.89506787109375,-0.2407956921525299,3.362415993192792,3.558242516675591,-0.7580975294113159,-0.0304967910051345,-0.3644377589225769
1783196756118004700,4.905004638671875,-0.2345128124907612,3.2632261356443166,3.1876486243516204,-0.8436789512634277,-0.005827504210174,-0.3659199774265289
1783196756127940600,4.914940673828125,-0.2030970990076661,3.235016524726152,3.0759961755931378,-0.89460289478302,0.0828312560915947,-0.3814624547958374
1783196756137877800,4.924877685546875,-0.1703184266082942,3.296815686035156,3.1863135763555763,-0.929137110710144,0.1492560505867004,-0.4074504673480987
1783196756147814700,4.934814697265625,-0.1812237053737044,3.4704970132052897,3.2620506621241567,-0.945965588092804,0.1728740334510803,-0.4347089827060699
1783196756157750800,4.944750732421875,-0.2027367412626743,3.669900810652971,3.1538620900839565,-0.9360827803611756,0.2334215342998504,-0.4406561851501465
1783196756167687700,4.954687744140625,-0.0560255463436245,3.722628192234039,3.334721930581331,-0.9152898788452148,0.2893476486206054,-0.4027825593948364
1783196756177624600,4.96462451171875,0.1475286487817764,3.702138946434855,3.661514090579748,-0.9300388097763062,0.2520013153553009,-0.3149341642856598
1783196756187561700,4.974561767578125,0.2831907725505531,3.6522687078505753,3.774524383687973,-0.9889388680458068,0.1097504273056984,-0.1788753867149353
1783196756197497900,4.984497802734375,0.4767538811460137,3.4771050331681965,3.737384447339177,-1.0898256301879885,-0.0996918752789497,-0.0098270419985055
1783196756207434800,4.994434814453125,0.6419368445619941,3.1477257792860267,3.691179161003232,-1.222983717918396,-0.3218370676040649,0.1676747798919677
1783196756217371600,5.00437158203125,0.6327005219221115,2.8186756112277505,3.707732236397266,-1.3610868453979492,-0.4659703075885772,0.2953881621360779
1783196756227308800,5.014308837890625,0.3945765331968665,2.610004803740978,3.891282631152868,-1.4865862131118774,-0.5083640813827515,0.3508042693138122
1783196756237245000,5.024244873046875,-0.0580481382124125,2.6057220118552444,4.186553863728046,-1.5816417932510376,-0.4595493078231811,0.3308497667312622
1783196756247181600,5.034181640625,-0.5435173868641257,2.683207987117767,4.502620047050714,-1.6535242795944214,-0.390708178281784,0.2434909045696258
1783196756257118700,5.04411865234375,-0.9556827682435513,2.7792981250852344,4.734717907354235,-1.6974239349365234,-0.3509122133255005,0.1175643652677536
1783196756267055900,5.054055908203125,-1.2095743810735642,2.970219340869784,4.852910571536421,-1.7274359464645386,-0.3722555935382843,0.0006878161802887
1783196756276991700,5.06399169921875,-1.24625751356557,3.155252667659521,5.027195709818601,-1.8308361768722532,-0.5000648498535156,-0.0095765655860304
1783196756286928600,5.0739287109375,-0.9597232758060096,3.04538710231781,5.0315018825799225,-2.06972074508667,-0.8091236352920532,0.0916059836745262
1783196756296865800,5.08386572265625,-0.5819507240243256,2.5981618057340383,4.511503610730171,-2.4431543350219727,-1.290893316268921,0.2142193019390106
1783196756306802000,5.093802001953125,-0.4060007212698459,2.164397463747859,3.588907119530439,-2.901766300201416,-1.8317198753356931,0.3191520869731903
1783196756316738800,5.10373876953125,-0.3829838566891849,1.8209756559878587,2.501910339725017,-3.349440336227417,-2.163309097290039,0.3660993874073028
1783196756326675700,5.11367578125,-0.3412603919424116,1.5023904755815862,1.8566817601412533,-3.611715078353882,-2.00164532661438,0.3906002044677734
1783196756336612600,5.123612548828125,-0.3638984863385558,1.4469669867843389,1.158228370848298,-3.7345709800720215,-1.5789605379104614,0.4178656637668609
1783196756346548700,5.133548828125,-0.6838106775648891,1.406287185871601,0.4037690166950226,-3.7217776775360103,-1.3801323175430298,0.5150057673454285
1783196756356486000,5.14348583984375,-0.6761221688888966,1.398207924312353,-2.244271795451641,-3.550482273101806,-1.2330584526062012,0.6856861114501953
1783196756366422500,5.153422607421875,-0.2789836031842976,1.032422309052944,-4.420751911181212,-3.2189314365386963,-0.9678984880447388,0.9135791659355164
1783196756376359700,5.163359619140625,-0.1462543545296415,0.403473540879786,-5.927226733466982,-2.7945773601531982,-0.6977431178092957,1.122511863708496
1783196756386295800,5.1732958984375,-0.2865633177235722,-0.1856345075532794,-7.054743155187368,-2.353060483932495,-0.5272209048271179,1.237505316734314
1783196756396233000,5.18323291015625,-0.5770976579699665,-0.7232746729470789,-7.980809368324279,-1.921550273895264,-0.432956725358963,1.231606125831604
1783196756406169600,5.193169677734375,-0.9303962051652372,-1.4169079486072065,-8.454142335110902,-1.5017352104187012,-0.4199743270874023,1.1036441326141355
1783196756416106800,5.203106689453125,-1.244581104785949,-2.2225673286437986,-8.656815948009491,-1.1134068965911863,-0.4944212436676025,0.8774350881576538
1783196756426043000,5.21304296875,-1.46897672014907,-2.8780335168644786,-8.712257264724373,-0.7840424180030823,-0.6038721203804016,0.6001299619674683
1783196756435979800,5.222979736328125,-1.5805936592027543,-3.277973622921109,-8.619356278187036,-0.5378623008728027,-0.6959353089332581,0.3228796720504761
1783196756445916700,5.232916748046875,-1.498454012915492,-3.530752452203631,-8.462205814579129,-0.3766256868839264,-0.7089099884033203,0.1003792211413383
1783196756455853800,5.242853759765625,-1.252218175535649,-3.688725922632217,-8.213024133005737,-0.2728118598461151,-0.6287470459938049,-0.0591756924986839
1783196756465789700,5.252789794921875,-0.9418751921653749,-3.667330667904019,-7.910935037109255,-0.2030772417783737,-0.4787290394306183,-0.1381890177726745
1783196756475726800,5.262726806640625,-0.5884602885814383,-3.4394968947857616,-7.510327699315548,-0.1439640969038009,-0.325423389673233,-0.155103325843811
1783196756485663700,5.272663818359375,-0.1916830487362109,-3.237262257826328,-7.266511928689479,-0.0625800192356109,-0.1579217463731765,-0.1265904754400253
1783196756495599900,5.282599853515625,0.13752263867734,-3.1562013466864824,-7.141610122257471,0.0332506373524665,0.0291043333709239,-0.0921864211559295
1783196756505536800,5.292536865234375,0.2600653330288827,-3.0388568237662312,-7.000697092223167,0.1643423438072204,0.2350519001483917,-0.0775302425026893
1783196756515474000,5.302473876953125,0.1594208927579224,-2.839327646373212,-6.826319014960527,0.3102681934833526,0.4004752039909363,-0.083008736371994
1783196756525410600,5.31241064453125,-0.0046049730448052,-2.5930080762326715,-6.547137331920862,0.4520322382450104,0.472042053937912,-0.1107191890478134
1783196756535346700,5.3223466796875,-0.1160247820911929,-2.311640135195106,-6.3271080950737,0.5967223644256592,0.4525627493858337,-0.1517248749732971
1783196756545283800,5.332283935546875,-0.1287470654170028,-2.10739225871712,-6.137972593662142,0.7483568787574768,0.3683607876300812,-0.2001768201589584
1783196756555220700,5.342220703125,-0.0720572099457494,-1.922086544726789,-6.054842475032806,0.931021511554718,0.2865745723247528,-0.2715514302253723
1783196756565157600,5.35215771484375,-0.0890637647283263,-1.6031642413206395,-6.026922786971927,1.1401838064193726,0.2484090924263,-0.3423677980899811
1783196756575093800,5.36209375,-0.0801038478770293,-1.2070708738200366,-5.946740996754169,1.3698064088821411,0.2520966231822967,-0.4033296108245849
1783196756585031000,5.372031005859375,-0.0316695421136915,-0.9041793754994868,-5.873526707461476,1.582064509391785,0.2804358601570129,-0.4385461807250976
1783196756594967800,5.3819677734375,0.0188720152943162,-0.6310303967528045,-5.6275680795878165,1.7321882247924805,0.2715336978435516,-0.4371367692947387
1783196756604904700,5.39190478515625,0.0912861626186873,-0.4420613379493355,-5.232209163841605,1.7979174852371216,0.247725561261177,-0.4024765193462372
1783196756614840800,5.4018408203125,0.135740595832467,-0.3059109922721982,-4.841878305390477,1.811139702796936,0.2878150343894958,-0.3344998359680176
1783196756624777700,5.41177783203125,0.1748023305566981,-0.3201794638603925,-4.358764533823728,1.8068785667419436,0.3577355444431305,-0.2534952759742737
1783196756634715000,5.42171484375,0.1528134025179781,-0.3356307154923677,-3.933393341651559,1.7940524816513062,0.4556576609611511,-0.1813224852085113
1783196756644651800,5.43165185546875,0.0652021016202867,-0.2765311685308814,-3.559913080236316,1.804894208908081,0.5580742955207825,-0.1129908263683319
1783196756654587600,5.441587646484375,0.0330448673211969,-0.227273216626048,-3.0917694987863302,1.817989945411682,0.6421368718147278,-0.0588900595903396
1783196756664524800,5.45152490234375,0.0041782355327159,-0.0834177033990621,-2.5418121420025823,1.8148516416549685,0.7074487209320068,-0.0226561576128005
1783196756674462200,5.461462158203125,-0.0560190435376018,0.1455564719259738,-1.879379329639673,1.8293086290359497,0.7311947345733643,0.0007326893974095
1783196756684399400,5.4713994140625,-0.1418545852007344,0.4112093958288431,-1.4811200162768363,1.8916561603546145,0.8203951716423035,0.0110756075009703
1783196756694335200,5.481335205078125,-0.4880737685943022,0.7548775795653462,-1.22797586081326,1.979663848876953,0.9329965710639954,0.0263098590075969
1783196756704272400,5.4912724609375,-0.7034772818695754,0.9935995341837406,-0.7282873865425586,2.066589117050171,0.9748843312263488,0.034951813519001
1783196756714209300,5.501209228515625,-0.8134963572725653,1.1416387628361582,-0.3572621170639991,2.155907392501831,0.9252769947052002,0.0157587528228759
1783196756724146400,5.511146484375,-0.8839797602966427,1.3013865494608878,0.0356201794356107,2.227687120437622,0.8291336894035339,-0.0354937799274921
1783196756734082300,5.521082275390625,-0.9343888549979776,1.5238810073778033,0.4835679450750351,2.273928642272949,0.6964471340179443,-0.1074236035346984
1783196756744019200,5.531019287109375,-0.9306128435906024,1.8096622348129747,0.8886533050656318,2.297536849975586,0.5729854106903076,-0.1926721930503845
1783196756753956400,5.540956298828125,-0.8335541528519242,2.0603537364274263,1.2165735923111438,2.2842628955841064,0.4872146248817444,-0.2601736783981323
1783196756763893200,5.550893310546875,-0.7044866781078278,2.2634295003861187,1.5538696106672285,2.2201967239379883,0.4384090006351471,-0.3248421549797058
1783196756773829000,5.5608291015625,-0.6107636345978826,2.472768416392803,1.91179925172925,2.111152410507202,0.4211204946041107,-0.3695743083953857
1783196756783766300,5.570766357421875,-0.5403732436195016,2.676557297056913,2.232552131563425,1.980649709701538,0.4374435245990753,-0.4008227884769439
1783196756793703400,5.580703369140625,-0.5227924326129257,2.88783156504035,2.633843944489956,1.846497654914856,0.4680859446525574,-0.4182580113410949
1783196756803640300,5.590640380859375,-0.4787780804499983,3.128763889184594,3.017306670737266,1.7403054237365725,0.5022761225700378,-0.4069451689720154
1783196756813576200,5.600576171875,-0.4079935025222599,3.33134807023406,3.29430925617218,1.6804898977279663,0.5559622645378113,-0.3816237151622772
1783196756823513300,5.610513427734375,-0.3638073009237647,3.4770454119354484,3.495602812889218,1.6511770486831665,0.6078547835350037,-0.3308321833610534
1783196756833450200,5.6204501953125,-0.2738262934863567,3.5716432655185457,3.7596290123730896,1.6224628686904907,0.6176413893699646,-0.2796216905117035
1783196756843387400,5.630387451171875,-0.2406188742808997,3.634327392968536,3.917148309293389,1.581270694732666,0.5863689184188843,-0.2384018152952194
1783196756853323300,5.6403232421875,-0.3026404461689293,3.618396833387017,4.046685374310613,1.5141167640686035,0.5442414879798889,-0.2245334833860397
1783196756863260200,5.65026025390625,-0.3931511765688658,3.5548739170253274,4.202019728407263,1.424851894378662,0.4841020405292511,-0.2272067666053772
1783196756873197300,5.660197265625,-0.4294096539080143,3.4565304471731184,4.391687144738436,1.3074772357940674,0.4051747024059295,-0.2369504272937774
1783196756883134500,5.670134521484375,-0.4049205248177051,3.3499060557097198,4.563336673820018,1.1275464296340942,0.295382410287857,-0.2469878792762756
1783196756893070300,5.6800703125,-0.4374272484079003,3.354267173528671,4.712396185430884,0.875999927520752,0.1670635491609573,-0.2492654770612716
1783196756903007200,5.69000732421875,-0.4203245763070881,3.4038661939561363,4.852869070482254,0.5833345055580139,0.0474002696573734,-0.2414238005876541
1783196756912944400,5.6999443359375,-0.4098009903356432,3.3436469953149555,4.974883338779211,0.2750207185745239,0.0116448812186717,-0.220893919467926
1783196756922881300,5.70988134765625,-0.4025846292160451,3.329571123689413,4.994439687642455,-0.0200282521545887,-0.0276109129190444,-0.2177833467721939
1783196756932817200,5.719817138671875,-0.3325206206478178,3.167419490793347,4.989341487720608,-0.2761828005313873,-0.1270829141139984,-0.2431467622518539
1783196756942754300,5.72975439453125,-0.3684238548085093,3.193932819187641,4.583612569129467,-0.4619132578372955,-0.1783205270767212,-0.3031909167766571
1783196756952691200,5.739691162109375,-0.346338133598119,3.45275969646275,4.326244658491016,-0.5822808146476746,-0.1170940548181533,-0.3522017300128937
1783196756962628400,5.74962841796875,-0.2926695256441831,3.6910248472243534,4.447918735048175,-0.662731945514679,0.0060539743863046,-0.343315839767456
1783196756972564200,5.759564208984375,-0.1174243101581931,3.7925036924928426,4.612371630623937,-0.7449759244918823,0.0359221175312995,-0.2645261585712433
1783196756982501400,5.76950146484375,0.1104465801000595,3.8196243391305207,4.534805575862527,-0.8421059250831604,-0.0404597371816635,-0.1210584864020347
1783196756992438300,5.779438232421875,0.3840829039722681,3.757603059503436,4.291144703537226,-0.972614884376526,-0.1839321404695511,0.0569786466658115
1783196757002375400,5.78937548828125,0.6021835108444095,3.60792863086462,4.211624592098594,-1.147884488105774,-0.3294904232025146,0.2382725328207016
1783196757012311300,5.799311279296875,0.725506962043792,3.35585473498106,4.204118746513128,-1.349552869796753,-0.4806516766548157,0.3820847868919372
1783196757022248200,5.809248291015625,0.5394131664156914,3.0410891128629443,4.161173338755965,-1.531733751296997,-0.5684574246406555,0.4486134648323059
1783196757032185300,5.819185302734375,0.1121902088969945,2.86201907839179,3.9807565658509727,-1.6859022378921509,-0.5422014594078064,0.4373885989189148
1783196757042122200,5.829122314453125,-0.3011012539029121,2.9253432573109865,4.105459050318599,-1.8278803825378416,-0.5193992257118225,0.3739446401596069
1783196757052058000,5.83905810546875,-0.7031792487710714,3.142654467371106,4.130198939299583,-1.980788826942444,-0.5734958648681641,0.3234793245792389
1783196757061995300,5.848995361328125,-0.8261250988297164,3.2281133212089537,3.898481602746248,-2.1438491344451904,-0.6724794507026672,0.3276090621948242
1783196757071932400,5.858932373046875,-0.6835147633582354,3.038912353345752,3.5585523132771253,-2.29619574546814,-0.7734407782554626,0.3537896275520324
1783196757081869300,5.868869384765625,-0.5268814554922282,2.7487644551336765,3.2804327065110206,-2.427743673324585,-0.8264341950416565,0.350275844335556
1783196757091805200,5.87880517578125,-0.5407772943757474,2.6157483158290384,2.969578120356798,-2.5483100414276123,-0.8215625882148743,0.3221741914749145
1783196757101742300,5.888742431640625,-0.6256103444654494,2.606903915116191,2.6988316727072,-2.6509835720062256,-0.7847350239753723,0.2921313345432281
1783196757111679200,5.89867919921875,-0.6603502339351922,2.509089437574148,2.407515899759531,-2.765368938446045,-0.7645496726036072,0.3128581345081329
1783196757121616400,5.908616455078125,-0.5865169359613209,2.228614792114496,2.0038433291763065,-2.9014101028442383,-0.7877127528190613,0.396715760231018
1783196757131552300,5.91855224609375,-0.3896405380994081,1.758560993129015,1.3275088327109812,-3.0217843055725098,-0.8152711391448975,0.5068156123161316
1783196757141489200,5.9284892578125,-0.321278949534893,1.1671031666994094,0.5026917477399111,-3.110353469848633,-0.7962012887001038,0.5916221141815186
1783196757151426300,5.93842626953125,-0.4854741440225392,0.7126558099076151,-0.1238981823474168,-3.1375744342803955,-0.7197291851043701,0.6122297644615173
1783196757161363500,5.948363525390625,-0.8015214034490287,0.5691612389475107,-0.9682190092116594,-3.067467451095581,-0.5826890468597412,0.5884925127029419
1783196757171299300,5.95829931640625,-1.164394200001657,0.4708890807658433,-1.7832295704394578,-2.890449285507202,-0.4116940498352051,0.5094616413116455
1783196757181236200,5.968236328125,-1.4916076541520655,0.3272890036046504,-2.543041391536593,-2.6633107662200928,-0.3019143044948578,0.3835436403751373
1783196757191173400,5.97817333984375,-1.5747840961411594,0.1671355587884783,-3.0233728389084336,-2.451056241989136,-0.356860339641571,0.244269385933876
1783196757201110300,5.9881103515625,-1.1382013357333838,-0.182087920987606,-3.68058937792778,-2.241863489151001,-0.5099039673805237,0.1229078024625778
1783196757211047200,5.998047119140625,-0.5083364025633782,-0.7362421449393034,-4.387555159500241,-2.035773515701294,-0.6684389710426331,0.0337908416986465
1783196757220983300,6.0079833984375,-0.1052394399110227,-1.2444151005692778,-4.878699677309394,-1.8218897581100464,-0.7597665190696716,-0.0244825817644596
1783196757230920200,6.017920166015625,0.0149947400361299,-1.4717344944246114,-5.428152591702342,-1.5954114198684692,-0.7220268845558167,-0.0687909722328186
1783196757240857300,6.027857421875,-0.1317548506645485,-1.4625382115341723,-5.670839066037535,-1.3573932647705078,-0.6113006472587585,-0.1225977465510368
1783196757250794200,6.037794189453125,-0.2287190497864969,-1.311532095900178,-5.776261095973849,-1.1298630237579346,-0.4895371198654175,-0.1467956006526947
1783196757260730400,6.04773046875,-0.0928350086290389,-1.218917817349732,-5.779055110606551,-0.9280683994293212,-0.4062184989452362,-0.1234434247016906
1783196757270667300,6.057667236328125,0.212839544538781,-1.25426327149719,-5.780742625302076,-0.7628186345100403,-0.350067526102066,-0.0490395203232765
1783196757280604400,6.0676044921875,0.4731536281643435,-1.3934753428325055,-5.770778865170478,-0.651954710483551,-0.3367107212543487,0.0536580979824066
1783196757290541000,6.077541015625,0.6763095081545412,-1.636503762473166,-5.872644663929939,-0.5867975354194641,-0.3288111686706543,0.1453478932380676
1783196757300477200,6.087477294921875,0.6748568251281977,-1.8813225726619365,-6.026325405600667,-0.5338730216026306,-0.2927130758762359,0.2074624001979828
1783196757310414300,6.097414306640625,0.5220884490620344,-2.053209856022149,-6.095327630156278,-0.4596797823905945,-0.2330802679061889,0.2486632019281387
1783196757320351500,6.1073515625,0.3835908096063882,-2.1506563770346343,-6.134253865399956,-0.3449641168117523,-0.170961245894432,0.2828195691108703
1783196757330288000,6.1172880859375,0.2640800485629588,-2.1814701791018245,-6.136206753033399,-0.1972393244504928,-0.1333030313253402,0.3015660643577575
1783196757340224300,6.127224365234375,0.1658004742598161,-2.1504797052934763,-6.194006615573168,-0.0092198848724365,-0.096938632428646,0.326596051454544
1783196757350161400,6.137161376953125,0.0899138148195575,-2.149535410180688,-6.24665041052401,0.2068904489278793,-0.0803558453917503,0.3534353077411651
1783196757360098300,6.147098388671875,0.0657419715174939,-2.182614819092304,-6.204542038112878,0.4251753687858581,-0.0557197481393814,0.3680824339389801
1783196757370035200,6.15703515625,-0.0002981700958218,-2.144818903052806,-6.068875092038512,0.6416310667991638,-0.0073354011401534,0.3634897470474243
1783196757379971300,6.166971435546875,-0.1777916850984096,-2.104907163903117,-5.787278164550662,0.831560492515564,0.026230813935399,0.3378994166851043
1783196757389908200,6.176908203125,-0.3743252608720213,-2.0034021612800657,-5.453531947630643,0.9844725131988524,0.0392523035407066,0.2971022725105285
1783196757399845400,6.186845458984375,-0.513677032938972,-1.8923983856886624,-5.132245399311184,1.1176739931106567,0.0609884932637214,0.2463259100914001
1783196757409782300,6.1967822265625,-0.7019646122843026,-1.805497516348958,-4.830969373363256,1.2273237705230713,0.1151367202401161,0.1836885660886764
1783196757419719200,6.20671923828125,-0.8627548206340521,-1.7426744188196956,-4.5027083098560565,1.3038870096206665,0.1649985611438751,0.1243914142251014
1783196757429655300,6.2166552734375,-0.9333736135408282,-1.6738861292757092,-4.249124009409547,1.3502534627914429,0.2044351547956466,0.0644311681389808
1783196757439592400,6.226592529296875,-0.9388261798582972,-1.6298751381136476,-4.124124003300071,1.375599026679993,0.2255124896764755,0.0200993884354829
1783196757449529000,6.236529052734375,-0.912581000880897,-1.6010092552438375,-4.033562857887149,1.3817932605743408,0.2295975238084793,-0.0181682296097278
1783196757459466200,6.24646630859375,-0.911788389198482,-1.5162432059757411,-4.027560987123847,1.3887795209884644,0.2489272803068161,-0.0585936829447746
1783196757469402400,6.25640234375,-0.8970103606529534,-1.4165613271266222,-4.011612891885638,1.4377291202545166,0.2741313278675079,-0.0873924493789672
1783196757479339300,6.26633935546875,-0.801283064648509,-1.284375208905339,-4.108203965112566,1.551632285118103,0.3476015329360962,-0.1293681263923645
1783196757489276200,6.276276123046875,-0.7588982133835553,-1.030762559147179,-4.325494132384658,1.7320581674575806,0.4493175148963928,-0.1806669980287552
1783196757499213300,6.28621337890625,-0.716706838864088,-0.6626762657299637,-4.362414288502931,1.9409072399139404,0.5286213755607605,-0.2248019725084304
1783196757509149400,6.2961494140625,-0.582316159803234,-0.2370876314148306,-4.3114550856381655,2.139709949493408,0.574681282043457,-0.2288296073675155
1783196757519086300,6.30608642578125,-0.3871023248586803,0.0830897866189479,-4.0931314836651085,2.3056161403656006,0.5938401222229004,-0.2060031294822693
1783196757529023200,6.316023193359375,-0.2240489025509916,0.3260995015591383,-3.74925900952816,2.4309706687927246,0.6019273400306702,-0.1889370232820511
1783196757538960100,6.325960205078125,-0.1897862204052507,0.6313897315844893,-3.3052526749908924,2.510800838470459,0.6195558309555054,-0.1945885121822357
1783196757548897300,6.335897216796875,-0.2481477354157716,0.9353811539709568,-2.741214185884594,2.5571751594543457,0.6326074600219727,-0.2254238277673721
1783196757558833400,6.34583349609375,-0.4162165199337527,1.2407038249611857,-2.204981987592578,2.566981315612793,0.6710442900657654,-0.288585752248764
1783196757568770000,6.35577001953125,-0.6268374751076102,1.608353480526805,-1.6483610812664031,2.523256301879883,0.7212085723876953,-0.3640356063842773
1783196757578707200,6.365707275390625,-0.7430252292081714,2.034859521947801,-1.017422308319807,2.4381022453308105,0.7678000926971436,-0.4472114443778991
1783196757588644400,6.375644287109375,-0.6395395010966807,2.3534113846063613,-0.4773328500777483,2.3161041736602783,0.821324348449707,-0.507697582244873
1783196757598580500,6.38558056640625,-0.4245025926440954,2.589005854853988,0.036546646630764,2.145989418029785,0.8888471722602844,-0.530714750289917
1783196757608517000,6.39551708984375,-0.224040372184664,2.8702088145881888,0.4415536806881427,1.9503397941589355,0.9748862981796264,-0.5237215161323547
1783196757618454300,6.405454345703125,-0.0241966489497572,3.177086313804984,0.774566907158494,1.7545864582061768,1.073099136352539,-0.492466390132904
1783196757628391200,6.41539111328125,0.1070499233990907,3.453666289913654,1.123375084131956,1.5777688026428225,1.157639980316162,-0.4415250718593597
1783196757638327300,6.425327392578125,0.2246751629568636,3.691511753958464,1.4507593648046255,1.443684458732605,1.2351877689361572,-0.358233094215393
1783196757648264200,6.43526416015625,0.3039396921992301,3.851414146623015,1.7257301521509885,1.358029842376709,1.3055182695388794,-0.2436379790306091
1783196757658201300,6.445201416015625,0.366616366995126,3.950627969568968,2.0293547870516777,1.3090887069702148,1.3252158164978027,-0.1121526658535003
1783196757668138200,6.45513818359375,0.393531115797162,3.9899499261319633,2.3246938241660597,1.2798423767089844,1.290124773979187,0.0100137498229742
1783196757678074000,6.46507421875,0.3146567549161613,3.955930752152205,2.625170224168897,1.2464474439620972,1.214769721031189,0.1159809306263923
1783196757688011300,6.47501123046875,0.1210593056596815,3.8710739558607337,2.946461448663473,1.21509850025177,1.1146060228347778,0.1982502192258834
1783196757697948200,6.4849482421875,-0.1129014259062707,3.794740657764673,3.2270956685990093,1.208312749862671,1.0088356733322144,0.2468337267637252
1783196757707885300,6.49488525390625,-0.329759193110466,3.689073713156581,3.4777538524657485,1.206676959991455,0.9151350855827332,0.26594278216362
1783196757717822200,6.504822265625,-0.5799076738893986,3.609543664845824,3.6964953875899313,1.2001876831054688,0.8377236127853394,0.2436076700687408
1783196757727758000,6.514758056640625,-0.8032087720140815,3.566740295907855,3.9803012232989072,1.1652812957763672,0.7528886198997498,0.2098794877529144
1783196757737695200,6.5246953125,-0.9622912265978752,3.556657877832651,4.18055900722742,1.0991790294647217,0.6673633456230164,0.1854865252971649
1783196757747632400,6.53463232421875,-1.0618100238397716,3.5369530604094264,4.275120035931468,1.0025006532669067,0.6460793018341064,0.2077603638172149
1783196757757569300,6.5445693359375,-0.8551309746921062,3.385463691303134,4.334001848489046,0.8976227641105652,0.6061497330665588,0.2055952101945877
1783196757767505200,6.554505126953125,-0.9834211083881556,2.904810172370076,4.41277201834321,0.8044688105583191,0.5171133875846863,0.1717441231012344
1783196757777442300,6.5644423828125,-1.060383644298464,2.8177754475176333,4.209285920017957,0.7314430475234985,0.4847280383110046,0.1299282312393188
1783196757787379200,6.574379150390625,-0.9065703622892498,2.91504105900526,4.349862265443802,0.6652206182479858,0.465984433889389,0.0898069217801094
1783196757797316400,6.58431640625,-0.9880620660617948,2.958660420501232,4.542274596568942,0.5972780585289001,0.4315862357616424,0.0558124706149101
1783196757807253200,6.594253173828125,-1.0207174043424427,3.063114482188225,4.646429383048415,0.5197402238845825,0.4145711660385132,0.0189797226339578
1783196757817189000,6.604189208984375,-0.9230192466564476,3.2305139526098965,4.916178636354208,0.4080720245838165,0.4005144536495209,-0.0079206004738807
1783196757827126300,6.614126220703125,-0.7433850024312734,3.344524947193265,5.206851435223221,0.2558577954769134,0.3364878892898559,-0.0098549574613571
1783196757837063400,6.6240634765625,-0.4792138415187597,3.3454093288123605,5.335438652169704,0.0801661312580108,0.2740418314933777,-0.0051843053661286
1783196757847000000,6.634,-0.1735873652763664,3.2699253410220144,5.336729276502132,-0.0827672928571701,0.1844008415937423,0.0243984758853912
1783196757856936200,6.643936279296875,0.1525270415909588,3.0604736122906204,5.290120085540414,-0.2841560542583465,0.0150139471516013,0.0979390069842338
1783196757866873300,6.653873291015625,-0.0016876608259975,3.0628941174358126,5.211127212846279,-0.5625733137130737,-0.1724868714809417,0.1864517033100128
1783196757876810200,6.663810302734375,0.1665894692130386,3.132357529762387,5.323924739986658,-0.9082511067390442,-0.4052242338657379,0.3176933526992798
1783196757886747100,6.6737470703125,0.2976204260498285,2.862140658944845,5.261486111730337,-1.2923016548156738,-0.7170776128768921,0.4817142784595489
1783196757896683300,6.683683349609375,0.3252944687865674,2.3315420826256275,4.970348617959022,-1.6755495071411133,-1.0387964248657229,0.6253094673156738
1783196757906620200,6.6936201171875,0.257294260880351,1.8255735051721331,4.604536114692688,-2.002066135406494,-1.2399495840072632,0.6952413320541382
1783196757916557300,6.703557373046875,-0.0108640699721872,1.6448796688914298,4.267621204608679,-2.213503360748291,-1.4315896034240725,0.6693572402000427
1783196757926494200,6.713494140625,-0.5775162487082183,1.7526678434371947,3.823044376707077,-2.2362937927246094,-1.4426673650741575,0.5179730653762817
1783196757936431000,6.72343115234375,-1.325952250918746,2.0754928533703088,3.3041467595756053,-2.1542325019836426,-0.9792336821556092,0.3355715572834015
1783196757946367200,6.7333671875,-1.5249267170384526,2.3305752834200857,3.6012311790525917,-2.1324338912963867,-0.6735632419586182,0.2319331020116806
1783196757956304400,6.743304443359375,-1.456230781953037,2.3897172082185745,3.5679531788289545,-2.235645294189453,-0.7315495610237122,0.1679107099771499
1783196757966241000,6.753240966796875,-1.152682573289424,2.585744807231426,2.3538135356664656,-2.3970730304718018,-0.8743993639945984,0.1977574527263641
1783196757976178200,6.76317822265625,-0.8306295706421136,2.234540090510249,1.4410674073517322,-2.522700309753418,-0.9466549158096312,0.2800523340702057
1783196757986114300,6.7731142578125,-0.3090126846145838,1.2262164499253034,0.7343558928012848,-2.5717194080352783,-0.9599847197532654,0.3159414231777191
1783196757996051200,6.78305126953125,-0.1504046426095068,0.925762846276164,-0.1481926656484603,-2.517322301864624,-0.929676353931427,0.2989483177661896
1783196758005988000,6.792988037109375,-0.0726487643644213,1.1552619222581386,-0.9142623780965804,-2.3891496658325195,-0.8622447848320007,0.2855513989925384
1783196758015925200,6.80292529296875,-0.101136461571604,1.3481284268915652,-1.4187111986368894,-2.3052515983581543,-0.7829976081848145,0.5642203092575073
1783196758025862100,6.812862060546875,-0.0461584515195339,0.4966764329731464,-1.6656325340628624,-2.434994697570801,-0.8708089590072632,1.064993143081665
1783196758035798300,6.82279833984375,0.0310325593844056,-0.7171960836857557,-2.3796254377931354,-2.712000846862793,-1.0205533504486084,1.79081130027771
1783196758045735200,6.832735107421875,-0.3530012812817469,-1.378408414342999,-3.2689322383314368,-2.9504897594451904,-1.1862729787826538,2.469655990600586
1783196758055672000,6.842672119140625,-0.426451242493838,-2.312329724894464,-3.836740893626213,-3.0555543899536133,-1.493327260017395,2.8941707611083984
1783196758065609200,6.852609130859375,-0.4712300762232392,-2.362574934270978,-4.228538902020454,-2.89139723777771,-1.5075291395187378,2.913222074508667
1783196758075545300,6.86254541015625,-0.8029608616676182,-1.88644415345937,-4.148530714803933,-2.485807418823242,-1.0650625228881836,2.4514153003692627
1783196758085482200,6.872482177734375,-1.373151808989048,-1.410826582866907,-3.581826221358776,-1.9307719469070437,-0.3804290890693664,1.5856503248214722
1783196758095419100,6.882419189453125,-1.9003052132904528,-0.6059633216440677,-3.232634598025679,-1.353853464126587,0.2971593737602234,0.5899165868759155
1783196758105356300,6.892356201171875,-2.288269781001657,0.2003992382258176,-2.9732103393793103,-0.8382989764213562,0.807189404964447,-0.1899837106466293
1783196758115293200,6.902293212890625,-2.1827995280094443,0.2569900172367692,-3.1203760000675915,-0.4238485395908355,1.452263355255127,-0.3372224271297455
1783196758125229000,6.91222900390625,-1.6512617711439728,-0.3149529613837599,-3.975405267950892,-0.060993380844593,1.2512708902359009,-0.0963716208934784
1783196758135166200,6.922166259765625,-1.2074509591788052,-1.5697826345920562,-5.936081071051955,0.2245438247919082,0.6183769702911377,0.2577345073223114
1783196758145103000,6.93210302734375,-0.6249626211464405,-2.302703233893216,-6.43289194405973,0.371713638305664,0.0026681404560804,0.541933000087738
1783196758155040300,6.942040283203125,-0.0137387486256659,-1.8119234577432275,-5.213106988486647,0.378146767616272,-0.2077048122882843,0.46024289727211
1783196758164977400,6.951977294921875,0.4556275064870715,-1.1147072090297936,-3.556302488523721,0.254679799079895,-0.1278340816497802,0.1702111810445785
1783196758174913300,6.961913330078125,0.7709751662768423,-0.5101341727003454,-2.015167271745205,-0.0093233445659279,-0.2287660241127014,0.0940999165177345
1783196758184850200,6.97185009765625,0.9301488062754272,-1.3205997839748858,-2.0494436353564263,-0.2216560393571853,-0.1563339829444885,0.1933114528656005
1783196758194787300,6.981787353515625,0.8151511387422681,-1.8506296204954384,-2.437612931859493,-0.3047074973583221,0.0771392211318016,0.2525002062320709
1783196758204724200,6.99172412109375,0.934543534103036,-1.879470515054464,-2.536007255116105,-0.234195664525032,0.142176941037178,0.2369200140237808
1783196758214660000,7.00166015625,0.8435327452264726,-1.9319713944032788,-3.26219386998713,-0.0497347488999366,-0.0543957725167274,0.1548443138599395
1783196758224597200,7.01159716796875,0.7932288644652813,-1.7728604443773626,-3.8808600213378655,0.1634585261344909,-0.3887113928794861,0.1178539991378784
1783196758234534100,7.0215341796875,0.6944578168507665,-1.479048470699787,-4.095791058263182,0.4457200467586517,-1.1634737253189087,0.3107320964336395
1783196758244471300,7.03147119140625,0.4849457362342625,-1.0238979340747,-3.923092312389612,0.5506054759025574,-1.7117635011672974,0.4448699355125427
1783196758254407200,7.0414072265625,0.3821480634521693,-0.721453448869288,-3.561408871752024,0.4818591475486755,-1.990875244140625,0.475856602191925
1783196758264344300,7.05134423828125,0.1614849856808781,-1.0028244586467745,-3.66033452540636,1.0333882570266724,-1.3370475769042969,1.344500184059143
1783196758274281200,7.06128125,0.0539215598016977,-1.2529907673433422,-2.9741467434465885,1.6619855165481567,-0.893037736415863,1.6609737873077393
1783196758284218400,7.07121826171875,0.8932979160010814,-1.421295369911194,-3.417444637453556,1.4596672058105469,-1.199761152267456,0.6557103991508484
1783196758294155000,7.081155029296875,0.7971298904918134,-0.4809250293508171,-5.556701814725995,1.503889560699463,-1.0669533014297483,0.3070603013038635
1783196758304091100,7.091091064453125,-0.6573397270075977,-2.4069895377978683,-3.0537416736871004,1.571755290031433,-0.987260401248932,0.3704381287097931
1783196758314028300,7.1010283203125,-0.8431586512170731,-2.19758398629576,-2.3988947864085435,1.5245598554611206,-0.8726262450218201,0.2442746013402938
1783196758323965200,7.110965087890625,-0.6272482478655874,-0.3975499960497021,-2.4035475806504487,1.385738730430603,-0.5113035440444946,0.1310601383447647
1783196758333902000,7.120902099609375,-0.3954955477379262,-1.5883049642324447,-1.7052467515707015,1.2374438047409058,-0.2288130074739456,0.0941902697086334
1783196758343839200,7.130839111328125,-0.5372381604641676,-1.5964660588562487,-1.1573656165391206,1.197229027748108,-0.2772226631641388,0.190170019865036
1783196758353775400,7.140775390625,-0.4867809157721698,-1.00279523255229,-1.0391226834744214,1.1938554048538208,-0.5462117195129395,0.3100357055664062
1783196758363712300,7.150712158203125,-0.0698103260681033,-1.073336795504391,-1.0486515593200922,1.2206101417541504,-0.7064675688743591,0.4153109788894653
1783196758373649200,7.160649169921875,-0.1827222733683884,-1.5541636251777409,-1.2130214527875185,1.3609577417373655,-0.6914816498756409,0.3701035380363464
1783196758383586000,7.1705859375,-0.8239256890892982,-1.4768258262142535,-1.8299819692641492,1.5242557525634766,-0.5504515171051025,0.2604360580444336
1783196758393522200,7.180522216796875,-1.407462367130816,-1.4002078659579158,-2.316335161143541,1.5848289728164673,-0.3269893825054168,0.1350674927234649
1783196758403459300,7.190459228515625,-1.803063274939358,-1.402197286209464,-2.1209207255929705,1.4648616313934326,-0.1099207401275634,0.1013305187225341
1783196758413396200,7.200396240234375,-1.59444522055313,-1.7351041296958922,-1.6406676041543482,1.1805976629257202,0.0541070736944675,0.1685247272253036
1783196758423333000,7.2103330078125,-0.9552592821344732,-2.05556270275861,-1.477436943849921,1.1488943099975586,0.0529075227677822,0.1816639155149459
1783196758433270300,7.220270263671875,-0.5725273543797433,-2.4026959322571755,-2.5611878736019134,1.2977291345596311,-0.1889096349477768,0.1178218200802803
1783196758443206400,7.230206298828125,-0.669242492377758,-2.1524264554470776,-3.9964439643263816,1.5211220979690552,-0.4862042367458343,0.1617905348539352
1783196758453143000,7.24014306640625,-0.8339427868433296,-1.9914982268661257,-4.925456167787313,1.8958323001861568,-0.863353431224823,0.1431918144226074
1783196758463080200,7.250080078125,-0.853362357584387,-1.7120710446327925,-5.602747526586056,2.2991693019866943,-1.2577027082443235,-0.0128912031650543
1783196758473017000,7.26001708984375,-1.171250057245791,-1.7311363951086998,-6.586587883299589,2.577253818511963,-1.399589776992798,-0.0340129993855953
1783196758482954200,7.269954345703125,-1.5629992580622434,-1.5368641153305769,-6.284898600375652,2.7421350479125977,-1.3422231674194336,-0.1154053509235382
1783196758492890000,7.27989013671875,-1.781958381459862,-0.8396791385382414,-6.278192965257167,2.9174516201019287,-1.2258540391921997,-0.1914969235658645
1783196758502827300,7.2898271484375,-1.3464929346442225,-1.142761921647191,-6.974779391634464,3.053370952606201,-0.9744298458099364,-0.2873609960079193
1783196758512764200,7.29976416015625,-1.3013449022762478,-0.4280477179050445,-6.956334218883514,3.2201571464538574,-0.7455628514289856,-0.3123854100704193
1783196758522701300,7.309701416015625,-1.3056493214718996,0.0461351437091827,-6.900629867318272,3.4356894493103027,-0.5936073064804077,-0.4325490295886993
1783196758532638200,7.31963818359375,-1.0511747941873968,0.7294143447458744,-6.590198475012183,3.5920844078063965,-0.5884801745414734,-0.4911031424999237
1783196758542574000,7.329573974609375,-0.8124246363878249,1.1448352207899093,-5.940144082707167,3.718927145004273,-0.5860823392868042,-0.5676044225692749
1783196758552511200,7.33951123046875,-0.6359555781953037,1.8947955099582672,-5.020104874774813,3.781317949295044,-0.6141944527626038,-0.6486779451370239
1783196758562448400,7.349448486328125,-0.3714113461866974,2.5575766973674297,-4.02212668711543,3.768214225769043,-0.6241640448570251,-0.7015613317489624
1783196758572385300,7.35938525390625,-0.143057056325674,3.1080519405454394,-2.8839368956893683,3.707962989807129,-0.6681722402572632,-0.7752323746681213
1783196758582321200,7.369321044921875,0.0058642158582806,3.761467918238044,-1.7766694812715051,3.5719242095947266,-0.7601923942565918,-0.844446063041687
1783196758592258300,7.37925830078125,0.2626850140079855,4.234228053572774,-0.7075666700750589,3.3537933826446533,-0.7349458932876587,-0.8983167409896851
1783196758602195200,7.3891953125,0.4597893023416399,4.6222740159571165,0.4673150216713547,3.080328702926636,-0.608579158782959,-0.9495206475257874
1783196758612132400,7.39913232421875,0.3653653440207243,4.906816933768988,1.4231611637830734,2.78096342086792,-0.4374068975448608,-1.045619249343872
1783196758622069200,7.4090693359375,0.234287479302287,5.144251478925347,2.086281373888254,2.4849109649658203,-0.2579223811626434,-1.1145730018615725
1783196758632005000,7.419005126953125,0.3758990129947662,5.341724600571394,2.5445932971537117,2.2682483196258545,-0.1217957139015197,-1.1123024225234983
1783196758641942300,7.4289423828125,0.6443937361948192,5.637486247012019,2.6834520250067118,2.1768712997436523,-0.1311046034097671,-1.089681625366211
1783196758651879400,7.43887939453125,1.1038086522661148,5.82812513872385,2.3931410451874138,2.1624231338500977,-0.2889717221260071,-1.073011040687561
1783196758661816000,7.448816162109375,1.3536730554066598,5.806325394847989,2.1716060799524186,2.1677303314208984,-0.5760931372642517,-0.9774599671363832
1783196758671753200,7.458753173828125,1.76552191818282,5.911112049490213,2.3515698483929035,2.067516326904297,-0.8509795665740967,-0.8383575081825256
1783196758681689300,7.468689453125,2.152855348383635,5.718920667639375,2.8142437662601467,1.857911229133606,-1.3312894105911257,-0.7485417127609253
1783196758691626200,7.478626220703125,1.7195358275555073,5.683614960980415,3.4436715501219037,1.4432154893875122,-1.2517859935760498,-0.7917986512184143
1783196758701563400,7.4885634765625,1.3880189771227538,5.982589139726757,4.500348010465502,1.128238320350647,-0.8213919401168823,-0.6581289768218994
1783196758711500300,7.498500244140625,1.9860829238191249,5.607603734445571,4.234777796410024,0.8702571988105774,-0.4438747465610504,-0.6184641718864441
1783196758721437200,7.508437255859375,1.82637225433439,5.509308195388317,4.157398496392369,0.6617705821990967,-0.3659968078136444,-0.5747576355934143
1783196758731373300,7.518373291015625,1.84194932430312,5.4243280649781225,3.916561449316144,0.4947904050350189,-0.3051593005657196,-0.4764385521411896
1783196758741310500,7.528310546875,2.342045794852823,5.193973833471536,3.84582903996706,0.3304739892482757,-0.247175857424736,-0.3477447628974914
1783196758751247000,7.5382470703125,2.324265954142809,5.390692921879888,3.932890652826428,0.1608031988143921,-0.1619536280632019,-0.2305070757865905
1783196758761184300,7.548184326171875,2.322179649388045,5.310389551109076,4.036791172283888,-0.0260650981217622,-0.0456841401755809,-0.1168200224637985
1783196758771120400,7.558120361328125,2.325664568894356,5.183521997562051,4.011988154938817,-0.2417183071374893,0.0574459731578826,-0.0429556518793106
1783196758781057300,7.568057373046875,2.115504984154552,5.155729150751233,4.012375400690734,-0.4198834300041199,0.2067359238862991,0.0350342653691768
1783196758790994200,7.577994140625,2.263886304242909,4.952907653814554,3.859828923746943,-0.5435829758644104,0.2711995840072632,0.1246730759739875
1783196758800931300,7.587931396484375,2.4070929981723426,4.77909656278491,3.452612396946549,-0.632407546043396,0.20668525993824,0.1752423644065857
1783196758810868200,7.5978681640625,2.5784476359605786,4.63970562775135,3.2143054528698323,-0.7535089254379272,0.0516506731510162,0.2385683357715606
1783196758820804400,7.607804443359375,2.6831758384138342,4.276965371537209,3.1439719797104595,-0.9890339970588684,0.0358849614858627,0.2825149893760681
1783196758830741200,7.6177412109375,2.435808951177448,4.103508500772715,3.647048635114729,-1.3389360904693604,0.1936711370944976,0.2862932085990906
1783196758840678100,7.62767822265625,2.059915198879689,4.110576539462804,4.311081576150656,-1.7146110534667969,0.4310137629508972,0.250993549823761
1783196758850615300,7.637615234375,1.8253652692489324,4.11120080884099,4.568557915599644,-2.0954372882843018,0.7119212746620178,0.2898818254470825
1783196758860552200,7.64755224609375,2.0304959199108183,4.338509096780419,4.734733689445257,-2.3866093158721924,0.8572412729263306,0.396489679813385
1783196758870488000,7.657488037109375,2.633720318110287,4.555711585769057,4.344253777912259,-2.573633909225464,0.8340526223182678,0.5629239082336426
1783196758880425200,7.66742529296875,3.0834245720282194,4.600002562916279,3.620338615104556,-2.6736361980438232,0.6910194158554077,0.7722451090812683
1783196758890362400,7.6773623046875,3.208306796976924,4.480506999441981,2.931020426164568,-2.6730997562408447,0.4948474466800689,0.965106189250946
1783196758900299300,7.68729931640625,2.9546529384255407,4.040748969998956,2.071687615868449,-2.6019444465637207,0.3583750128746032,1.116698980331421
1783196758910236400,7.697236328125,2.3484148914933205,3.587167582386732,1.3266162677854298,-2.546435832977295,0.311320424079895,1.2094314098358154
1783196758920172300,7.70717236328125,1.5009513826891778,3.1926912946939465,0.9008382483780384,-2.5450940132141118,0.3136044442653656,1.245769739151001
1783196758930109200,7.717109130859375,0.7407612297989428,2.7063258278548714,0.6667316786006092,-2.6130733489990234,0.3542447984218597,1.2140392065048218
1783196758940046300,7.72704638671875,0.0843332108087837,2.285704460558295,0.4766641570359468,-2.719566583633423,0.4733322858810425,1.1449331045150757
1783196758949983200,7.736983154296875,-0.347733095087856,1.960819010964036,0.2611597041368484,-2.861161470413208,0.6090341806411743,1.0874963998794556
1783196758959920000,7.746920166015625,-0.4388178259834647,1.7194021181732415,0.0119324298560619,-3.004355430603028,0.7267873287200928,1.065886378288269
1783196758969856300,7.756856201171875,-0.3187457777954637,1.5642881288290025,-0.2725508667230606,-3.103224515914917,0.7541332244873047,1.1007559299468994
1783196758979793400,7.76679345703125,-0.0429999144233763,1.2192898655325173,-0.8071382204174995,-3.1079635620117188,0.706328809261322,1.1602773666381836
1783196758989730300,7.776730224609375,-0.0094913203142583,0.8048860575765371,-1.7224205892115831,-2.946793556213379,0.612243115901947,1.182467341423035
1783196758999667200,7.786667236328125,-0.141547382415086,0.2957458643496036,-2.8391034822285173,-2.6728734970092773,0.5199432373046875,1.1702216863632202
1783196759009604000,7.79660400390625,-0.5168083897672593,-0.2004775641590356,-3.935457872965932,-2.352940559387207,0.4674398303031921,1.1110845804214478
1783196759019540200,7.806540283203125,-1.0094424154818058,-0.494737573865056,-4.511848478645086,-2.061189889907837,0.4451141655445099,1.0317233800888062
1783196759029477400,7.816477294921875,-1.336433605183661,-0.8288958787173032,-4.625504668441415,-1.8851709365844729,0.4366503655910492,0.9539899826049804
1783196759039414300,7.826414306640625,-1.6211476417787372,-1.1979022095888852,-4.189135696914792,-1.812471389770508,0.4371544420719147,0.8905304670333862
1783196759049351200,7.83635107421875,-1.9311881350710989,-1.6385165636003016,-3.5871681669086217,-1.7484763860702517,0.4561294615268707,0.8018038272857666
1783196759059288300,7.846288330078125,-2.348309093031287,-2.030340875479579,-3.3187796805620198,-1.681854009628296,0.4923514425754547,0.7139135003089905
1783196759069224400,7.856224365234375,-2.6217425878077742,-2.3041274214774368,-3.2553105402141806,-1.6102187633514404,0.524253249168396,0.6015510559082031
1783196759079161000,7.8661611328125,-2.7138836958885197,-2.4416180758476256,-3.1458950567275283,-1.5310029983520508,0.5005654096603394,0.4871276915073395
1783196759089098200,7.87609814453125,-2.604068399429321,-2.6074527811706063,-3.0377281119972466,-1.4232312440872192,0.4441258311271667,0.4186570346355438
1783196759099035100,7.88603515625,-2.2380226719290017,-2.607621123474836,-2.9526071118116377,-1.2798306941986084,0.370616614818573,0.3969613909721374
1783196759108971300,7.89597119140625,-1.7389263183325527,-2.5033260517418383,-2.842393171423673,-1.1295533180236816,0.2889023125171661,0.4096207320690155
1783196759118908200,7.905908203125,-1.3720245585247874,-2.3540882609546183,-2.6647534620165825,-1.0205659866333008,0.2131660282611847,0.4231465458869934
1783196759128845300,7.91584521484375,-1.19443394895643,-2.1646365332007407,-2.3498937318742272,-0.9262101650238036,0.1500935852527618,0.4233279228210449
1783196759138782200,7.9257822265625,-1.1205354767918585,-1.9890286218822,-2.0473796885639426,-0.8330227732658386,0.098900482058525,0.4303168952465057
1783196759148719400,7.93571923828125,-0.9634104398861528,-1.831457887035608,-1.7946125497192142,-0.7774266600608826,0.0382784157991409,0.4378600418567657
