time,seconds_elapsed,ax,ay,az,gx,gy,gz
1783202588012740400,0.074740234375,-2.068620044991374,-1.318555710926652,-3.8401305360645055,0.2194739878177642,0.4904564917087555,-0.5079139471054077
1783202588022677500,0.084677490234375,-1.9365999309867616,-1.2839210353970527,-4.067785445484518,0.2365491092205047,0.7311242818832397,-0.603913426399231
1783202588032615400,0.094615478515625,-1.7878920092925428,-1.2032932549774646,-3.958226169613003,0.317994087934494,1.0922627449035645,-0.6876096129417419
1783202588042552600,0.104552490234375,-1.624809817548096,-1.1137409943461418,-3.566137069317698,0.4671518802642822,1.5060428380966189,-0.7622873187065125
1783202588052489500,0.114489501953125,-1.447071323941648,-0.9050754475563764,-2.957938535967469,0.6630372405052185,1.893684983253479,-0.8186924457550049
1783202588062426600,0.124426513671875,-1.2654133188039065,-0.5664326907664538,-2.065281255957484,0.8656505346298218,2.199805736541748,-0.8460875749588013
1783202588072363300,0.13436328125,-1.1197528019815683,-0.1893570352077484,-1.06601887370646,1.0430389642715454,2.382056951522827,-0.8381049633026123
1783202588082300400,0.144300537109375,-1.0131873010985553,0.1814119214221835,-0.0389350030720233,1.1896132230758667,2.434333324432373,-0.8024404644966125
1783202588092238300,0.15423828125,-0.8735188642978667,0.5160661930978298,0.925427330711484,1.3119757175445557,2.3718101978302,-0.7659423351287842
1783202588102175500,0.164175537109375,-0.7656058943286538,0.8044318840682506,1.824798429146409,1.3978937864303589,2.219588279724121,-0.7408226132392883
1783202588112112600,0.174112548828125,-0.7416491185493767,1.0686179502889512,2.708076470914483,1.4496839046478271,2.005821704864502,-0.7447853088378906
1783202588122049500,0.184049560546875,-0.6918414238072932,1.3482736805811524,3.5606723741710185,1.454914093017578,1.7416527271270752,-0.7704217433929443
1783202588131986400,0.193986328125,-0.6316813349422067,1.6854110012441872,4.24370899862349,1.392550706863403,1.4822980165481567,-0.7953420281410217
1783202588141923300,0.20392333984375,-0.4751502453416585,1.802491028009355,4.874648356091976,1.290111064910889,1.2886408567428589,-0.8089749813079834
1783202588151861500,0.213861572265625,-0.2617505461694672,1.9531649890795348,5.348509730666875,1.160165786743164,1.0585952997207642,-0.8131637573242188
1783202588161798400,0.22379833984375,-0.0029854272852651,2.1349127183273438,5.305613422748446,1.003271222114563,0.7342854738235474,-0.8052126169204712
1783202588171735600,0.233735595703125,0.2131044060200452,2.290185989886522,5.34510664422512,0.7854580879211426,0.4138951301574707,-0.7757341265678406
1783202588181672400,0.24367236328125,0.452267674665153,2.401664251121878,5.665170372751355,0.5365880727767944,0.1829317063093185,-0.7391383051872253
1783202588191609300,0.253609375,0.6778807029940187,2.4438059412807225,5.895891099482775,0.3314052820205688,0.0463004931807518,-0.6966180801391602
1783202588201546500,0.26354638671875,0.8679406257741152,2.454957742153108,5.894082588756084,0.1594020724296569,-0.0862852483987808,-0.6430075764656067
1783202588211484400,0.273484375,0.8756722429394721,2.554365918627381,5.7757233358353375,0.0241327807307243,-0.2409112602472305,-0.5874873995780945
1783202588221421600,0.283421630859375,0.8296662785679102,2.629928232350945,5.83892301159203,-0.0739194825291633,-0.3058729469776153,-0.551429033279419
1783202588231358500,0.2933583984375,0.7911302116855978,2.762229209123552,6.188188869205117,-0.1426330059766769,-0.253094881772995,-0.5159913301467896
1783202588241295600,0.303295654296875,0.7315932962201536,2.9682495021015405,6.387779129135608,-0.207499086856842,-0.1506542563438415,-0.462839126586914
1783202588251232500,0.313232421875,0.6501796261198818,3.193867937257885,6.52753948200345,-0.3038557469844818,-0.0810263305902481,-0.3837623596191406
1783202588261170400,0.32317041015625,0.6148378252342342,3.4175103961661457,6.4563517301023,-0.4900517463684082,-0.1138529852032661,-0.3041277229785919
1783202588271107300,0.333107421875,0.4976804954491555,3.674345515102148,6.065691201305389,-0.7745575308799744,-0.2868644297122955,-0.2557901740074157
1783202588281044500,0.34304443359375,0.4672554004386067,3.814390237869322,5.390525164097547,-1.1425600051879885,-0.5518404245376587,-0.2494255006313324
1783202588290981600,0.352981689453125,0.7372391931526362,3.619235914559662,4.474924815395474,-1.558574676513672,-0.8537337779998779,-0.2439626306295395
1783202588300918300,0.362918212890625,1.1178987716127189,3.19001827609241,3.4985651698261497,-1.9920008182525637,-1.0886011123657229,-0.2021802961826324
1783202588310855400,0.37285546875,1.4256361755944789,2.8258146693274377,2.6169343107432126,-2.418241024017334,-1.2662254571914673,-0.1064720228314399
1783202588320793300,0.38279345703125,1.5199239403150977,2.634244049723446,1.5952596056759356,-2.8124067783355717,-1.4531961679458618,0.0356939062476158
1783202588330730500,0.39273046875,1.43215695566535,2.471743164998293,0.3311608766019344,-3.1877260208129883,-1.617100477218628,0.1845915019512176
1783202588340667400,0.40266748046875,1.184163680158928,2.0693626800522207,-0.6489853017687797,-3.480277299880981,-1.647049069404602,0.3669916689395904
1783202588350603800,0.412603759765625,0.9265775236599146,1.5006265346489849,-1.528793621599674,-3.531710386276245,-1.5645394325256348,0.5246046185493469
1783202588360541000,0.422541015625,0.4122703761238604,1.0407828717716037,-2.791940164515376,-3.4303417205810547,-1.5516705513000488,0.5971177220344543
1783202588370477800,0.432477783203125,-0.3167245011009276,0.5138097924731672,-4.005118269169331,-3.2820258140563965,-1.5987303256988523,0.5764453411102295
1783202588380416000,0.442416015625,-0.8880391186900436,-0.1164189325079321,-4.897527711898088,-3.0332024097442627,-1.5400571823120115,0.5045090913772583
1783202588390353000,0.452352783203125,-1.1219976582989095,-0.6209450560681522,-5.796466848656535,-2.6700327396392822,-1.4526656866073608,0.4098753333091736
1783202588400289800,0.462289794921875,-1.0760672433815897,-0.9877898980569094,-6.800815155869722,-2.235356092453003,-1.35111403465271,0.2789543271064758
1783202588410227000,0.47222705078125,-0.8916958876319229,-1.0962683198891578,-7.61013890363276,-1.80669379234314,-1.25697124004364,0.1405065506696701
1783202588420163800,0.482163818359375,-0.6547048484593629,-1.211241729763895,-8.100352278071641,-1.408700704574585,-1.1498072147369385,0.0546584874391555
1783202588430101800,0.492101806640625,-0.4083053449504077,-1.403726395472884,-8.44323632569313,-1.0558586120605469,-1.0477399826049805,0.058564580976963
1783202588440039000,0.502038818359375,-0.2308222874097525,-1.6081100271597504,-8.776626568782328,-0.7184592485427856,-0.9248745441436768,0.1248964741826057
1783202588449976000,0.51197607421875,-0.1587004695288837,-1.7871005666539073,-8.965392067837715,-0.3619056344032287,-0.7749292850494385,0.2127008885145187
1783202588459912700,0.52191259765625,-0.192617790569365,-1.9694059297844768,-8.95059080454707,0.0410468652844429,-0.5583416223526001,0.3240178227424621
1783202588469849900,0.531849853515625,-0.4376344614177942,-2.092364200933277,-8.66254250896275,0.5071849822998047,-0.2923196852207184,0.4383513629436493
1783202588479787800,0.541787841796875,-0.8062658214971423,-2.0922348754651843,-8.284370874860882,0.9692609906196594,-0.0676394402980804,0.53330397605896
1783202588489725000,0.551724853515625,-1.1971848550997677,-2.0396185530431565,-7.838270198392868,1.4076292514801023,0.0736604556441307,0.5893266797065735
1783202588499661800,0.561661865234375,-1.5181022778458892,-1.9246717389144,-7.19379506752491,1.82511842250824,0.1630750149488449,0.6049506664276123
1783202588509599000,0.571598876953125,-1.797420300616324,-1.6512041957378387,-6.441129611051082,2.183444738388061,0.2030845433473587,0.557777464389801
1783202588519535900,0.581535888671875,-2.006320386814326,-1.263251318464428,-5.750050549918413,2.448151111602783,0.1995348185300827,0.4633923768997192
1783202588529473800,0.591473876953125,-2.060483646417409,-0.8720859088853001,-5.1309436690628525,2.622183561325073,0.1860919743776321,0.3467073440551758
1783202588539411000,0.601410888671875,-2.042788269120454,-0.5787500282868743,-4.738969135057926,2.7024736404418945,0.1601186990737915,0.2262302190065384
1783202588549347800,0.611347900390625,-2.0134047921173277,-0.5320066895514727,-4.437039029115439,2.72036361694336,0.1945779472589492,0.1130863055586814
1783202588559285000,0.621284912109375,-1.9800367755226789,-0.6194137548476457,-4.0414889747112985,2.6986682415008545,0.3212948739528656,0.0140830259770154
1783202588569222000,0.631221923828125,-1.9891442110858857,-0.5904831361785531,-3.540271975699067,2.6432044506073,0.5097736120223999,-0.0841210186481475
1783202588579158800,0.64115869140625,-2.012839997841417,-0.4357873722463846,-2.945935963484645,2.559356212615967,0.7317078709602356,-0.1769031435251236
1783202588589096700,0.6510966796875,-2.0608885739564893,-0.2838207410171627,-2.3670284065485,2.49672532081604,0.9758433699607848,-0.2466956079006195
1783202588599033900,0.661033935546875,-2.1795327812984584,-0.0387374346733093,-1.5018787266671656,2.469637393951416,1.279653549194336,-0.3209650218486786
1783202588608971000,0.670970947265625,-2.31477098056674,0.3615609833016991,-0.4697422488182783,2.453831434249878,1.5822436809539795,-0.4279753565788269
1783202588618908000,0.680907958984375,-2.360005522174388,0.7279153383597731,0.4225958822399377,2.427452802658081,1.812863111495972,-0.5764593482017517
1783202588628845000,0.690844970703125,-2.271874526517838,0.9792693955361844,1.2792302472323178,2.373329401016236,1.970895528793335,-0.722658097743988
1783202588638783000,0.700782958984375,-2.1280776116102933,1.2204980722784995,2.2150030308693647,2.2744712829589844,2.058313369750977,-0.8360158205032349
1783202588648720000,0.710719970703125,-1.995017340902984,1.5291843744829297,3.220557791262865,2.129167318344116,2.087944746017456,-0.8996908664703369
1783202588658656800,0.72065673828125,-1.820319237905741,1.8987530154123904,4.2142455882519485,1.963124632835388,2.066850423812866,-0.9244393110275269
1783202588668594000,0.730593994140625,-1.6050700749419629,2.2816756434336303,4.992068282335996,1.849342465400696,1.976992964744568,-0.91774982213974
1783202588678530800,0.74053076171875,-1.2982117188170552,2.593396783289313,5.495207773843408,1.7621451616287231,1.811118245124817,-0.913043737411499
1783202588688469000,0.750468994140625,-0.9393950657874344,2.93041895314008,5.965223578906059,1.654442548751831,1.6215959787368774,-0.905556619167328
1783202588698406000,0.760406005859375,-0.6269346518717706,3.255608354116976,6.438281820404529,1.4195948839187622,1.3726544380187988,-0.9134379625320436
1783202588708342800,0.7703427734375,-0.2810300873853266,3.355703928333521,6.592995412254333,1.150076150894165,1.0672603845596311,-0.9144850373268129
1783202588718280000,0.780280029296875,0.1335186819992959,3.3272423884809017,6.484574785023927,0.8877401351928711,0.7431303262710571,-0.8822996616363525
1783202588728216800,0.790216796875,0.4654501045823097,3.3203234028726816,6.345166314333677,0.6176482439041138,0.4305391907691955,-0.8136856555938721
1783202588738155000,0.800155029296875,0.7363247086562216,3.427241808846593,6.333270124834775,0.3231004774570465,0.1838625967502594,-0.7274456024169922
1783202588748092000,0.810091796875,1.0004380019016563,3.5101375341981647,6.466435317221284,0.0455862395465374,0.0324579924345016,-0.6251941323280334
1783202588758029000,0.820029052734375,1.120444145246595,3.626132980597019,6.539480095165968,-0.1635661721229553,-0.0590492859482765,-0.521005392074585
1783202588767965700,0.829965576171875,1.1508557962536812,3.91158892160058,6.572334901541471,-0.3262958824634552,-0.112616591155529,-0.4252433776855469
1783202588777902800,0.83990283203125,1.21340533753857,4.243743485414981,6.698247346320748,-0.471669852733612,-0.1392015963792801,-0.3356940746307373
1783202588787840800,0.8498408203125,1.3675490205459295,4.503420257517695,6.7825365718573325,-0.6104035377502441,-0.1992177963256836,-0.2602522373199463
1783202588797778000,0.85977783203125,1.5053198070317506,4.601805812945962,6.563550122061371,-0.7481124401092529,-0.3620932400226593,-0.1751197427511215
1783202588807714800,0.86971484375,1.6110206539094447,4.5794320685744285,6.119484750813245,-0.9136870503425598,-0.6673932671546936,-0.071437194943428
1783202588817652000,0.87965185546875,1.78879275752455,4.50204896916449,5.61853546282649,-1.1163716316223145,-1.079950928688049,0.0485493950545787
1783202588827590000,0.88958984375,1.9924819772064684,4.308869160798192,5.017955003264546,-1.3588297367095947,-1.5700727701187134,0.1991356760263443
1783202588837526800,0.89952685546875,1.9685422986924648,3.968458517552912,4.15653866469264,-1.65997314453125,-2.0997588634490967,0.3849596083164215
1783202588847464000,0.9094638671875,1.8915197031579911,3.4112811463877555,3.1021716503351926,-1.994990348815918,-2.619994163513184,0.6272324919700623
1783202588857400800,0.91940087890625,1.6936074594423174,2.766628028604388,1.7752344800323248,-2.3259801864624023,-2.888221740722656,0.8936708569526672
1783202588867338000,0.929337890625,1.0691250230282543,2.102631620186567,0.9146580994158984,-2.5663387775421143,-2.857678174972534,1.1188994646072388
1783202588877276000,0.93927587890625,0.3002819734092801,1.51648271382004,-0.7494459099054336,-2.627155542373657,-2.8211045265197754,1.2662460803985596
1783202588887213000,0.949213134765625,-0.3757594583936035,0.8363611000314355,-3.0231641645938154,-2.4942750930786133,-2.791234254837036,1.2966415882110596
1783202588897149700,0.959149658203125,-0.8409588030852377,-0.0060422027736902,-4.575255659672617,-2.254277229309082,-2.531425952911377,1.2477600574493408
1783202588907086800,0.9690869140625,-1.1597577723726629,-0.8097834742292761,-5.310580105245113,-1.99226188659668,-2.047323942184448,1.1539775133132937
1783202588917024000,0.97902392578125,-1.596233273013681,-1.453430629840493,-5.813265423244237,-2.009345054626465,-1.554342269897461,1.018332600593567
1783202588926962000,0.9889619140625,-1.763230738505721,-2.117064634686708,-6.130123049205541,-1.8854176998138428,-0.9591822624206544,0.8790209889411926
1783202588936899000,0.998899169921875,-1.6637160329170524,-2.430658582676947,-6.84906685334146,-1.4927942752838137,-0.4284030795097351,0.7115355730056763
1783202588946835700,1.008835693359375,-1.563783101916313,-2.5499080624356862,-7.644853658661246,-1.0702157020568848,-0.1081471741199493,0.5240544676780701
1783202588956772900,1.01877294921875,-1.3151001636452972,-2.8646353983700275,-7.880296737739443,-0.6911426782608032,0.116581805050373,0.4035198092460632
1783202588966709800,1.028709716796875,-1.0877737555272875,-3.061607000234723,-7.671935726854205,-0.3222446143627167,0.3099129498004913,0.3345173299312591
1783202588976648000,1.03864794921875,-1.111422196009755,-2.8912802441895007,-7.2058420636713505,-0.0356725081801414,0.4353374540805816,0.3383972942829132
1783202588986584800,1.048584716796875,-1.13097679130733,-2.577170455631613,-6.410886448478698,0.1960541307926178,0.5338818430900574,0.3580168783664703
1783202588996522000,1.05852197265625,-1.039056340239942,-2.345477230606228,-5.692495602050423,0.4502004086971283,0.5969226360321045,0.3915607333183288
1783202589006459000,1.068458984375,-0.8716922333925962,-2.2012219044066965,-5.110053441247343,0.7205097675323486,0.6126779317855835,0.4178354442119598
1783202589016396800,1.078396728515625,-0.8586720082998275,-1.953131379070878,-4.51327705014348,1.008434534072876,0.5702281594276428,0.4175853729248047
1783202589026333700,1.088333740234375,-0.9807628489643336,-1.6118842850014568,-3.879891468566656,1.267180323600769,0.4821730256080627,0.4021645188331604
1783202589036270800,1.098270751953125,-1.2453390835464,-1.2753092743963002,-3.1250814012795685,1.446061372756958,0.4260881841182709,0.3576012849807739
1783202589046208000,1.1082080078125,-1.5227600405238568,-0.9011270021915436,-2.304115731039643,1.5243951082229614,0.4010046720504761,0.2929590940475464
1783202589056145000,1.118144775390625,-1.6015141360260543,-0.6557125641971826,-1.7578572287738323,1.5154117345809937,0.3726262748241424,0.2267177402973175
1783202589066083000,1.1280830078125,-1.545703839868307,-0.5740411199435591,-1.4570295311152934,1.4486409425735474,0.3161309361457824,0.1763061434030532
1783202589076019700,1.138019775390625,-1.4334613162621854,-0.4880214173525571,-1.354593238991499,1.3505666255950928,0.2422050386667251,0.1214037463068962
1783202589085956900,1.147956787109375,-1.2953298797704278,-0.3754980309784412,-1.378541685333848,1.241852879524231,0.1677879840135574,0.0710561424493789
1783202589095893800,1.157893798828125,-1.1788611167713998,-0.4024059116482734,-1.4776935489594936,1.1407262086868286,0.1401443630456924,0.0378055125474929
1783202589105832000,1.16783203125,-1.1054930982217193,-0.4634212291032075,-1.4988298604905606,1.0622750520706177,0.2063922733068466,0.0151345422491431
1783202589115768800,1.177768798828125,-1.126586447393894,-0.3852697756692766,-1.4174527230083942,0.9915189146995544,0.2999754846096039,-0.0183003786951303
1783202589125706000,1.1877060546875,-1.1853142384335398,-0.2954693854957819,-1.4103151262134312,0.9304084777832032,0.3842052519321441,-0.0717618241906166
1783202589135643000,1.197642822265625,-1.189026390824467,-0.3595028817281127,-1.4065776932507752,0.9232954382896424,0.4790140688419342,-0.137979194521904
1783202589145579800,1.207579833984375,-1.1123268897645175,-0.4621183298110962,-1.337091484570503,0.9880728721618652,0.6068517565727234,-0.2167299836874008
1783202589155517700,1.217517578125,-1.0831260758519172,-0.4903685650005936,-1.0561147348076103,1.1016018390655518,0.77132248878479,-0.3069837093353271
1783202589165454800,1.227454833984375,-1.1132213543862104,-0.2752802916869521,-0.5378016395658254,1.2204087972640991,0.964284598827362,-0.4203858077526092
1783202589175392000,1.23739208984375,-1.0397143657572567,0.0579451162293553,0.1825350802332162,1.3145486116409302,1.14329195022583,-0.5251575112342834
1783202589185329000,1.247328857421875,-0.8931254820436239,0.3949693319067359,0.997994554272294,1.367275357246399,1.2800626754760742,-0.6055505871772766
1783202589195267000,1.25726708984375,-0.7159241640537977,0.7310474989056587,1.8339771763801571,1.3850796222686768,1.3513211011886597,-0.646528959274292
1783202589205203700,1.26720361328125,-0.5532326521273702,1.122666643601656,2.56621067019999,1.3786709308624268,1.3521653413772583,-0.6642612218856812
1783202589215140900,1.277140869140625,-0.3805547298461199,1.459053730419278,3.2761060754835603,1.2972402572631836,1.289576292037964,-0.6632089614868164
1783202589225077800,1.287077880859375,-0.2033939630623907,1.728474482423067,4.0314696850001805,1.1070067882537842,1.1839447021484375,-0.6491233110427856
1783202589235015000,1.297014892578125,-0.0439351494468748,1.965599230977893,4.742946806517243,0.8579041361808777,1.0725492238998413,-0.638330340385437
1783202589244952800,1.306952880859375,0.0287104000471532,2.1751389302536843,5.275291349720955,0.6171320676803589,0.9539612531661988,-0.6272387504577637
1783202589254890000,1.316889892578125,0.109807697674632,2.378313186150789,5.578426739799976,0.3901093006134033,0.7979652881622314,-0.6192732453346252
1783202589264827000,1.326826904296875,0.2741930992384441,2.5353373930305243,5.645065742355585,0.1403793692588806,0.5826061367988586,-0.5996285676956177
1783202589274763800,1.336763671875,0.5350643235564232,2.623015091961622,5.573888511848449,-0.1267333030700683,0.2903588116168976,-0.562914252281189
1783202589284702000,1.346701904296875,0.8382295242518186,2.6610043386161326,5.420935499930382,-0.3581332564353943,-0.0166172087192535,-0.4973256886005401
1783202589294638800,1.356638916015625,1.1064917538702488,2.7541099078148603,5.377330751481652,-0.5364177823066711,-0.2559525370597839,-0.4023562967777252
1783202589304576000,1.366575927734375,1.3035389051891864,2.909704666413367,5.469737232500314,-0.6892275214195251,-0.4228571057319641,-0.2829082310199737
1783202589314513000,1.376512939453125,1.3747279722645878,3.024575200435519,5.3612184055924414,-0.84151691198349,-0.640581488609314,-0.1575655192136764
1783202589324451000,1.386451171875,1.301005002797395,3.011725655734539,4.976809338405728,-1.0009121894836426,-0.8806269764900208,-0.0352140367031097
1783202589334387700,1.3963876953125,1.269503802987933,2.9104931864425536,4.782478021916747,-1.179493069648743,-1.046266794204712,0.0760379210114479
1783202589344325400,1.406325439453125,1.2402972899869085,2.7654256670773028,4.526401904654502,-1.4110040664672852,-1.1764395236968994,0.1701300293207168
1783202589354262300,1.41626220703125,1.0876869540266692,2.58033827201277,4.008558180490136,-1.7244665622711182,-1.307150959968567,0.2485838383436203
1783202589364199200,1.42619921875,0.8293595507062971,2.3421707364067434,3.2339158700078725,-2.0343668460845947,-1.371815204620361,0.3089138865470886
1783202589374137000,1.43613720703125,0.6255865982636809,2.056390385754406,2.399396306189894,-2.263950824737549,-1.3121899366378784,0.3596010208129883
1783202589384074200,1.44607421875,0.5864123796083033,1.6499115255787968,1.286149232840538,-2.3586130142211914,-1.224122405052185,0.3983059823513031
1783202589394011100,1.45601123046875,0.4952445735391229,1.109933711017668,-0.1613543450385332,-2.3274593353271484,-1.1864676475524902,0.459133118391037
1783202589403948300,1.4659482421875,0.3188018918968737,0.4995034730926155,-1.3089672138482331,-2.1952545642852783,-1.0941580533981323,0.5386866927146912
1783202589413886200,1.47588623046875,0.0133230074316263,-0.0287131765261292,-1.8071160574615,-2.0098743438720703,-0.9239751696586608,0.6106681823730469
1783202589423823400,1.4858232421875,-0.5177189287409186,-0.4090019489124417,-2.219455334103108,-1.8115466833114624,-0.7678582072257996,0.6274454593658447
1783202589433760300,1.49576025390625,-1.081163689737767,-0.6828685744091868,-2.8044109390318392,-1.6222516298294067,-0.7279004454612732,0.5609639286994934
1783202589443697200,1.505697265625,-1.3819646455198529,-1.0902961136117575,-3.4492449663400646,-1.4472644329071045,-0.7819955945014954,0.4561783075332641
1783202589453635300,1.51563525390625,-1.4334068095959722,-1.6336191469475625,-3.860097803816199,-1.282600164413452,-0.8859459757804871,0.3436520397663116
1783202589463572200,1.525572265625,-1.340116969871521,-2.044742618058622,-4.18669590254724,-1.1099933385849,-1.0145089626312256,0.2486655265092849
1783202589473509400,1.53550927734375,-1.2396689289554952,-2.187185488008708,-4.472875481650233,-0.9247909188270568,-1.1453604698181152,0.1926107704639434
1783202589483446300,1.5454462890625,-1.184775747642666,-2.1015147449858484,-4.5110085206896064,-0.7488113045692444,-1.2150007486343384,0.1861234903335571
1783202589493384400,1.555384521484375,-1.0637718254320323,-1.92989867978245,-4.627955568724871,-0.5843735933303833,-1.2503838539123535,0.1851154863834381
1783202589503321000,1.565321044921875,-1.0474594269260764,-1.9079761863097544,-5.059740135070681,-0.4298565089702606,-1.1904792785644531,0.1515109837055206
1783202589513258200,1.57525830078125,-1.1908039218910038,-1.9810694795712829,-5.206176896962523,-0.3002625703811645,-0.9448511004447936,0.0703016147017479
1783202589523195400,1.5851953125,-1.495726487647742,-1.8684242203831671,-5.138440162298083,-0.1916088908910751,-0.5850833654403687,-0.0312913954257965
1783202589533132300,1.59513232421875,-1.7952819734133778,-1.5872148309081793,-5.053433143880963,-0.0558595694601535,-0.1733848005533218,-0.1318680644035339
1783202589543070200,1.6050703125,-1.9775529958829283,-1.260674892105162,-4.891660281169414,0.1544459015130996,0.1923629939556121,-0.2183137685060501
1783202589553007400,1.61500732421875,-1.962120448951423,-1.08288788318187,-4.976942024874687,0.3785461187362671,0.411442369222641,-0.2763427197933197
1783202589562944300,1.6249443359375,-1.7200588285163043,-1.1454723496496677,-4.863252517330646,0.538640558719635,0.5203854441642761,-0.3018107712268829
1783202589572881200,1.634881103515625,-1.350230075345933,-1.242676001816988,-4.64854710585475,0.6644357442855835,0.5496072769165039,-0.3062920570373535
1783202589582819300,1.6448193359375,-1.0289052408427,-1.2617746700406074,-4.537575040575861,0.8139400482177734,0.5376721620559692,-0.3019166886806488
1783202589592756200,1.654756103515625,-0.8236769750252365,-1.2200617266878484,-4.471775995975732,1.0034288167953491,0.5354250073432922,-0.3009382486343384
1783202589602693400,1.664693359375,-0.8104366774410009,-1.1618366244733334,-4.3168391167640685,1.2056869268417358,0.5854405164718628,-0.3229802548885345
1783202589612630300,1.67463037109375,-0.9256190538913012,-1.0275129097014666,-4.105761832657456,1.4200719594955444,0.7095430493354797,-0.3751462399959564
1783202589622568400,1.684568359375,-1.1132447352617978,-0.7823170828938484,-3.7618303218096494,1.6462920904159546,0.8984674215316772,-0.45102459192276
1783202589632505000,1.694505126953125,-1.2088159639216958,-0.4926087451428175,-3.1582594482600688,1.856142520904541,1.1257394552230835,-0.5144336223602295
1783202589642442200,1.704442138671875,-1.160505375869572,-0.1945151486232876,-2.2887942432671786,1.9938139915466309,1.3379195928573608,-0.557671844959259
1783202589652379400,1.71437939453125,-1.0630097550183537,0.1153013266548514,-1.310791506665945,2.054615974426269,1.5241345167160034,-0.5885940790176392
1783202589662317300,1.7243173828125,-0.9201448602639138,0.4402183404311537,-0.3383522494107485,2.072322130203247,1.675384521484375,-0.6097252368927002
1783202589672254200,1.734254150390625,-0.8020109405316412,0.7685933857068419,0.6213514449119567,2.07289457321167,1.787905216217041,-0.6069994568824768
1783202589682191000,1.744191162109375,-0.7621204633656888,1.1495540660053492,1.6395914993554352,2.058422327041626,1.844344973564148,-0.6060037016868591
1783202589692128300,1.754128173828125,-0.7601596846867352,1.5328542951673267,2.693657484939694,2.0150742530822754,1.833949327468872,-0.618026852607727
1783202589702066200,1.764066162109375,-0.6872169058118015,1.9233140406951308,3.6031998487770553,1.9382246732711792,1.7347462177276611,-0.6399754881858826
1783202589712003300,1.77400341796875,-0.4852053370185196,2.131302418875694,4.270757164546847,1.805688500404358,1.5258101224899292,-0.6708093285560608
1783202589721940200,1.783940185546875,-0.2011028564505279,2.236718603593111,4.8146325710684055,1.564290165901184,1.231935977935791,-0.6842724084854126
1783202589731877400,1.79387744140625,0.0938921895317733,2.2762635552570223,5.315356233605742,1.2613704204559326,0.9362438321113586,-0.6871858835220337
1783202589741815300,1.803815185546875,0.2862907843925059,2.382786239911616,5.708770445024967,0.9699456691741944,0.6828962564468384,-0.6746287941932678
1783202589751752200,1.813752197265625,0.398984412766993,2.5712492488890883,5.906192128744721,0.6900985836982727,0.4547256827354431,-0.6463268399238586
1783202589761689000,1.823689208984375,0.4892584118016064,2.782361312048137,5.99312222417891,0.406852662563324,0.2953260838985443,-0.5941307544708252
1783202589771626200,1.833626220703125,0.5612193400323391,2.876339280167222,6.266134278672933,0.1112889125943183,0.1829404085874557,-0.5436891913414001
1783202589781564200,1.843564208984375,0.6476319874636829,3.003306202435493,6.306484993761777,-0.1644420623779297,0.0728909745812416,-0.5028936266899109
1783202589791501300,1.853501220703125,0.8298023260377347,3.1163948214769364,6.257734114596247,-0.4143211543560028,-0.0605539046227932,-0.4536951780319214
1783202589801438200,1.863438232421875,0.9797608323149384,3.216419376283884,6.1748833974301816,-0.6374821662902832,-0.2243736684322357,-0.3866964876651764
1783202589811375000,1.873375,1.1634180484458805,3.3054324154719708,6.165530462673306,-0.8640535473823547,-0.3861718773841858,-0.308677077293396
1783202589821312300,1.883312255859375,1.2857874137908218,3.339441360318661,6.1098190968453885,-1.1251567602157593,-0.6141800284385681,-0.2143420875072479
1783202589831250200,1.893250244140625,1.31381319257468,3.3347266067564485,5.917226148456335,-1.4078786373138428,-0.8875293135643005,-0.1153486594557762
1783202589841187300,1.903187255859375,1.3235831836998462,3.2824776563420888,5.783018169018626,-1.6933847665786743,-1.1501529216766355,-0.0482528954744339
1783202589851124200,1.913124267578125,1.2673125765539706,3.189046508450806,5.543536628204584,-1.9688842296600344,-1.3919601440429688,-0.0141196940094232
1783202589861062400,1.9230625,1.17300691085048,3.054518503278494,5.245053447845578,-2.2305054664611816,-1.6023024320602417,-0.0117140552029013
1783202589870999300,1.932999267578125,1.0407110486444084,2.9277453500166533,4.857161799240112,-2.4802944660186768,-1.733120679855347,-0.0192505344748497
1783202589880936200,1.942936279296875,0.8634543472055345,2.7880066244587303,4.6687464287966485,-2.736192226409912,-1.7594037055969238,-0.0166558716446161
1783202589890873000,1.952873046875,0.5994431991603225,2.709611717657745,4.332302058833838,-2.986748218536377,-1.7021121978759766,0.0021833300124853
1783202589900811300,1.962811279296875,0.377107804262638,2.5647479041710493,3.83863006837368,-3.221687793731689,-1.5274797677993774,0.0818447023630142
1783202589910748200,1.972748046875,0.5776989117987453,1.838561873821914,3.4044384408861394,-3.444100379943848,-1.1861554384231567,0.2656715214252472
1783202589920685300,1.982685302734375,0.4575491221994161,1.902589817096293,2.5806828476667403,-3.676384449005127,-0.9261071085929872,0.3736766278743744
1783202589930622500,1.99262255859375,-0.1441229319915175,2.374906008055806,1.647501834088564,-3.9745497703552246,-0.7623661160469055,0.4047559797763824
1783202589940560400,2.002560302734375,-0.5840731230057775,2.4338240609705446,1.026111226209998,-4.083812236785889,-0.5221303701400757,0.4111824929714203
1783202589950497000,2.0124970703125,-0.9839049463823436,2.3213608803510666,0.1965115831375121,-3.983023643493652,-0.3054292798042297,0.3720526695251465
1783202589960434200,2.02243408203125,-1.161113570895791,1.7576631675064562,-0.9534177459210156,-3.817353010177612,-0.3048167824745178,0.3586389720439911
1783202589970371300,2.032371337890625,-1.13550435173437,0.9158322577618062,-2.5951871738374237,-3.613634824752808,-0.6031201481819153,0.3602752387523651
1783202589980309200,2.042309326171875,-1.1123780354298651,0.2557429397851228,-4.506262787467241,-3.348407745361328,-1.0593267679214478,0.3311692476272583
1783202589990246400,2.052246337890625,-1.3484012524835765,-0.1582077906411141,-6.205356277105212,-3.056910276412964,-1.489690184593201,0.245560348033905
1783202590000183300,2.062183349609375,-1.95298364116326,-0.4187020896717905,-7.901549953648447,-2.7426137924194336,-1.725929856300354,0.1170724034309387
1783202590010120200,2.0721201171875,-2.5497946651890877,-0.604388254347071,-9.514620525825023,-2.365343809127808,-1.6150950193405151,-0.0727832838892936
1783202590020058000,2.08205810546875,-2.683665667757392,-0.6045783700916916,-10.729823998826742,-1.9202880859375,-1.1463578939437866,-0.3048358559608459
1783202590029995300,2.091995361328125,-2.201078112021833,-0.4344599230349064,-11.9213403067708,-1.4269124269485474,-0.5046688318252563,-0.5150415301322937
1783202590039932200,2.10193212890625,-1.3580837114557622,-0.3108716834194958,-12.881022373783589,-0.9211376309394836,0.1545874923467636,-0.5912023186683655
1783202590049869300,2.111869384765625,-0.4507948256336152,-0.4310226420626044,-13.279822954416272,-0.4217057228088379,0.7720866799354553,-0.4879014790058136
1783202590059807200,2.12180712890625,0.2911659892134368,-0.6565345481045544,-12.8225491420269,0.1102222800254821,1.3224124908447266,-0.2593587636947632
1783202590069744400,2.131744384765625,0.5953066108122468,-0.8429575026217847,-12.032663669705393,0.6431338787078857,1.6685811281204224,0.0193469002842903
1783202590079681300,2.141681396484375,0.5662419904999435,-1.1493796592865138,-11.058453895646332,1.1322826147079468,1.8222098350524905,0.287528783082962
1783202590089618200,2.1516181640625,0.340483854611963,-1.5582959026768803,-9.866219794821738,1.5694292783737185,1.8005170822143557,0.4940893948078155
1783202590099556000,2.16155615234375,-0.1007099067226052,-1.795686462561041,-8.734313613709807,1.930180549621582,1.6216981410980225,0.6037886738777161
1783202590109493200,2.1714931640625,-0.6951144541285932,-1.7973272155053912,-7.701122073850035,2.2324347496032715,1.3682035207748413,0.6118079423904419
1783202590119430400,2.181430419921875,-1.2994542662240565,-1.6442838949553666,-6.981009225934743,2.5135886669158936,1.155931830406189,0.5196422338485718
1783202590129367300,2.1913671875,-1.7562874952390788,-1.2796649853877722,-6.422704312044382,2.787150382995605,1.0554242134094238,0.3773543834686279
1783202590139305500,2.201305419921875,-2.116680165413767,-0.7911904905054717,-5.83073619800508,3.0433483123779297,1.0974173545837402,0.2191088497638702
1783202590149242000,2.2112421875,-2.3715128584861755,-0.3490922911444679,-5.411798253750801,3.2933170795440674,1.248235106468201,0.0650116950273513
1783202590159179300,2.22117919921875,-2.5318419521301982,0.0262558465018868,-5.129156785646081,3.521350383758545,1.444480299949646,-0.071891039609909
1783202590169116200,2.2311162109375,-2.66946616975218,0.4831452626835554,-5.072724119806289,3.727324962615967,1.6697921752929688,-0.2052355110645294
1783202590179054300,2.241054443359375,-2.892581682176888,0.9495731993220746,-4.962917591175437,3.893126010894776,2.035585403442383,-0.3170385658740997
1783202590188991200,2.2509912109375,-3.183422238828242,1.33672440482378,-4.181608224019408,3.99353289604187,2.550184488296509,-0.3263316750526428
1783202590198928400,2.260928466796875,-2.866285211403668,0.9288483912013472,-2.9083284096241,4.141168117523193,3.172857999801636,-0.1297910809516906
1783202590208865300,2.270865234375,-3.217641903816163,1.715678713735938,-2.644767489564418,4.280557155609131,3.452067852020264,-0.0830491483211517
1783202590218803200,2.28080322265625,-3.7294425484240055,2.887374468922615,-2.513312608227133,4.291739463806152,3.523579359054565,-0.2621043622493744
1783202590228740000,2.290739990234375,-3.569953412735462,3.2819249908953902,-1.4837176315546037,4.197793960571289,3.4107491970062256,-0.5013616681098938
1783202590238677200,2.30067724609375,-3.105839817453921,3.179874190957844,-0.3522843286514282,4.104456424713135,3.097517251968384,-0.6508548855781555
1783202590248615200,2.310615234375,-2.5526813265413044,3.054857233713567,0.6524860033661126,3.946497440338135,2.567453384399414,-0.6943403482437134
1783202590258552300,2.32055224609375,-1.967783589279652,2.8652339487850664,1.1468214261710643,3.653959035873413,1.7861355543136597,-0.7097592353820801
1783202590268489500,2.330489501953125,-1.488943403378874,2.517164315219224,2.225738944417238,3.208155632019043,1.3055795431137085,-0.7025372982025146
1783202590278426000,2.340426025390625,-0.8799315078191459,2.572488435295224,3.715497609701752,2.7806918621063232,1.0414648056030271,-0.6834717988967896
1783202590288364300,2.3503642578125,-0.94881259021312,2.7858739963442085,4.39376745814383,2.456819772720337,0.8241026997566223,-0.6895304918289185
1783202590298301200,2.36030126953125,-1.1051286488234997,3.0898622038602825,4.578591526097059,2.2464730739593506,0.4851484000682831,-0.7398398518562317
1783202590308238300,2.37023828125,-1.0262316377192735,3.3349019633233543,4.602874318960309,2.1283047199249268,-0.0238248296082019,-0.8373629450798035
1783202590318175200,2.38017529296875,-0.8868319348573684,3.350253846234083,4.746072829583287,2.040769100189209,-0.6381034255027771,-0.9396771788597108
1783202590328113400,2.390113525390625,-0.7502800226420163,3.425396473240852,5.16470389984548,1.9900935888290403,-1.2304350137710571,-1.0421385765075684
1783202590338050300,2.40005029296875,-0.6890609993085265,3.597374503624439,5.59354422943294,1.926613569259644,-1.854020595550537,-1.074726700782776
1783202590347986700,2.409986572265625,-1.404758807260543,3.4503228247046467,5.37151534320116,1.7151495218276978,-2.758544921875,-0.9540483951568604
1783202590357923800,2.419923828125,-1.6479289734594522,4.618563471001386,5.544863492894172,1.4021581411361694,-3.433052062988281,-1.2383321523666382
1783202590367861800,2.42986181640625,-1.3104505842737852,5.478062577775121,5.981812310135364,1.1684889793395996,-3.941338777542114,-1.5671449899673462
1783202590377799000,2.439798828125,-1.0535052829615772,5.623630155616999,6.098897889858484,0.968856155872345,-4.368350505828857,-1.9143133163452148
1783202590387735600,2.449735595703125,-0.7709802808433771,5.726925110396743,6.181799460428953,0.7422424554824829,-4.693086624145508,-2.2270586490631104
1783202590397672700,2.459672607421875,-0.3370705390371382,6.062837565439939,6.676594317439198,0.3308300971984863,-4.430108070373535,-2.531746625900269
1783202590407610600,2.469610595703125,0.2583373401924967,6.344146323636174,7.593404626452922,-0.1470501720905304,-3.635663986206055,-2.7210066318511963
1783202590417547800,2.4795478515625,0.4759273671939968,5.8586997252076864,7.696790182125568,-0.5219689011573792,-2.728633403778076,-2.6577162742614746
1783202590427484700,2.489484619140625,0.4977380708552896,5.170588281708955,7.622003528949618,-0.8681420087814331,-1.8801077604293823,-2.409477949142456
1783202590437422800,2.4994228515625,0.4568997914452105,4.2035628661960365,7.286748076510429,-1.1832283735275269,-1.2382209300994873,-2.051067352294922
1783202590447359700,2.50935986328125,0.4633614617399871,3.3042268390744924,6.971913480809331,-1.5190492868423462,-0.6433306336402893,-1.644733428955078
1783202590457296600,2.519296630859375,0.875426451484859,2.6108921079695224,6.1816924929231405,-1.8431259393692017,-0.6374700665473938,-1.1820932626724243
1783202590467233500,2.529233642578125,2.6825454315558077,1.632135922652483,2.18375449064672,-2.0240604877471924,-1.4104081392288208,-0.5981509685516357
1783202590477171700,2.539171630859375,3.9274528456866737,1.025870987713337,1.0377835438251497,-2.0474650859832764,-1.634130358695984,0.0654829740524292
1783202590487108600,2.549108642578125,2.506910924491286,1.1916647765040398,3.435072648602724,-2.031981945037842,-1.4606856107711792,0.7201127409934998
1783202590497045800,2.559045654296875,1.3045849071107805,1.6696990528494118,4.0205449708819385,-2.101389646530152,-1.399336576461792,1.266467571258545
1783202590506983000,2.56898291015625,0.123931500095129,2.521292501065135,3.652718789705634,-2.250516414642334,-1.5878678560256958,1.703565239906311
1783202590516920800,2.5789208984375,-0.6794000215157866,3.1918373082131146,3.793914728334546,-2.5036492347717285,-1.611117601394653,1.8099219799041748
1783202590526857700,2.588857666015625,-0.8395780162513256,4.000803620840609,3.972566829654574,-2.763781785964966,-1.6947712898254397,1.663512945175171
1783202590536794600,2.598794677734375,-0.6342503086473792,3.506416760109365,3.3307916053950786,-2.9371886253356934,-1.841091513633728,1.4682399034500122
1783202590546731800,2.608731689453125,-0.2029479728605598,2.768644336862862,2.892900538867712,-3.184443950653076,-2.0143933296203613,1.2460854053497314
1783202590556669700,2.618669677734375,0.0822141362955793,2.3634163535311816,2.0524124220341444,-3.5811543464660645,-2.4915568828582764,1.1090291738510132
1783202590566606800,2.62860693359375,0.4516848332758992,2.1533111293271183,0.8908721501588821,-4.137248992919922,-3.1123220920562744,1.1135482788085938
1783202590576543700,2.638543701171875,1.153789511618018,1.394360308973491,0.0738543407618999,-4.572201251983643,-3.0640008449554443,1.3774734735488892
1783202590586482000,2.64848193359375,0.8011794581435621,0.0479265571705996,-0.1138005667030811,-5.195859432220459,-2.751962900161743,1.701896071434021
1783202590596418600,2.65841845703125,-1.1626710294708609,-0.0387917952090501,-2.25943546231389,-5.561585426330566,-2.4205782413482666,1.868337154388428
1783202590606355700,2.668355712890625,-2.7000919019013643,0.2903480969592928,-4.076386685091257,-5.519771575927734,-1.7653536796569824,1.8011503219604492
1783202590616292600,2.678292724609375,-3.8069665176093577,0.4928292560257017,-5.077061272227764,-5.166412830352783,-1.1344554424285889,1.5300205945968628
1783202590626230800,2.688230712890625,-4.190624181906879,0.454129449949041,-6.429977517917752,-4.64925479888916,-0.8698008060455322,1.2025351524353027
1783202590636167700,2.698167724609375,-3.3669226569622754,-0.0759213836937677,-7.749915038591623,-3.958592176437378,-0.9357169270515442,0.94258850812912
1783202590646104800,2.708104736328125,-2.2777955871298907,-0.4619058561041951,-9.014825084048509,-3.1685879230499268,-1.2290961742401123,0.782230019569397
1783202590656041700,2.718041748046875,-1.7254241549417375,-0.4996974612947553,-9.925148953652382,-2.329052209854126,-1.393572449684143,0.6251291036605835
1783202590665979600,2.727979736328125,-1.6322671478167174,-0.6259777895383536,-10.240742843288183,-1.5381923913955688,-1.309345245361328,0.4804036319255829
1783202590675916500,2.73791650390625,-1.5044360099345444,-1.0325842216163874,-10.083650247347354,-0.8540876507759094,-0.9941262006759644,0.3556855618953705
1783202590685853700,2.747853759765625,-1.1886249704167249,-1.310891898300499,-9.864214884740113,-0.2711219191551208,-0.6437122225761414,0.2353128045797348
1783202590695791600,2.75779150390625,-0.6842194044962525,-1.3503794206887485,-9.71643781415522,0.2343824356794357,-0.3384301662445068,0.1567770540714264
1783202590705728800,2.767728759765625,-0.1958119104355573,-1.2106296622801571,-9.177699186000227,0.6994087100028992,-0.096413530409336,0.1985791027545929
1783202590715666000,2.777666015625,-0.1146452008336782,-1.0537039473388343,-8.537818981707096,1.1424497365951538,0.1006643995642662,0.2919773459434509
1783202590725602600,2.7876025390625,-0.5767746365606784,-0.7346405549615621,-7.762227407675981,1.5737571716308594,0.3497378528118133,0.3492885529994964
1783202590735540700,2.797540771484375,-1.2044818802401422,-0.4636027231499552,-6.814221749931574,1.965576767921448,0.6354391574859619,0.3377537131309509
1783202590745477600,2.8074775390625,-1.5565326923966407,-0.4067154819430783,-5.911632858493924,2.28090238571167,0.8807095885276794,0.2664931118488312
1783202590755414800,2.817414794921875,-1.711538545191288,-0.42720052649118,-5.243050291329622,2.5554866790771484,1.0359289646148682,0.1573862135410308
1783202590765352700,2.827352783203125,-1.7677686741963028,-0.4302161845179274,-4.922034376645088,2.8024184703826904,1.0662479400634766,-0.00698116235435
1783202590775289900,2.837289794921875,-1.7550730048827825,-0.2921831486330367,-4.643769223928452,2.990439891815185,1.06129252910614,-0.1809204369783401
1783202590785226800,2.847226806640625,-1.582707582616806,-0.0417423155777156,-4.266475541704893,3.099900484085083,1.0233092308044434,-0.2897473275661468
1783202590795163600,2.85716357421875,-1.519398016744852,0.226294142460823,-4.0560716268152,3.153428554534912,0.9699753522872924,-0.3236428201198578
1783202590805101600,2.8671015625,-1.8055555301465092,0.4301701168864965,-3.758274090632796,3.172415971755981,0.9730031490325928,-0.308786928653717
1783202590815038700,2.877038818359375,-2.2247848585627974,0.5880068091928958,-3.327099765139818,3.1499481201171875,1.0836703777313232,-0.284231573343277
1783202590824975600,2.8869755859375,-2.555464819779992,0.6934209480836987,-2.954572274404764,3.088620662689209,1.3030152320861816,-0.2805097997188568
1783202590834912800,2.896912841796875,-2.5889333741396663,0.6915132147662341,-2.7590315821260214,3.0177578926086426,1.5699292421340942,-0.3309573531150818
1783202590844850700,2.9068505859375,-2.543017133878171,0.8628172914110124,-2.6931629794210195,2.94702410697937,1.8654152154922483,-0.4353119730949402
1783202590854787800,2.916787841796875,-2.36463215906173,1.0974985923364755,-2.497823362672329,2.949745416641236,2.1337735652923584,-0.5452665090560913
1783202590864724700,2.926724853515625,-2.1576523734018207,1.347645319549739,-2.081694630619884,3.0120835304260254,2.3765645027160645,-0.6447648406028748
1783202590874662700,2.93666259765625,-1.8313791227109728,1.778652764043212,-0.7604746689200401,3.0114011764526367,2.7570395469665527,-0.7106626033782959
1783202590884599800,2.946599853515625,-1.2490198178857563,2.450671443136036,0.7073907289862632,2.9356846809387207,2.8403334617614746,-0.6806482076644897
1783202590894536700,2.95653662109375,-0.5635916951868682,2.410168752355873,1.7550071000397205,2.7581980228424072,2.9261374473571777,-0.4986653625965118
1783202590904473900,2.966473876953125,0.0026597937937825,2.3179051869392397,3.3735295078814027,2.5013015270233154,2.881088733673096,-0.2906232178211212
1783202590914411800,2.976411865234375,0.1112125777701847,2.739630131563544,4.374738348025083,2.22171401977539,2.787348985671997,-0.1107098087668418
1783202590924348700,2.9863486328125,0.250181579330936,2.778141356265545,5.251623473885656,1.970585823059082,2.602288246154785,0.0078818164765834
1783202590934285600,2.99628564453125,-0.2080889159455895,3.055738692723214,5.719817908740043,1.7219740152359009,2.286882162094116,0.0337843708693981
1783202590944222700,3.00622265625,-0.4934443191841244,3.1459584773525595,6.1318111484229565,1.4927940368652344,1.9360440969467163,-0.0204024370759725
1783202590954160600,3.01616064453125,-0.5332246139738709,2.997918371917307,6.606973084202409,1.2712395191192627,1.558984398841858,-0.1102310046553611
1783202590964097800,3.026097900390625,-0.5155176193043589,3.049593906357884,6.700420598706603,1.04369056224823,1.086316466331482,-0.2301449030637741
1783202590974034700,3.03603466796875,-0.3033597734194249,3.30699162761271,6.499659541431069,0.8059206008911133,0.5856335163116455,-0.3377447426319122
1783202590983972900,3.045972900390625,0.1672209720496088,3.385463691303134,6.363671692839264,0.5685586929321289,0.1225870698690414,-0.4015053510665893
1783202590993909500,3.055909423828125,0.5174665614150464,3.418915879049897,6.124234575688838,0.3560377657413482,-0.1485803127288818,-0.4062659442424774
1783202591003846700,3.0658466796875,0.6928834802061319,3.5541987942427395,6.147715404519438,0.1821999549865722,-0.2017202377319336,-0.3283373117446899
1783202591013783800,3.07578369140625,0.8526616619691252,3.691884094402194,6.247289877471327,0.0504100769758224,-0.089050754904747,-0.168845847249031
1783202591023721700,3.0857216796875,1.0628811602026222,3.723369950512051,6.398591030529141,-0.0744849890470504,0.0616783015429973,0.0317724756896495
1783202591033658600,3.09565869140625,1.3040012620039283,3.7186253863334655,6.615781829079985,-0.2207723557949066,0.1318805068731308,0.239203855395317
1783202591043595800,3.105595703125,1.480576264788955,3.7026264376908538,6.872786167103052,-0.4065664708614349,0.0405343361198902,0.4244725406169891
1783202591053533700,3.11553369140625,1.524131475007534,3.690066815847158,7.037813647696376,-0.6463761925697327,-0.2393920868635177,0.5640279054641724
1783202591063470600,3.125470703125,1.3952195561513303,3.653774143977463,6.948140975555777,-0.9421388506889344,-0.6829918622970581,0.6685124635696411
1783202591073407700,3.13540771484375,1.2224968448802829,3.4760812430784105,6.63820876494348,-1.291062593460083,-1.1967538595199585,0.7791194915771484
1783202591083344600,3.1453447265625,0.9771473618809132,3.3042136873319743,6.072322602143883,-1.6626616716384888,-1.72364342212677,0.8977143168449402
1783202591093282800,3.15528271484375,0.808636934542656,3.092157329060137,5.081403685346245,-1.9924944639205933,-2.217607259750366,1.019598126411438
1783202591103219700,3.1652197265625,0.6917068376421928,2.730076413537562,3.8395015905112015,-2.2165684700012207,-2.554717302322388,1.1016274690628052
1783202591113156900,3.175156982421875,0.2374023964524269,2.2892487090364098,2.598938050803542,-2.3121347427368164,-2.605309247970581,1.1450250148773191
1783202591123094800,3.1850947265625,-0.3420116487011313,1.7891876020610331,1.6969190682083368,-2.33426570892334,-2.378152370452881,1.1754432916641235
1783202591133031700,3.19503173828125,-1.0117604831658302,1.3839718936890364,1.1717051075369118,-2.3529727458953857,-2.0078041553497314,1.2017613649368286
1783202591142968600,3.204968505859375,-1.500801306694001,0.9858341608792542,0.8355489068657159,-2.4484703540802,-1.62591552734375,1.2537676095962524
1783202591152905700,3.21490576171875,-1.6065730268508196,0.5662658097669482,0.5398340221762656,-2.523720026016236,-1.3357747793197632,1.280960202217102
1783202591162843600,3.22484375,-1.4182108478993176,0.3186564920768142,-0.1731038195431232,-2.5371649265289307,-1.242521047592163,1.2505277395248413
1783202591172780800,3.23478076171875,-1.3185434359669683,0.0406724943891167,-0.8374035948216915,-2.5449531078338623,-1.2945771217346191,1.201433777809143
1783202591182717700,3.2447177734375,-1.3125105855435133,-0.2992570873409509,-1.2122756028562784,-2.6277096271514893,-1.5035276412963867,1.1233962774276731
1783202591192654600,3.254654541015625,-1.688258353499323,-0.5161437883786857,-1.854867988717556,-2.7433133125305176,-1.829838991165161,0.995493710041046
1783202591202592500,3.264592529296875,-1.98480457444638,-0.7716010430902243,-3.013787848961353,-2.7687108516693115,-2.134293556213379,0.7831172943115234
1783202591212529700,3.27452978515625,-2.232783748362213,-1.0580052247293292,-4.446185043123364,-2.7022554874420166,-2.247032642364502,0.4692807197570801
1783202591222466800,3.284466796875,-2.571402978146076,-1.267345602040738,-5.654964036035538,-2.5759236812591557,-2.0875372886657715,0.1652603596448898
1783202591232404700,3.29440478515625,-2.5442291400164363,-1.5644032796412706,-6.563596299290657,-2.417456865310669,-1.6773985624313354,-0.0315073132514953
1783202591242341600,3.304341552734375,-2.3010826469540597,-1.591531963454932,-7.088138059788942,-2.2363481521606445,-1.093964695930481,-0.0994903594255447
1783202591252278800,3.31427880859375,-1.9584552044421435,-1.406896111550182,-7.359658414420485,-2.038677930831909,-0.4510107338428497,-0.0449695736169815
1783202591262215700,3.324215576171875,-1.4817746807932852,-1.3772716653980317,-7.548896791684627,-1.802769660949707,0.111324518918991,0.1043293699622154
1783202591272153600,3.334153564453125,-0.898731339226663,-1.464440830285102,-7.740325372469424,-1.4851664304733276,0.50655198097229,0.2603664100170135
1783202591282090800,3.3440908203125,-0.6219372819758952,-1.4827452793911098,-7.802869799187779,-1.0764750242233276,0.7047644257545471,0.3404172956943512
1783202591292027600,3.354027587890625,-0.5709622970201075,-1.6730733515881,-7.883444388115405,-0.6085169911384583,0.7051414847373962,0.3459115624427795
1783202591301965800,3.3639658203125,-0.6520550646029413,-1.862267012927681,-7.86284759028852,-0.0998809337615966,0.5730159282684326,0.29032763838768
1783202591311902700,3.37390283203125,-0.8883527146838605,-1.8028176296152172,-7.708903229245543,0.4637682437896728,0.4134765565395355,0.2021883428096771
1783202591321839900,3.38383984375,-1.1995613749727605,-1.7194763524532315,-7.401721194124222,1.015540361404419,0.3157768845558166,0.1140251904726028
1783202591331776500,3.393776611328125,-1.613783981142938,-1.5957210857078432,-6.9033373727113005,1.4952894449234009,0.2903524935245514,0.0385144613683223
1783202591341714700,3.403714599609375,-1.90257271983102,-1.513461612433195,-6.363696242758631,1.8638426065444944,0.2778023481369018,-0.031942930072546
1783202591351653000,3.413653076171875,-2.036752788348496,-1.4614708745636045,-5.96992138133347,2.1555399894714355,0.2496792376041412,-0.1186690255999565
1783202591361590300,3.42359033203125,-2.110298793813586,-1.376930158483982,-5.835674823451042,2.451373815536499,0.2444916665554046,-0.2455886304378509
1783202591371528200,3.433528076171875,-2.280596177633852,-1.294284608501196,-5.7498015435934064,2.7388360500335693,0.3270616233348846,-0.4123963415622711
1783202591381465000,3.443465087890625,-2.4716563634976745,-1.119976235473901,-5.53849045073092,2.967438220977783,0.4526605606079101,-0.5587684512138367
1783202591391402000,3.453402099609375,-2.5885040428116914,-0.7229381344690918,-5.181044793793559,3.1275923252105717,0.6000361442565918,-0.6581670045852661
1783202591401339100,3.463339111328125,-2.663362884441018,-0.265092805802077,-4.740870000243187,3.244952917098999,0.8047049045562744,-0.704797625541687
1783202591411277000,3.473277099609375,-2.516924953505397,0.1407540400803089,-4.080817945536971,3.330140352249145,1.059389352798462,-0.7207787036895752
1783202591421214200,3.483214111328125,-2.261794154269248,0.5542962627708912,-3.499974452102184,3.385839462280273,1.2868465185165403,-0.778030276298523
1783202591431151000,3.493151123046875,-2.033742792877555,0.8918038780510426,-2.9745716908603903,3.427610397338867,1.52195942401886,-0.8775374293327332
1783202591441089300,3.50308935546875,-1.9152583061419424,1.1517468998745084,-2.2197528557449577,3.4454245567321777,1.7842246294021606,-1.0028131008148191
1783202591451026200,3.513026123046875,-1.792203442750871,1.4687003874257205,-1.0846382339805365,3.407294273376465,2.084454298019409,-1.0698808431625366
1783202591460963000,3.522963134765625,-1.541087870505452,2.0156433648243546,0.4389017048746347,3.237367630004883,2.4433789253234863,-1.055488348007202
1783202591470900000,3.53289990234375,-1.0170284136313943,2.727050928236544,2.1326018110364675,2.8754985332489014,2.614567756652832,-0.9270920753479004
1783202591480838100,3.542838134765625,-0.7690675790898501,2.796107805588841,3.5188159306943416,2.4742588996887207,2.6683225631713867,-0.8182569742202759
1783202591490775000,3.552775146484375,-0.5464923840869218,2.9265985180690883,4.598995431700349,2.095747709274292,2.5815882682800293,-0.7668750882148743
1783202591500712200,3.562712158203125,-0.096848701249808,3.0281378613531587,4.884770521655678,1.7921922206878662,2.364483118057251,-0.7427213191986084
1783202591510650000,3.572650146484375,-0.1280102207761257,3.3847184258937832,4.949423903352022,1.5085831880569458,2.0616440773010254,-0.7992733716964722
1783202591520587000,3.5825869140625,-0.5536158062260598,3.758423143714666,4.579937095487118,1.3120856285095217,1.68832528591156,-0.9225364327430724
1783202591530524000,3.59252392578125,-0.4562552099313586,3.4854975984603165,4.036109035238623,1.262699007987976,1.466896414756775,-1.0376187562942505
1783202591540461000,3.6024609375,-0.4531294791262596,3.520090188413858,3.803346573546528,1.3024139404296875,1.352181077003479,-1.0842407941818235
1783202591550399000,3.61239892578125,-0.3776949565008282,3.886231192982197,3.7590982664972543,1.325965166091919,1.3466110229492188,-1.022976994514465
1783202591560336100,3.622336181640625,0.1586735815219581,4.1971600134164095,4.109004175579548,1.3210291862487793,1.4111114740371704,-0.8617331385612488
1783202591570273300,3.632273193359375,0.9198970229826868,4.539758229833841,4.607511331111192,1.275106430053711,1.4528008699417114,-0.6401991248130798
1783202591580211200,3.642211181640625,1.704238743571937,4.764684591072798,5.222265277454257,1.1890344619750977,1.429099440574646,-0.3874145746231079
1783202591590148000,3.652148193359375,2.1668961486957965,4.910222358298301,5.808344917976856,1.0417460203170776,1.3367807865142822,-0.1222281381487846
1783202591600085000,3.6620849609375,2.425359599485993,4.9825861682415,6.445459164687991,0.7762864828109741,1.1660995483398438,0.1318163871765136
1783202591610022100,3.672022216796875,2.319580426675081,4.90599158886075,7.090159336483478,0.4006239175796509,0.9592608213424684,0.3434903621673584
1783202591619960000,3.6819599609375,1.823439415752888,4.747847438040376,7.675968343371152,-0.0594699122011661,0.7587609887123108,0.4886134564876556
1783202591629897200,3.691897216796875,1.3155435234986246,4.437504308539629,7.919968822914361,-0.5871419310569763,0.4616075754165649,0.6154831051826477
1783202591639834000,3.701834228515625,0.8176562534309924,3.959404565742612,7.761331920140981,-1.1336613893508911,0.0762492343783378,0.7222771644592285
1783202591649772300,3.711772216796875,0.2628872585818171,3.807192143058777,7.595581970492005,-1.7066700458526611,-0.2892316877841949,0.774995744228363
1783202591659709000,3.721708984375,-0.1547989320456981,3.695011286512017,7.155640985697508,-2.2787415981292725,-0.6637328267097473,0.8030558228492737
1783202591669646000,3.73164599609375,-0.4450038211420178,3.261563170868158,6.354256798762083,-2.801527976989746,-0.9358653426170348,0.7749456763267517
1783202591679583000,3.7415830078125,-0.9249166047103704,2.7424229771524664,5.720656113129854,-3.2487881183624268,-1.0863888263702393,0.7138335704803467
1783202591689521200,3.751521240234375,-1.305379126228392,2.2233529260635376,5.014765267312527,-3.6155343055725098,-1.20228374004364,0.625765323638916
1783202591699458000,3.7614580078125,-1.2009241877585648,1.7506091573417186,3.5920623686909674,-3.822940826416016,-1.3199280500411987,0.4800460040569305
1783202591709395200,3.771395263671875,-0.82699968970716,1.288984164005518,2.080999634093046,-3.8371121883392334,-1.2783153057098389,0.3064115941524505
1783202591719333000,3.7813330078125,-0.7941783472098409,0.849687322333455,1.0905348908036947,-3.7327470779418954,-1.2343779802322388,0.1909803450107574
1783202591729270000,3.79127001953125,-1.016812359727919,0.4265723846554756,0.1863525926947593,-3.642982721328736,-1.359208583831787,0.1834649741649627
1783202591739207000,3.80120703125,-1.300332656493783,0.1000502737700939,-0.8020102098792791,-3.487578630447388,-1.5342868566513062,0.2418126910924911
1783202591749144000,3.81114404296875,-1.580788597252965,-0.1438736334055662,-1.891882837381959,-3.377581119537353,-1.7227613925933838,0.3209497630596161
1783202591759082000,3.82108203125,-1.6891333827681838,-0.6457517266750336,-2.7794728971302507,-3.2608227729797363,-1.7580571174621582,0.3964559733867645
1783202591769019100,3.83101904296875,-1.7619491742625832,-1.0245046677961944,-3.367861983639002,-3.0893642902374268,-1.592546820640564,0.4387431442737579
1783202591778956300,3.840956298828125,-1.827797903223336,-1.2033940850034357,-3.994499844521284,-2.8944690227508545,-1.4589463472366333,0.4589850306510925
1783202591788894200,3.850894287109375,-1.6975950677737592,-1.371787681028992,-4.953396898636222,-2.662594556808472,-1.4214369058609009,0.4058603048324585
1783202591798831000,3.8608310546875,-1.4500537007533012,-1.5349267175272103,-5.801161728474497,-2.4075815677642822,-1.3316439390182495,0.2816576659679413
1783202591808768000,3.87076806640625,-1.3044034130640327,-1.5666276776924728,-6.428093603867292,-2.158247947692871,-1.2128517627716064,0.1081630885601043
1783202591818705200,3.880705078125,-1.0487664178714156,-1.6212481795437632,-7.0703878835648295,-1.9171102046966555,-0.9797079563140868,-0.0552716478705406
1783202591828643000,3.89064306640625,-0.7482318579405546,-1.7013009365543723,-7.265464465463161,-1.6475001573562622,-0.575566828250885,-0.1809871196746826
1783202591838580200,3.900580322265625,-0.5508479489479213,-1.5803909762375057,-7.239518707823753,-1.389052391052246,-0.1968027353286743,-0.2169128954410553
1783202591848517000,3.91051708984375,-0.2450415495613589,-1.4990779900327325,-7.063484095525741,-1.126897215843201,0.0943271517753601,-0.1868125647306442
1783202591858455300,3.920455322265625,0.1183493891138583,-1.3351909116461873,-6.765218941831589,-0.8346356749534607,0.2841383814811706,-0.1229041591286659
1783202591868392000,3.930391845703125,0.4028302380075678,-1.2041560823518782,-6.518397559648752,-0.495064914226532,0.3627111613750458,-0.0417440198361873
1783202591878329000,3.9403291015625,0.5052067262355238,-1.0775107201881706,-6.237331962558627,-0.1036377400159835,0.3522558510303497,0.0374506674706935
1783202591888266000,3.950265869140625,0.3923640082465484,-0.9621383741237224,-5.844170264595746,0.2999953031539917,0.2648773193359375,0.1139622926712036
1783202591898204200,3.9602041015625,0.1219153379671275,-0.8756761153969913,-5.41045677601397,0.6687229871749878,0.1440097540616989,0.1684478968381881
1783202591908141000,3.97014111328125,-0.2348416791189461,-0.7526839419785887,-4.9597138266980645,0.9733632206916808,0.0272280201315879,0.1855572015047073
1783202591918078200,3.980078125,-0.5001403827566653,-0.7375105574399232,-4.710493566679954,1.2262765169143677,-0.0686234086751937,0.1482007801532745
1783202591928016100,3.99001611328125,-0.7177603665050118,-0.7300559305850416,-4.716137125524878,1.455644607543945,-0.0906008407473564,0.0689076855778694
1783202591937953000,3.999953125,-0.960481327631697,-0.7989469498511403,-4.7455771550208325,1.6417888402938845,-0.0124964537099003,-0.0085072079673409
1783202591947890000,4.009889892578125,-1.0960809806235134,-0.796405083348602,-4.801344050428271,1.799238920211792,0.1258566230535507,-0.0712651312351226
1783202591957827000,4.0198271484375,-1.1712747532956302,-0.6717775638133286,-4.879160280558467,1.9674614667892456,0.327330082654953,-0.1218409612774849
1783202591967765000,4.029764892578125,-1.2216586404904723,-0.5722188729524612,-4.981074010112882,2.1853435039520264,0.5780324339866638,-0.1627645194530487
1783202591977702100,4.0397021484375,-1.1428843059178442,-0.3691818335689604,-4.947588504618406,2.4371440410614014,0.8066858649253845,-0.2022701054811477
1783202591987639300,4.049639404296875,-1.0690009582571685,0.0445315079048275,-4.703360061538219,2.6702895164489746,0.9171112179756165,-0.238395869731903
1783202591997577200,4.0595771484375,-0.9792859813448042,0.4017627914391458,-4.3807624306201935,2.90159010887146,0.9665957093238832,-0.2855282127857208
1783202592007514000,4.06951416015625,-0.8014091021809726,0.5343661121591925,-3.862378608229756,3.166165828704834,1.0311729907989502,-0.3002403080463409
1783202592017451000,4.079450927734375,-0.6337450625389814,0.7989093212544918,-3.1499124756753445,3.4334282875061035,1.0475919246673584,-0.2904191315174103
1783202592027388200,4.08938818359375,-0.5134821679539978,1.2337129431605338,-2.2432436214476823,3.660649299621582,1.0212945938110352,-0.2537404596805572
1783202592037326000,4.099326171875,-0.3637753714155405,1.6048855121552943,-1.204021569252014,3.7948522567749023,0.963376760482788,-0.2329899072647094
1783202592047263200,4.10926318359375,-0.2871595300510525,1.964265352025628,-0.1210533143103122,3.8422138690948486,0.9995521903038024,-0.2276639491319656
1783202592057200000,4.1192001953125,-0.2483976915888488,2.2822157416597006,1.1558826845049857,3.7287867069244394,1.0981640815734863,-0.2197775393724441
1783202592067138300,4.12913818359375,-0.315017770248279,2.644662860146165,2.385679915526509,3.4509289264678955,1.2191373109817505,-0.2093889117240905
1783202592077075000,4.139074951171875,-0.4466263077773154,2.8694281856045127,3.627555706876516,3.032357931137085,1.3532285690307615,-0.197662740945816
1783202592087012000,4.14901220703125,-0.5118419995315373,3.0761534119814637,4.718684471920132,2.516562461853028,1.4614145755767822,-0.1872330158948898
1783202592096949000,4.158948974609375,-0.5020467278346419,3.232084562927484,5.629024708136916,1.9434523582458496,1.5335737466812134,-0.1856026202440261
1783202592106887200,4.16888720703125,-0.4462853123199194,3.344952232694625,6.344774100145697,1.3760817050933838,1.525234341621399,-0.1993916928768158
1783202592116824000,4.178823974609375,-0.3719106740109622,3.4396219824701544,6.810992266491055,0.8399038910865784,1.4263468980789185,-0.2138033807277679
1783202592126761200,4.18876123046875,-0.2818954720430076,3.5061697996109724,7.019553768384457,0.3776333034038543,1.2219464778900146,-0.2321444302797317
1783202592136699100,4.19869921875,-0.2404270049706101,3.5866555412113663,6.952495079112053,0.0068456539884209,0.9609966278076172,-0.2541724741458893
1783202592146636000,4.208635986328125,-0.2233938909746706,3.534971531203389,6.750066380885243,-0.2650423049926758,0.699680507183075,-0.290794163942337
1783202592156573200,4.2185732421875,-0.1568234236106276,3.498975504192709,6.556956715145707,-0.4560740292072296,0.4703666567802429,-0.3186223208904266
1783202592166510000,4.228510009765625,0.1017085623711347,3.544623741167784,6.346309054628014,-0.5725347995758057,0.2783735990524292,-0.3060678541660309
1783202592176448000,4.238447998046875,0.4283949239075184,3.580242167037725,6.189881060075759,-0.6308394074440002,0.149399921298027,-0.2205284535884857
1783202592186385200,4.24838525390625,0.768864457733184,3.604997253587842,6.249940684241056,-0.6940643787384033,0.0679634362459182,-0.0580119043588638
1783202592196322300,4.258322265625,1.0512890682168303,3.638807168731093,6.360181512635946,-0.7986224889755249,-0.0564674362540245,0.1569904088973999
1783202592206260000,4.268260009765625,1.14849871173352,3.566007305458188,6.395076300406456,-0.9465621709823608,-0.2926267683506012,0.3708504438400268
1783202592216197000,4.278197021484375,1.0583813645653426,3.4737183133393525,6.303565306922793,-1.1359469890594482,-0.5994106531143188,0.5269300937652588
1783202592226134000,4.288134033203125,0.9662705054923892,3.2675393226683136,5.9647723280072205,-1.3246475458145142,-0.936783492565155,0.653416633605957
1783202592236072000,4.298072021484375,0.906050576198846,2.97934781922102,5.481935619816184,-1.4931055307388306,-1.261984944343567,0.7724573016166687
1783202592246009000,4.308009033203125,0.7436568051099777,2.7073782595172524,4.86535387352407,-1.6855045557022097,-1.5749138593673706,0.8750375509262085
1783202592255946200,4.3179462890625,0.3254448370426893,2.505451373332739,4.0749826635122295,-1.91964328289032,-1.850764870643616,0.9399656653404236
1783202592265883000,4.3278828125,-0.1186845393523573,2.2440680895730853,3.180298261588812,-2.1323633193969727,-2.009730577468872,0.97005033493042
1783202592275821000,4.337821044921875,-0.5588620363164692,1.87245654463917,2.1295149509370326,-2.3212265968322754,-2.0444905757904053,0.9718921780586244
1783202592285758000,4.347758056640625,-1.1744983915172518,1.4840835422575474,1.0959189219295975,-2.5467774868011475,-1.9638386964797971,0.908259391784668
1783202592295695000,4.357695068359375,-1.7613333804517983,1.0030652816653252,0.1857365066230297,-2.822857141494751,-1.7696785926818848,0.8040797114372253
1783202592305633000,4.367633056640625,-1.7977002866014835,0.4409589296653866,-0.8488847737789154,-2.9502816200256348,-1.4674711227416992,0.6446017026901245
1783202592315570200,4.377570068359375,-1.3811705725327132,-0.0302352715268731,-2.085222220224142,-2.9555702209472656,-1.1589295864105225,0.5101954340934753
1783202592325507000,4.387507080078125,-0.8973315554313361,-0.3496209546610713,-3.037690118074417,-2.86515212059021,-0.8965280652046204,0.4446889758110046
1783202592335444000,4.39744384765625,-0.461128807317093,-0.5171078111052513,-3.728844582530856,-2.795166254043579,-0.7924597263336182,0.4476027488708496
1783202592345382000,4.4073818359375,-0.1369744119437411,-0.70457128765136,-4.171558539170027,-2.7440474033355717,-0.7789624929428101,0.5191662907600403
1783202592355318800,4.41731884765625,-0.0009313625659793,-0.7729929358400404,-4.477164118754864,-2.6627848148345947,-0.8222849369049072,0.6232929229736328
1783202592365255700,4.427255615234375,0.0750717171950265,-0.869460236556828,-4.896826285630464,-2.535017490386963,-0.914977252483368,0.7478335499763489
1783202592375193600,4.437193603515625,0.0953454570800066,-1.039858304272592,-5.22280069950521,-2.394442319869995,-1.0149730443954468,0.8824856281280518
1783202592385130800,4.447130859375,-0.0814170311011373,-1.2413657960012554,-5.520328771096468,-2.243781805038452,-1.1092162132263184,1.017359972000122
1783202592395067600,4.457067626953125,-0.5615298672862351,-1.435087310028821,-6.06720102134645,-2.0325734615325928,-1.140611171722412,1.0918607711791992
1783202592405004800,4.4670048828125,-1.4977426497757431,-1.712315667043626,-6.657023355528712,-1.7168198823928833,-1.0049766302108765,1.065264105796814
1783202592414942700,4.476942626953125,-2.302637182919681,-2.1202759979486463,-7.138050383949279,-1.2638697624206543,-0.724470853805542,0.931714415550232
1783202592424879900,4.4868798828125,-2.7378473398,-2.4044573889717458,-7.459473710390925,-0.7354001998901367,-0.4229535162448883,0.7162744998931885
1783202592434816500,4.49681640625,-2.7641537474453446,-2.5673066487431524,-7.454737329518794,-0.1743171662092209,-0.1240909248590469,0.4620774090290069
1783202592444754700,4.506754638671875,-2.444924131655693,-2.620112648518383,-7.150791207578778,0.3761229515075683,0.1310974508523941,0.2342302501201629
1783202592454691600,4.516691650390625,-1.919627315006405,-2.5594533048942685,-6.555887040087581,0.8205304741859436,0.2758882045745849,0.0570477433502674
1783202592464628700,4.526628662109375,-1.5787337105497716,-2.1590451429344717,-5.784179614013433,1.1462894678115845,0.3500809967517853,-0.0576435290277004
1783202592474565600,4.536565673828125,-1.198869008794427,-1.7923226852163672,-5.127739320063591,1.3794097900390625,0.3415596783161163,-0.0923663526773452
1783202592484503800,4.54650390625,-0.901836904026568,-1.3512214244708418,-4.732539978793263,1.544291377067566,0.2959579825401306,-0.0858868733048439
1783202592494440700,4.556440673828125,-0.8444387541554867,-1.0112821981295943,-4.51642937669456,1.6467450857162476,0.2206866443157196,-0.0707819536328315
1783202592504377600,4.566377685546875,-0.9398165060698984,-0.8754559698402881,-4.549256710541248,1.7454261779785156,0.2145614624023437,-0.0830129608511924
1783202592514315500,4.5763154296875,-1.1845577209778129,-0.7898385644398629,-4.816171032682061,1.8780111074447632,0.2806589901447296,-0.1679989546537399
1783202592524252700,4.586252685546875,-1.5425925759799777,-0.7117056695759296,-5.376640431129932,2.062084197998047,0.4730278849601745,-0.3318032324314117
1783202592534189800,4.59618994140625,-1.670181283408403,-0.6356739847749471,-5.687637640625238,2.289657592773437,0.7469733953475952,-0.4942033290863037
1783202592544126700,4.606126708984375,-1.5213802766032516,-0.3403291024416685,-5.833393434515595,2.517783641815185,0.9748250246047974,-0.6018531918525696
1783202592554064600,4.616064697265625,-1.4002037743046878,0.0411830742597579,-5.635313579148054,2.728487014770508,1.166598200798035,-0.6467580795288086
1783202592564001800,4.626001708984375,-1.176729073178768,0.3801297824323177,-5.04047604715228,2.935268878936768,1.3527666330337524,-0.6391120553016663
1783202592573938700,4.635938720703125,-0.9012433220475912,0.7622261887624859,-4.119669361978769,3.129746198654175,1.5000176429748535,-0.6131039261817932
1783202592583876600,4.645876708984375,-0.6424139605544507,1.1754618297219277,-3.016338117966056,3.2826740741729736,1.5718622207641602,-0.5925540924072266
1783202592593813800,4.655813720703125,-0.4726150277756154,1.5696835581317543,-2.0121762732356787,3.418503522872925,1.635446310043335,-0.5853840708732605
1783202592603750700,4.665750732421875,-0.4243709290884435,1.8467200458362696,-0.820132726547122,3.500112295150757,1.6743733882904053,-0.5610480308532715
1783202592613688800,4.675688720703125,-0.4259894702009856,2.216013084694743,0.542485413467884,3.483438491821289,1.6360292434692385,-0.5275161862373352
1783202592623625700,4.685625732421875,-0.471565810983628,2.640157073159516,2.0508716223329304,3.320300817489624,1.5518184900283811,-0.5044032335281372
1783202592633563000,4.69556298828125,-0.5060999487482011,2.9620354498922823,3.502393203681707,3.021730422973633,1.438770771026611,-0.4905411899089813
1783202592643499500,4.70549951171875,-0.4644372742779553,3.2250363979816434,4.6874031984716655,2.6147210597991943,1.335982084274292,-0.4805487394332886
1783202592653437700,4.715437744140625,-0.3545690785877406,3.4434453401505944,5.582362910205125,2.146615982055664,1.2536616325378418,-0.46916264295578
1783202592663374600,4.72537451171875,-0.2647013953316957,3.6706793938100337,6.12535042797625,1.669346809387207,1.1742665767669678,-0.4431773722171783
1783202592673311700,4.735311767578125,-0.2320342204827815,3.901974121037125,6.3538914725810285,1.225969910621643,1.0901645421981812,-0.4049697816371918
1783202592683249700,4.745249755859375,-0.1010600353345274,4.062140717595815,6.339842488962412,0.8624229431152344,1.0193713903427124,-0.324429452419281
1783202592693186800,4.755186767578125,0.4391078949712216,3.9860073259860274,6.247646435824036,0.5911642909049988,0.9171121716499328,-0.2003735303878784
1783202592703123700,4.765123779296875,0.927112361188978,4.038853365510702,5.914692830586433,0.3992887735366821,0.6915875673294067,-0.0810956880450248
1783202592713060600,4.775060546875,1.3841174396395683,4.136557368415594,5.534048668891191,0.3006969392299652,0.4171986281871795,0.0481858700513839
1783202592722998500,4.78499853515625,1.7969509295389057,4.161737402379512,5.32209284838438,0.2830579876899719,0.1512471884489059,0.1936758011579513
1783202592732935700,4.794935791015625,2.082221577103436,4.26575424169302,5.357177021247148,0.3011358082294464,-0.0640225112438201,0.3474096953868866
1783202592742872800,4.804872802734375,2.235540938115865,4.390826143994927,5.55825898104012,0.3079476356506347,-0.2412212491035461,0.5402639508247375
1783202592752810800,4.814810791015625,2.083405964582413,4.385273770564794,5.823527874061465,0.2763987481594085,-0.4642468690872192,0.7529135942459106
1783202592762747600,4.82474755859375,1.9325122232817111,4.348443630817532,6.444611023426056,0.0948817208409309,-0.6288760900497437,0.9177687764167786
1783202592772684800,4.834684814453125,1.692636568583548,4.217130203777551,6.80387746604979,-0.240781769156456,-0.8010611534118652,1.0035585165023804
1783202592782622700,4.844622802734375,1.3175737141519783,4.114655333209037,6.792758106142282,-0.7074164748191833,-1.0126869678497314,1.0050517320632937
1783202592792559600,4.8545595703125,1.0259360157735644,3.906842019334435,6.400844362413883,-1.264009952545166,-1.2428557872772217,0.9741244316101074
1783202592802496800,4.864496826171875,0.6903634602092206,3.63567880757749,5.770567268246412,-1.8357775211334229,-1.4223252534866333,0.9355562329292296
1783202592812433700,4.87443359375,0.2460416299819946,3.2685388550996777,5.025688812386989,-2.3613948822021484,-1.4415284395217896,0.8993287086486816
1783202592822371800,4.884371826171875,-0.2025825736142694,2.761641472363472,4.091107868883014,-2.8064565658569336,-1.4189962148666382,0.8754884004592896
1783202592832308700,4.894308837890625,-0.4948208682343363,2.222092112347484,2.795027024614811,-3.1190619468688965,-1.456395983695984,0.8655399084091187
1783202592842246000,4.904245849609375,-0.6790146754600107,1.5205793354839086,1.2385451856225729,-3.2348439693450928,-1.5064094066619873,0.8508586287498474
1783202592852183800,4.914183837890625,-0.7691802456840873,0.8039283184602856,-0.4580798680752515,-3.104687452316284,-1.5104718208312988,0.8318636417388916
1783202592862120700,4.92412060546875,-0.8333375144265591,0.1323448159143328,-1.8903765244722368,-2.7610838413238525,-1.4213649034500122,0.8280248045921326
1783202592872057600,4.9340576171875,-1.024179381364584,-0.4297407855585217,-2.771999200248718,-2.3236024379730225,-1.3501540422439575,0.8514089584350586
1783202592881994800,4.943994873046875,-1.2801385942488908,-0.8384113105595111,-3.466178565484285,-1.9116661548614504,-1.424604058265686,0.8431662917137146
1783202592891932700,4.9539326171875,-1.4782272174447777,-1.304560211060941,-4.023136740940809,-1.58241605758667,-1.5203430652618408,0.8060415983200073
1783202592901869800,4.963869873046875,-1.5603510816410182,-1.7532561647191642,-4.318549427813291,-1.2998384237289429,-1.5246741771697998,0.7495423555374146
1783202592911806700,4.973806640625,-1.780910772103071,-2.1379040090978143,-4.541334100848436,-1.0479289293289185,-1.4488734006881714,0.6633080840110779
1783202592921745000,4.983744873046875,-1.9016138116709889,-2.3745605556190013,-4.607987716451287,-0.9250967502593994,-1.3217487335205078,0.5458283424377441
1783202592931681500,4.993681640625,-1.8390202851139008,-2.595982123607397,-4.451576088511944,-0.9187682867050172,-1.1558332443237305,0.4503071308135986
1783202592941618700,5.00361865234375,-1.680515922679007,-2.5902421186506746,-4.440422241812944,-0.8767513036727905,-0.9738896489143372,0.3817106783390045
1783202592951555800,5.013555908203125,-1.4361651683934031,-2.458958209966123,-4.651164010354877,-0.8119904398918152,-0.836196780204773,0.3617185950279236
1783202592961493800,5.02349365234375,-1.2646785747885705,-2.3678069897055622,-4.699935932308435,-0.7347021102905273,-0.6915664076805115,0.366933524608612
1783202592971430700,5.0334306640625,-1.3744579231515526,-2.268307627816498,-4.527780791792273,-0.5962419509887695,-0.529761552810669,0.3662863671779632
1783202592981367800,5.043367919921875,-1.561967869187891,-2.219550611171126,-4.390248636367917,-0.3781485259532928,-0.4066594541072845,0.3466263115406036
1783202592991305500,5.053305419921875,-1.7694360228866337,-2.2577093691736456,-4.20894455923438,-0.127959206700325,-0.3739105463027954,0.2690676152706146
1783202593001242600,5.06324267578125,-2.059147283247113,-2.3470792589753864,-4.010270829626918,0.1519874632358551,-0.4223573207855224,0.1422514617443084
1783202593011179800,5.0731796875,-2.3078651467010376,-2.358141335737705,-3.938092897644639,0.4615271985530853,-0.452464610338211,-0.0273322518914937
1783202593021117700,5.08311767578125,-2.3732165936641394,-2.298895073781908,-3.693486268901825,0.7459244728088379,-0.4259921610355377,-0.1887021958827972
1783202593031054800,5.093054931640625,-2.2977903274104,-2.159982569915056,-3.22694661551714,0.9746239185333252,-0.3341504037380218,-0.3416949510574341
1783202593040991700,5.10299169921875,-2.0238107430584726,-1.8524127045199277,-2.641572492915392,1.1191136837005615,-0.279792457818985,-0.4711709916591644
1783202593050928600,5.1129287109375,-1.6303028620064255,-1.4808850384771823,-2.227466791123152,1.17142915725708,-0.2778606116771698,-0.5545787811279297
1783202593060866600,5.122866455078125,-1.2792889916822314,-1.2094789578750729,-1.824233781000972,1.1590648889541626,-0.2253581285476684,-0.6056006550788879
1783202593070803700,5.1328037109375,-1.1279092204302548,-0.9835472189858556,-1.5021762483090162,1.1084954738616943,-0.1310601234436035,-0.6550542116165161
1783202593080740600,5.14274072265625,-1.1456056206405163,-0.8493643739894032,-1.442322960370779,1.0427532196044922,-0.0008481326512992,-0.7320714592933655
1783202593090678800,5.1526787109375,-1.1454837478265163,-0.7722586302161216,-1.3554168303340672,0.9842067956924438,0.155051976442337,-0.8363028168678284
1783202593100615700,5.16261572265625,-1.0123105182640253,-0.5770747885510326,-1.256775254318118,0.9366177320480348,0.2726649641990661,-0.945631504058838
1783202593110552800,5.172552734375,-0.803311209475249,-0.319906199876964,-1.1997224107533693,0.902598798274994,0.3104704022407532,-1.049389362335205
1783202593120489500,5.182489501953125,-0.7231886020988225,-0.0658110272988677,-1.3232090896904467,0.881781280040741,0.2782932221889496,-1.197649359703064
1783202593130427600,5.192427734375,-0.7239359133347868,-0.2237175699710845,-1.511522168803215,0.8996297717094421,0.3051123321056366,-1.371006727218628
1783202593140364500,5.202364501953125,-0.5681101224593818,-0.4072498445481061,-1.2373854941934346,0.8874177932739258,0.4521315395832062,-1.465121865272522
1783202593150301700,5.2123017578125,-0.0826671772927045,-0.4455456729337573,-0.5092863236993551,0.8171854615211487,0.4707366526126861,-1.4782344102859497
1783202593160239600,5.222239501953125,-0.1571536784783005,0.6683879213750362,-0.3358236077159643,0.7551670670509338,0.5036749839782715,-1.4863344430923462
1783202593170176800,5.2321767578125,-0.167318075748533,1.3314683839917183,0.3207224846959114,0.7392453551292419,0.6263465881347656,-1.4252175092697144
1783202593180114000,5.242114013671875,0.0043960430018603,1.598916374617815,0.7587117509007454,0.724770188331604,0.7454279661178589,-1.3042110204696655
1783202593190051800,5.2520517578125,0.3783015440918505,1.8915648574739692,1.0738958906918763,0.7092647552490234,0.8446464538574219,-1.1168850660324097
1783202593199988500,5.261988525390625,0.787328042923659,2.152238531659544,1.5389035122036934,0.7026787400245667,0.9630215764045716,-0.9311646819114684
1783202593209925600,5.271925537109375,0.9771904703702776,2.3444646925628185,2.058390327399969,0.7084247469902039,1.077171802520752,-0.7824087738990784
1783202593219862800,5.28186279296875,1.0959189219295975,2.443386839085817,2.711817411008477,0.6555324792861938,1.1363414525985718,-0.647770881652832
1783202593229800700,5.29180078125,1.2503063505649563,2.37129892347455,3.208824098849296,0.5503919720649719,1.092394232749939,-0.5179974436759949
1783202593239737900,5.30173779296875,1.242269466842711,2.2716771042495965,3.679609134718776,0.4315254688262939,0.9988420009613036,-0.4282679855823517
1783202593249674800,5.3116748046875,1.1255929793771355,2.243426576799154,4.136680118012428,0.3263276815414428,0.8589288592338562,-0.3720316290855407
1783202593259612700,5.32161279296875,1.060891009298712,2.313620056965947,4.546538683754205,0.2057039588689804,0.6823692917823792,-0.2828255593776703
1783202593269549600,5.331549560546875,1.246866439244151,2.436384266847372,5.248139723423123,0.0448639318346977,0.4596076011657715,-0.1433840095996856
1783202593279486700,5.34148681640625,1.3934930246196686,2.5610546026110645,5.760243442630768,-0.1657557636499405,0.13399238884449,0.0242983177304267
1783202593289423600,5.351423583984375,1.4389219197556375,2.668006326332688,6.082983696889877,-0.4008963704109192,-0.2325099855661392,0.188221737742424
1783202593299361800,5.36136181640625,1.4034722745813428,2.723173502281308,6.369415789449215,-0.676317036151886,-0.5640543699264526,0.334395557641983
1783202593309298700,5.371298583984375,1.1305645572446286,2.695133402711153,6.532548834598064,-0.9950595498085022,-0.8411773443222046,0.4518763720989227
1783202593319235800,5.38123583984375,0.9621551060628144,2.593847157405317,6.384508144640922,-1.3058204650878906,-1.1120052337646484,0.565345287322998
1783202593329173800,5.391173828125,1.045351421796158,2.4182854233160613,5.682326090213656,-1.5526363849639893,-1.3899835348129272,0.6502999067306519
1783202593339110700,5.401110595703125,1.0531390069324522,2.10285023137331,4.766286181050539,-1.727489948272705,-1.558248519897461,0.7050840258598328
1783202593349047300,5.41104736328125,0.8305446688376367,1.7699378349289296,4.167508971518278,-1.852023124694824,-1.587013602256775,0.7566508054733276
1783202593358985200,5.420985107421875,0.3939499987963586,1.5420432715341448,3.629988486981392,-1.963835597038269,-1.564751148223877,0.7987934350967407
1783202593368922000,5.430922119140625,-0.2278522586230188,1.3642843196615575,2.8034365410417315,-2.082235097885132,-1.6033052206039429,0.8335016369819641
1783202593378859300,5.440859375,-0.5136177770324051,0.7966542358040809,1.717843782815337,-2.200975179672241,-1.7409313917160034,0.8844035863876343
1783202593388796200,5.450796142578125,-0.9777705352805556,0.4306593617081642,0.1805588117241859,-2.243119239807129,-1.902795910835266,0.8131434917449951
1783202593398734000,5.460734130859375,-1.43459061255306,0.3016343378663063,-1.2242296600222586,-2.1502578258514404,-1.874525547027588,0.6434008479118347
1783202593408671200,5.470671142578125,-1.4547649471841753,0.0603428250208497,-2.423247137376666,-1.947923183441162,-1.7219972610473633,0.4750544130802154
1783202593418608000,5.480608154296875,-1.195272007215768,-0.1735784513175487,-3.4639860238760707,-1.7063114643096924,-1.522366285324097,0.3811896443367004
1783202593428546300,5.49054638671875,-0.9208001093022524,-0.4632812361106276,-4.058805435693264,-1.5559701919555664,-1.2860450744628906,0.373224139213562
1783202593438483200,5.500483154296875,-0.7744824437454343,-0.6811109170868992,-4.407193341428041,-1.4242291450500488,-1.0073378086090088,0.4016730785369873
1783202593448420400,5.51042041015625,-0.7474713949620724,-0.6893553060799836,-4.80268903529644,-1.2981668710708618,-0.7636670470237732,0.4025703072547912
1783202593458357000,5.52035693359375,-0.6660182696342468,-0.7653121720790863,-5.209316948553919,-1.21907377243042,-0.5977950692176819,0.391665905714035
1783202593468295200,5.530295166015625,-0.6832841694727539,-0.9540852699190376,-5.468590400552749,-1.142188549041748,-0.4812889993190765,0.3615564703941345
1783202593478232000,5.540232177734375,-0.6974272611156106,-1.117281297301501,-5.928250231295824,-0.9683305025100708,-0.3610044419765472,0.320522278547287
1783202593488169200,5.550169189453125,-0.6678665278494358,-1.3542708751693366,-6.368429116499423,-0.7173267602920532,-0.2329258322715759,0.2822068333625793
1783202593498107100,5.560107177734375,-0.976334218867123,-1.167254850129783,-6.554862373214959,-0.4362447559833526,-0.0638312846422195,0.2254940122365951
1783202593508044300,5.570044189453125,-1.3415718448549507,-0.9321249286539852,-6.35224662798345,-0.112051248550415,0.131308376789093,0.1633139997720718
1783202593517981200,5.579981201171875,-1.434023334059119,-1.0570341877400875,-6.145377901482582,0.196407064795494,0.2737692296504974,0.1438491642475128
1783202593527919400,5.58991943359375,-1.3758844488233326,-1.2611508390538393,-5.8747232237696645,0.4856468439102173,0.351243257522583,0.1119282618165016
1783202593537856000,5.59985595703125,-1.4618398540064692,-1.3653564789377153,-5.46172636000216,0.7556067109107971,0.418261706829071,0.0722867846488952
1783202593547793200,5.609793212890625,-1.6407862620979548,-1.4644240252807736,-5.022173497742414,0.976719081401825,0.4060199558734894,0.0137142874300479
1783202593557730300,5.619730224609375,-1.8368258438095448,-1.4118933353155851,-4.796277999210357,1.1482212543487549,0.357794851064682,-0.0611883550882339
1783202593567668200,5.629668212890625,-1.961809191045165,-1.3888263479828833,-4.8286172572791575,1.3045570850372314,0.2933958768844604,-0.1593237072229385
1783202593577605000,5.639605224609375,-2.12483819129765,-1.4456526893153785,-5.014406955394149,1.4537150859832764,0.306309312582016,-0.2663772404193878
1783202593587542300,5.649542236328125,-2.2351509158849714,-1.5632412501245736,-5.142894803619384,1.6133540868759155,0.4093177020549774,-0.3779762089252472
1783202593597480200,5.659480224609375,-2.3314523585155604,-1.7613997236862775,-5.125709275540709,1.7791991233825684,0.6350955367088318,-0.4936758875846863
1783202593607417000,5.6694169921875,-2.481713354870677,-1.7667130276635288,-4.69114238499999,1.8997561931610107,0.9137780070304872,-0.6161922216415405
1783202593617354200,5.679354248046875,-2.510803255754709,-1.6033219161003829,-4.006493649175763,1.9615955352783203,1.1544501781463623,-0.7191386222839355
1783202593627292200,5.689292236328125,-2.4019234865799546,-1.3350865744888782,-3.4311797328174114,1.982837677001953,1.313979148864746,-0.8035432696342468
1783202593637229300,5.699229248046875,-2.2420156870879238,-0.7950912242710589,-2.7610417529046534,1.9589089155197144,1.417444944381714,-0.8762418627738953
1783202593647166200,5.709166259765625,-1.888750092314184,-0.3047685442388057,-2.0603046365886923,1.936718225479126,1.4854793548583984,-0.8994665145874023
1783202593657103400,5.719103271484375,-1.4575082545429467,0.1055459485769271,-1.416736683693528,1.9306466579437256,1.549829602241516,-0.8952749967575073
1783202593667041300,5.729041259765625,-1.152565376650542,0.5530369103595614,-0.5933440785676241,1.9253480434417725,1.6416641473770142,-0.8796709775924683
1783202593676978200,5.738978271484375,-0.9647961951561272,0.9268678849086164,0.405375867369771,1.8983182907104488,1.7075574398040771,-0.8684704899787903
1783202593686915000,5.7489150390625,-0.8048935832958668,1.2979443000525237,1.409344235354662,1.8271501064300537,1.6894029378890991,-0.863849401473999
1783202593696853200,5.758853271484375,-0.6370724533960223,1.645660590136051,2.433984219968319,1.7384408712387085,1.604234218597412,-0.8620678782463074
1783202593706790100,5.7687900390625,-0.50248621523045,1.98332193467319,3.3556144964843986,1.6359823942184448,1.454796314239502,-0.8612595796585083
1783202593716727300,5.778727294921875,-0.2817424734383821,2.2821786245197058,4.12690282036364,1.504259467124939,1.2736492156982422,-0.8307693600654602
1783202593726665200,5.788665283203125,0.0199297852855175,2.5792431702524423,4.876771339595318,1.328810453414917,1.0788203477859497,-0.7732690572738647
1783202593736602400,5.798602294921875,0.1101606210318393,2.7465730825692414,5.504029378202557,1.1365829706192017,0.9289654493331908,-0.7008116245269775
1783202593746539000,5.8085390625,0.2014052003979682,3.03173500906229,5.999682313346862,0.9235857129096984,0.835995614528656,-0.6060225367546082
1783202593756476200,5.81847607421875,0.3451315342873334,3.29912104036808,6.478984417670965,0.679929792881012,0.7943164110183716,-0.4730724990367889
1783202593766414000,5.8284140625,0.5947508766256272,3.3548721536844965,6.955831530058384,0.3983785510063171,0.734878659248352,-0.3114633560180664
1783202593776351200,5.838351318359375,0.7301020347490906,3.366814520412684,7.1683368011415,0.1188389211893081,0.6161940097808838,-0.1667823195457458
1783202593786288400,5.848288330078125,0.9333787281073628,3.309052067273855,7.183306991258263,-0.0953178480267524,0.4576022028923034,-0.0670498758554458
1783202593796226300,5.858226318359375,1.240240299102664,3.145677030062675,7.038610351032018,-0.2310887277126312,0.2712175548076629,-0.02382542937994
1783202593806163200,5.8681630859375,1.3870314273901283,3.089544223952293,6.873446092316508,-0.3044377863407135,0.079990342259407,-0.0291839763522148
1783202593816100000,5.87810009765625,1.4296452651053666,3.035377164956927,6.877323226010799,-0.3818070292472839,-0.1196507662534713,-0.0252798199653625
1783202593826038000,5.8880380859375,1.4442365389071403,3.029257805293798,6.935933820411562,-0.5261330604553223,-0.3355258107185364,0.0045569045469164
1783202593835975200,5.89797509765625,1.3393655669823288,3.2068349708586927,6.953686334723233,-0.7425209879875183,-0.5630993247032166,0.0544641129672527
1783202593845912300,5.907912353515625,1.384587249108404,3.400803299254179,6.711531775307655,-0.9945937991142272,-0.7822140455245972,0.1179413571953773
1783202593855849200,5.91784912109375,1.6316170133449135,3.4189339992284773,6.17714140549004,-1.230211615562439,-1.0063111782073977,0.228505253791809
1783202593865787400,5.927787353515625,1.9031366373240948,3.299330299204588,5.441936202383041,-1.4294434785842896,-1.2300028800964355,0.3918494284152984
1783202593875724300,5.937724365234375,2.043509276871383,3.139264240410924,4.543364145371317,-1.5791852474212646,-1.4402868747711182,0.601654052734375
1783202593885661200,5.9476611328125,1.9782859863325952,2.87627761310786,3.510115906888246,-1.683070421218872,-1.6166969537734983,0.829086422920227
1783202593895599000,5.95759912109375,1.6464175459831951,2.581069508896768,2.513099842259288,-1.7495514154434204,-1.7415988445281982,1.016149640083313
1783202593905536300,5.967536376953125,0.9396822852309792,2.2649743917405605,1.512150529834628,-1.784174919128418,-1.7977691888809204,1.1308788061141968
1783202593915473200,5.97747314453125,0.1313080932777375,1.7048329100728037,0.5840162782520055,-1.8106685876846316,-1.7726562023162842,1.1714376211166382
1783202593925410300,5.987410400390625,-0.6754735687870532,1.0651911907106637,-0.1488216112017631,-1.844161033630371,-1.6264244318008425,1.1161450147628784
1783202593935348200,5.99734814453125,-1.4279355385780337,0.5207932216197252,-0.8027519681572913,-1.8638293743133545,-1.5130759477615356,0.9773298501968384
1783202593945285400,6.007285400390625,-1.7783926518023012,-0.0702428722664713,-1.5194956319004296,-1.8741546869277956,-1.4344894886016846,0.7956319451332092
1783202593955222000,6.017221923828125,-1.711842496573925,-0.5084823138400912,-2.4726298847049475,-1.8276166915893557,-1.4094021320343018,0.6074185371398926
1783202593965160200,6.02716015625,-1.3703114709965885,-0.7455591315999627,-3.5982138770580288,-1.7372561693191528,-1.3867900371551514,0.4617332518100738
1783202593975097000,6.03709716796875,-1.0882445879094302,-0.7685568530887364,-4.483550604921579,-1.6241261959075928,-1.2964814901351929,0.3818210959434509
1783202593985034200,6.0470341796875,-0.9066668084010482,-0.808709415256977,-5.174821389234066,-1.50906503200531,-1.1472212076187134,0.3681364357471466
1783202593994972200,6.05697216796875,-0.8559130649805069,-0.8755062387228012,-5.678744724595546,-1.4097250699996948,-0.9604727029800416,0.3694909811019897
1783202594004909300,6.066909423828125,-0.8589075706213712,-0.8564166305884718,-5.886285066747665,-1.351365566253662,-0.7462901473045349,0.3675359785556793
1783202594014846200,6.07684619140625,-0.819451027893275,-0.9568673018530012,-6.003706746557355,-1.3131067752838137,-0.565504252910614,0.3582672774791717
1783202594024783000,6.086783203125,-0.6727011083990335,-1.188835106036067,-6.327874987792969,-1.2176390886306765,-0.3931721150875091,0.3306567072868347
1783202594034721000,6.096720947265625,-0.7457621068261563,-1.3403805892437697,-6.619992140251398,-0.9945701956748962,-0.1606058925390243,0.2821415066719055
1783202594044658200,6.106658203125,-0.9734218385517596,-1.508356544379145,-6.682586835852265,-0.8362460136413574,0.0468796640634536,0.277660995721817
1783202594054595300,6.11659521484375,-1.1266054443553088,-1.5945152170494197,-6.389824955749512,-0.5000221729278564,0.314583420753479,0.2350973039865493
1783202594064533200,6.126533203125,-1.181140167619288,-1.4890734594993291,-6.218170750492811,-0.1013394892215728,0.4357268810272217,0.2170144468545913
1783202594074470400,6.136470458984375,-1.0818497723057865,-1.5253151318341494,-5.704691651278734,0.2390391528606414,0.4194110035896301,0.223472312092781
1783202594084407000,6.146406982421875,-1.168738805077225,-1.4629578982509672,-4.8422085602581495,0.4937537312507629,0.3445961475372314,0.2272105813026428
1783202594094344200,6.15634423828125,-1.3874889618992805,-1.5443554939992723,-4.162776682299375,0.685597836971283,0.2319590449333191,0.2041216343641281
1783202594104282000,6.1662822265625,-1.7524200061559676,-1.6295573043361304,-3.861726866322756,0.850416898727417,0.1366628855466842,0.1490549147129058
1783202594114219300,6.17621923828125,-2.2018010194689035,-1.6320193105354903,-3.607544599983096,0.9939891695976256,0.0989079922437667,0.0612308830022811
1783202594124156200,6.18615625,-2.512901104816794,-1.6501073404118418,-3.478886655887961,1.118846416473389,0.1027112528681755,-0.047413308173418
1783202594134094300,6.19609423828125,-2.599599729582667,-1.7005483646214008,-3.536136483329534,1.2057101726531982,0.0889517366886138,-0.1854607760906219
1783202594144031200,6.20603125,-2.722294965881109,-1.7457529494822024,-3.685895083120465,1.2236907482147217,0.1314123719930648,-0.3580381274223327
1783202594153968000,6.215968017578125,-2.948393878030777,-1.8426286848694085,-3.71880249646604,1.1532927751541138,0.2921329438686371,-0.5406782627105713
1783202594163905000,6.225905029296875,-3.165939189107716,-1.9264009007945653,-3.716718675929308,1.0373811721801758,0.5456951856613159,-0.702916145324707
1783202594173843200,6.23584326171875,-3.2768291290611025,-1.8956752154022452,-3.854633693191409,0.9337849020957948,0.8110102415084839,-0.8606845140457153
1783202594183780000,6.245780029296875,-3.236461462837457,-1.7238561749726533,-4.164394054368138,0.9206233024597168,1.1214776039123535,-0.9989510774612428
1783202594193717200,6.25571728515625,-2.911225884631276,-1.5904013519898057,-4.191707593229413,0.9969231486320496,1.413076400756836,-1.077664136886597
1783202594203655200,6.2656552734375,-2.538486796972156,-1.2994547046154736,-4.019885045668483,1.1433587074279783,1.6090655326843262,-1.1156797409057615
1783202594213592300,6.27559228515625,-2.26933901669085,-0.9257508635774254,-3.634133916223049,1.3591526746749878,1.7540313005447388,-1.1293669939041138
1783202594223529200,6.285529296875,-2.024407686038315,-0.6117705466181039,-3.0105957749217747,1.5914719104766846,1.8138298988342283,-1.1261513233184814
1783202594233466000,6.295466064453125,-1.8344249201476568,-0.208813430827856,-2.1471119824260474,1.8051488399505613,1.8301512002944944,-1.1365069150924685
1783202594243404000,6.305404052734375,-1.6380840174019335,0.1756052809700369,-1.1562409964233635,1.9782439470291135,1.7898801565170288,-1.1501601934432983
1783202594253341200,6.315341064453125,-1.4369865677788851,0.5091694193214178,-0.2629793207794427,2.136831045150757,1.719660997390747,-1.1677265167236328
1783202594263278300,6.3252783203125,-1.3031380693033336,0.8312231526210904,0.6498842964351177,2.259726285934448,1.6659197807312012,-1.183459997177124
1783202594273216300,6.33521630859375,-1.2221658593602478,1.2011512745127082,1.6749661795973776,2.330980062484741,1.604857325553894,-1.187386989593506
1783202594283153400,6.3451533203125,-1.183766132208705,1.6803513797670602,2.7182389684885737,2.307464122772217,1.522202730178833,-1.1800422668457031
1783202594293090000,6.355090087890625,-1.0885109837606548,2.1847113529801367,3.732677292561531,2.1846303939819336,1.446230173110962,-1.1362345218658447
1783202594303028200,6.3650283203125,-0.8318681725263595,2.531173259088397,4.672164128285647,2.0075862407684326,1.4228345155715942,-1.0346708297729492
1783202594312965000,6.374965087890625,-0.3708906833134591,2.511272042310238,5.377529488924146,1.814979553222656,1.3695032596588137,-0.9060941934585572
1783202594322902300,6.38490234375,-0.2452136547252535,2.7527514789432286,5.931870175358653,1.5943251848220823,1.2568849325180054,-0.785575807094574
1783202594332839200,6.394839111328125,-0.1958206782639026,2.880498737934232,6.443043335717916,1.364717721939087,1.056114673614502,-0.6858593225479126
1783202594342777300,6.40477734375,0.0288107916817069,2.833528312444687,6.689595837831496,1.188074231147766,0.9147596955299376,-0.6018832325935364
1783202594352714000,6.4147138671875,0.0552637681908905,2.927311342513561,6.894917919412255,1.073896408081055,0.7700822353363037,-0.5461884140968323
1783202594362651100,6.424651123046875,0.1934156629487872,3.140285400152206,6.900374431252479,0.9379249811172484,0.5758054256439209,-0.4675337970256805
1783202594372589000,6.434589111328125,0.6031772711221128,3.2238878124684094,7.23999041698873,0.802730143070221,0.429796427488327,-0.3852780163288116
1783202594382526200,6.444526123046875,0.6402622624132782,3.3278783482968803,7.753828412643075,0.622501790523529,0.3546521365642547,-0.3523991703987121
1783202594392462800,6.454462890625,0.4897158001802861,3.388951533418893,8.29136701735854,0.3730742931365967,0.3194606602191925,-0.3771281838417053
1783202594402400000,6.46439990234375,0.2694628375798463,3.593793722528219,8.724376157063245,0.0496395044028759,0.2646757066249847,-0.4309248626232147
1783202594412338000,6.474337890625,0.1250444297730922,3.9569004739671945,8.904314206540585,-0.3415800929069519,0.0726455301046371,-0.5162695646286011
1783202594422275000,6.484275146484375,0.1431618318744003,4.38892001811266,8.560506614333391,-0.7653007507324219,-0.3256302177906036,-0.6076080203056335
1783202594432212200,6.494212158203125,0.5803443117409944,4.774339723646641,7.853601038515567,-1.1883224248886108,-0.8685624003410339,-0.6861816048622131
1783202594442149000,6.504149169921875,1.308261549796909,4.957338914260268,7.167568739378452,-1.5869216918945312,-1.4163812398910522,-0.702320396900177
1783202594452087000,6.514087158203125,1.9498304378293452,5.046833307224512,6.507857460933924,-1.9101333618164065,-1.8606563806533811,-0.6163213849067688
1783202594462024000,6.52402392578125,2.3675439548552037,5.098761062860489,5.807412021040916,-2.112321138381958,-2.066379308700561,-0.3983863890171051
1783202594471961000,6.533961181640625,2.625407540056109,4.993320912745594,5.368367692825198,-2.229381799697876,-1.8990082740783687,-0.0832558423280716
1783202594481899000,6.54389892578125,2.091493409448117,4.99754525244236,4.724409863829613,-2.350900411605835,-1.767354965209961,0.2899166643619537
1783202594491836200,6.553836181640625,1.6533775942541655,4.780242225688696,4.156979978719353,-2.5748324394226074,-1.7053663730621338,0.6299508213996887
1783202594501773000,6.56377294921875,0.7878235713556409,4.612574751980603,3.830709212246537,-2.89163589477539,-1.8183834552764893,0.8354536890983582
1783202594511710200,6.573710205078125,0.1827525223761796,4.169758211749792,3.022155864334106,-3.2147438526153564,-2.1701252460479736,0.9135063290596008
1783202594521648000,6.583648193359375,0.0219376910418272,3.356379927898943,1.3810270724087952,-3.4271814823150635,-2.6018295288085938,0.8796253204345703
1783202594531585000,6.5935849609375,-0.0835085965529084,2.620066179028153,-0.5094657719194888,-3.520108938217163,-2.8288581371307373,0.8363584876060486
1783202594541522000,6.60352197265625,-0.5702959420658648,2.0203911438733337,-2.3512790487527844,-3.491738796234131,-2.775355100631714,0.8139703869819641
1783202594551460000,6.613460205078125,-1.4242609417185186,1.4397133623942733,-4.02995986495912,-3.414057970046997,-2.579768419265747,0.8067788481712341
1783202594561397000,6.62339697265625,-2.3057640827685595,0.6571472731754183,-5.617330763211846,-3.3200933933258057,-2.2881734371185303,0.7182745337486267
1783202594571334100,6.633334228515625,-2.8717747487306595,-0.0999775007948279,-7.045827442803978,-3.204163789749145,-1.95785653591156,0.5275588631629944
1783202594581271300,6.643271240234375,-3.005817308473587,-0.7519843423418701,-8.256692009818554,-3.0764734745025635,-1.649884581565857,0.3056629598140716
1783202594591209200,6.653209228515625,-2.9248195256978278,-1.0988863934330642,-9.301593861216306,-2.947824716567993,-1.3560830354690552,0.0886407941579818
1783202594601145900,6.663145751953125,-2.777622300827503,-1.2550234422147273,-10.167395867526531,-2.820752620697021,-1.0296516418457031,-0.0692460387945175
1783202594611083000,6.6730830078125,-2.420113953917473,-1.5005327188856898,-10.93106202596426,-2.633516311645508,-0.6561805605888367,-0.1460847854614257
1783202594621021000,6.68302099609375,-1.8942294005081055,-1.6552309670358896,-11.55222057865262,-2.347205638885498,-0.2503800392150879,-0.1644803136587143
1783202594630958000,6.6929580078125,-1.2698564158178864,-1.7094905266202984,-11.953041266936063,-1.9906412363052368,0.085411362349987,-0.125200405716896
1783202594640895200,6.702895263671875,-0.6432697006009519,-1.803476970306784,-12.149739897078277,-1.4805439710617063,0.352908581495285,-0.0283446982502937
1783202594650832100,6.71283203125,-0.2954991961121559,-1.6274055331297217,-12.2522708817482,-0.8794984221458435,0.5079407095909119,0.0590701438486576
1783202594660770300,6.722770263671875,-0.2075551013298332,-1.70789755834043,-12.004901218032836,-0.262641578912735,0.6671919226646423,0.183438166975975
1783202594670707000,6.73270703125,-0.6481468051180244,-1.6179529373906552,-11.396914281606673,0.4109185934066772,0.881618082523346,0.2563204765319824
1783202594680644000,6.74264404296875,-1.3522455068215726,-1.5007681350767612,-10.66980879832506,1.0323890447616575,1.0629284381866455,0.2759786248207092
1783202594690582000,6.75258203125,-1.93713988308236,-1.4139618121527135,-9.5470234967798,1.5235811471939087,1.1821491718292236,0.2370495200157165
1783202594700519200,6.762519287109375,-2.3624437091067434,-1.241001054342091,-8.346224981227516,1.9188346862792969,1.2460484504699707,0.1217466369271278
1783202594710456000,6.7724560546875,-2.5689310350745918,-1.1869490000285208,-7.050427045553922,2.2451610565185547,1.3335810899734497,-0.0402006991207599
1783202594720393200,6.782393310546875,-2.6348998832836745,-1.0409861392587425,-5.638709651327133,2.471741199493408,1.450128197669983,-0.2012337893247604
1783202594730331100,6.7923310546875,-2.58211960247159,-0.7014788745939731,-4.205338059175015,2.5520565509796143,1.5718283653259275,-0.3297339975833893
1783202594740268000,6.80226806640625,-2.4361373063489795,-0.4111101732380688,-2.715769363504648,2.469979286193848,1.6793476343154907,-0.4269529581069946
1783202594750205000,6.812204833984375,-2.311124733018875,-0.1289095807686448,-1.3824573974728585,2.2676093578338623,1.75605309009552,-0.5124342441558838
1783202594760142000,6.82214208984375,-2.151723714005202,0.2051093156129121,-0.4884750063389539,2.054311990737915,1.8123224973678589,-0.5856539011001587
1783202594770080000,6.832080078125,-1.958683460240066,0.6257599090039729,-0.0691483550280332,1.9784952402114868,1.8810399770736692,-0.6312602758407593
1783202594780017200,6.84201708984375,-1.681432599132508,0.8170072880029677,0.2350011805295944,1.8626844882965088,1.8949145078659055,-0.639339804649353
1783202594789954300,6.851954345703125,-1.4634712546005844,1.074631219229102,0.9174567902237176,1.7125389575958252,1.9176838397979736,-0.6196158528327942
1783202594799892200,6.861892333984375,-1.3229451780572532,1.2009504912436009,1.7321680762439966,1.6131575107574463,2.0219507217407227,-0.6342514753341675
1783202594809829000,6.8718291015625,-1.3386220551386474,1.319006669564545,2.442235330963135,1.648207426071167,2.1002678871154785,-0.662562370300293
1783202594819766000,6.88176611328125,-1.2333981781229375,1.4563599612906577,2.9755612864196297,1.704700231552124,2.0247530937194824,-0.6499011516571045
1783202594829703200,6.891703125,-1.0989965027440338,1.6974828395709394,3.5661183646172283,1.7935640811920166,1.848422884941101,-0.615976870059967
1783202594839641000,6.90164111328125,-0.995811876470968,1.9319304778710007,4.1473412127584215,1.8741918802261357,1.5997824668884275,-0.5918044447898865
1783202594849578200,6.911578125,-0.9987661231666802,2.108186039443314,4.767933363735676,1.900199055671692,1.2506957054138184,-0.5485265851020813
1783202594859515100,6.92151513671875,-1.0077721441820264,2.312388469344377,5.570125359922647,1.8215068578720093,0.9305813312530518,-0.5318796634674072
1783202594869453300,6.931453369140625,-0.9166127406150102,2.3562033534124494,6.133181852254271,1.6615158319473269,0.6596590876579285,-0.5414366126060486
1783202594879390000,6.941389892578125,-0.8819514693394302,2.387557984358072,6.644153937083482,1.4188967943191528,0.4896386563777923,-0.5646718740463257
1783202594889327000,6.9513271484375,-0.8050435862258076,2.497844405460357,7.121614797455072,1.1099814176559448,0.4487008154392242,-0.5807917714118958
1783202594899264000,6.961263916015625,-0.5055053438559174,2.5367612883538007,7.506732889693975,0.7854901552200317,0.5234112739562988,-0.5857812166213989
1783202594909202200,6.9712021484375,-0.2305683126486837,2.572707046481967,7.731175266808271,0.4783210754394531,0.6331155896186829,-0.5983529686927795
1783202594919139000,6.98113916015625,0.0424111547499895,2.742463309162855,7.784862433332204,0.1798803061246872,0.6433791518211365,-0.6021088361740112
1783202594929076200,6.991076171875,0.4291051180034875,2.818672980879247,7.833981561288237,-0.0939751863479614,0.5441129803657532,-0.5811029672622681
1783202594939014100,7.00101416015625,0.6644955901116132,2.882968927440047,7.9477739446848625,-0.3392685651779175,0.3712306320667267,-0.5657128095626831
1783202594948951000,7.010950927734375,0.7867556498631835,2.9727266475155947,8.075341170933843,-0.560085654258728,0.1544598042964935,-0.5392237901687622
1783202594958888000,7.020887939453125,0.7977337016038596,3.121579822899401,8.228366079044342,-0.7457945346832275,-0.0717954412102699,-0.5055955052375793
1783202594968825000,7.0308251953125,0.7658323965609073,3.338498526510596,8.347659397944808,-0.9219887256622314,-0.3093539476394653,-0.4528100490570068
1783202594978763000,7.040762939453125,0.7777455371946096,3.5426825439721346,8.401752807182072,-1.1233083009719849,-0.5633523464202881,-0.374675840139389
1783202594988700200,7.0507001953125,0.7700821629598736,3.724796183922887,8.370935059592128,-1.374312162399292,-0.8717344403266907,-0.259795993566513
1783202594998637300,7.06063720703125,0.7502846988171339,3.924170170754194,8.066148979696631,-1.683650016784668,-1.2719082832336426,-0.1200002878904342
1783202595008574000,7.070573974609375,0.7444583307512104,4.031880019366741,7.672222142580151,-2.0325496196746826,-1.703050971031189,0.0170453861355781
1783202595018512100,7.08051220703125,0.7298975982181728,3.8500425660088657,7.042720124438405,-2.3566694259643555,-2.094752788543701,0.1695569008588791
1783202595028449000,7.090448974609375,0.7961623606339097,3.5244168194413183,6.164357911762595,-2.586453676223755,-2.4265623092651367,0.3524743318557739
1783202595038386200,7.10038623046875,1.001215269884467,3.147149440702796,5.047029122057557,-2.7143373489379883,-2.657722949981689,0.5866844654083252
1783202595048324000,7.110323974609375,1.0563171255119144,2.6487290866717697,3.847091022726893,-2.7307186126708984,-2.7135684490203857,0.8589196801185608
1783202595058261200,7.12026123046875,0.7889382545992731,2.09320795828104,2.756969388899207,-2.652385711669922,-2.590930700302124,1.1451340913772583
1783202595068198000,7.130197998046875,0.3180651020549238,1.5946274452522395,1.8424568354338409,-2.554579496383667,-2.372885704040528,1.3907082080841064
1783202595078135000,7.140135009765625,-0.4107953716678544,1.2051778996802869,1.309825291982293,-2.5245070457458496,-2.1808907985687256,1.582397699356079
1783202595088073000,7.150072998046875,-1.4357678396388889,1.0848087682418524,0.9404518813639878,-2.596363306045532,-2.0774407386779785,1.6110458374023438
1783202595098010000,7.160010009765625,-2.499084176388383,0.9209878869593144,0.4423503840237855,-2.744096517562866,-2.0960259437561035,1.515979528427124
1783202595107947000,7.169947021484375,-3.2329271512314675,0.5515462334103882,-0.5792915878176689,-2.911412715911865,-2.2168517112731934,1.3281471729278564
1783202595117885200,7.17988525390625,-3.779187114802003,0.0923024361222982,-2.1305220821529627,-2.9842824935913086,-2.1964304447174072,1.0492334365844729
1783202595127822000,7.189822021484375,-3.940360550315678,-0.2342435670953243,-3.805893335419893,-2.936481475830078,-2.04323959350586,0.7423663139343262
1783202595137759000,7.199759033203125,-3.4177246234387155,-0.4031746675310656,-5.72031007617116,-2.80611252784729,-1.8559606075286863,0.507830798625946
1783202595147696000,7.209696044921875,-2.562078684961796,-0.3798013907281681,-7.58057787810564,-2.614114999771118,-1.7416815757751465,0.3599222302436828
1783202595157634000,7.219634033203125,-1.6574382678218185,-0.3252230840507895,-9.20544527105987,-2.381338357925415,-1.5549330711364746,0.3146594166755676
1783202595167571000,7.229571044921875,-0.9671426121518016,-0.3323081469409167,-10.359634595650434,-2.081338882446289,-1.310041427612305,0.3311752080917358
1783202595177508000,7.239508056640625,-0.4550324632033705,-0.4179260637979954,-11.42534659536481,-1.662069320678711,-0.9952248930931092,0.3680874109268188
1783202595187446000,7.249446044921875,-0.1617868912369012,-0.5363188901947811,-12.031693363368513,-1.1716878414154053,-0.673346221446991,0.3900047540664673
1783202595197383200,7.259383056640625,-0.2505759124107659,-0.5347958818785846,-12.208767255586386,-0.7656654715538025,-0.4165346622467041,0.3863277435302734
1783202595207320000,7.269320068359375,-0.6013602117627859,-0.464319346986711,-11.92794540412426,-0.3962195515632629,-0.1468905806541443,0.3497757017612457
1783202595217257000,7.279257080078125,-0.9486528696067632,-0.2528688456535339,-11.617809779894351,0.0387716069817543,0.0614809989929199,0.279253602027893
1783202595227195100,7.289195068359375,-1.0017547835886478,-0.2497397538475692,-11.330604949396848,0.4309848248958587,0.2066757678985595,0.2310254871845245
1783202595237132000,7.299132080078125,-0.9631006432846188,-0.005584668264538,-10.66822591304779,0.8398452401161194,0.3765667974948883,0.1939452439546585
1783202595247069200,7.309069091796875,-0.6922000279866158,-0.0279246930295601,-10.079320109188556,1.2343542575836182,0.5211508274078369,0.1847544461488723
1783202595257007000,7.319007080078125,-0.5148891121424735,-0.0545917506808415,-9.300726430732013,1.5652596950531006,0.6858604550361633,0.2061423063278198
1783202595266944300,7.3289443359375,-0.6292793153017759,0.1080740057498216,-8.45886410293579,1.8324944972991943,0.8550286293029785,0.2452595829963684
1783202595276881000,7.338880859375,-1.0519652139127251,0.3776108584139496,-7.668146271443367,2.032125234603882,1.0239945650100708,0.2915740609169006
1783202595286818000,7.348818115234375,-1.479312528463453,0.5222934701148421,-6.907015768963098,2.204679489135742,1.2048197984695437,0.3367471694946289
1783202595296756000,7.358755859375,-2.02531311044544,0.5435973202325404,-6.190732123947143,2.321903944015503,1.407631754875183,0.3590745627880096
1783202595306693000,7.368693115234375,-2.6657746217578646,0.6003727350953966,-5.400754881688952,2.386486291885376,1.6206573247909546,0.3189663887023926
1783202595316630000,7.378630126953125,-3.1767510905012486,0.6815905903626233,-4.641473806467652,2.4173247814178467,1.7867125272750854,0.2061777710914611
1783202595326568200,7.388568115234375,-3.280180777576565,0.6782531895682216,-3.902366335225105,2.487013816833496,1.9074794054031368,0.0597999021410942
1783202595336505000,7.398505126953125,-3.227023772406578,0.7586562213212251,-3.0405425848960874,2.5979182720184326,1.9777501821517944,-0.0656171441078186
1783202595346442000,7.40844189453125,-3.087010906082392,0.8811009899899362,-2.054431360641121,2.72930645942688,1.9855802059173584,-0.1785417795181274
1783202595356379100,7.418379150390625,-2.9164392353653907,1.0587328083515166,-1.118956683167815,2.856844663619995,1.93570613861084,-0.2948966026306152
1783202595366317000,7.428317138671875,-2.6332699439942835,1.2528497514374553,-0.1303799455821514,2.9241204261779785,1.8727456331253047,-0.3999617397785187
1783202595376254000,7.43825390625,-2.2148820348382,1.354937083993107,0.9872270765423774,2.9413833618164062,1.8235878944396973,-0.4732436835765838
1783202595386190800,7.44819091796875,-1.819352730961144,1.504485694295168,2.131447380304337,2.9597573280334477,1.82172966003418,-0.5221372246742249
1783202595396128000,7.4581279296875,-1.5353224388465283,1.7174845941141246,3.3246365898966785,2.93449330329895,1.7958197593688965,-0.5353286266326904
1783202595406066000,7.46806591796875,-1.271826108455658,1.9831641137629743,4.465398277637362,2.8147804737091064,1.6918314695358276,-0.516691267490387
1783202595416003000,7.478003173828125,-1.0381054692558944,2.211641153220832,5.497409667801857,2.5966949462890625,1.5443501472473145,-0.4836467206478119
1783202595425940000,7.48793994140625,-0.8863090069618076,2.358989769260585,6.417006977185607,2.2917420864105225,1.4116034507751465,-0.4533584117889404
1783202595435878100,7.497878173828125,-0.827626662499085,2.4862106662899253,7.197193477791547,1.9259517192840576,1.2872018814086914,-0.439939022064209
1783202595445814800,7.507814697265625,-0.7562120430395006,2.5572251074507832,7.696994180265069,1.5279860496520996,1.1499013900756836,-0.4283843040466308
1783202595455752000,7.517751953125,-0.6720317577701062,2.5685315143629905,7.996032656419277,1.1474807262420654,1.0101698637008667,-0.4158376157283783
1783202595465689900,7.52768994140625,-0.5221522350132465,2.6362536359801885,8.145877765449882,0.8025180101394653,0.8291983604431152,-0.3819228410720825
1783202595475627000,7.537626953125,-0.3261236130870878,2.6915657733574507,8.21238525058031,0.5096443295478821,0.5820218324661255,-0.3458950817584991
1783202595485564000,7.54756396484375,-0.1727643584556877,2.639188520388305,8.224326448264717,0.2661672830581665,0.3222882151603699,-0.3110857903957367
1783202595495501000,7.5575009765625,-0.0428080451130866,2.505355804003775,8.244121866580844,0.0619472824037075,0.1272934228181839,-0.2578433454036712
1783202595505439000,7.56743896484375,-0.1032338722422718,2.621486567220092,8.260348194238542,-0.1399389207363128,0.021736703813076,-0.1806758344173431
1783202595515375900,7.5773759765625,-0.1115548336029052,2.7595053371176124,8.30472334253788,-0.3659254312515259,-0.0444247387349605,-0.055602341890335
1783202595525313000,7.58731298828125,0.2455612991191446,2.391643792366981,8.257253150832653,-0.51543790102005,-0.0610570646822452,0.1363242864608764
1783202595535251000,7.5972509765625,0.1237695875316858,2.8249276573598383,7.888005996942519,-0.6881310939788818,-0.1709055304527282,0.2272616475820541
1783202595545187800,7.607187744140625,0.2608642283216119,2.889268904367089,8.087817790669202,-0.8792755007743835,-0.4528853595256805,0.3898724615573883
1783202595555125000,7.617125,0.549888529331237,2.464118369208276,7.780218406918644,-1.082538604736328,-0.8083226084709167,0.5454322099685669
1783202595565062100,7.627062255859375,0.4337974405381828,2.6190429734602567,7.475229497927427,-1.2881065607070925,-1.2343186140060425,0.6520465016365051
1783202595575000000,7.637,0.3420721467167139,2.472600658610463,6.9112658276230095,-1.493891716003418,-1.6684298515319824,0.7149271965026855
1783202595584937000,7.64693701171875,0.310195245462656,2.139355376949906,6.261843888002634,-1.68378746509552,-1.9778341054916384,0.7602634429931641
1783202595594873900,7.656873779296875,0.0220931738644838,1.8784613380119204,5.452754533517361,-1.849363088607788,-2.2077341079711914,0.825798511505127
1783202595604812000,7.66681201171875,-0.101571418922767,1.577481372401118,4.47493358322382,-1.924139618873596,-2.057612657546997,0.9486282467842102
1783202595614749000,7.6767490234375,-0.3344326648142188,1.553798006735742,3.919438466057181,-1.9392749071121216,-1.7841376066207886,1.0459781885147097
1783202595624686000,7.68668603515625,-0.8494240682873875,1.582526380831003,2.6161048741817474,-1.9786746501922607,-1.6967616081237793,1.102672457695007
1783202595634623000,7.696623046875,-0.9676835871607063,1.3642989327087998,1.5972107397437094,-2.0589656829833984,-1.792672872543335,1.0819122791290283
1783202595644561200,7.70656103515625,-1.058098309840262,1.2471063854798674,0.5279997919976711,-2.17946195602417,-2.016758918762207,0.9931032657623292
1783202595654497800,7.716497802734375,-1.1118796574536711,1.09350411587283,-0.7153051553726196,-2.326337575912476,-2.2231545448303223,0.9040719270706176
1783202595664435000,7.72643505859375,-1.020915411132574,0.8616628606788813,-2.153225496870279,-2.457585573196411,-2.3085827827453613,0.8529828786849976
1783202595674372900,7.736372802734375,-0.8947570287682115,0.6036354632183909,-3.569484041658044,-2.563079833984375,-2.2719955444335938,0.819175124168396
1783202595684310000,7.74631005859375,-0.7671521008573472,0.3072461863987147,-4.859731357467174,-2.6535565853118896,-2.1695666313171387,0.7553757429122925
1783202595694247000,7.756246826171875,-0.8183734617896378,-0.0284252994954586,-6.0761103039890525,-2.7138631343841557,-1.927079677581787,0.6090059876441956
1783202595704184000,7.76618408203125,-0.9366025124594568,-0.3570151565656065,-6.881325447389483,-2.7328007221221924,-1.5355522632598877,0.3844076991081238
1783202595714122000,7.7761220703125,-0.9718285780109464,-0.3991603538557887,-7.324614573568105,-2.7077202796936035,-1.0787830352783203,0.1417974531650543
1783202595724059000,7.786058837890625,-0.7271931615650653,-0.3509351425321772,-7.638599858963489,-2.623731136322021,-0.7077586054801941,-0.0947975516319274
1783202595733996000,7.79599609375,-0.2199948961861431,-0.5071371828414499,-8.31772310936451,-2.4133358001708984,-0.445509135723114,-0.2982345521450043
1783202595743934000,7.805933837890625,0.3862932734981179,-0.5681331380087882,-9.010805911535025,-1.9866409301757808,-0.2241987735033035,-0.4468837976455688
1783202595753870800,7.815870849609375,0.6966464860014617,-0.1993263482972979,-9.426530738961697,-1.5325276851654053,-0.1531400382518768,-0.4476310908794403
1783202595763808000,7.82580810546875,0.8755182214215397,-0.0202841242816764,-9.380226668426394,-0.9869232177734376,-0.1055171638727188,-0.3449419736862182
1783202595773745200,7.8357451171875,0.8600568867869675,0.1246867206429131,-9.207373608773946,-0.3688968420028686,-0.1106402873992919,-0.19451704621315
1783202595783683000,7.84568310546875,0.6747542415365576,0.1656685915084555,-8.735376274505256,0.1907117068767547,-0.1973742991685867,-0.0656372457742691
1783202595793620000,7.855619873046875,0.2880184849679469,0.1237098475679289,-8.157547744977474,0.676157534122467,-0.3481726050376892,-0.0218711216002702
1783202595803556900,7.865556884765625,-0.3058702218703925,0.0278294890267774,-7.935032536533474,1.0985913276672363,-0.4740537106990814,-0.0510261729359626
1783202595813495000,7.8754951171875,-0.8756208050131797,-0.0676325071049854,-8.124168037945031,1.4930641651153564,-0.4864576458930969,-0.1508803218603134
1783202595823432000,7.885431884765625,-1.5260392083249985,-0.1574981080017984,-8.468401746609807,1.8837436437606807,-0.2675631642341614,-0.3178942203521728
1783202595833369000,7.895369140625,-2.0936739683575927,-0.2096847337696701,-8.228663016164303,2.2430922985076904,0.1917285323143005,-0.4495510756969452
1783202595843306000,7.905305908203125,-2.221132911926508,-0.3604544833645224,-7.253948215192556,2.4812982082366943,0.7585859894752502,-0.4154389202594757
1783202595853244200,7.915244140625,-2.4289729676775638,0.1583287866722792,-6.332174730813503,2.6465561389923096,1.1286375522613523,-0.4752074480056762
