time,seconds_elapsed,ax,ay,az,gx,gy,gz
1783203467206157300,0.0991572265625,-0.3890840732604265,0.0715513245165348,0.2954308070510625,-0.226592943072319,0.1927760690450668,-0.2067130506038665
1783203467216094200,0.10909423828125,-0.3486955103792249,0.0664686144247651,0.5446276861935854,-0.285709023475647,0.187026560306549,-0.2296079844236374
1783203467226029600,0.119029541015625,-0.1375312786415219,0.0234498491704463,0.7304068629145621,-0.3363513350486755,0.1822301894426345,-0.2233234792947769
1783203467235966500,0.128966552734375,0.0508032816506922,-0.0029851532906293,0.8808750722795724,-0.3550701439380646,0.1819348484277725,-0.1970865428447723
1783203467245903600,0.138903564453125,0.1420491944573819,-0.0294414908006787,0.9579419453471898,-0.3561145663261413,0.2138958722352981,-0.1659170091152191
1783203467255840500,0.148840576171875,0.0985913071334362,-0.0280590965315699,1.1438637454092502,-0.372916966676712,0.2830951809883117,-0.1339928805828094
1783203467265776600,0.158776611328125,-0.0858427385888993,-0.1084235498398542,1.2825637755692003,-0.3754156529903412,0.3087083995342254,-0.121593452990055
1783203467275713500,0.168713623046875,-0.0382815075993537,0.052792555771768,1.2712006700336933,-0.3846730589866638,0.2945302724838257,-0.1107008531689643
1783203467285650400,0.178650390625,-0.0709077659159898,0.210413559500873,1.6597791318595407,-0.4383624792098999,0.3348123431205749,-0.1132030338048935
1783203467295586600,0.188586669921875,-0.2640779296711087,0.1449760416895151,2.2582155651301146,-0.5350804924964905,0.3862233459949493,-0.1282229870557785
1783203467305523700,0.198523681640625,-0.2888435376152396,0.2214835273087024,2.753451151645184,-0.7057096362113953,0.3661128282546997,-0.1565330922603607
1783203467315460400,0.20846044921875,-0.2571959150724113,0.3115121732801199,3.292847366926074,-0.9679582715034484,0.2944754064083099,-0.1766095757484436
1783203467325396500,0.218396484375,-0.183165048699826,0.2676201323226094,3.832269885692,-1.3195565938949585,0.1364123821258545,-0.201741948723793
1783203467335333600,0.228333740234375,-0.1468902047477662,0.3354024596944451,4.405713916525245,-1.767729640007019,-0.0312445200979709,-0.229906752705574
1783203467345270500,0.2382705078125,-0.2674158419221639,0.3981722196012735,5.007005739226937,-2.2616214752197266,-0.1433620750904083,-0.2899853587150574
1783203467355207400,0.24820751953125,-0.3870437996044755,0.3000321633666754,5.355536268302798,-2.739072799682617,-0.1878555119037628,-0.369544118642807
1783203467365143600,0.2581435546875,-0.2684570215381682,0.0789098705857992,5.354833088469505,-3.2092502117156982,-0.2521449327468872,-0.4359376728534698
1783203467375080700,0.268080810546875,0.2981374356612563,-0.1895584029987454,4.861917469334602,-3.664710521697998,-0.4469173550605774,-0.4709073901176452
1783203467385017600,0.278017578125,1.105080571898073,-0.391804145874083,3.803383982947469,-4.041840553283691,-0.6952282190322876,-0.4456767439842224
1783203467394953500,0.287953369140625,1.7942920855931936,-0.708495183096826,2.646122411304712,-4.31544303894043,-0.9145385026931764,-0.3949317932128906
1783203467404890600,0.297890625,2.3272275804273783,-0.9079860743060708,1.604887850242853,-4.538810729980469,-1.0401887893676758,-0.3557409644126892
1783203467414827500,0.30782763671875,2.6584160756886,-1.2155445415243509,0.594278729069233,-4.719060897827148,-1.047788143157959,-0.3587716519832611
1783203467424764700,0.3177646484375,3.0493063215881584,-1.580221318759024,-0.8090648045659065,-4.841538906097412,-1.0171676874160769,-0.3819617033004761
1783203467434700500,0.327700439453125,3.4742569502606986,-1.577951620261371,-3.024101153182983,-4.776883125305176,-1.009008288383484,-0.4102431535720825
1783203467444637400,0.337637451171875,4.098535096274316,-1.1870692654073238,-6.335829161667824,-4.459373950958252,-1.309437274932861,-0.3274562656879425
1783203467454574600,0.34757470703125,5.026328279334306,-0.9433600238956512,-10.459041895341873,-3.81552529335022,-1.7332178354263306,-0.1274600625038147
1783203467464511700,0.35751171875,5.698007643470167,-0.4604946741320193,-13.611871135246751,-2.9291932582855225,-2.0470340251922607,0.1462951302528381
1783203467474447600,0.367447509765625,5.657125597983598,-0.094063308314979,-15.209037451326846,-1.9367488622665403,-2.0268092155456543,0.44584721326828
1783203467484384500,0.377384521484375,5.052064778137207,0.5098699688062072,-15.564401041293143,-0.8508307933807373,-1.6634886264801023,0.7315166592597961
1783203467494321700,0.38732177734375,4.467437382249534,1.4302708496578036,-15.76019716963768,0.3306949734687805,-1.1222975254058838,1.037217140197754
1783203467504257500,0.397257568359375,4.148786443130672,2.205880982258916,-16.150872896003722,1.5516324043273926,-0.6314653754234314,1.357314109802246
1783203467514194400,0.4071943359375,4.0830210085392,2.869605003476143,-16.31061805227995,2.691584825515747,-0.292149156332016,1.675788164138794
1783203467524131600,0.417131591796875,4.099230969583988,3.493753093369305,-15.4147225210011,3.631370306015015,-0.0835168808698654,1.9821981191635127
1783203467534068500,0.427068359375,4.04535587927252,3.952185135883093,-13.543650416457652,4.334531307220459,0.0230335313826799,2.264391660690308
1783203467544004400,0.43700439453125,3.975276965396106,4.37080013179332,-11.246783341372012,4.82133150100708,0.0804938375949859,2.515909194946289
1783203467553941500,0.44694140625,3.814634568019211,4.758873566706479,-8.786431923481821,5.129115581512451,0.1042859852313995,2.738591194152832
1783203467563878700,0.456878662109375,3.5374639325410127,5.174525621157884,-6.457634171128273,5.262615203857422,0.0655402392148971,2.907799005508423
1783203467573814500,0.466814453125,3.062698010341823,5.50749325492084,-4.407107416710257,5.283140659332275,-0.0312416981905698,3.016225099563598
1783203467583751400,0.47675146484375,2.445953474703431,5.767717139512301,-2.619451262000203,5.239314556121826,-0.1254463344812393,3.0578689575195312
1783203467593688600,0.4866884765625,1.7312404400050638,6.085707568895817,-1.0301906044781208,5.138881683349609,-0.2284172028303146,3.050266742706299
1783203467603625500,0.49662548828125,0.9778342481665312,6.338228624024987,0.4194768734365701,4.96335506439209,-0.3579502701759338,2.98520565032959
1783203467613561600,0.5065615234375,0.29828429678604,6.37712680221796,1.926273182761669,4.714622974395752,-0.4364911317825317,2.890076875686645
1783203467623498500,0.51649853515625,-0.1012415293812751,6.177022163024544,3.431078610530496,4.41671895980835,-0.5164369940757751,2.847054481506348
1783203467633435400,0.526435302734375,-0.2583186354920267,6.0104895385652775,4.559900854152441,4.093985557556152,-0.6245288252830505,2.837674617767334
1783203467643372500,0.53637255859375,-0.205263848587498,5.840886420619487,5.465425799041986,3.738273859024048,-0.7492485642433167,2.897358655929565
1783203467653308700,0.54630859375,-0.0002726063963025,5.551815211728215,6.421130194595456,3.32720947265625,-0.8187996745109558,2.985677719116211
1783203467663245300,0.556245361328125,-0.1367676007926464,5.250336941206455,7.36848937112987,2.877159595489502,-0.8753175139427185,2.9626219272613525
1783203467673182500,0.566182373046875,-0.4897874041117727,5.240025390550494,8.158437387293576,2.437270164489746,-0.8268415927886963,2.8849799633026123
1783203467683119600,0.57611962890625,-1.0565468426145612,5.380145808902382,9.26152605472207,2.008684635162353,-0.6064255833625793,2.764925241470337
1783203467693055700,0.5860556640625,-2.1757941792920232,5.188804906401038,10.000622420048714,1.6161929368972778,-0.2877258658409118,2.547516345977783
1783203467702992400,0.595992431640625,-3.140663585814833,5.102195713484287,10.203425796806812,1.2916455268859863,0.053467757999897,2.298198938369751
1783203467712929500,0.605929443359375,-3.715328682875633,4.927332483053207,10.096943444162608,1.0018891096115112,0.3091506659984588,2.0554873943328857
1783203467722866400,0.615866455078125,-4.112167900307476,4.799641338163614,9.791199917411804,0.7201017141342163,0.461532711982727,1.7977125644683838
1783203467732802600,0.625802490234375,-4.26863447330445,4.686779513615369,9.593696985149384,0.4535451531410217,0.5865800976753235,1.5471259355545044
1783203467742739500,0.635739501953125,-4.334820471395552,4.5702316940307615,9.636282911944388,0.1883654743432998,0.7597867250442505,1.2726335525512695
1783203467752676600,0.645676513671875,-4.462414877912402,4.449721985077858,9.828706348985431,-0.1169470399618148,0.9458966851234436,0.992986261844635
1783203467762613500,0.655613525390625,-4.397420719954371,4.181364478391409,9.974189171153306,-0.4857716560363769,1.056318759918213,0.7432128190994263
1783203467772549600,0.665549560546875,-3.962211732117832,4.049638963419199,9.846361248141529,-0.8846064209938049,1.0973836183547974,0.5238248109817505
1783203467782486500,0.675486572265625,-3.5070024510428306,4.117600739011168,9.517132800906897,-1.3063664436340332,1.073043942451477,0.3307337462902069
1783203467792423400,0.68542333984375,-3.2119761331394314,4.233500908342004,9.253291310340163,-1.7466167211532593,1.048140287399292,0.1529067605733871
1783203467802360600,0.695360595703125,-3.135322224786877,4.400152775266767,8.941335484945773,-2.1193301677703857,1.0841960906982422,-0.0423986427485942
1783203467812296700,0.705296630859375,-3.255847715830803,4.588870343527198,8.358971650075912,-2.3935649394989014,1.2468023300170898,-0.2834070026874542
1783203467822233300,0.7152333984375,-3.49459217454195,4.79948059464395,7.76924225487411,-2.60608434677124,1.4762117862701416,-0.5823050737380981
1783203467832170500,0.72517041015625,-3.6846184873133896,4.873862466411293,7.185684826305508,-2.7844314575195312,1.7422996759414673,-0.9182775020599364
1783203467842107600,0.735107666015625,-3.544518234966695,4.680834633736312,6.533109975612163,-2.962237596511841,1.915175199508667,-1.230239748954773
1783203467852043500,0.74504345703125,-2.6126333986788985,4.454428555333614,5.808510337671637,-3.200547218322754,1.9021944999694824,-1.4445652961730957
1783203467861980400,0.75498046875,-1.1114923386365174,3.9950037023901936,5.236331796729564,-3.51875638961792,1.7317276000976562,-1.505617380142212
1783203467871917600,0.76491748046875,0.438389590634033,3.561873566654324,4.921514152163267,-3.876653909683228,1.5061826705932615,-1.4518845081329346
1783203467881854500,0.7748544921875,1.3900773709572851,3.384546284197271,4.598167164182663,-4.189671039581299,1.3768210411071775,-1.3409271240234375
1783203467891790600,0.78479052734375,1.705403257306665,3.46770855153054,3.891189692172408,-4.370509624481201,1.368355393409729,-1.214941143989563
1783203467901727500,0.7947275390625,1.5921403046116231,3.7968341229125855,2.7199522021472453,-4.37919282913208,1.4637004137039185,-1.118886113166809
1783203467911664400,0.804664306640625,1.3971530084319412,4.091583085179328,1.4162848482728003,-4.283680438995361,1.6068555116653442,-1.0902751684188845
1783203467921601500,0.8146015625,1.142447960327193,4.244498687696456,0.1759171233981847,-4.183704853057861,1.6579999923706057,-1.120658278465271
1783203467931537700,0.82453759765625,1.0633687975890933,4.166364477658272,-1.0820336044400929,-4.055356025695801,1.5974767208099363,-1.157129168510437
1783203467941474600,0.834474609375,1.4051276405729352,4.072433271290362,-2.231821479201317,-3.9604337215423584,1.4336133003234863,-1.1677595376968384
1783203467951411500,0.844411376953125,1.7705252794280648,4.181990209074318,-2.8892028533935545,-3.9295711517333984,1.1943647861480713,-1.1417441368103027
1783203467961348600,0.8543486328125,1.808846826776862,4.249093029749393,-3.1709640315324066,-3.940814256668091,0.9976260662078856,-1.092889428138733
1783203467971284700,0.86428466796875,1.7293860443100333,4.456975609467923,-3.469666407600045,-3.900353193283081,0.8940442800521851,-1.044640064239502
1783203467981221400,0.874221435546875,1.537070743818581,4.71164770515114,-3.8118385075598953,-3.8363850116729736,0.922807276248932,-1.0399090051651
1783203467991158500,0.884158447265625,1.1808593048512934,4.853329673731327,-4.19809174130857,-3.752845048904419,1.0100936889648438,-1.0914393663406372
1783203468001095400,0.894095458984375,0.9185966079086064,4.796129822911322,-5.015992178758979,-3.656686544418335,1.061612844467163,-1.1986925601959229
1783203468011032600,0.904032470703125,0.9030621349725872,4.62416903592348,-6.1916977541089055,-3.5091452598571777,1.000972032546997,-1.2799017429351809
1783203468020968400,0.913968505859375,1.1043436359256504,4.2644034116059535,-7.512623701298236,-3.2597649097442627,0.7792010307312012,-1.2989354133605957
1783203468030905600,0.923905517578125,1.4493876380600037,3.7847903416365374,-8.77151492485702,-2.938539981842041,0.5496562719345093,-1.2519841194152832
1783203468040842500,0.933842529296875,1.7380068654000758,3.475015367412567,-9.135203860098123,-2.633408069610596,0.365894079208374,-1.210005760192871
1783203468050779600,0.943779541015625,1.696976351353526,3.050260261312127,-9.033727937439084,-2.370777368545532,0.2861720621585846,-1.2225068807601929
1783203468060715500,0.953715576171875,1.390538266467303,2.455292673195898,-9.044825085514784,-2.1118319034576416,0.2275796830654144,-1.2802529335021973
1783203468070652400,0.96365234375,1.4021020091414451,1.8325304847031831,-9.50356780141294,-1.8227945566177368,0.1075725778937339,-1.2992874383926392
1783203468080589600,0.973589599609375,1.7730936686113477,1.4659405673235657,-10.384475606918334,-1.4091013669967651,-0.0720456913113594,-1.281301736831665
1783203468090526500,0.9835263671875,1.995198834949732,0.7256845105677843,-11.145656378281116,-0.9263246059417723,-0.1903150826692581,-1.2429404258728027
1783203468100462300,0.99346240234375,2.179983593805879,0.2200841819047927,-11.11699960811734,-0.4444657862186432,-0.2197047024965286,-1.1836204528808594
1783203468110399500,1.0033994140625,2.493557229660451,0.0947749637156724,-10.754918692594766,0.0255872290581464,-0.1811495870351791,-1.0765666961669922
1783203468120336600,1.013336669921875,2.904613773015141,-0.2570095987200737,-10.449223096638915,0.4761062860488891,-0.1586721390485763,-0.9071946740150452
1783203468130273500,1.0232734375,3.499789158663153,-0.4752116201400757,-10.161155511832236,0.8403151631355286,-0.2470885515213012,-0.6859845519065857
1783203468140210700,1.033210693359375,4.073508791567385,-0.4832423663824796,-9.747933022615314,1.132065773010254,-0.4333135783672333,-0.4404525756835937
1783203468150146600,1.043146484375,4.174124590265751,-0.3620432138606905,-9.371629520472885,1.4136008024215698,-0.6051124930381775,-0.2231165021657943
1783203468160083500,1.05308349609375,3.893131181629002,-0.1112739708349108,-8.909100856295227,1.733220458030701,-0.6868681311607361,-0.0470983274281024
1783203468170020600,1.0630205078125,3.430926342578232,0.2886944845333695,-8.526365859800576,2.124274730682373,-0.709601640701294,0.0976695120334625
1783203468179957500,1.07295751953125,2.9711691889405247,0.6181365745186805,-8.30731511259675,2.5539896488189697,-0.6978409290313721,0.2235586047172546
1783203468189894400,1.082894287109375,2.6939330870106817,1.035734794601798,-7.814228813070058,2.970070600509644,-0.6912714242935181,0.3325663208961487
1783203468199830500,1.09283056640625,2.5604715420261024,1.3732408024467526,-7.008534361720085,3.3571457862854004,-0.6481176018714905,0.446199506521225
1783203468209767700,1.102767578125,2.4858447555869816,1.7026222482860087,-5.901366900545359,3.693190097808838,-0.5430622696876526,0.5745120048522949
1783203468219704600,1.11270458984375,2.5325112296938896,2.018817464815825,-4.670615145277977,3.944205522537232,-0.4644562602043152,0.7420517802238464
1783203468229641000,1.122640869140625,2.738152167965472,2.1243319953411817,-3.47400356002152,4.105166435241699,-0.4570750296115875,0.9347631931304932
1783203468239577000,1.1325771484375,2.7787314311131834,2.111268807889521,-2.402312485897541,4.229835510253906,-0.467411607503891,1.1210850477218628
1783203468249514000,1.142513916015625,2.471714231164753,2.2417498757585883,-1.4102034825325012,4.329476356506348,-0.4685932397842407,1.271910548210144
1783203468259451100,1.152451171875,1.9603537315398452,2.3914234276145696,-0.4362766170680522,4.397500514984131,-0.4675076603889465,1.3804471492767334
1783203468269388000,1.162387939453125,1.3639286380916833,2.56672534172386,0.5280921464562416,4.420092105865479,-0.4858826696872711,1.4343794584274292
1783203468279325000,1.172324951171875,0.7456905028946698,2.8400352101206776,1.5405810900270938,4.371480464935303,-0.5212543606758118,1.4206775426864624
1783203468289261000,1.182260986328125,0.1634730907581746,3.1950080472037192,2.5563538775742054,4.251688480377197,-0.5829723477363586,1.3527462482452393
1783203468299198200,1.1921982421875,-0.5079632949346676,3.340203576862812,3.4836849960803984,4.070165634155273,-0.6546084880828857,1.233610987663269
1783203468309134800,1.202134765625,-1.080441805204004,3.4439947907269,4.386421187034249,3.832366943359375,-0.6928064823150635,1.0974078178405762
1783203468319072000,1.212072021484375,-1.4218904131948946,3.5422137574166057,5.33678831321299,3.503345012664795,-0.8317420482635498,0.9366980195045472
1783203468329009200,1.222009033203125,-1.70610775231421,3.48432533981055,6.54630146561861,3.0351390838623047,-0.944019854068756,0.7881906032562256
1783203468338945000,1.231945068359375,-1.847230041185021,3.416978188985586,7.514526320049166,2.554208755493164,-1.0586469173431396,0.6606810688972473
1783203468348882000,1.2418818359375,-1.8511564208485185,3.2831799593925477,8.219031264466047,2.06644868850708,-1.0825251340866089,0.5490237474441528
1783203468358819000,1.251819091796875,-1.985815505054593,3.2340260523840785,9.057392890664934,1.6082392930984497,-0.9788336157798768,0.4609303474426269
1783203468368756000,1.261755859375,-2.349777704279125,3.0736595493391152,9.562844750767946,1.2395366430282593,-0.7712638974189758,0.3768386244773865
1783203468378693000,1.271693115234375,-2.7498008124440907,3.0425603544592854,9.706468793326616,0.981422245502472,-0.5138400793075562,0.266069233417511
1783203468388629000,1.28162890625,-3.200333041618764,3.1254294840648766,9.687048638063668,0.7424480319023132,-0.2406607419252395,0.1212673261761665
1783203468398566000,1.29156591796875,-3.6175378784701215,3.186614605128765,9.934405442297455,0.4773571193218231,0.0329059064388275,-0.0791559442877769
1783203468408503000,1.3015029296875,-3.917317528380453,3.16732129111588,10.200973142957686,0.1699849069118499,0.3063494265079498,-0.3245883285999298
1783203468418440200,1.311440185546875,-4.044267499513924,3.132493138840794,10.373680656659603,-0.1776894330978393,0.5528478622436523,-0.5891962647438049
1783203468428377000,1.321377197265625,-3.896353358545899,2.9662282254070043,10.396976192051172,-0.5658614039421082,0.7237240076065063,-0.8324834704399109
1783203468438313000,1.33131298828125,-3.297793591156602,2.619879716545343,10.129044217300414,-0.9737233519554138,0.7881843447685242,-1.0098267793655396
1783203468448250000,1.34125,-2.6019971461132165,2.260399923431873,9.745672091946004,-1.3960306644439695,0.8500860929489136,-1.1650235652923584
1783203468458187000,1.35118701171875,-2.1163912654697894,2.096710121183097,9.490637592691185,-1.8241398334503172,0.9209096431732178,-1.2954432964324951
1783203468468124200,1.361124267578125,-1.5613450611144304,1.8902219184324145,9.141352445855736,-2.2797653675079346,1.012944221496582,-1.38062584400177
1783203468478061000,1.37106103515625,-0.909996610410884,1.7291612956434488,8.654582489868998,-2.754593133926392,1.0521003007888794,-1.4503591060638428
1783203468487997000,1.380996826171875,-0.2939335542306304,1.8065481944456696,7.6487126721769565,-3.2011430263519287,0.9963626861572266,-1.4985688924789429
1783203468497934000,1.39093408203125,0.2282302981551736,1.877326196502149,6.330095001929998,-3.583014488220215,0.8823493123054504,-1.5103358030319214
1783203468507871200,1.400871337890625,0.5593626793149858,1.8967690019883212,4.873702015152573,-3.869970798492432,0.7303767800331116,-1.5067834854125977
1783203468517807900,1.410807861328125,0.6913622619882226,1.91240028636232,3.2849574904590844,-4.041813850402832,0.5517769455909729,-1.4980707168579102
1783203468527745000,1.4207451171875,0.6842539643529802,2.040460849086195,1.7482354139477014,-4.104443073272705,0.3992289304733276,-1.498394250869751
1783203468537681200,1.43068115234375,0.5192632355734705,2.1480761512830853,0.4423965612530708,-4.048477649688721,0.2914588451385498,-1.4947025775909424
1783203468547618000,1.4406181640625,0.3974592124937102,2.2055533577397464,-0.6378080741941928,-3.911034345626831,0.2662333846092224,-1.492629051208496
1783203468557555000,1.450554931640625,0.3683517759529873,2.2651650920070705,-1.2095751117259264,-3.7803053855896,0.3152353763580322,-1.5057742595672607
1783203468567492000,1.4604921875,0.3743031951706856,2.295990730642527,-1.4763321974784136,-3.681451320648194,0.3483880162239074,-1.5204397439956665
1783203468577429000,1.470428955078125,0.4583383728809654,2.3337281944930552,-1.7430045275568962,-3.635914087295532,0.3135900497436523,-1.5219879150390625
1783203468587366100,1.4803662109375,0.5270535241235047,2.4006778704330323,-2.0284107841998336,-3.622819185256958,0.170375108718872,-1.515363335609436
1783203468597302000,1.490302001953125,0.4394159380070865,2.3815077444083985,-2.3710867420285937,-3.623100996017456,-0.036429077386856,-1.490018367767334
1783203468607239000,1.500239013671875,0.2483769410617649,2.438330578609556,-2.5023417168796063,-3.5788583755493164,-0.2135220915079116,-1.4438726902008057
1783203468617176000,1.510176025390625,-0.0994018197987228,2.4570208121627566,-2.5136229893505573,-3.4646151065826416,-0.2772620916366577,-1.3974257707595823
1783203468627113200,1.52011328125,-0.4565688059251755,2.637093301674724,-2.253192184010148,-3.3250203132629395,-0.1990421265363693,-1.371909499168396
1783203468637050000,1.530050048828125,-0.7988718387883156,2.910694554233551,-1.6614567096829411,-3.238204002380371,0.0353862531483173,-1.415231227874756
1783203468646986000,1.539986083984375,-0.8850875023428351,3.249948136398196,-1.1174158834666013,-3.257803678512573,0.2613371014595032,-1.5017973184585571
1783203468656923100,1.549923095703125,-0.7034479827098548,3.4856194712743163,-1.074288104879856,-3.325890302658081,0.4134553968906402,-1.5998296737670898
1783203468666860000,1.559860107421875,-0.4308884942889213,3.514336739453673,-1.845980917906761,-3.345987319946289,0.4110699892044067,-1.6850165128707886
1783203468676797200,1.569797119140625,-0.0603447247169911,3.3264532839298244,-3.190781077158451,-3.260162830352783,0.3292126059532165,-1.7187987565994265
1783203468686734000,1.579734130859375,0.2220204106643795,2.991384878495335,-4.568143197318912,-3.017410516738892,0.2113298773765564,-1.717626690864563
1783203468696670000,1.589669921875,0.4642345913127064,2.757592489233613,-5.752244845092296,-2.629382371902466,0.1551169902086258,-1.659508228302002
1783203468706607000,1.599607177734375,0.6724481565512717,2.3890438390016557,-6.3874500433117145,-2.1546289920806885,0.2147350460290908,-1.5748541355133057
1783203468716544300,1.609544189453125,0.8433116498216986,2.027170136488974,-6.351162924399971,-1.7198246717453003,0.4007144868373871,-1.498469591140747
1783203468726481000,1.61948095703125,1.13206780141443,1.7552333100110291,-5.926142445361614,-1.3607892990112305,0.5938644409179688,-1.4089192152023315
1783203468736418000,1.62941796875,1.5249651493526994,1.411643744468689,-5.704562471941113,-1.0685023069381714,0.7146171927452087,-1.3022269010543823
1783203468746355000,1.63935498046875,1.876969930410385,1.0433493612587452,-5.711419498229026,-0.8378310203552246,0.7258589267730713,-1.1894961595535278
1783203468756291000,1.649291015625,2.072609845279902,0.7549690572410821,-5.861233627599478,-0.633467972278595,0.6385774612426758,-1.0940593481063845
1783203468766228000,1.65922802734375,2.11933184896633,0.4397539377897977,-6.063324472174048,-0.4216590523719787,0.5067273378372192,-1.0171747207641602
1783203468776165000,1.6691650390625,2.169517875501513,0.1228185704171657,-6.095825642806291,-0.225182443857193,0.383007138967514,-0.940359115600586
1783203468786102000,1.67910205078125,2.316682513276488,-0.1006657753199338,-5.877097551685571,-0.0532509014010429,0.2597041130065918,-0.8479929566383362
1783203468796039200,1.6890390625,2.5526860027164218,-0.3256137638688087,-5.572864429497718,0.088866613805294,0.1204079389572143,-0.7363958954811096
1783203468805976000,1.69897607421875,2.754191740879416,-0.4779331540584564,-5.321546904939413,0.2141478359699249,0.0031244533602148,-0.6089604496955872
1783203468815912000,1.708911865234375,2.8694577039599416,-0.5227887793511152,-5.1000172004014255,0.3532013595104217,-0.0906463041901588,-0.4825735092163086
1783203468825849000,1.71884912109375,2.8344147398903963,-0.4668073644101619,-4.926717566025257,0.496037095785141,-0.1520843654870987,-0.3679433465003967
1783203468835786000,1.728785888671875,2.705101254495978,-0.3241320008784532,-4.731751458764076,0.6260314583778381,-0.2102400809526443,-0.273009181022644
1783203468845723100,1.73872314453125,2.56811328895092,-0.096562431654334,-4.589433822628855,0.7465764880180359,-0.2878373861312866,-0.1983133554458618
1783203468855660000,1.748659912109375,2.3865230883523822,-0.0107020112782716,-4.596247594296932,0.8914563059806824,-0.381997674703598,-0.1286082565784454
1783203468865597000,1.758596923828125,2.341166966191679,0.0864355899155139,-4.666991694083809,1.056530237197876,-0.4836702346801758,-0.0566315315663814
1783203468875533000,1.768532958984375,2.358207094450295,0.2945803277015686,-4.5455245382756,1.2335540056228638,-0.5561294555664062,0.0363421738147735
1783203468885470200,1.77847021484375,2.23360544000864,0.5035021873399615,-4.267453446826338,1.4396063089370728,-0.5627670884132385,0.1250944137573242
1783203468895406800,1.78840673828125,1.992655726338178,0.7708359039366245,-3.99510365563333,1.6418081521987915,-0.52044278383255,0.1999888718128204
1783203468905344000,1.798343994140625,1.7918622280977663,1.0867328681722284,-3.614491058120132,1.8036980628967283,-0.4616098403930664,0.2692204117774963
1783203468915281200,1.80828125,1.6380856248371305,1.3709385168537496,-3.224979699358344,1.92705512046814,-0.4147160053253174,0.3022551834583282
1783203468925218000,1.818218017578125,1.4113826093144717,1.461353239533305,-3.017631664907932,2.0494329929351807,-0.4106924831867218,0.3098284304141998
1783203468935154000,1.82815380859375,1.2340071038015186,1.4433072952330113,-3.009593904402852,2.170763731002808,-0.4411635100841522,0.2939701974391937
1783203468945091000,1.838091064453125,1.1554624132663012,1.4818679120346905,-2.850494644814729,2.2746617794036865,-0.4937667846679687,0.2759062349796295
1783203468955028000,1.848028076171875,1.1119172860503197,1.484775616174936,-2.6243758589208124,2.377184629440308,-0.5574527978897095,0.2636541128158569
1783203468964965000,1.857965087890625,1.192954450988397,1.463224001841247,-2.2708751402169463,2.4429640769958496,-0.6040456295013428,0.278698056936264
1783203468974902300,1.86790234375,1.5227619402199983,1.325611182396114,-1.790866348928213,2.4971225261688232,-0.6477080583572388,0.3464319109916687
1783203468984839000,1.8778388671875,1.924896341450512,1.0463894596070051,-1.464501474431157,2.560181140899658,-0.6655722856521606,0.46262988448143
1783203468994775000,1.887775146484375,2.1951655269771813,0.8894768964082002,-1.22530868743062,2.6453399658203125,-0.6610243320465088,0.5975907444953918
1783203469004712200,1.897712158203125,2.2816060853287574,0.748040719282627,-0.9947557184815408,2.743887424468994,-0.6123548150062561,0.7536261081695557
1783203469014649000,1.907649169921875,2.321854947478324,0.653011488544941,-0.7176157704025506,2.8692338466644287,-0.5639378428459167,0.9218525290489196
1783203469024586000,1.9175859375,2.2665042316563424,0.5275085013493895,-0.524269957819581,2.9960925579071045,-0.4959169626235962,1.0721360445022583
1783203469034523100,1.927523193359375,2.0928560761034487,0.560322391192615,-0.182498255354166,3.121630907058716,-0.4205607771873474,1.200652003288269
1783203469044460000,1.9374599609375,1.9611789303176104,0.6289800400942563,0.1302653792917728,3.25018572807312,-0.3565312027931213,1.3298722505569458
1783203469054396200,1.947396240234375,1.9275081313841045,0.6931159737877547,0.4579939433574676,3.3559718132019043,-0.2911443412303924,1.4878180027008057
1783203469064333000,1.9573330078125,2.1630096626512705,0.7241589815009385,1.0192524463564157,3.410902738571167,-0.2515138387680053,1.7060915231704712
1783203469074270000,1.96727001953125,2.508893622741103,0.6223382639922201,1.5393763904124498,3.413447856903076,-0.249687373638153,1.960652470588684
1783203469084207000,1.97720703125,2.5241037590935824,0.7076500375095754,2.1439216619521377,3.415280103683472,-0.1844862699508667,2.197864294052124
1783203469094144000,1.98714404296875,2.1284644189707933,0.8237658954177052,2.893554618862271,3.4184789657592773,0.0421147942543029,2.3882768154144287
1783203469104081200,1.9970810546875,1.4745511592805385,1.0157699380028993,3.597025544056296,3.4562902450561523,0.337765634059906,2.504894733428955
1783203469114017000,2.00701708984375,0.8266206272616982,1.168596766258031,4.025125284409523,3.529978513717652,0.6928550004959106,2.582882881164551
1783203469123954200,2.0169541015625,0.3277754719473421,1.0975857591632754,4.394086607095599,3.5868804454803467,0.9961429834365844,2.63321304321289
1783203469133891000,2.02689111328125,0.0196609782814979,1.1275111610233783,4.795718027240038,3.5952048301696777,1.2535171508789062,2.670316696166992
1783203469143828200,2.036828125,-0.0585538957774639,1.2027359133556486,5.341839166861773,3.5049190521240234,1.433626651763916,2.712336301803589
1783203469153764900,2.046764892578125,-0.0080821476360782,1.326580904211104,5.990289046579599,3.290704727172852,1.5403571128845217,2.745509147644043
1783203469163702000,2.056701904296875,-0.1141910273253917,1.5459885020285844,6.62778381704092,2.9670965671539307,1.5733448266983032,2.7499372959136963
1783203469173639200,2.06663916015625,-0.4086091867351904,1.7809286000207063,7.300412444725632,2.51975679397583,1.5730974674224854,2.7070236206054688
1783203469183575000,2.076574951171875,-0.8714340208478272,1.9668585833892225,7.772567015382647,1.9937491416931152,1.4645923376083374,2.6011552810668945
1783203469193512000,2.086511962890625,-1.3340154381260274,2.350101529406011,8.041889567708969,1.377780556678772,1.2777985334396362,2.4354069232940674
1783203469203449000,2.096448974609375,-1.6827480656452476,2.665022049824893,8.386044950440526,0.6946932673454285,1.047740817070007,2.2292847633361816
1783203469213386000,2.106385986328125,-2.062456700056046,2.8010888088718056,8.67906577374041,0.0391477197408676,0.8930854797363281,2.0172431468963623
1783203469223323100,2.1163232421875,-2.352842206416279,2.67239462441951,8.927541937392949,-0.547248125076294,0.8895655274391174,1.7945849895477295
1783203469233260500,2.126260498046875,-2.5552497157245875,2.499900753468275,9.0262741143018,-1.052560567855835,0.9856241941452026,1.5892497301101685
1783203469243196400,2.136196533203125,-2.5118188625380395,2.4020272392153736,8.932282409918308,-1.526719093322754,1.1317672729492188,1.4034709930419922
1783203469253133600,2.146133544921875,-2.2578256890296933,2.47583364918232,8.790442912688851,-1.9739419221878047,1.285141110420227,1.2395819425582886
1783203469263070500,2.156070556640625,-1.9504691741243003,2.4214964943170547,8.460331252878904,-2.3821609020233154,1.4175606966018677,1.104020357131958
1783203469273007600,2.166007568359375,-1.5331461177207528,2.362585455664992,7.925069945445657,-2.7767794132232666,1.4782294034957886,0.9958298206329346
1783203469282944800,2.17594482421875,-1.207481062056124,2.430328620070219,7.368501646089554,-3.1711058616638184,1.502035140991211,0.885964572429657
1783203469292881400,2.18588134765625,-0.9872974383648484,2.46551917591691,6.824487707880139,-3.5604074001312256,1.4588682651519775,0.7636544108390808
1783203469302818600,2.195818603515625,-0.9795217628620564,2.5560911349847912,6.178847040364146,-3.932300567626953,1.3913688659667969,0.6042871475219727
1783203469312754700,2.205754638671875,-1.0586066977538169,2.7156360925138,5.543515585416555,-4.281362533569336,1.3067631721496582,0.4087651073932647
1783203469322691600,2.215691650390625,-1.2462753414832055,2.8819126963853834,4.883254271873832,-4.576452255249023,1.2300772666931152,0.1874239295721054
1783203469332628500,2.22562841796875,-1.4239393085487186,2.900777555853128,4.124763470247387,-4.859735488891602,1.1312001943588257,-0.0772561579942703
1783203469342565600,2.235565673828125,-1.375757023051381,3.291097016127408,3.4664129587620494,-5.185103893280029,0.9409069418907166,-0.3328700959682464
1783203469352502500,2.24550244140625,-1.19700065763928,3.620485622359812,2.7122978880018,-5.514716625213623,0.7093279361724854,-0.5666707158088684
1783203469362439700,2.255439697265625,-0.898142141161859,3.966235288545489,1.855464201045036,-5.806639194488525,0.3966832458972931,-0.7507715821266174
1783203469372376600,2.26537646484375,-0.6072948625087737,4.268658438701928,0.7678209400296211,-6.018059730529785,0.1479553431272506,-0.8906773328781128
1783203469382312400,2.2753125,-0.4158831597935408,4.544780149649084,-0.350606166306138,-6.053970336914063,-0.0548984333872795,-0.965833067893982
1783203469392249600,2.28524951171875,-0.1534266207791864,4.723582765355706,-1.683600736951828,-5.929984092712402,-0.1201778352260589,-0.9781256914138794
1783203469402186800,2.295186767578125,0.0260693109538406,4.887983638483286,-2.82272400983572,-5.638021945953369,-0.0898284539580345,-0.9324932098388672
1783203469412123600,2.30512353515625,0.2448972822524607,5.019567699158191,-3.9698832896590233,-5.161681652069092,0.0342994853854179,-0.8435744047164917
1783203469422060500,2.315060546875,0.312636501134932,4.7239849164158105,-5.205394222152233,-4.499689102172852,0.2489342838525772,-0.7105638980865479
1783203469431997400,2.32499755859375,0.4376248898718506,4.475474850493669,-6.193259596598148,-3.735085964202881,0.5183088183403015,-0.5607727766036987
1783203469441934600,2.3349345703125,0.4974339733421802,4.180694616305828,-6.835472043231129,-2.9195597171783447,0.7984486222267151,-0.4139732420444488
1783203469451870700,2.34487060546875,0.4361952223949134,3.626927930366993,-7.254074471920728,-2.112215518951416,1.05393648147583,-0.2802034616470337
1783203469461807600,2.3548076171875,0.3463743008900433,3.2376568101018663,-7.349926709479093,-1.3795558214187622,1.2412320375442505,-0.1838630586862564
1783203469471744500,2.36474462890625,0.1582908658146858,2.803407314947248,-7.087762796735763,-0.7854788899421692,1.3760504722595217,-0.1278927475214004
1783203469481681700,2.374681640625,0.0507876456901431,2.624557645228505,-6.456020306190848,-0.3737453818321228,1.4255977869033811,-0.1183754056692123
1783203469491618600,2.38461865234375,0.0150714585341513,2.551358553504944,-5.738358943080902,-0.1394660174846649,1.3710243701934814,-0.1486284285783767
1783203469501555700,2.3945556640625,0.0180574886076152,2.3984113868057726,-5.072101603993773,-0.0605664141476154,1.2312521934509275,-0.200500950217247
1783203469511492600,2.40449267578125,0.0645851387657225,2.206809787541628,-4.43491078491509,-0.0776396170258522,1.0508521795272827,-0.2499840706586837
1783203469521428500,2.414428466796875,0.2182275942526757,1.9824486589699983,-3.890598156020045,-0.1538427919149398,0.8547725081443787,-0.2775903940200805
1783203469531365600,2.42436572265625,0.4450682646803557,1.7616525294035672,-3.501131805443764,-0.2510001063346863,0.6525081992149353,-0.2697846293449402
1783203469541302800,2.434302734375,0.6073571140900254,1.467963013061881,-3.2932436727672814,-0.3436501324176788,0.4717540740966797,-0.2545923590660095
1783203469551239400,2.444239501953125,0.5384077887654304,1.2450842320024966,-3.200301769697666,-0.4152742028236389,0.3342694342136383,-0.2496554255485534
1783203469561176600,2.454176513671875,0.4078023638643324,1.1658102042794227,-3.1857343151628967,-0.4330758452415466,0.2281885296106338,-0.2652503550052643
1783203469571113500,2.464113525390625,0.2748442383572459,1.1148889953374863,-3.3893490083038804,-0.3945724666118622,0.1301424950361251,-0.2773023843765259
1783203469581050600,2.474050537109375,0.228147953633964,0.9249456846743822,-3.577574993655085,-0.3196516036987304,0.0387236289680004,-0.2822566628456116
1783203469590986500,2.483986572265625,0.2505290045291185,0.745258395087719,-3.7281191908657543,-0.1983885616064071,-0.0536960177123546,-0.2855501472949981
1783203469600923600,2.493923583984375,0.3677414255023002,0.6479629729837179,-3.81891648312211,-0.0467359237372875,-0.1284725219011306,-0.2727198302745819
1783203469610860500,2.503860595703125,0.4964003925107419,0.4918810153901576,-3.692690150088072,0.1140288859605789,-0.1529006361961364,-0.2439159154891967
1783203469620797700,2.513797607421875,0.6551417785719037,0.3992208518713712,-3.3362229827940464,0.2686240375041961,-0.1256375908851623,-0.2005660533905029
1783203469630734600,2.523734619140625,0.7934621617645025,0.3287000394463539,-2.9456980630755423,0.4175091087818146,-0.0873351022601127,-0.1556825935840606
1783203469640671500,2.53367138671875,0.8355844165705144,0.2145394072592258,-2.673292157781124,0.5325909852981567,-0.0604795180261135,-0.1144757717847824
1783203469650608600,2.543608642578125,0.8521421681396663,0.2217956619977951,-2.329506192883849,0.5952500104904175,-0.0440326854586601,-0.0781176015734672
1783203469660545500,2.553545654296875,0.8347992575421929,0.3024550065994262,-1.992309543249011,0.6323131918907166,-0.0463645495474338,-0.0602320805191993
1783203469670481700,2.563481689453125,0.7692834137976169,0.4234890316873788,-1.8788357242822649,0.6570810079574585,-0.0639256834983825,-0.0576143823564052
1783203469680418600,2.57341845703125,0.665187956289947,0.506515105420351,-1.819814795514941,0.6611697673797607,-0.0902813896536827,-0.0679913908243179
1783203469690355500,2.58335546875,0.6777773887500167,0.6512175908654928,-1.810935323488712,0.6724088788032532,-0.1344252228736877,-0.0796012505888938
1783203469700292600,2.593292724609375,0.672832625824213,0.8402215748518704,-1.895246760857105,0.6818526983261108,-0.1926112920045852,-0.090699978172779
1783203469710229800,2.603229736328125,0.6439880780033767,0.972567267549038,-1.9638491724401712,0.7136179208755493,-0.2427962124347686,-0.0997499302029609
1783203469720166700,2.613166748046875,0.6292139949806034,1.1232535035789013,-1.9887053812772035,0.7635154128074646,-0.2837345898151397,-0.0861249342560768
1783203469730103600,2.623103515625,0.632201632489264,1.1596037508547306,-1.9827859281003477,0.8307850956916809,-0.3084099888801574,-0.076727382838726
1783203469740040400,2.63304052734375,0.5099608619600534,1.1777741983175276,-1.9524480729818343,0.9101555347442628,-0.3165366351604461,-0.0890671387314796
1783203469749976600,2.6429765625,0.3890991246990859,1.3046002508103849,-1.833623540636897,0.965714693069458,-0.3194838464260101,-0.1121723279356956
1783203469759913700,2.652913818359375,0.3445496427461504,1.4603157131791114,-1.6919991474628449,0.996587097644806,-0.3433367311954498,-0.1400926411151886
1783203469769850400,2.662850341796875,0.3606225334078073,1.611786962106824,-1.6489555400282143,0.9820531606674194,-0.4061228632926941,-0.1705158054828643
1783203469779787500,2.67278759765625,0.4874056235417723,1.832766047024727,-1.533875454908609,0.9086855053901672,-0.4921363294124603,-0.2046612501144409
1783203469789724700,2.682724609375,0.5612371679499745,2.1116765119075773,-1.595048008751869,0.8285808563232422,-0.6092955470085144,-0.2530781328678131
1783203469799661600,2.69266162109375,0.5532223499290645,2.339293427404761,-1.9825065266370767,0.7939874529838562,-0.7384974956512451,-0.3133881092071533
1783203469809598700,2.7025986328125,0.3744569974929094,2.398281622946262,-2.608632346343994,0.8537828922271729,-0.844318151473999,-0.3919963240623474
1783203469819534600,2.71253466796875,0.2685023219846189,2.374564939533174,-3.294935863637924,1.012467622756958,-0.9169737100601196,-0.4543899297714233
1783203469829471500,2.722471435546875,0.1457601778045296,2.169901029600203,-3.919250834530592,1.2831664085388184,-1.0095165967941284,-0.5419605374336243
1783203469839408600,2.73240869140625,0.1968545513562858,1.847894642573595,-4.346722213852405,1.610526204109192,-1.040490746498108,-0.5658860802650452
1783203469849345800,2.742345703125,0.5104428002581,1.417214238077402,-4.109027556455136,1.919966459274292,-1.032810091972351,-0.5535300970077515
1783203469859282400,2.752282470703125,0.9313383083209394,1.1937076805084943,-3.5035207464069127,2.194165706634521,-0.9890766739845276,-0.4910438656806946
1783203469869219600,2.762219482421875,1.4223589074894785,0.887590059748292,-2.7806448635190724,2.41565203666687,-0.933292269706726,-0.3857339024543762
1783203469879156500,2.772156494140625,1.785894844125956,0.6083119305968284,-2.1095728176265958,2.598960876464844,-0.8804349303245544,-0.2525217831134796
1783203469889093600,2.78209375,2.029513338614255,0.3690194826140999,-1.5216238761007783,2.753438949584961,-0.8267260193824768,-0.0855319052934646
1783203469899030800,2.79203076171875,2.235994380971789,0.2044993670210242,-0.9634265142381192,2.88789176940918,-0.7838083505630493,0.0972847789525985
1783203469908966700,2.801966552734375,2.237154656922817,0.1163493744030594,-0.4737047227084636,2.991013765335083,-0.736482560634613,0.2745824456214905
1783203469918903600,2.811903564453125,2.128155060760677,0.0794914698660373,0.0562111320436,3.08443021774292,-0.6705003380775452,0.4326397180557251
1783203469928840700,2.8218408203125,1.8503461273789408,0.0352960620477795,0.5224141008198261,3.161775827407837,-0.604559600353241,0.566678524017334
1783203469938777600,2.831777587890625,1.6669542841859162,0.0289965235121548,0.9502192421406508,3.218250036239624,-0.536550760269165,0.6885581016540527
1783203469948714500,2.841714599609375,1.5049787385091185,0.0555209578223526,1.4292974745810032,3.263535261154175,-0.443062275648117,0.8115625977516174
1783203469958651600,2.851651611328125,1.380065241639316,0.1378225166730582,1.9767191754072904,3.282389879226685,-0.3088150024414062,0.9278676509857178
1783203469968588500,2.861588623046875,1.2847998640581966,0.3116141723498702,2.520906716617941,3.2946510314941406,-0.1712943613529205,1.0467541217803955
1783203469978525700,2.871525634765625,1.1275295734629034,0.4631928271748125,2.970993832373619,3.2664029598236084,-0.0067685237154364,1.154297947883606
1783203469988461600,2.881461669921875,0.8842284743607044,0.6480271973263472,3.50587578510046,3.210011959075928,0.1633259057998657,1.2520482540130615
1783203469998398500,2.8913984375,0.6299338336877525,0.7942904292821884,3.841611130011081,3.147957324981689,0.3040228486061096,1.32951819896698
1783203470008335600,2.901335693359375,0.2775340984957292,0.8686747122023254,4.111126574560999,3.034738779067993,0.4303730726242065,1.3671050071716309
1783203470018272500,2.9112724609375,-0.092323688972881,1.0278319855879992,4.433059604090452,2.8793435096740723,0.5153119564056396,1.362375259399414
1783203470028209700,2.921209716796875,-0.4602833329362794,1.1018219354283063,4.584581121900677,2.715013027191162,0.551398754119873,1.3251409530639648
1783203470038146600,2.931146484375,-0.8311602434527129,0.9923334597706794,4.677349421969056,2.529115676879883,0.5759355425834656,1.258172869682312
1783203470048083500,2.94108349609375,-1.1612721955236047,0.9646158701531587,4.915976976302266,2.3113491535186768,0.6086690425872803,1.152657389640808
1783203470058020600,2.9510205078125,-1.4196255370028317,0.944172728518024,5.16774516723752,2.0771872997283936,0.654189944267273,1.0403138399124146
1783203470067957800,2.960957763671875,-1.43523870119825,0.8865570634387433,5.336404282331467,1.8255054950714111,0.6838871240615845,0.9442877173423768
1783203470077893400,2.970893310546875,-1.3545029303595424,0.7514357685483992,5.4360307777315375,1.5363250970840454,0.6941363215446472,0.8673202395439148
1783203470087830500,2.98083056640625,-1.2148531251940875,0.6909415523581206,5.601635765951872,1.221960186958313,0.7147180438041687,0.8164153099060059
1783203470097767700,2.990767578125,-1.0677023698139936,0.7238574412710964,5.655085032066703,0.9068393111228944,0.7272756695747375,0.7839012742042542
1783203470107704600,3.00070458984375,-1.0374798847034572,0.8097466493502259,5.647637054148316,0.5648475885391235,0.750028669834137,0.7446239590644836
1783203470117641700,3.010641845703125,-1.171884628822282,0.9637031392224132,5.669716199487447,0.1955888718366623,0.7583776712417603,0.6875476241111755
1783203470127578600,3.02057861328125,-1.3855281832203268,1.1345036502592265,5.590028914788365,-0.1881253570318222,0.754702627658844,0.6023116707801819
1783203470137515500,3.030515625,-1.647465593731403,1.263184098447114,5.365020720484853,-0.5669717788696289,0.721682608127594,0.4899211823940277
1783203470147452700,3.04045263671875,-1.9131201250694687,1.349971424409747,5.011878898221254,-0.9332764744758606,0.6529690623283386,0.3510911464691162
1783203470157388800,3.050388916015625,-2.1230292421795425,1.413448748064041,4.661839718148112,-1.2833878993988037,0.5848496556282043,0.1904450207948684
1783203470167325400,3.060325439453125,-2.256145480857789,1.4373863807514309,4.311199065050483,-1.6001591682434082,0.5210899114608765,0.0148761449381709
1783203470177262600,3.0702626953125,-2.3752196040496227,1.4564162215225398,4.006958928599953,-1.9053255319595337,0.4802743196487427,-0.1808896213769912
1783203470187199500,3.080199462890625,-2.40052326439321,1.4828952092558143,3.8597166955441233,-2.224219799041748,0.4451936185359955,-0.3831092417240143
1783203470197136600,3.09013671875,-2.317539714627713,1.5490145718514918,3.6531636108636856,-2.54028868675232,0.3874203264713287,-0.5759628415107727
1783203470207073800,3.10007373046875,-2.1560452304661277,1.5754232708275318,3.330951764392853,-2.832641124725342,0.3032810688018799,-0.7601818442344666
1783203470217010400,3.110010498046875,-1.9855314274162053,1.641079984347522,2.9194460159659386,-3.113009214401245,0.194737821817398,-0.92499178647995
1783203470226947800,3.11994775390625,-1.8270988150432703,1.745209051863849,2.5304057818472385,-3.384469509124756,0.0799688026309013,-1.085435152053833
1783203470236884700,3.129884765625,-1.6338172998681664,1.8115007022865115,2.129042072728276,-3.648036241531372,-0.0410638824105262,-1.2251437902450562
1783203470246820900,3.13982080078125,-1.404427821740508,1.947398388376832,1.6911702954232692,-3.86735200881958,-0.1551315933465957,-1.3488339185714722
1783203470256757800,3.1497578125,-1.2525631895810363,1.9963371913298964,1.1407879912257193,-4.023258209228516,-0.2498253434896469,-1.4478846788406372
1783203470266695000,3.15969482421875,-1.1172337318327277,2.087251534094661,0.4323275871813297,-4.09347677230835,-0.3233770430088043,-1.526208996772766
1783203470276631800,3.1696318359375,-1.0069173539835958,2.253257650461793,-0.2989011135101318,-4.068049907684326,-0.3661482036113739,-1.581865310668945
1783203470286569000,3.17956884765625,-0.9665892891179768,2.3941554829269647,-1.0361901371538638,-3.951437950134277,-0.3481467068195343,-1.6178210973739624
1783203470296505900,3.189505859375,-0.9179592598531394,2.478399115756154,-1.756744299095869,-3.739008665084839,-0.2934323251247406,-1.6360533237457275
1783203470306442800,3.19944287109375,-0.8261555670332164,2.4990379991590976,-2.540263158994913,-3.437094211578369,-0.2034847885370254,-1.633562684059143
1783203470316380000,3.2093798828125,-0.5881572505142539,2.4392107224449515,-3.206776518669724,-3.083855390548706,-0.0756594538688659,-1.5900514125823977
1783203470326316800,3.21931689453125,-0.2728887203752994,2.2707634965360164,-3.764484635710716,-2.684959173202514,0.0351954288780689,-1.519856333732605
1783203470336253000,3.2292529296875,0.0810063314083963,2.1112565329298376,-4.285439769893884,-2.2754406929016118,0.1413751244544983,-1.4223297834396362
1783203470346189800,3.23918994140625,0.4413772646753117,1.906890436899662,-4.583859237366915,-1.8676375150680544,0.2457435727119445,-1.315219163894653
1783203470356126700,3.249126708984375,0.662421268055588,1.7001123112916945,-4.786066986319423,-1.4650192260742188,0.3369464576244354,-1.2013317346572876
1783203470366063900,3.25906396484375,0.8198582935199141,1.4769067824959754,-4.957224347969889,-1.0885084867477417,0.4265489876270294,-1.099849820137024
1783203470376000800,3.269000732421875,0.9145230748593808,1.295996673116088,-4.977992995232343,-0.7494491338729858,0.4905841648578644,-1.0135506391525269
1783203470385938000,3.27893798828125,0.9023317018061876,1.1180471671074628,-5.008114577251672,-0.445919394493103,0.514395534992218,-0.9464069604873656
1783203470395874800,3.288874755859375,0.9352106197096408,0.9639718731611968,-5.02648902285397,-0.190180554986,0.4892590045928955,-0.8925253748893738
1783203470405811700,3.298811767578125,0.948088659852743,0.7472972074389457,-5.020097275990247,0.0332134738564491,0.4067558050155639,-0.8545104265213013
1783203470415748900,3.308748779296875,0.9631232935078442,0.6119301210939884,-5.103247852885723,0.2438439428806305,0.2894214391708374,-0.8310930132865906
1783203470425685000,3.31868505859375,1.016627358549833,0.491432687100768,-4.980019532623887,0.4217066168785095,0.1886689960956573,-0.8124103546142578
1783203470435621600,3.32862158203125,1.1751342052027582,0.4036027202174067,-4.741208438417315,0.5666137337684631,0.0591842345893383,-0.7771487832069397
1783203470445558800,3.338558837890625,1.469767286004871,0.2996156915202737,-4.414884480452537,0.6713619828224182,-0.0619522668421268,-0.7113375663757324
1783203470455496000,3.348495849609375,1.6884505150705575,0.1732248155742883,-4.149938243514299,0.7956855297088623,-0.1878763735294342,-0.6323375105857849
1783203470465432800,3.358432861328125,1.8339393285878,0.0911748933970928,-3.978502064922452,0.9352799654006958,-0.2548605799674988,-0.5255698561668396
1783203470475370000,3.368369873046875,1.897463413993269,0.0123752051874995,-3.6722903361380097,1.0851852893829346,-0.2519092559814453,-0.4061859548091888
1783203470485306600,3.378306640625,1.9135035714291035,0.1137514668643474,-3.355009516328573,1.2543540000915527,-0.1978490501642227,-0.293500006198883
1783203470495243800,3.388243896484375,1.8322513755008576,0.2568827574700117,-3.112986474338174,1.4232391119003296,-0.1263945698738098,-0.1978589743375778
1783203470505181000,3.398180908203125,1.779570171149075,0.4177861438706517,-2.936373769891262,1.57540762424469,-0.0847901627421379,-0.1079914346337318
1783203470515117800,3.408117919921875,1.6988490133576095,0.4803951602578163,-2.8392484436571594,1.7061349153518677,-0.1058818697929382,-0.0309778731316328
1783203470525053700,3.4180537109375,1.6590940722048282,0.5418313334733248,-2.7909640129595994,1.8115190267562864,-0.196925550699234,0.0537659786641597
1783203470534990800,3.427990966796875,1.7325142593331635,0.5215323495492339,-2.698844532188773,1.8871387243270876,-0.3194128572940826,0.142345905303955
1783203470544927700,3.437927734375,1.6820558455973862,0.5175067472949624,-2.491118312075734,1.956337809562683,-0.4193891584873199,0.205912783741951
1783203470554865000,3.447864990234375,1.5672298813693224,0.6115262164682149,-2.264878530150652,2.047210454940796,-0.4707852303981781,0.2613203525543213
1783203470564802000,3.457802001953125,1.464477801294625,0.6466495522975921,-2.064006413716078,2.150716543197632,-0.499598741531372,0.3194571733474731
1783203470574738700,3.46773876953125,1.4083824045851825,0.5868757593363523,-2.134359468358755,2.2693796157836914,-0.6378074884414673,0.3833000659942627
1783203470584675800,3.47767578125,1.420644943178445,0.556236290922761,-2.2756378245741127,2.3639943599700928,-0.7636110782623291,0.4412732422351837
1783203470594612700,3.48761279296875,1.4262168980918823,0.604119301212579,-1.9565110846370457,2.487125873565674,-0.7950574159622192,0.5027560591697693
1783203470604550000,3.4975498046875,1.5070333329513668,0.6051945292286575,-1.6198767450600862,2.663414001464844,-0.7452172636985779,0.5837482213973999
1783203470614485800,3.50748583984375,1.7251636043094098,0.5346762010216712,-1.3945774588555098,2.8424766063690186,-0.6946896314620972,0.7033076286315918
1783203470624423000,3.5174228515625,2.1007544281378387,0.4230633536212146,-1.0803279695659875,2.978465795516968,-0.6750742197036743,0.8661614656448364
1783203470634359800,3.52735986328125,2.5038313709154725,0.2718509748253971,-0.7421142518430948,3.095782518386841,-0.7071908712387085,1.0621269941329956
1783203470644297000,3.537296875,2.8166481970533725,0.1827419279169291,-0.3612099779069423,3.1600611209869385,-0.7307742238044739,1.2484833002090454
1783203470654233900,3.54723388671875,2.9442633540973064,0.1281761884601786,0.2015624367862939,3.1888341903686523,-0.7436021566390991,1.4232876300811768
1783203470664170800,3.557170654296875,3.034279432848096,0.1100155500053428,0.660769847586751,3.215471029281616,-0.7493789196014404,1.613161563873291
1783203470674108000,3.56710791015625,3.1466818231910465,-0.062001278018672,0.9652841248035432,3.2751495838165283,-0.7558575868606567,1.8407061100006104
1783203470684044800,3.577044921875,3.2666303911298518,-0.171842567435652,1.258919865131378,3.3760759830474854,-0.7302250266075134,2.107340812683105
1783203470693982000,3.58698193359375,3.2146839307934045,-0.2020287391237914,1.7241671406179666,3.521439552307129,-0.5922895669937134,2.4009227752685547
1783203470703918800,3.5969189453125,2.963542639584839,-0.0276291076164692,2.439386955794692,3.715140581130981,-0.3222899734973907,2.699227094650269
1783203470713855700,3.606855712890625,2.554562317982316,0.389209014814347,3.2045196796536444,3.919501781463623,0.0885787680745124,2.984448194503784
1783203470723792000,3.6167919921875,2.0521162155665458,0.8165975381582975,4.039890891864896,4.076053142547607,0.5377770662307739,3.2416348457336426
1783203470733728800,3.626728759765625,1.4113915232732892,1.4687101781673728,4.735139347636699,4.131162166595459,0.9542741775512696,3.4239234924316406
1783203470743666000,3.636666015625,0.6118686732303351,2.211148401267826,5.277544681605696,4.048733711242676,1.245983362197876,3.521599054336548
1783203470753602800,3.646602783203125,-0.3492174153614789,2.7853201618537304,5.71663460252881,3.837335824966431,1.3676823377609253,3.5279552936553955
1783203470763539700,3.656539794921875,-1.386976336202025,3.2437107033133503,6.049385378670692,3.4840612411499023,1.304813265800476,3.4387898445129395
1783203470773476900,3.666476806640625,-2.3593143250398336,3.914705300055444,6.75111676672101,2.874392509460449,1.133397340774536,3.223745107650757
1783203470783413800,3.676413818359375,-3.399782431773841,4.735311489333212,7.967390499302744,2.079123020172119,0.913467824459076,2.8810789585113525
1783203470793351000,3.686350830078125,-4.48200045287013,5.251556838390231,8.834081563407182,1.2063653469085691,0.7267106771469116,2.4012198448181152
1783203470803287800,3.696287841796875,-5.636113205093145,5.583318018972873,9.422486432006954,0.3711831271648407,0.6651426553726196,1.825866460800171
1783203470813224700,3.706224609375,-6.629598757508397,5.613044464194775,9.811596224230527,-0.4074647128582001,0.7366184592247009,1.1742453575134275
1783203470823160800,3.716160888671875,-7.367373518842458,5.633342571336031,9.986866281896829,-1.102912425994873,0.9119678139686584,0.5041531324386597
1783203470833098000,3.726097900390625,-7.542430810540914,5.63341914370358,9.872488207566738,-1.6862623691558838,1.1655925512313845,-0.1405899226665496
1783203470843034600,3.73603466796875,-7.038473572909831,5.91186316011846,9.508261512187122,-2.2079288959503174,1.3574587106704712,-0.7367768883705139
1783203470852971800,3.7459716796875,-6.214148070847988,6.229850666892528,9.01720934883654,-2.6998207569122314,1.5228008031845093,-1.267960786819458
1783203470862909000,3.755908935546875,-5.160921458697318,6.444897439152002,8.557310448640585,-3.1867446899414062,1.6389755010604858,-1.7407112121582031
1783203470872845800,3.765845703125,-4.042995287621021,6.576425385725498,8.053027047795057,-3.6296775341033936,1.7529411315917969,-2.1426198482513428
1783203470882783000,3.775782958984375,-2.9568782132595777,6.509618625387549,7.482650587838887,-4.027402877807617,1.8014224767684937,-2.4669575691223145
1783203470892719900,3.785719970703125,-1.822531945519149,6.383045670872926,6.756018567287922,-4.430388450622559,1.7337148189544678,-2.697997808456421
1783203470902656800,3.79565673828125,-0.6952989438500254,6.225995160508155,6.067507310816645,-4.860195636749268,1.5587621927261353,-2.8425862789154053
1783203470912594000,3.805593994140625,0.1974022483669221,6.139796301957965,5.612855663624406,-5.3167924880981445,1.432148814201355,-2.937331199645996
1783203470922530000,3.815530029296875,0.7648085334058851,6.254701030510664,5.419270197066664,-5.761162281036377,1.4102585315704346,-3.0153584480285645
1783203470932466700,3.825466796875,1.227968262028694,6.332026846775412,4.952629421395063,-6.198776245117188,1.453940987586975,-3.1029586791992188
1783203470942403800,3.83540380859375,1.6572323699861764,6.517158373242617,4.25217638271749,-6.6038737297058105,1.4423047304153442,-3.1482083797454834
1783203470952340700,3.8453408203125,2.177891882223636,6.521159425577521,3.135256173813343,-6.986114501953125,1.3540356159210205,-3.1716582775115967
1783203470962278000,3.85527783203125,2.5475971551448104,6.802450648117065,1.9411936885178087,-7.351279258728027,1.2365703582763672,-3.172505617141724
1783203470972215000,3.865215087890625,2.7885096055448053,7.339280227780342,0.7768050414741039,-7.655298233032227,1.1157567501068115,-3.17905068397522
1783203470982151700,3.875151611328125,2.910039889717102,7.838414575299621,-0.6294260302960872,-7.836765289306641,1.0418180227279663,-3.14566969871521
1783203470992088800,3.8850888671875,2.946058713081479,8.317859887486696,-2.241528634223342,-7.858288764953613,1.0824719667434692,-3.105801582336426
1783203471002025700,3.895025634765625,3.0189982770860198,8.815339453536271,-4.154696251696348,-7.667935371398926,1.1706538200378418,-3.0374317169189453
1783203471011963000,3.904962890625,3.290322232362628,9.118459061524272,-6.487115701678395,-7.266873836517334,1.1384533643722534,-2.902617931365967
1783203471021900000,3.914900146484375,3.548017475259304,8.865730501124263,-9.429961882454156,-6.688621520996094,1.024353265762329,-2.7677459716796875
1783203471031836000,3.9248359375,3.2437662328928707,8.14947900481224,-11.59943942594528,-5.857014656066895,1.0109719038009644,-2.482718706130981
1783203471041772800,3.934772705078125,3.4447494084864854,8.075317205536365,-14.341425765246152,-4.585607528686523,0.896263062953949,-2.1844208240509038
1783203471051710000,3.9447099609375,3.226384305459261,7.455104409265518,-16.709092469698188,-3.133880615234375,0.839337944984436,-1.9117697477340696
1783203471061646800,3.954646728515625,2.6255864037543533,6.726091046535968,-17.485837889939546,-1.8049012422561648,0.8869563937187195,-1.7636820077896118
1783203471071583700,3.964583740234375,1.89181050279811,5.772172949877381,-16.858638888043163,-0.7100751996040344,0.9784386157989502,-1.6955159902572632
1783203471081521000,3.97452099609375,1.7008046774700285,5.423804333364963,-16.095701043879984,0.20928256213665,0.8968446850776672,-1.7024939060211182
1783203471091457800,3.984457763671875,1.9743653057575223,5.074778714248538,-15.288415523946284,0.83193039894104,0.7042899131774902,-1.7264105081558228
1783203471101395000,3.99439501953125,2.282258119496703,4.704226907500624,-13.880909025412796,1.2153240442276,0.4558817446231842,-1.7730461359024048
1783203471111331800,4.004331787109375,2.614143803241849,4.507815862128139,-12.68304831687808,1.4931542873382568,0.1983727216720581,-1.8234150409698489
1783203471121268700,4.014268798828125,2.9734377183943983,4.22806134763658,-11.995375849318505,1.7616151571273804,-0.072463609278202,-1.830949187278748
1783203471131206000,4.024205810546875,3.442801489289105,3.8724148490756742,-11.632312937021254,2.104428768157959,-0.2870430052280426,-1.7587999105453491
1783203471141142000,4.03414208984375,3.906127733585238,3.466454459816217,-11.303120730143783,2.538808107376098,-0.41871178150177,-1.6182584762573242
1783203471151079000,4.044078857421875,4.131144695717096,2.9755151091903445,-10.871042149287462,3.041762351989746,-0.4811056554317474,-1.42881178855896
1783203471161015800,4.054015869140625,4.209350801947712,2.766308879652619,-10.268215372103452,3.592767238616944,-0.4805943369865417,-1.2389031648635864
1783203471170952700,4.06395263671875,4.093190520375967,2.7515789280325174,-9.573178513255716,4.204827785491943,-0.3984510004520416,-1.0449419021606443
1783203471180889900,4.073889892578125,3.899504808314144,2.720655966502428,-8.694294907054305,4.8049516677856445,-0.262776643037796,-0.8616380095481873
1783203471190827000,4.083826904296875,3.7877234724789854,2.863925204274058,-7.473347921964526,5.328583717346191,-0.1060711815953254,-0.6771759986877441
1783203471200764000,4.093763916015625,3.87497914660573,3.0428327416598795,-6.185450968673825,5.749179363250732,-0.0261995960026979,-0.4846202135086059
1783203471210700800,4.10370068359375,4.102539948001504,3.1204826753124597,-4.9732554453164335,6.050948619842529,-0.0448555722832679,-0.2601870894432068
1783203471220637700,4.1136376953125,4.472438259276747,3.114856067602336,-3.6423914569586513,6.246920108795166,-0.0735697150230407,0.0137457279488444
1783203471230575000,4.1235751953125,4.7045945717692375,3.1138898529186845,-2.205322763854265,6.380499362945557,-0.0694657787680625,0.2966605126857757
1783203471240512300,4.13351220703125,4.790372282297909,3.095949414819479,-0.951988589900732,6.470348834991455,-0.0186592824757099,0.6154299974441528
1783203471250448000,4.14344775390625,4.886363928326964,2.938182572878897,0.1595265450894832,6.5211710929870605,0.0480257384479045,0.9578682780265808
1783203471260385000,4.153385009765625,4.828103754799067,2.859953962555528,1.1404407852232457,6.533357620239258,0.132878690958023,1.306679606437683
1783203471270322200,4.163322265625,4.615305638249218,2.828833432626724,1.8733301126033064,6.555221557617188,0.2069694250822067,1.6426820755004885
1783203471280259000,4.173259033203125,4.230587943504751,3.016636224129796,2.349807807156444,6.592305660247803,0.3082946538925171,1.9314889907836916
1783203471290196200,4.1831962890625,3.600280161938071,3.368542367118597,2.845377155670524,6.648185253143311,0.4906583428382873,2.1745567321777344
1783203471300132900,4.1931328125,2.9443863959550858,3.6774177621543407,3.35290874465704,6.727466106414795,0.7319594025611877,2.3731839656829834
1783203471310070000,4.203070068359375,2.384113396862149,4.187679360626638,3.796054662972689,6.815016746520996,1.0119025707244873,2.565762042999268
1783203471320007200,4.213007080078125,1.9563865814745425,4.520469591996074,4.243835839873552,6.914705753326416,1.316001296043396,2.776819229125977
1783203471329944000,4.222944091796875,1.5065841278791428,4.715320256184041,4.591835623073577,7.052280426025391,1.6319416761398315,3.0012052059173584
1783203471339881200,4.232881103515625,0.9949106167823076,4.962692550247907,4.946695355170965,7.210857391357422,2.008392095565796,3.2593507766723637
1783203471349818000,4.242818115234375,0.4808733722288161,5.236630487415194,5.602564571234583,7.350494384765625,2.444870710372925,3.5555427074432373
1783203471359755000,4.252755126953125,0.1244224984824657,5.700251038482785,6.557098169443011,7.336192607879639,2.76374626159668,3.8316147327423096
1783203471369691100,4.262691162109375,-0.5219426839157939,6.295802271705866,7.550550404110551,6.951837539672852,2.747549533843994,3.9804630279541016
1783203471379628300,4.272628173828125,-1.7112478916816412,7.142869766929746,8.966365296784042,6.159349918365479,2.5199391841888428,3.906442880630493
1783203471389565000,4.28256494140625,-3.013659254145622,7.68317199113965,10.6584316642642,5.193833827972412,2.348986864089966,3.696066856384277
1783203471399502000,4.292502197265625,-4.126443678419292,7.715500143292545,11.848894663763046,4.198118209838867,2.316990375518799,3.3635125160217285
1783203471409439000,4.30243896484375,-5.003937583827972,7.938551358309388,12.584583266472816,3.210714340209961,2.4386332035064697,2.955061435699463
1783203471419376000,4.312376220703125,-5.762314403685927,7.782645926326513,12.753832748675345,2.273737907409668,2.572056293487549,2.5002689361572266
1783203471429313300,4.322313232421875,-6.2677762006610624,7.664422282484173,12.13503449537754,1.3611072301864624,2.520816802978516,1.999922513961792
1783203471439250000,4.33225,-6.4804813782304524,7.842000617092848,11.120438934916256,0.4217840433120727,2.1828529834747314,1.4695013761520386
1783203471449187000,4.34218701171875,-6.664604019916057,7.9786010446250435,10.090087002396585,-0.53559809923172,1.5997004508972168,0.9056667685508728
1783203471459124000,4.3521240234375,-7.223637832602858,7.995129570099711,9.265602510380743,-1.4081616401672363,0.9578593969345092,0.2583777606487274
1783203471469061000,4.36206103515625,-7.665356932985782,8.172675756004452,8.942476471674441,-2.1753485202789307,0.5438007116317749,-0.3288436532020569
1783203471478997000,4.3719970703125,-7.802443682730197,8.19638221028447,9.273113032141326,-2.7785322666168213,0.4548542201519012,-0.878345787525177
1783203471488934100,4.38193408203125,-7.728086068621278,8.271939847832918,9.422220474547148,-3.17061448097229,0.6251437067985535,-1.3662190437316897
1783203471498871000,4.39187109375,-7.368577633935213,8.436937517809868,9.377178971293567,-3.480907678604126,0.937908411026001,-1.826637983322144
1783203471508808200,4.40180810546875,-6.9277388235181565,8.659383752670884,9.466367074787616,-3.867165327072144,1.239791750907898,-2.291510581970215
1783203471518745000,4.4117451171875,-6.120009651470184,8.997171938458084,9.55289560368359,-4.392777442932129,1.3845674991607666,-2.730242729187012
1783203471528682000,4.421681884765625,-5.007459912735223,9.251079479509592,9.397823699915408,-5.012970924377441,1.4250900745391846,-3.145593881607056
1783203471538619100,4.431619140625,-4.009145040467382,9.313568376648426,9.072397567573187,-5.68450927734375,1.4336179494857788,-3.5908522605896
1783203471548556000,4.44155615234375,-3.206333158816397,9.36454920682311,8.447838266530633,-6.3868184089660645,1.366204023361206,-4.033773899078369
1783203471558493200,4.4514931640625,-2.245336063682288,9.344781845557687,7.620465067335963,-7.145638942718506,1.238889217376709,-4.429050445556641
1783203471568430000,4.46143017578125,-0.8919000319018959,9.610334231695532,6.770783590221405,-8.006012916564941,1.026522874832153,-4.773744106292725
1783203471578367000,4.471366943359375,0.5612471048220992,10.16607484805584,5.848115202829241,-8.98327350616455,0.7341758608818054,-5.045088768005371
1783203471588304100,4.48130419921875,1.9277944009795784,10.94265777121186,4.812943302807212,-10.033364295959473,0.3873880803585052,-5.289735317230225
1783203471598241000,4.491240966796875,2.8833424369275567,12.08262976987958,3.286315334808826,-11.086226463317873,-0.027717612683773,-5.553555488586426
1783203471608177200,4.50117724609375,3.498744618046284,13.467286138701438,1.0098094952285288,-12.048654556274414,-0.5958633422851562,-5.772626876831055
1783203471618114000,4.511114013671875,4.107400832036137,14.832006803953648,-2.0805822854638096,-12.89952564239502,-1.341471552848816,-5.873539924621582
1783203471628051000,4.521051025390625,4.772049566882848,16.519430314064024,-5.534658909744024,-13.494466781616213,-2.075852870941162,-5.752491474151611
1783203471637988000,4.530988037109375,5.138367097061872,18.258130422425268,-10.195118571710584,-13.383417129516602,-2.5280771255493164,-5.399146556854248
1783203471647925200,4.54092529296875,5.076055310055613,19.645446365845203,-15.842024388974904,-12.227192878723145,-2.4552230834960938,-4.838805198669434
1783203471657862100,4.550862060546875,4.530603155736625,19.357261876660584,-21.13726547079086,-10.119680404663086,-1.607047200202942,-4.067658424377441
1783203471667799000,4.560799072265625,4.259286799244582,18.12382482783198,-25.381937176966662,-6.840128421783447,-0.2616187632083893,-3.210942268371582
1783203471677736000,4.57073583984375,4.497275471152365,15.815421628731489,-29.569571237146853,-3.0655434131622314,1.0699286460876465,-2.379037380218506
1783203471687673000,4.580673095703125,4.842626201148331,12.910919499397275,-30.248930634391307,0.0557341799139976,1.9263473749160769,-1.6453309059143066
1783203471697610200,4.5906103515625,4.886261929257214,9.90913305387497,-26.893487402820583,2.067383050918579,2.2622933387756348,-1.04711651802063
1783203471707547100,4.600547119140625,4.904179571002722,7.916773826265334,-22.62177805211544,3.1622426509857178,1.936251640319824,-0.7581140398979187
1783203471717484000,4.610484130859375,4.513448607318103,6.602510844096541,-18.534382481753823,3.4251625537872314,1.3779412508010864,-0.7180346846580505
1783203471727420200,4.620420166015625,3.8540176071196792,5.066730432349443,-14.500101246464252,3.3448212146759038,0.7810730934143066,-0.8640864491462708
1783203471737357000,4.630357177734375,3.485793074275553,3.916901056534052,-12.35797582027912,3.2714972496032715,0.2729362547397613,-1.058142900466919
1783203471747294200,4.640294189453125,3.628555531568825,3.170598120829463,-11.082184315323827,3.274109125137329,-0.112669751048088,-1.189810872077942
1783203471757231000,4.650231201171875,4.031989032699167,2.843337174275517,-10.061023404997586,3.375678062438965,-0.3652807772159576,-1.2267299890518188
1783203471767168000,4.66016796875,4.339241210447252,2.497623456186056,-9.154117819404602,3.6046454906463614,-0.4426735639572143,-1.1364978551864624
1783203471777105200,4.670105224609375,4.519229821068048,2.2030694319695234,-8.271267647659778,3.944791555404663,-0.3828153908252716,-0.9489315748214722
1783203471787042000,4.6800419921875,4.571590122902393,2.246358538597822,-7.429987503665685,4.381986141204834,-0.2092105895280838,-0.6733332872390747
1783203471796979200,4.689979248046875,4.416043002837896,2.469463529628515,-6.708816086608171,4.921818256378174,0.0401309132575988,-0.3227825760841369
1783203471806916000,4.699916015625,4.15146501469016,2.9273902529686686,-6.157326697951555,5.53570032119751,0.284820020198822,0.095074325799942
1783203471816853000,4.70985302734375,3.7755320994257926,3.4634105620756745,-5.294280127829313,6.113167762756348,0.5529323816299438,0.5175237059593201
1783203471826790100,4.7197900390625,3.1174124740868807,4.187526215891539,-3.99991602435112,6.594128131866455,0.8462274074554443,0.8966252207756042
1783203471836727000,4.72972705078125,2.263476992789656,4.786558276967704,-2.669151989236474,6.99110221862793,1.0982939004898071,1.223397135734558
1783203471846664200,4.739664306640625,1.6380094908609986,5.301453380459547,-1.5227859056174755,7.240652084350586,1.2681941986083984,1.4668010473251345
1783203471856601000,4.74960107421875,1.160184765613079,5.948813126853108,-0.4796709376364946,7.399300575256348,1.3690004348754885,1.6508225202560425
1783203471866537200,4.759537109375,0.4372186471585184,6.091405488276481,0.1169195755064487,7.552056312561035,1.4269057512283323,1.7749232053756714
1783203471876474000,4.76947412109375,-0.1079150157958269,6.14851444594264,0.6680564974635839,7.673279762268066,1.48856782913208,1.8939841985702517
1783203471886411300,4.779411376953125,-0.3747180230492726,6.287371127969026,1.570834773993492,7.706206798553467,1.5689470767974854,2.0164263248443604
1783203471896348000,4.789347900390625,-0.5689923851866274,6.49352206158936,2.598229610273242,7.689755916595459,1.678569197654724,2.1661510467529297
1783203471906285000,4.79928515625,-0.6977217870827764,6.511828702652454,3.530443240123987,7.625211715698242,1.8463678359985352,2.3579583168029785
1783203471916222200,4.80922216796875,-0.8132291577037424,6.569065086090564,4.598450072777271,7.491401672363281,2.1445412635803223,2.585097551345825
1783203471926159000,4.8191591796875,-0.965994976486638,6.645726300966739,5.727025648161769,7.312575340270996,2.517183542251587,2.830857276916504
1783203471936096300,4.82909619140625,-1.2579554040133951,6.691289782267808,6.4078516108274455,7.1029205322265625,2.937347650527954,3.096270799636841
1783203471946033000,4.839032958984375,-1.6329079299382865,6.707742904418707,6.781622379621863,6.855154991149902,3.3505218029022217,3.375720739364624
1783203471955970000,4.848969970703125,-2.1023482732005414,6.789463156250119,6.826494956049323,6.606269359588623,3.6681857109069824,3.6330161094665527
1783203471965907200,4.8589072265625,-2.6080104150533674,7.041895364052057,6.46049306769073,6.408427238464356,3.9337918758392334,3.846290588378906
1783203471975844000,4.868843994140625,-3.3413287815004584,7.330078684192895,5.923843520769476,6.252927780151367,4.176510334014893,4.075493812561035
1783203471985781200,4.87878125,-4.01044414036721,7.762874473407864,5.441426499295234,6.156888484954834,4.320313930511475,4.2044358253479
1783203471995717000,4.888717041015625,-4.671317156067491,8.379957739481329,4.886802904266118,5.954164505004883,4.444796085357666,4.320184707641602
1783203472005654000,4.898654052734375,-5.126133053910732,9.47795931290388,4.923551210948824,5.72757625579834,4.470349311828613,4.197303771972656
1783203472015591200,4.908591064453125,-6.290698226565122,9.76336264693737,4.229145635741949,5.402919769287109,4.224839687347412,3.888685464859009
1783203472025528300,4.9185283203125,-7.272798461613059,10.565312651062012,3.803668645107746,4.773837089538574,3.683361053466797,3.386551141738892
1783203472035465000,4.92846484375,-8.160251743239163,10.957667124295234,4.126838522955775,3.921560764312744,2.979194402694702,2.7038257122039795
1783203472045402000,4.938402099609375,-8.90687967311442,11.146434961438178,4.458901316833495,3.0266377925872803,2.1852078437805176,1.87627387046814
1783203472055339000,4.948339111328125,-9.74752853346765,10.915810680818558,4.467697202229499,2.088486194610596,1.344749927520752,0.9374482035636902
1783203472065276200,4.958276123046875,-10.424594851338863,10.664989999866483,4.900409697075188,1.0638846158981323,0.6012246012687683,-0.0611658357083797
1783203472075213300,4.96821337890625,-10.818792906612158,10.396633662223817,5.676004485976696,0.0551057457923889,-0.0201702825725078,-1.1108546257019043
1783203472085150000,4.97814990234375,-10.883432844305036,10.082544331932068,6.258048002851009,-0.9859923720359802,-0.4448153078556061,-2.180973052978516
1783203472095087000,4.988087158203125,-10.570129111433028,10.081330864489075,7.116727609935403,-2.0994834899902344,-0.6862926483154297,-3.25756311416626
1783203472105024000,4.99802392578125,-9.602844752722978,10.24533484725356,7.741091096144914,-3.2175631523132324,-0.8359354138374329,-4.21093225479126
1783203472114961200,5.007961181640625,-7.815524113577604,10.168402414220571,7.607929410889744,-4.278978824615479,-0.9802114963531494,-4.960700511932373
1783203472124897000,5.01789697265625,-5.711978301155567,10.190090514415502,7.051391506671905,-5.3002448081970215,-1.1659318208694458,-5.516585826873779
1783203472134834200,5.027834228515625,-3.666234981621802,10.134653289353848,6.373044501340389,-6.210686206817627,-1.413838028907776,-5.883517265319824
1783203472144771000,5.03777099609375,-1.895058544808626,9.71297101482749,5.355273817974329,-6.984009742736816,-1.6325857639312744,-6.101099967956543
1783203472154708200,5.047708251953125,-0.6110945470526814,9.297134543719888,4.388945737075805,-7.615062713623047,-1.781346321105957,-6.242978572845459
1783203472164645000,5.05764501953125,0.2868529483199119,8.87612505388856,3.363681483083963,-8.12732982635498,-1.859246134757996,-6.36568546295166
1783203472174582000,5.06758203125,1.154020690025389,8.684297244653106,2.120102979469299,-8.492761611938477,-1.9285032749176023,-6.415390968322754
1783203472184519200,5.077519287109375,2.249320018751919,8.234056984162331,0.5241384403944015,-8.767924308776855,-2.096768617630005,-6.391257762908936
1783203472194456000,5.0874560546875,3.170191293594241,7.631395042151213,-1.292754914715886,-9.018616676330566,-2.40283465385437,-6.324081897735596
1783203472204393200,5.097393310546875,3.8542598914429536,7.221711248454451,-3.291631561395526,-9.242979049682615,-2.832920789718628,-6.218848705291748
1783203472214330000,5.107330078125,4.418490103729069,7.089888118326663,-5.446975950115919,-9.403315544128418,-3.2828965187072754,-6.076881408691406
1783203472224267000,5.11726708984375,4.757707445536553,7.177932312482595,-7.574710447376966,-9.470213890075684,-3.694470882415772,-5.884705066680908
1783203472234204400,5.127204345703125,4.885806294444203,7.487779767420887,-9.706593881011008,-9.352792739868164,-4.014617919921875,-5.634448051452637
1783203472244141300,5.137141357421875,4.87645832812339,7.746927547213435,-11.733867770135404,-9.023632049560549,-4.195614814758301,-5.279027938842773
1783203472254078200,5.147078125,5.118659357029199,7.845605948108434,-13.077523435527086,-8.576375007629395,-4.194912910461426,-4.755108833312988
1783203472264014300,5.157014404296875,5.924159747111797,7.838455491831898,-13.763672639042138,-7.991521835327148,-3.9718987941741934,-4.005579471588135
1783203472273951200,5.166951171875,6.3887260545969005,7.667625462439656,-14.724242010283469,-7.037345409393311,-3.435657024383545,-3.1605067253112797
1783203472283888400,5.176888427734375,5.521818717393279,7.262080083721876,-16.8036271949172,-5.533929347991943,-2.633770704269409,-2.358891725540161
1783203472293825000,5.186824951171875,4.038339570769668,6.479581799042225,-19.14138742140532,-3.6648271083831783,-1.665329098701477,-1.6808784008026123
1783203472303762200,5.19676220703125,2.5530314551532265,5.88470861121118,-20.26953103511333,-1.774145007133484,-0.6535132527351379,-1.1977194547653198
1783203472313699300,5.20669921875,1.3705661764100192,5.551788908243179,-20.196087028717997,-0.0614735968410968,0.1545478254556656,-0.902301013469696
1783203472323636200,5.21663623046875,0.7591086412638426,5.052969033500552,-19.675156444454192,1.3458147048950195,0.6149588227272034,-0.7398899793624878
1783203472333573000,5.226572998046875,0.7951794870764016,4.320896283200383,-18.433430875229835,2.3122398853302,0.6741759777069092,-0.6523820757865906
1783203472343510300,5.23651025390625,1.2624863254413008,3.759112295022607,-16.460846023148296,2.836594343185425,0.4472482800483703,-0.6106439828872681
1783203472353447200,5.246447265625,1.8770532247796652,3.358565747505426,-14.294354217469692,3.067732572555542,0.0581733882427215,-0.6120789647102356
1783203472363384300,5.25638427734375,2.586713944524526,2.9751445223122834,-12.4724111777544,3.1704447269439697,-0.3629152476787567,-0.560930073261261
1783203472373321200,5.2663212890625,3.2688904450163245,2.2922610425949097,-10.969488494992255,3.25714111328125,-0.6878442764282227,-0.4312140643596649
1783203472383258000,5.276258056640625,3.781245216375589,2.0022206964105367,-9.82557681878805,3.447925567626953,-0.8701176643371582,-0.2567226886749267
1783203472393195300,5.2861953125,3.802267838399112,1.7350480155944823,-9.034987582111356,3.771582126617432,-0.8732518553733826,-0.0465132035315036
1783203472403131100,5.296131103515625,3.705313484817743,1.7289450225442646,-8.329867136144637,4.201738357543945,-0.7744645476341248,0.197971373796463
1783203472413068300,5.306068359375,3.571170387309789,1.8964757181301712,-7.70570121833384,4.696601390838623,-0.6069168448448181,0.4790638089179992
1783203472423005200,5.316005126953125,3.540848314282298,2.268187508568168,-6.93795392806232,5.199976921081543,-0.4246194958686828,0.8068187236785889
1783203472432942000,5.325942138671875,3.663238430154324,2.8315874075099825,-5.955181492841243,5.6595377922058105,-0.2375035136938095,1.1800878047943115
1783203472442879200,5.335879150390625,3.633412031689286,3.2798449697509406,-4.805901567602158,6.078004360198975,-0.0565792582929134,1.5569003820419312
1783203472452816100,5.345816162109375,3.471805757716298,3.9430554884880777,-3.5811627890139817,6.40769624710083,0.1512956023216247,1.9214353561401367
1783203472462753300,5.355753173828125,3.1484973481804133,4.593775066703557,-2.399859247526526,6.678920269012451,0.3265361189842224,2.266950845718384
1783203472472690200,5.365690185546875,2.8240301239982246,5.421402532920241,-1.2806482973366975,6.843428134918213,0.4752011299133301,2.562750577926636
1783203472482627000,5.375626953125,2.347412144191563,6.213297006976604,-0.1544996568381786,6.9295430183410645,0.6176128387451172,2.758163928985596
1783203472492564200,5.385564208984375,1.669080044168234,6.834661895892023,0.4941121354430913,7.045344352722168,0.7102699279785156,2.929870128631592
1783203472502501400,5.39550146484375,1.2378078112587332,7.33665397092998,1.0077870494902132,7.13953161239624,0.8255826830863953,3.088387489318848
1783203472512438300,5.405438232421875,0.8441215048998594,7.769637391671538,1.84631818703711,7.178618431091309,0.9840947985649108,3.271838665008545
1783203472522375200,5.415375244140625,0.5803630164414644,8.165091584485769,2.930657145810127,7.137345314025879,1.1913859844207764,3.4864368438720703
1783203472532312000,5.42531201171875,0.3751316818840801,8.58674930909276,4.180650777164101,6.970785617828369,1.4828704595565796,3.723829507827759
1783203472542249200,5.435249267578125,-0.0452858334034681,8.864064029216765,5.360815085488557,6.673777103424072,1.7235711812973022,3.917766332626343
1783203472552185300,5.445185302734375,-0.823890617775917,9.078751905035972,6.010020167487859,6.24107837677002,1.7052850723266602,4.0181403160095215
1783203472562122000,5.4551220703125,-1.9187752282217143,9.066629505565762,6.163268362960219,5.660264492034912,1.286966323852539,3.957554340362549
1783203472572059100,5.46505908203125,-3.140334207729995,9.07114727525115,6.363899656376242,4.9285430908203125,0.5289708971977234,3.7426562309265137
1783203472581996300,5.474996337890625,-4.3661812398210165,9.017073739758134,7.195107903689146,4.059893608093262,-0.3202045857906341,3.345444679260254
1783203472591933200,5.48493310546875,-5.474563045221567,9.10732508856952,8.495413087654113,3.1772563457489014,-1.029062032699585,2.815682172775269
1783203472601870300,5.494870361328125,-6.429480089789629,9.104722797116636,9.929341144645214,2.3398537635803223,-1.4451247453689575,2.20983362197876
1783203472611807200,5.50480712890625,-7.196392098280787,8.760143636015057,11.304460454314947,1.5445305109024048,-1.51728355884552,1.6169449090957642
1783203472621744000,5.514744140625,-7.520140652799606,8.282354274341463,12.565623714458942,0.8113577961921692,-1.3514964580535889,1.04281747341156
1783203472631681300,5.524681396484375,-7.717975593495368,7.852912471729517,13.369243113100527,0.1168506816029548,-0.9776357412338256,0.5239015817642212
1783203472641618200,5.5346181640625,-7.477141469028592,7.642033925065398,14.15582486770153,-0.5452393889427185,-0.4401227831840515,0.0865471512079238
1783203472651555300,5.544555419921875,-7.088375375676154,7.180358662846684,14.525462482213973,-1.2089189291000366,0.1085639297962188,-0.2964206039905548
1783203472661492200,5.5544921875,-6.595432868534326,7.100645659184456,14.312342294102908,-1.9179972410202024,0.4405338764190674,-0.6589239239692688
1783203472671429000,5.56442919921875,-5.996638707867264,6.964215912044048,13.349652277445792,-2.6521811485290527,0.5305203795433044,-1.0044406652450562
1783203472681366300,5.5743662109375,-5.4932852813482285,6.837866829413176,12.479640544486044,-3.3805222511291504,0.5267464518547058,-1.3458640575408936
1783203472691303200,5.58430322265625,-5.0229649403810495,6.9987781068593256,11.749845091468096,-4.073099136352539,0.523475706577301,-1.692624568939209
1783203472701239000,5.594239013671875,-4.55533164654076,7.074696978935599,11.093416487956048,-4.717280864715576,0.6335604190826416,-2.0363364219665527
1783203472711176200,5.60417626953125,-3.945703957170248,7.242010524639487,10.27728247565627,-5.320427894592285,0.8159027099609375,-2.392465114593506
1783203472721113000,5.614113037109375,-3.136027450446784,7.514088513153791,9.097185971871015,-5.846614360809326,1.0118799209594729,-2.6925551891326904
1783203472731050200,5.62405029296875,-1.809667203249037,7.448436183547973,7.35215139979124,-6.31941032409668,1.057611107826233,-2.9041900634765625
1783203472740987400,5.6339873046875,-0.0145592072962317,7.370787711200117,4.89366285316348,-6.754186630249023,0.8060478568077087,-2.9655587673187256
1783203472750924000,5.643924072265625,1.7866554532349108,7.097595623964071,1.855292936131358,-7.107850074768066,0.2592934668064117,-2.871269941329956
1783203472760861200,5.653861083984375,3.1469056950747967,6.784104844087362,-1.5290338600963354,-7.297168731689453,-0.4914867877960205,-2.6721739768981934
1783203472770798000,5.663798095703125,3.624787118946016,6.577995411521196,-4.788158990162611,-7.319454193115234,-1.207068920135498,-2.471806764602661
1783203472780735200,5.6737353515625,3.196914465346932,6.742320296803117,-7.3126581783145665,-7.1708197593688965,-1.6566001176834106,-2.325412511825561
1783203472790672400,5.68367236328125,2.4245012290909886,7.221240123811364,-9.29858591157198,-6.789195537567139,-1.7407572269439695,-2.217992782592773
1783203472800609000,5.693609130859375,1.6918403036393224,7.584903340089321,-11.260498562991618,-6.102768421173096,-1.550121188163757,-2.09358811378479
1783203472810546200,5.703546142578125,1.1823146182261406,7.496104528173804,-13.514590326189994,-5.090126991271973,-1.254521369934082,-1.9359556436538696
1783203472820483300,5.7134833984375,0.8030200445089489,6.724314099991322,-15.85109499965906,-3.829253911972046,-0.9529713988304138,-1.7546331882476809
1783203472830420200,5.723420166015625,0.6178264125909656,5.723776290977001,-17.27353486343026,-2.5262691974639893,-0.6838071346282959,-1.569962501525879
1783203472840356000,5.733356201171875,0.7610625518105923,4.712269344180822,-17.354128741580247,-1.3521358966827393,-0.4714869260787964,-1.3791764974594116
1783203472850293200,5.743293212890625,1.2597260669477284,3.740187814322114,-16.41869381159544,-0.4032530784606933,-0.3332093358039856,-1.177118182182312
1783203472860230100,5.753230224609375,1.6952338916003704,2.681155146241188,-15.098588533139228,0.3400200009346008,-0.3163118660449981,-0.9954376220703124
1783203472870167300,5.763167236328125,2.0831199872478843,1.7965335809096692,-13.755186550247668,0.8595662713050842,-0.3976605832576751,-0.8487774133682251
1783203472880104200,5.773104248046875,2.368719428375363,1.0876593353673816,-12.355463545197248,1.2095825672149658,-0.5711828470230103,-0.7242714166641235
1783203472890041000,5.783041015625,2.5473826356112954,0.479236491741985,-11.130333721464872,1.475247144699097,-0.7728129625320435,-0.6353959441184998
1783203472899978200,5.792978271484375,2.780037545275688,0.1531746918447315,-10.130014523637294,1.7073967456817627,-0.9661797881126404,-0.5344102382659912
1783203472909915100,5.8029150390625,3.109320645307004,-0.196704913752526,-9.355807681962848,1.971856474876404,-1.1754220724105835,-0.3918545246124267
1783203472919852300,5.812852294921875,3.391381390914321,-0.4895156744983047,-8.82235313169062,2.277472972869873,-1.328172206878662,-0.2298741489648819
1783203472929789200,5.8227890625,3.5895927637070417,-0.4466412130855023,-8.050901141682267,2.579782247543335,-1.4066078662872314,-0.0540701001882553
1783203472939726000,5.83272607421875,3.894712897862494,-0.250123346337676,-7.207468203568458,2.890489339828491,-1.5220074653625488,0.1825967729091644
1783203472949663200,5.842663330078125,4.541335269892215,-0.1962204547038301,-6.794078541091084,3.218740463256836,-1.6938565969467163,0.4808232188224792
1783203472959600000,5.85260009765625,4.773323240080476,-0.187858321082592,-6.150708741116524,3.5778865814208984,-1.7313672304153442,0.7753829956054688
1783203472969537300,5.862537353515625,4.59896532882303,0.1316706429798156,-4.896581370958685,3.9974868297576895,-1.5738977193832395,1.0500527620315552
1783203472979474400,5.872474365234375,4.182841565206647,0.5466297467309982,-3.474632505574822,4.40556526184082,-1.1847068071365356,1.274483561515808
1783203472989410000,5.88241015625,3.7216087860584257,0.9996735203351824,-1.9353309339642524,4.7737717628479,-0.7343814969062805,1.4799573421478271
1783203472999347200,5.89234716796875,3.579813127970695,1.2531741610862317,-0.7497370018064975,5.027012348175049,-0.396921157836914,1.7029869556427002
1783203473009284400,5.902284423828125,3.5772207733899357,1.5051558486416936,0.227860661125183,5.129924774169922,-0.2711729407310486,1.8835811614990237
1783203473019221200,5.91222119140625,3.234616127231717,1.730269110754877,1.1210539477080106,5.040960788726807,-0.4222362339496612,1.9755922555923464
1783203473029158100,5.922158203125,2.8348291659101843,1.8378461267679929,1.9773428602635856,4.754895687103272,-0.7893801927566528,2.004258155822754
1783203473039095000,5.932094970703125,2.395939443734288,1.8484639668941496,3.2971558777749537,4.317049503326416,-1.2525320053100586,1.9518648386001587
1783203473049032200,5.9420322265625,1.900709410177171,1.8684630910888316,4.866383216571808,3.75442099571228,-1.697929620742798,1.8274351358413696
1783203473058969300,5.95196923828125,1.1797589423939585,1.804434271031618,6.5206392010957,3.114423513412476,-2.0548877716064453,1.6284176111221311
1783203473068906200,5.96190625,0.5663672243148088,1.7092413741648196,8.12391026379168,2.4441404342651367,-2.257665634155273,1.4068924188613892
1783203473078843100,5.971843017578125,0.366706821757555,1.5394219831198452,9.564512976241112,1.8130662441253664,-2.2476346492767334,1.2260863780975342
1783203473088780300,5.9817802734375,0.3654091831624507,1.45245710863322,10.724758532130718,1.25171959400177,-2.0246946811676025,1.0922306776046753
1783203473098717200,5.99171728515625,0.3914163156002759,1.4273884260892866,11.744641677606106,0.7741820812225342,-1.5341376066207886,1.0189249515533447
1783203473108654300,6.001654296875,0.2850233948051929,1.4544541276693344,12.929272317689655,0.3104981482028961,-0.8016144633293152,0.9659583568572998
1783203473118591200,6.01159130859375,0.1426984521463513,1.4167846144884824,14.127688322019576,-0.2320993542671203,-0.0287709403783082,0.9375740885734558
1783203473128528100,6.021528076171875,0.2265212292149662,1.487226808719337,14.7796125998497,-0.8542904257774353,0.4674121141433716,0.8814333081245422
1783203473138464300,6.03146435546875,0.2816168012320995,1.6850632107198238,14.599199918597936,-1.5572115182876587,0.6991044282913208,0.8452275991439819
1783203473148401200,6.041401123046875,0.1701543220877647,1.649711619092524,14.607141232991218,-2.296106100082397,0.7774304151535034,0.7710153460502625
1783203473158338300,6.05133837890625,-0.326679931795597,1.9134324058890344,14.914203441125151,-3.0769753456115723,0.9044359922409058,0.6328936815261841
1783203473168275200,6.061275146484375,-1.0579325978845358,2.214664592695236,15.7690713809669,-3.8812434673309326,1.2404295206069946,0.4194740951061249
1783203473178212000,6.071212158203125,-1.4355346154049038,2.782031349441409,16.986446937310696,-4.655046463012695,1.907166004180908,0.1716256737709045
1783203473188149200,6.081149169921875,-0.9882675255060196,3.2887691577017306,17.919547286868095,-5.440256595611572,2.660675287246704,-0.0628284960985183
1783203473198086100,6.091086181640625,-0.2156102513611316,3.4480411435082554,17.263469396489857,-6.188432693481445,3.1080431938171387,-0.3117735981941223
1783203473208023300,6.101023193359375,0.8649830911427736,3.824058814446628,14.88094063847065,-6.802942276000977,3.236717700958252,-0.4853064119815826
1783203473217960200,6.110960205078125,1.8373305784612888,3.663153966741264,11.798395479625462,-7.181375503540039,3.2412188053131104,-0.6146273612976074
1783203473227897000,6.12089697265625,2.4279773807689544,3.995948289763928,8.123976899287104,-7.207573413848877,3.229679584503174,-0.7254689931869507
1783203473237834800,6.130834716796875,2.8120418723016978,4.405808316810429,3.9670162097901103,-6.8303070068359375,3.28625226020813,-0.7904692888259888
1783203473247771600,6.140771728515625,3.362005658826232,4.522831060430407,0.1757593024879694,-6.175906181335449,3.426927089691162,-0.8150105476379395
1783203473257708800,6.150708740234375,4.1271828063488005,4.658004670029879,-2.711004341059923,-5.477780342102051,3.509636640548706,-0.7665538191795349
1783203473267645000,6.16064501953125,5.223365932172537,4.700406472429633,-4.944155607560277,-4.905998229980469,3.301382541656494,-0.6361216306686401
1783203473277581600,6.17058154296875,5.920434004586935,4.840850715908408,-6.809149268972873,-4.483177661895752,2.940130710601806,-0.513292670249939
1783203473287518700,6.180518798828125,5.742941010174155,5.1701370308101176,-7.956746940213441,-4.106424331665039,2.7004611492156982,-0.4337503015995025
1783203473297455900,6.190455810546875,5.032921686249972,5.461567954570055,-8.864648551106452,-3.7182984352111816,2.5578489303588867,-0.4305379986763
1783203473307392800,6.200392822265625,4.079286498185992,5.911821074542403,-10.322941818547248,-3.265631675720215,2.275127410888672,-0.4945101141929626
1783203473317330000,6.210329833984375,2.9618147928789256,6.059000763756036,-12.539213846439122,-2.680544853210449,1.887240290641785,-0.6070252060890198
1783203473327266800,6.220266845703125,2.0518644327625637,5.920835571125149,-14.227380868393182,-2.037071943283081,1.47425377368927,-0.71601402759552
1783203473337203700,6.23020361328125,1.6069383530318735,5.478724841076136,-14.804471146774292,-1.3877530097961426,1.202518105506897,-0.7770755290985107
1783203473347140900,6.240140869140625,1.340762720429152,4.69074052620083,-14.508376907378434,-0.7399111390113831,1.0512150526046753,-0.79659503698349
1783203473357077800,6.250077880859375,1.2971869058139622,3.830959679876268,-13.9566618932724,-0.1348140686750412,0.9025193452835084,-0.7615126967430115
1783203473367015000,6.260014892578125,1.4521566643819213,2.75213305478394,-13.271225806462764,0.374721348285675,0.6617520451545715,-0.6673414707183838
1783203473376951800,6.269951904296875,1.512851663841307,1.7703052069365977,-12.41336979072094,0.8180838823318481,0.4432135224342346,-0.5521432161331177
1783203473386888700,6.279888671875,1.185787701164186,0.922414997152984,-11.357350332981348,1.2736185789108276,0.2976148128509521,-0.4608569145202636
1783203473396824800,6.289824951171875,0.6485248446501791,0.3206207778871059,-10.405629454106093,1.735193371772766,0.2312672287225723,-0.3988300561904907
1783203473406762000,6.299761962890625,0.2860932159937918,0.0039639351949095,-9.375640509679911,2.121985673904419,0.1470911055803299,-0.3581070899963379
1783203473416698600,6.30969873046875,0.0856553993232548,0.0060030398070812,-8.337087150526047,2.429940938949585,0.0391446650028228,-0.3428263962268829
1783203473426635800,6.3196357421875,-0.0433493123829364,0.2778659242659807,-7.396521871915459,2.671478271484375,-0.0632749944925308,-0.3580890595912933
1783203473436572700,6.32957275390625,-0.10865984281376,0.7133645426988601,-6.549306492653488,2.883558511734009,-0.1438228338956833,-0.3751887083053589
1783203473446509800,6.339509765625,-0.1510325652495026,1.0625652261212468,-5.977225566866993,3.091237783432007,-0.2248309999704361,-0.3980408906936645
1783203473456447000,6.349447021484375,-0.1808374094698578,1.5130030550107358,-5.560297793391347,3.3006389141082764,-0.2931064367294311,-0.4323139190673828
1783203473466383600,6.359383544921875,-0.189117088972032,2.1428426345437765,-5.125463776347041,3.509901762008667,-0.345081627368927,-0.480976939201355
1783203473476320800,6.36932080078125,-0.1999621619828045,2.573803609547019,-4.64710859748423,3.708662033081055,-0.3814292550086975,-0.5366638898849487
1783203473486257700,6.379257568359375,-0.1219606384135782,2.9160391301319,-4.0744770520776505,3.857848882675171,-0.4366704225540161,-0.5691195130348206
1783203473496194800,6.38919482421875,0.170527009591367,3.1760330053597685,-3.473023901334405,3.9619228839874263,-0.5145292282104492,-0.5829352140426636
1783203473506130700,6.399130615234375,0.190791360593494,3.3324767820030448,-3.175034641972184,4.089922904968262,-0.6053262948989868,-0.6204139590263367
1783203473516067800,6.40906787109375,0.1281938337147236,3.5625095264703037,-3.197511846718192,4.262176513671875,-0.6931387186050415,-0.6685974597930908
1783203473526004700,6.419004638671875,0.1106555101430043,3.859272166647017,-3.1838071464926,4.441604137420654,-0.7891921401023865,-0.7318873405456543
1783203473535942000,6.42894189453125,-0.0139118401702493,4.058437186902761,-3.1191134327858685,4.645225524902344,-0.8923349976539612,-0.803114116191864
1783203473545878800,6.438878662109375,-0.1258751449761912,4.2223555372104045,-2.9745161612808704,4.854685306549072,-0.9696968197822572,-0.8944910764694214
1783203473555815700,6.448815673828125,-0.0587212151683866,4.49801255325526,-2.700314604741335,5.028285503387451,-1.0881872177124023,-0.9777886271476746
1783203473565752800,6.4587529296875,0.2221994204930961,4.809010347272455,-2.214827089780569,5.134031772613525,-1.2139805555343628,-1.047031283378601
1783203473575689700,6.468689697265625,0.4847217182200402,4.866271572890877,-1.534008141377568,5.214141368865967,-1.225162148475647,-1.0939862728118896
1783203473585627000,6.478626953125,0.8101287074703722,4.810824995478988,-0.4732558098971843,5.262532711029053,-1.1034108400344849,-1.0825668573379517
1783203473595563800,6.488563720703125,1.1953086859643458,4.552641092282533,0.7876315559148788,5.239907264709473,-0.8921129703521729,-1.0098016262054443
1783203473605499600,6.498499755859375,1.4575972480006516,4.190250964680314,2.11685654489398,5.158977031707764,-0.5666333436965942,-0.8802142143249512
1783203473615436800,6.508436767578125,1.4132669617563485,3.760193952779472,3.35732773014307,5.038015365600586,-0.191213384270668,-0.7558667063713074
1783203473625374000,6.5183740234375,1.003593835584074,3.49998263540864,4.366333507773279,4.8632354736328125,0.2322928756475448,-0.6553414463996887
1783203473635310800,6.528310791015625,0.3986016970597207,3.199493960446119,5.291909307044744,4.599487781524658,0.5288417339324951,-0.6006507277488708
1783203473645247700,6.538247802734375,-0.2101374459732324,3.0121669697612523,5.749062123402953,4.212089538574219,0.5651760697364807,-0.6277965903282166
1783203473655184600,6.5481845703125,-0.7791103958070278,2.991840221047401,5.915779456779361,3.719868898391724,0.3401453793048858,-0.7237460017204285
1783203473665121800,6.558121826171875,-1.1617743728920815,2.837054148483276,6.073196462368965,3.1409173011779785,-0.0313037037849426,-0.8588368892669678
1783203473675059000,6.568058837890625,-1.4820523286908864,2.526342185670137,6.444651355436444,2.508305311203003,-0.4358884692192077,-0.990100085735321
1783203473684995800,6.577995849609375,-1.469552035818994,2.295089544019103,6.981247710865736,1.8649550676345823,-0.8147211074829102,-1.1247283220291138
1783203473694931700,6.587931640625,-1.4307403668656944,2.0425679043680427,7.265417119190096,1.3091249465942385,-1.0634214878082275,-1.2064913511276243
1783203473704868900,6.597868896484375,-1.340778648650646,1.7885510577231645,7.427604407921433,0.8478976488113403,-1.1513185501098633,-1.2643851041793823
1783203473714805800,6.6078056640625,-1.2711831343770026,1.7127280472368,7.402457691705226,0.5079216957092285,-1.090457558631897,-1.2947123050689695
1783203473724743000,6.617742919921875,-1.183314589048922,1.730962207585573,7.327979081565141,0.2562628388404846,-0.8809249401092529,-1.2948864698410034
1783203473734679800,6.6276796875,-1.0955629480987787,1.6704314587771891,7.137991931760311,0.0836849361658096,-0.609167754650116,-1.287895917892456
1783203473744616700,6.63761669921875,-1.0085510196000338,1.5620166767656802,6.650047086775302,0.0071559469215571,-0.3187728226184845,-1.268523335456848
1783203473754553900,6.647553955078125,-0.8565127844393253,1.4555834239602088,5.846829839193821,-0.0009595034644007,-0.0500590689480304,-1.2570983171463013
1783203473764490800,6.65749072265625,-0.6047980772569775,1.4713321972340343,5.029573544865847,-0.0093565452843904,0.156528815627098,-1.2439075708389282
1783203473774428000,6.667427978515625,-0.1607575481891631,1.5647849724352358,4.344759389346838,-0.0561456158757209,0.2470318228006363,-1.224726676940918
1783203473784364800,6.67736474609375,0.3516761336252093,1.5735329270362852,3.721623399105668,-0.2055972665548324,0.2075502872467041,-1.196858525276184
1783203473794300700,6.68730078125,0.8625871359169482,1.5767460438638925,3.204897280794382,-0.4351945221424103,0.0422939620912075,-1.1802406311035156
1783203473804237800,6.69723779296875,1.2499053685486317,1.5828098739475012,2.696002002239227,-0.6692654490470886,-0.1832662969827652,-1.1534423828125
1783203473814175000,6.707175048828125,1.425686882868409,1.2737959472239018,2.0960031419575214,-0.890019953250885,-0.3565105199813843,-1.1567175388336182
1783203473824111600,6.717111572265625,1.390373285163939,1.2637561992466448,1.477735634535551,-0.9945545196533204,-0.4783697128295898,-1.1557533740997314
1783203473834048800,6.727048828125,1.3058648639187216,1.11271808103919,0.7998790430694818,-1.0121819972991943,-0.465244323015213,-1.176404356956482
1783203473843986000,6.73698583984375,1.192134439842403,1.013358712142706,0.1965384711444378,-0.9239144325256348,-0.3884142637252807,-1.1716479063034058
1783203473853922800,6.7469228515625,1.1739286288052797,0.8054168034523725,-0.3928641763210296,-0.7549994587898254,-0.2793554365634918,-1.1458919048309326
1783203473863860000,6.75685986328125,1.22168143684417,0.6233961024820804,-0.8369710486233234,-0.5590322613716125,-0.1495303660631179,-1.081127405166626
1783203473873795800,6.7667958984375,1.3351739605113864,0.4617068264007568,-0.9941799644201992,-0.3890844881534576,-0.0435221791267395,-1.0040603876113892
1783203473883732700,6.776732666015625,1.4302528756096955,0.3731330554127693,-0.9640431848317385,-0.2406021952629089,0.0358741804957389,-0.9011974930763244
1783203473893670000,6.786669921875,1.5290852980226275,0.1851817953497171,-0.8143225789636374,-0.169649451971054,0.0817311480641365,-0.7869716286659241
1783203473903606800,6.796606689453125,1.542416196499765,-0.0079594345718622,-0.5788163715213537,-0.1711541563272476,0.0676745176315307,-0.672531008720398
1783203473913543700,6.806543701171875,1.4330208790183063,-0.0798702400505542,-0.5643477011859417,-0.1719097048044204,0.0202761106193065,-0.5868003368377686
1783203473923480800,6.816480712890625,1.1791197677075862,-0.1164244854658842,-0.7045400157302618,-0.1549702733755111,-0.0094592813402414,-0.5375479459762573
1783203473933417700,6.826417724609375,0.8382695640012622,-0.0987292542994022,-0.7657587468028068,-0.1417830884456634,-0.0298620276153087,-0.5272649526596069
1783203473943355000,6.83635498046875,0.6148948161184787,-0.1020645362019538,-0.7604121250778436,-0.1295056492090225,-0.052605751901865,-0.5243480801582336
1783203473953290800,6.846290771484375,0.5287967145290225,-0.1988900027066469,-0.7691483892410993,-0.1195222586393356,-0.0956581458449363,-0.5313908457756042
1783203473963227600,6.8562275390625,0.5087202142491937,-0.2851478979676962,-0.7931728234291077,-0.1092269271612167,-0.1652450114488601,-0.5288273692131042
1783203473973164800,6.866164794921875,0.4799091303065418,-0.3957879548132419,-0.8146808908820152,-0.0897834524512291,-0.2071794122457504,-0.5185851454734802
1783203473983102000,6.87610205078125,0.3698898357078433,-0.4443132085293531,-0.7268541388690472,-0.047027550637722,-0.211842268705368,-0.5077046751976013
1783203473993038800,6.886038818359375,0.1859617667462676,-0.4121522296369075,-0.6409785209238529,0.0077142566442489,-0.1648838222026825,-0.4940464198589325
1783203474002975700,6.895975830078125,0.0282197669859975,-0.3821761935681104,-0.4016898723334073,0.0407109782099723,-0.0913031846284866,-0.4830707907676697
1783203474012912600,6.90591259765625,-0.0992843308988958,-0.3441337554216385,-0.1892243487387895,0.041138682514429,-0.0353379137814044,-0.4685549736022949
1783203474022848800,6.915848876953125,-0.1101256775826215,-0.338213133201003,-0.1045581065833568,0.010351494885981,-0.0312961041927337,-0.442633718252182
1783203474032786000,6.925785888671875,-0.0636465427413582,-0.2824316247463226,-0.0328401933282613,-0.0708008781075477,-0.0923477411270141,-0.4113503694534302
1783203474042722800,6.935722900390625,0.0741515701428055,-0.2840601027309894,0.0175853410512208,-0.1881309449672699,-0.1965282410383224,-0.3644846081733703
1783203474052659700,6.94565966796875,0.1625190049037337,-0.2301122394442558,-0.1724403871983289,-0.2661370635032654,-0.3035012781620025,-0.3265731930732727
1783203474062596900,6.955596923828125,-0.0871221108749508,-0.2150070247709751,-0.6341694254308938,-0.2614028751850128,-0.3644609749317169,-0.3053727746009826
1783203474072533800,6.96553369140625,-0.4033152085129171,-0.1392027189850807,-1.1100152518212794,-0.1989826560020446,-0.3747985661029815,-0.3103808462619781
1783203474082471000,6.975470947265625,-0.710563513803482,0.0231792155355215,-1.3210662324428557,-0.1206325441598892,-0.3431156873703003,-0.335508793592453
1783203474092407800,6.98540771484375,-0.9078390670508146,0.1438835702776909,-1.2655226243972777,-0.0673248395323753,-0.272642582654953,-0.3823295533657074
1783203474102343700,6.99534375,-1.0018968224078415,0.2809767497628927,-1.0186299305438995,-0.0495767630636692,-0.202805608510971,-0.4288868010044098
1783203474112280800,7.00528076171875,-0.8987959288954734,0.2616226454734802,-0.8628092542350292,-0.0531451292335987,-0.1584000587463379,-0.454050749540329
1783203474122218000,7.015218017578125,-0.7093368946179747,0.2251391272068023,-0.7858429189324379,-0.0894267931580543,-0.1595808267593383,-0.4782066345214844
1783203474132154600,7.025154541015625,-0.5734343862220644,0.2599023975521325,-0.8273533254504203,-0.1389349550008773,-0.1841644793748855,-0.5014848113059998
1783203474142091800,7.035091796875,-0.5166390245497227,0.2916168017208576,-0.9871195245146752,-0.1683759838342666,-0.2196269482374191,-0.5207704305648804
1783203474152028700,7.045028564453125,-0.4890831282999366,0.2672545138806104,-1.2299971375077965,-0.1624736189842224,-0.2599703669548034,-0.5424001216888428
1783203474161965800,7.0549658203125,-0.5413272564087063,0.2246592347353696,-1.5006705199211834,-0.1162166073918342,-0.303938627243042,-0.5662529468536377
1783203474171901700,7.064901611328125,-0.6227350082248448,0.202159233635664,-1.6452712985575195,-0.0419924445450305,-0.3220036625862121,-0.5827001333236694
1783203474181838800,7.0748388671875,-0.7129064236678183,0.1864548840254545,-1.511124693918228,0.0282359793782234,-0.3103809356689453,-0.6033773422241211
1783203474191775700,7.084775634765625,-0.8133873439401388,0.1974848120838403,-1.1967477788567542,0.0798009037971496,-0.2595835328102112,-0.6280965209007263
1783203474201713000,7.094712890625,-0.9111426386408508,0.2337935583055019,-0.8215010922908782,0.10355856269598,-0.188341423869133,-0.663877010345459
1783203474211649800,7.10464990234375,-0.9936204308412968,0.2781201912879943,-0.5537374598443507,0.1208472698926925,-0.1084023937582969,-0.6981939673423767
1783203474221586700,7.114586669921875,-0.8170407518811523,0.2673889539152383,-0.4498509689122438,0.1093918159604072,-0.0759477615356445,-0.6825143098831177
1783203474231521800,7.124521728515625,-0.3179074272751808,0.0837491273105144,-0.3699813133835792,0.051599096506834,-0.1063999384641647,-0.6067591309547424
1783203474241459000,7.134458984375,0.1508927914526313,-0.0153939684867858,-0.473012064269185,0.0069646970368921,-0.2104766219854354,-0.5081276297569275
1783203474251395600,7.1443955078125,0.4430224380664527,0.0179348851412534,-0.936632030814886,0.0273658409714698,-0.3065133988857269,-0.4077688455581665
1783203474261332700,7.154332763671875,0.3997099505625665,0.0845844090908765,-1.3894126234382391,0.1055132448673248,-0.3930178582668304,-0.3301306962966919
1783203474271270000,7.164269775390625,0.2750420259516686,0.2312958962708711,-1.7958575813442468,0.2145656943321228,-0.4599425494670868,-0.2817192077636719
1783203474281206800,7.174206787109375,0.1065046375412493,0.4281961864650249,-1.918337713587284,0.3290746212005615,-0.4611415565013885,-0.2553251683712005
1783203474291144000,7.18414404296875,-0.1178136748019605,0.5849374847501516,-1.765002424353361,0.4208146333694458,-0.405439168214798,-0.2633101344108581
1783203474301079800,7.194079833984375,-0.2952820462301373,0.7694786441087722,-1.4548516025543212,0.4726417958736419,-0.3406477570533752,-0.2916582822799682
1783203474311016700,7.2040166015625,-0.3186205439805984,0.9427087203800678,-1.2090788526415823,0.4693394601345062,-0.311980664730072,-0.3277920484542846
1783203474320953900,7.213953857421875,-0.2545437931284308,0.9973130017489196,-1.12060737298429,0.4417045712471008,-0.3440178334712982,-0.3569207489490509
1783203474330891000,7.22389111328125,-0.1250865153491497,0.9743144034773112,-1.1958078676581383,0.4235202372074127,-0.4266405403614044,-0.3694541156291961
1783203474340827600,7.23382763671875,0.0013306640818715,0.9477706799447536,-1.3042875315994025,0.3854129612445831,-0.5423109531402588,-0.3892161548137665
1783203474350764800,7.243764892578125,0.1821104250803589,1.019473980152607,-1.3207383156627417,0.3545945882797241,-0.680976390838623,-0.3981475830078125
1783203474360701000,7.253700927734375,0.474677659393847,0.87681381419003,-1.2589040830403566,0.3088987171649933,-0.878616988658905,-0.3006420135498047
1783203474370637800,7.263637939453125,0.6048085986509919,0.3531634495735168,-1.175695638477802,0.2117780447006225,-1.0983126163482666,-0.2301017940044403
1783203474380574700,7.27357470703125,0.7526786082163452,0.3372305519044399,-0.9147311646521092,0.0641035884618759,-1.3320947885513306,-0.1106894835829734
1783203474390511900,7.283511962890625,1.0544532313361763,0.5465098466783762,-0.4671142384022474,0.0347486287355423,-1.368666648864746,0.0289674792438745
1783203474400448800,7.29344873046875,0.4084121663257479,0.7424339853167533,-0.4121510605931281,0.1455910950899124,-1.1348227262496948,0.0483172573149204
1783203474410386000,7.303385986328125,-0.5802697852000593,0.9407160852581262,-0.3026876463115215,0.3095728456974029,-0.8365234136581421,-0.0140491798520088
1783203474420321800,7.31332177734375,-1.0953855457052588,1.1996604514330624,-0.2752577875941991,0.41181680560112,-0.5881665945053101,-0.1233088746666908
1783203474430258700,7.3232587890625,-1.250427931118011,1.338611826005578,-0.2141162134110927,0.4838611781597137,-0.4478039145469665,-0.226395845413208
1783203474440195800,7.33319580078125,-1.2669853904262185,1.1516022307068108,-0.4773018704175948,0.5252394080162048,-0.4439109265804291,-0.3091157972812652
1783203474450132700,7.3431328125,-1.0158207183420658,1.0886030459582805,-0.9144903416335582,0.56662917137146,-0.6306024789810181,-0.3652174174785614
1783203474460070000,7.35306982421875,-0.8551420806080102,1.068564466536045,-1.4621265619933603,0.6257677674293518,-0.9154394268989564,-0.3853875398635864
1783203474470006800,7.3630068359375,-0.7499258023768663,0.7960930947899818,-1.7509487645596264,0.6735698580741882,-1.1920145750045776,-0.3782673180103302
1783203474479943000,7.37294287109375,-0.5768588077127933,0.6607295155763626,-1.4203162957459687,0.6836439967155457,-1.3738443851470947,-0.3271503448486328
1783203474489879800,7.3828798828125,-0.4305991559535265,0.6571411356955766,-0.5808966849267483,0.6742587685585022,-1.359530329704285,-0.2533877193927765
1783203474499817000,7.39281689453125,-0.492615174883604,0.7154875262022018,0.3854951088577508,0.6267857551574707,-1.1504110097885132,-0.1922636032104492
1783203474509753600,7.402753662109375,-0.7036097491428256,0.5996241817504168,1.0888894616842268,0.5515075325965881,-0.901339828968048,-0.1353137642145156
1783203474519690800,7.412690673828125,-0.8155521207585931,0.5482774408727884,1.2102823832124472,0.4565821290016174,-0.7098383903503418,-0.1211860328912735
1783203474529628000,7.4226279296875,-0.9316104032605886,0.7496516616106033,0.9646657006442546,0.357613742351532,-0.6549255847930908,-0.1635539978742599
1783203474539563800,7.432563720703125,-1.0948124219924211,0.9859569104760884,0.3934633112579584,0.3037755489349365,-0.6928181648254395,-0.2442763000726699
1783203474549500700,7.442500732421875,-1.2967597664430737,1.18603232357502,-0.0618716420233249,0.278403103351593,-0.7335355281829834,-0.3602884113788605
1783203474559437800,7.452437744140625,-1.5166574858650563,1.1975468202799555,-0.1977098530113697,0.2569574415683746,-0.7571419477462769,-0.4952400624752044
1783203474569374700,7.462374755859375,-1.579580098246038,1.2123334705233573,-0.1133469777166843,0.2395315915346145,-0.7564077377319336,-0.6101732850074768
1783203474579311900,7.472311767578125,-1.400775728973746,1.1651707373321056,-0.0042003742992877,0.2264963090419769,-0.7620081305503845,-0.6956546306610107
1783203474589248800,7.482248779296875,-1.2153843825265764,1.1518769559949635,0.0343494288474321,0.2231769561767578,-0.743747353553772,-0.7539362907409668
1783203474599184600,7.4921845703125,-1.1282611026078462,1.0907307056367397,0.0510135634005069,0.2297313511371612,-0.7122231125831604,-0.7906649708747864
1783203474609121800,7.502121826171875,-1.0336994893819094,1.1241542518109082,0.1037321771532297,0.2407546937465667,-0.672283411026001,-0.8011822700500488
1783203474619059000,7.512058837890625,-0.8863742542177439,1.1015455296397207,0.2701128259211778,0.2373479455709457,-0.6380019783973694,-0.7759342193603516
1783203474628995800,7.521995849609375,-0.6902028628200292,1.0711685115545988,0.4996329446911811,0.1827709823846817,-0.6425192356109619,-0.7178744077682495
1783203474638932700,7.5319326171875,-0.515461505202949,1.0567992099404335,0.9113251556009052,0.0765099823474884,-0.6839460730552673,-0.6562568545341492
1783203474648868900,7.541868896484375,-0.449274338068068,1.1741209365069865,1.3317600604146718,-0.038909550756216,-0.7350358963012695,-0.5978630781173706
1783203474658805800,7.5518056640625,-0.5760647347256541,1.3103788342118263,1.557104354804754,-0.1392107307910919,-0.7752866744995117,-0.5507478713989258
1783203474668743000,7.561742919921875,-0.8059796980321406,1.5257897636085749,1.6830068627119064,-0.2103802561759948,-0.7960017919540405,-0.5243974924087524
1783203474678679800,7.5716796875,-1.1102256797015666,1.6833838793307545,1.9356179342120885,-0.2754680514335632,-0.7946515679359436,-0.5275540947914124
1783203474688616700,7.58161669921875,-1.3426184312984346,1.841461979177594,2.3779034363061187,-0.3605629801750183,-0.774902880191803,-0.5407868027687073
1783203474698553900,7.591553955078125,-1.5544272445499896,1.94197519428432,3.0344945369035004,-0.5161723494529724,-0.749455988407135,-0.5761138200759888
1783203474708490000,7.601489990234375,-1.7884107724696396,1.9289146371811627,3.8161131161391735,-0.7440835237503052,-0.7130343317985535,-0.6314969062805176
1783203474718426600,7.611426513671875,-2.03433082189858,1.9786019204139709,4.316360977858305,-0.9777384400367736,-0.6389235854148865,-0.723906397819519
1783203474728363800,7.62136376953125,-2.242466791856289,2.1193191356152297,4.405615716847777,-1.1613959074020386,-0.5221626162528992,-0.8515138626098633
1783203474738301000,7.631301025390625,-2.322302545115352,2.149430196240544,4.161030130892992,-1.3086854219436646,-0.3923059701919555,-0.9893552660942078
1783203474748237800,7.64123779296875,-2.172495137746632,1.9922768100231885,3.664772800114751,-1.406670331954956,-0.3062472641468048,-1.0815677642822266
1783203474758173700,7.651173583984375,-1.7038447758182882,1.5564964520394802,2.944592732182145,-1.4590378999710083,-0.2871461510658264,-1.1219747066497805
1783203474768110800,7.66111083984375,-1.131913195374608,1.2209481541335585,2.25279646269083,-1.5216389894485474,-0.3242032527923584,-1.1244478225708008
1783203474778047700,7.6710478515625,-0.7879466132134199,0.8158388287454843,1.7030255683898925,-1.598207712173462,-0.3832206428050995,-1.117249608039856
1783203474787985000,7.68098486328125,-0.6360773048788309,0.6536690756708383,1.1493781249165531,-1.6698131561279297,-0.4197554588317871,-1.1552151441574097
1783203474797921800,7.690921875,-0.6879027691841125,0.8156763316601514,0.3189063751846551,-1.6798032522201538,-0.4412091374397278,-1.2380764484405518
1783203474807857700,7.700857666015625,-0.7452271231666207,0.7832599167019129,-0.9790987151443956,-1.5952814817428589,-0.4674841463565826,-1.3360000848770142
1783203474817794800,7.710794921875,-0.7453282454535365,0.5141553910404444,-2.4461592264086005,-1.4379422664642334,-0.4569341838359833,-1.4326181411743164
1783203474827732000,7.72073193359375,-0.6832092045404017,0.3355664180845022,-3.5944098085999485,-1.2655144929885864,-0.4136495590209961,-1.5299997329711914
1783203474837668900,7.7306689453125,-0.5320623652614653,0.0205365920722484,-4.456884716314077,-1.048530101776123,-0.3669934570789337,-1.5999428033828735
1783203474847605800,7.740605712890625,-0.1170752044595778,-0.4482295051902532,-5.492046094942093,-0.794710099697113,-0.3945856690406799,-1.6158405542373655
1783203474857542700,7.750542724609375,0.4560284885033965,-0.919925226163864,-6.431349390792846,-0.5128331780433655,-0.4290087521076202,-1.5448815822601318
1783203474867478800,7.760478759765625,1.0142541996777057,-1.470807296577096,-7.136866727122664,-0.1759251803159713,-0.4974525272846222,-1.4228190183639526
1783203474877416000,7.770416015625,1.6533758406884966,-1.6718103459149598,-7.77916334490776,0.1578467488288879,-0.6245001554489136,-1.252233862876892
1783203474887352800,7.780352783203125,1.5941206647738813,-1.9843910252094268,-7.47880443380475,0.3312518298625946,-0.5627462267875671,-1.1518100500106812
1783203474897289700,7.790289794921875,0.9595970190778376,-2.080295285215973,-6.6497156628638505,0.54491126537323,-0.482387900352478,-1.122301459312439
1783203474907227000,7.800226806640625,0.8696540055632591,-1.885039839619398,-6.867234962716698,0.8214874863624573,-0.4706026315689087,-1.0875228643417358
1783203474917163000,7.8101630859375,0.8907153521619736,-2.039798439654708,-7.1137862957865,1.0967998504638672,-0.5575228929519653,-1.060183882713318
1783203474927099600,7.820099609375,0.8825821684584021,-1.999203978937864,-6.887446560618281,1.336875557899475,-0.6596982479095459,-1.0350806713104248
1783203474937036800,7.830036865234375,0.9835502877257764,-1.9569073904782528,-6.300048238712549,1.5308794975280762,-0.8007289171218872,-0.9795064330101012
1783203474946973700,7.8399736328125,1.2094884563557804,-1.898516576308012,-5.675894595861434,1.6974879503250122,-0.8580334782600403,-0.9166361689567566
1783203474956910800,7.849910888671875,1.1539477709196506,-1.652516447380185,-4.699531443160772,1.8468784093856807,-0.8111098408699036,-0.8584837317466736
1783203474966846700,7.8598466796875,0.9873356514833866,-1.3915882139116524,-3.6560645930022,1.903447389602661,-0.741380512714386,-0.8320713043212891
1783203474976784000,7.869783935546875,0.6432536262489855,-0.9933329922020436,-2.677154093906283,1.88178813457489,-0.7483626008033752,-0.8496368527412415
1783203474986720800,7.879720703125,0.3077091277353465,-0.7158738951712846,-2.0154887587845325,1.797952651977539,-0.8738203644752502,-0.8967921137809753
1783203474996658000,7.889657958984375,0.2952329463914037,-0.4119020542681217,-1.4345388823658227,1.6416668891906738,-1.0516504049301147,-0.9355092644691468
1783203475006594800,7.8995947265625,0.2952785390987992,-0.1345738901406526,-0.6645306614249944,1.482453227043152,-1.2188831567764282,-0.9432247281074524
1783203475016530700,7.90953076171875,0.350244347256422,0.1506587635010481,-0.1710018788278103,1.394984006881714,-1.3212230205535889,-0.9450023770332336
1783203475026467800,7.9194677734375,0.4410866476982831,0.6520002656757831,0.2172714625716209,1.3920185565948486,-1.3545644283294678,-0.9399521946907043
1783203475036404700,7.92940478515625,0.2190741280794143,1.1199492013365029,0.5854349128782749,1.4529064893722534,-1.32610023021698,-0.945517361164093
1783203475046342000,7.939341796875,-0.1416205937817692,1.4315940610855815,1.0450094034254551,1.5284512042999268,-1.2515647411346436,-0.9659669995307922
1783203475056277800,7.94927783203125,-0.3535685232430696,1.7918442540496586,1.5571096155017614,1.5695761442184448,-1.2236673831939695,-1.0096279382705688
1783203475066215000,7.95921484375,-0.3455699257045984,2.148153015911579,2.157597136083245,1.561414361000061,-1.1788115501403809,-1.0456825494766235
1783203475076151800,7.96915185546875,-0.3799634859547018,2.2547189551860094,2.9440222388178108,1.498081088066101,-1.1322991847991943,-1.0661098957061768
1783203475086089000,7.9790888671875,-0.4735954171150922,2.5596821452140808,3.710656599411368,1.3866791725158691,-1.0606231689453125,-1.104108214378357
1783203475096025600,7.989025634765625,-0.4411734491989016,2.7078964381724595,4.243943391901254,1.252413272857666,-1.0242440700531006,-1.1139355897903442
