time,seconds_elapsed,ax,ay,az,gx,gy,gz
1783202856090411800,0.089411865234375,-1.1585375829279425,-1.1188067533031103,-5.162564549729228,1.073022484779358,0.6849086880683899,-0.4407307803630829
1783202856100348700,0.0993486328125,-1.3049109241947532,-0.9182017633721232,-5.561829240742325,1.3351792097091677,1.0344700813293457,-0.5619062185287476
1783202856110285800,0.109285888671875,-1.386989780205488,-0.7704831449761986,-5.666602451381087,1.650374174118042,1.3735591173171997,-0.6622732877731323
1783202856120222700,0.11922265625,-1.2909396819874643,-0.4274573507964611,-5.41515691652894,2.0491178035736084,1.6158921718597412,-0.7357373833656311
1783202856130159900,0.129159912109375,-1.2144021665561944,0.1229065409615635,-5.161786551094055,2.445488929748535,1.7721805572509766,-0.7905510067939758
1783202856140097000,0.139096923828125,-1.219806875143945,0.8549512342110276,-4.5683571323305365,2.718089818954468,1.9657635688781736,-0.8549374341964722
1783202856150033700,0.14903369140625,-1.2808612094350158,1.5914707347869872,-3.3196196385174987,2.873319149017334,2.272234916687012,-0.9048107266426086
1783202856159970800,0.158970703125,-1.2652917382508515,2.218468076631426,-1.8233464767724277,2.976661443710327,2.564462184906006,-0.9128326773643494
1783202856169907700,0.16890771484375,-1.089622159872949,2.7270366074502466,-0.7174906827181577,3.0664429664611816,2.725497245788574,-0.8693040013313293
1783202856179844900,0.178844970703125,-0.9341996891014276,3.116889326995611,0.1107306577384471,3.1608543395996094,2.724277973175049,-0.7736408710479736
1783202856189782000,0.188781982421875,-0.8151051076434552,3.50253758058846,0.8643173207104206,3.1948962211608887,2.5779542922973637,-0.6521824598312378
1783202856199718700,0.19871875,-0.7238530573569237,3.855964649534225,1.696161527839303,3.1506712436676025,2.35778546333313,-0.5168925523757935
1783202856209655800,0.20865576171875,-0.7098413370087743,4.060916144236922,2.7030384767472744,2.9538495540618896,2.8179051876068115,-0.2968277931213379
1783202856219592700,0.2185927734375,-0.3191851921260357,3.524027527862787,5.757077672076225,2.5848388671875,2.7844340801239014,-0.0168768167495727
1783202856229529900,0.22852978515625,0.0964553180180489,3.3835026203632355,5.774504607695341,2.1268601417541504,1.930091500282288,0.2120353877544403
1783202856239467000,0.238467041015625,0.1809992489680647,3.978668653661012,4.704050381889939,1.6705795526504517,0.983388364315033,0.3828990161418915
1783202856249403600,0.248403564453125,0.2188902959451079,4.426711111846566,5.424340339937806,1.2723963260650637,0.3544696867465973,0.4930724501609802
1783202856259340800,0.2583408203125,0.1579676252096891,4.682137825289368,6.32665976678431,0.9004520773887634,-0.059040393680334,0.5671197772026062
1783202856269277700,0.268277587890625,-0.1108047458879649,4.953887312501669,6.461383294528722,0.5686963200569153,-0.3501915335655212,0.6074144840240479
1783202856279214800,0.27821484375,-0.3065215253859758,5.20584722661674,6.346002180635929,0.2722105383872986,-0.5261377692222595,0.6429096460342407
1783202856289152000,0.288152099609375,-0.3722080495223402,5.267307949751615,6.255609377527237,0.0076897856779396,-0.649885356426239,0.7026035189628601
1783202856299088600,0.298088623046875,-0.3353045522779226,5.124243879163265,6.0468088061809535,-0.2109935581684112,-0.7082668542861938,0.7665846347808838
1783202856309025800,0.30802587890625,-0.4035926372148096,5.05858628886044,6.061601301643252,-0.391076922416687,-0.6550493836402893,0.7997645139694214
1783202856318962700,0.317962646484375,-0.6093956341803074,5.165419939160347,6.271659764096141,-0.5393345355987549,-0.5544319748878479,0.7851725220680237
1783202856328899800,0.32789990234375,-0.9079838823489844,5.320705193418264,6.38591099717617,-0.655734658241272,-0.4798911809921264,0.7554977536201477
1783202856338837000,0.3378369140625,-1.0813001755990088,5.371861964681744,6.468859329497814,-0.7739042043685913,-0.4910391569137573,0.7251896262168884
1783202856348773600,0.347773681640625,-1.1106273923702537,5.330342205813527,6.488317478683591,-0.940623700618744,-0.5518367290496826,0.6879078149795532
1783202856358710800,0.357710693359375,-1.1494478291518986,5.436611792489886,6.678465372008085,-1.1769614219665527,-0.645568311214447,0.630033552646637
1783202856368648000,0.36764794921875,-1.1850463812775909,5.704498174533248,6.8743059240162365,-1.4782732725143433,-0.7786915302276611,0.5845698714256287
1783202856378584800,0.377584716796875,-1.160624618335068,5.844044592389464,6.966501392632723,-1.8208258152008057,-0.921112895011902,0.5571422576904297
1783202856388521700,0.387521728515625,-1.1356389378994702,5.874341530975699,7.012793188208341,-2.1798832416534424,-1.0634649991989136,0.5767031311988831
1783202856398458600,0.397458740234375,-1.1044264919035136,5.704706264325976,6.957899568504095,-2.5178561210632324,-1.1603035926818848,0.6351783871650696
1783202856408395800,0.407395751953125,-1.1012988614022732,5.512818833857774,6.99491032551527,-2.8769338130950928,-1.245983004570007,0.6782114505767822
1783202856418333000,0.4173330078125,-1.4909138266690074,5.579925453925132,7.010439903080463,-3.360802412033081,-1.4772887229919434,0.6483094692230225
1783202856428269800,0.427269775390625,-2.327477609665692,5.84949876614213,6.651814680969714,-3.996290683746338,-1.8490424156188965,0.557820200920105
1783202856438206700,0.437206787109375,-2.947486700057983,5.643284704157709,6.094715051215887,-4.73495626449585,-2.3739683628082275,0.4755506217479706
1783202856448143600,0.4471435546875,-3.3246219768494365,4.986203189694881,5.026362181603909,-5.529848575592041,-2.837118625640869,0.3676836788654327
1783202856458080800,0.457080810546875,-3.750148944105208,4.535305926600098,3.799939979973435,-6.232450008392334,-3.215566873550415,0.2413617074489593
1783202856468018000,0.467017822265625,-3.938973772132397,4.4736716004639865,1.6630167986065147,-7.223979473114014,-3.299912691116333,0.1613526493310928
1783202856477954800,0.476954833984375,-3.336564635838568,3.717544020837545,-0.5353209286659956,-7.600383281707764,-3.105414628982544,0.1857378780841827
1783202856487891700,0.4868916015625,-2.48903682962656,2.678753930318355,-4.708339018994569,-7.187718391418457,-2.7636446952819824,0.3215184509754181
1783202856497828600,0.49682861328125,-1.4848435668446125,1.4124417629785837,-9.506070724144577,-6.464568614959717,-2.208126306533813,0.4836231768131256
1783202856507765800,0.506765869140625,-0.7265767832323908,-0.014410802668333,-12.686977473020551,-5.576385974884033,-1.4690953493118286,0.6108256578445435
1783202856517703000,0.516702880859375,-0.4184101209878921,-1.1426879065629094,-14.600973358011244,-4.4888596534729,-0.6510084867477417,0.635280430316925
1783202856527639800,0.526639892578125,-0.4180842500343918,-1.874185268127918,-15.775927822732925,-3.3496999740600586,0.0802179425954818,0.6204689145088196
1783202856537576700,0.53657666015625,-0.3365647814720869,-2.57290636844635,-16.029077238893507,-2.3109633922576904,0.5764048099517822,0.5876973867416382
1783202856547513600,0.546513671875,-0.1777338174313306,-3.055364598713815,-15.515083760416507,-1.3980869054794312,0.7530112862586975,0.5498881936073303
1783202856557450800,0.55645068359375,-0.1344437609549611,-3.1210265729308126,-14.602819278138876,-0.665741503238678,0.7009363770484924,0.5550236105918884
1783202856567388000,0.566387939453125,-0.1335921125616878,-3.3032553636938333,-13.189186990201472,-0.1061763986945152,0.4884616136550903,0.5982878804206848
1783202856577324800,0.57632470703125,-0.1590293361570686,-3.405374552692473,-11.661010623717308,0.3526159524917602,0.1981893181800842,0.6454780697822571
1783202856587261700,0.58626171875,-0.1870061612326651,-3.410940954647958,-10.23824693481922,0.7665468454360962,-0.0697351098060607,0.6616514325141907
1783202856597198800,0.59619873046875,-0.2620456201259046,-3.321785876640677,-8.90208425553143,1.1653306484222412,-0.2490073889493942,0.6217231750488281
1783202856607135700,0.6061357421875,-0.3353962491493672,-3.1057860414400693,-7.608732543966173,1.5342975854873655,-0.3386167287826538,0.5438386797904968
1783202856617073200,0.6160732421875,-0.3481592115454375,-2.852028430253267,-6.31470454057455,1.8541202545166016,-0.3426466286182403,0.4434539973735809
1783202856627010000,0.626010009765625,-0.3725055711641907,-2.516188163663447,-4.988882638037205,2.1092565059661865,-0.2850889265537262,0.3243443071842193
1783202856636947200,0.635947265625,-0.3893554375477135,-2.138511035080254,-3.759340258559584,2.2919676303863525,-0.1930601894855499,0.1871661990880966
1783202856646883800,0.6458837890625,-0.3940013636574149,-1.7429846538126468,-2.5806015991240736,2.3983354568481445,-0.0945314317941665,0.0348875001072883
1783202856656821000,0.655821044921875,-0.4444735136575997,-1.2303674321249127,-1.5064315676659346,2.41499137878418,0.0060055633075535,-0.1161443591117858
1783202856666758100,0.665758056640625,-0.4597593455947935,-0.7765960018333047,-0.5022849205046892,2.343188524246216,0.0788238942623138,-0.2379687577486038
1783202856676696000,0.675696044921875,-0.4480518105357885,-0.3156820063106715,0.3286316503852605,2.208746194839477,0.1097123026847839,-0.3366511166095733
1783202856686633200,0.68563330078125,-0.3876540404573083,0.1786943330265581,0.9765385092675686,2.0312771797180176,0.113136887550354,-0.3988382816314697
1783202856696570000,0.695570068359375,-0.3163460962425917,0.6329581499449909,1.4716390712261198,1.8282816410064695,0.128547266125679,-0.4214096367359161
1783202856706507000,0.705507080078125,-0.2784647669419646,1.0776683949679136,1.880500442624092,1.6182769536972046,0.1132766306400299,-0.4076646268367767
1783202856716444000,0.71544384765625,-0.1728245642103254,1.391492060060799,2.1312930665254592,1.401472568511963,0.071218654513359,-0.3649176955223083
1783202856726381000,0.725381103515625,-0.1057107837498187,1.6670098137654363,2.344506193616986,1.1854366064071655,0.0116208363324403,-0.3224360346794128
1783202856736318200,0.735318115234375,-0.1080208142578601,1.9307291392572223,2.4959593223661183,0.9916857481002808,-0.0431966073811054,-0.2960286438465118
1783202856746255000,0.745255126953125,-0.0863367326509207,2.122369463096559,2.578143100056052,0.8248136639595032,-0.0629235729575157,-0.2864728271961212
1783202856756192000,0.75519189453125,-0.0983452234178781,2.2551810197398066,2.6389748776376245,0.6769179701805115,-0.0643547549843788,-0.2902020514011383
1783202856766129000,0.76512890625,-0.0782762488573789,2.263983042615652,2.6813983073472976,0.5202121734619141,-0.0331114344298839,-0.3026310801506042
1783202856776066000,0.775066162109375,-0.0721826812226325,2.236343925061822,2.7940912050694227,0.3435681164264679,0.0174713172018528,-0.3255062997341156
1783202856786003200,0.785003173828125,-0.130010016291216,2.262697386719286,2.916192567127943,0.1360809355974197,0.0612168312072753,-0.3455981314182281
1783202856795940000,0.794940185546875,-0.1411396783970296,2.2535019806116816,3.0570237640976905,-0.09480582177639,0.0593446269631385,-0.3544733822345733
1783202856805877000,0.804876953125,-0.1174049478705972,2.213484150739014,3.1080373274981974,-0.3363052904605865,-0.0170386992394924,-0.3476485908031463
1783202856815814100,0.814814208984375,0.0047299511313438,2.1001021017089485,3.0093910753071307,-0.5711686015129089,-0.1438075751066208,-0.3087981343269348
1783202856825751000,0.8247509765625,0.2454332888253033,1.938235423234105,2.7229280030876395,-0.7969774007797241,-0.2256798446178436,-0.2246092855930328
1783202856835688200,0.834688232421875,0.4001542602639645,1.7053963891744612,2.401070376881957,-0.9939271807670592,-0.2703360021114349,-0.1219146028161048
1783202856845625000,0.844625,0.4425955909565091,1.4100316330969334,1.9931740511238571,-1.160894751548767,-0.3308106064796448,-0.0180463138967752
1783202856855562000,0.85456201171875,0.3898291925393045,1.0307596365377307,1.386941849410534,-1.2795556783676147,-0.4430916011333465,0.0687764585018158
1783202856865499100,0.8644990234375,0.2882639841616153,0.529877860829234,0.6241384452819824,-1.3424683809280396,-0.5545192956924438,0.1309226900339126
1783202856875437000,0.87443701171875,0.0539998857349157,-0.0534812686882913,-0.1965203509658575,-1.3512996435165403,-0.6553567051887512,0.1579519063234329
1783202856885374000,0.8843740234375,-0.3211997468188405,-0.6987813060730695,-1.02120241138041,-1.3198565244674685,-0.74297696352005,0.1645664870738983
1783202856895311000,0.89431103515625,-0.688612378758192,-1.3552446886375549,-1.9667238510936496,-1.2622246742248535,-0.8586718440055847,0.159096360206604
1783202856905248300,0.904248291015625,-0.9656940207786856,-2.088149651978165,-3.214724262803793,-1.1347755193710327,-0.8980963826179504,0.1614049822092056
1783202856915185000,0.914184814453125,-1.1005756616942584,-2.9428572866916656,-4.486888809433579,-0.8785423636436462,-0.8633040189743042,0.1683049649000167
1783202856925122000,0.9241220703125,-1.2123983524531126,-3.721195236821473,-5.840391330578923,-0.4742487370967865,-0.7158406972885132,0.144934207201004
1783202856935059000,0.934058837890625,-1.3219558747589588,-4.179913110539317,-6.899087898573279,0.034089345484972,-0.543188214302063,0.0735620334744453
1783202856944996000,0.94399609375,-1.4779367100656031,-4.266974723398685,-7.62442403409481,0.5553647875785828,-0.4206462800502777,-0.047003760933876
1783202856954933200,0.953933349609375,-1.5977881012402475,-4.135082911948859,-8.01050191127658,1.0305744409561155,-0.3771214485168457,-0.1644217222929
1783202856964870000,0.963869873046875,-1.5737483233526348,-4.00907197523117,-8.18862385124266,1.4470534324645996,-0.4349343478679657,-0.2754227221012115
1783202856974807000,0.97380712890625,-1.5812972774274647,-3.782871356272697,-8.472882106894254,1.807471513748169,-0.5587646961212158,-0.3678786158561706
1783202856984744200,0.983744140625,-1.530877880527824,-3.5282957067012783,-8.745128437712788,2.1177124977111816,-0.6199172139167786,-0.446449339389801
1783202856994681000,0.99368115234375,-1.418722889074683,-3.168404410177469,-8.695596052780747,2.412889242172241,-0.5846660137176514,-0.5133817791938782
1783202857004618200,1.0036181640625,-1.26037123298347,-2.787100907790661,-8.563008368021249,2.7163891792297363,-0.4971844255924225,-0.6039042472839355
1783202857014556200,1.01355615234375,-1.2036321315430103,-2.287359242027998,-8.452284724545478,3.026737689971924,-0.3275256156921386,-0.7241800427436829
1783202857024493000,1.0234931640625,-1.2367977574333548,-1.5349758173659442,-8.014239344239234,3.319253444671631,0.016900822520256,-0.8601937294006348
1783202857034430000,1.033429931640625,-1.3792619624324145,-0.6270926189124584,-7.123244444483518,3.553840160369873,0.3076407611370086,-1.0085139274597168
1783202857044367000,1.0433671875,-1.6390946557492017,0.3982151819601655,-6.483686311751604,3.723754405975342,0.5911293029785156,-1.1529778242111206
1783202857054304000,1.053303955078125,-1.6860643505863844,1.3314262984156608,-5.60290710106194,3.8214457035064697,1.0069220066070557,-1.2288824319839478
1783202857064241200,1.0632412109375,-1.4880875172019004,1.741258852933347,-4.25020069873035,3.79877233505249,1.3371535539627075,-1.2103569507598877
1783202857074178000,1.073177978515625,-1.0302397043168543,1.7649048091977837,-3.135110043340921,3.68139910697937,1.3680717945098877,-1.1844459772109983
1783202857084115000,1.083114990234375,-0.8730468628719449,2.402327098944783,-2.4182629192233085,3.5336368083953857,1.3510123491287231,-1.1895736455917358
1783202857094052000,1.093052001953125,-0.831273275373131,3.1079163314670324,-1.3296002520322798,3.3891961574554443,1.3741589784622192,-1.1954338550567627
1783202857103989200,1.1029892578125,-0.7620722403097897,3.541557923856377,-0.3073825261294841,3.245927333831787,1.4028732776641846,-1.2007917165756226
1783202857113926100,1.112926025390625,-0.698342695460096,3.876320039820671,0.4774287116676569,3.124541044235229,1.4222397804260254,-1.204574704170227
1783202857123863000,1.122863037109375,-0.6272218713153154,4.26996864451766,1.187334053823352,3.0673069953918457,1.4113261699676514,-1.2252168655395508
1783202857133801000,1.132801025390625,-0.5224307962263003,4.698832939502597,1.7596248229682443,2.949212074279785,1.3628355264663696,-1.2488974332809448
1783202857143738000,1.142738037109375,-0.4331156688190996,4.929520348486304,2.523228437563777,2.706342935562134,1.3023172616958618,-1.2311266660690308
1783202857153675000,1.152675048828125,-0.2565416889473795,5.26815726005733,3.344786228477955,2.278625011444092,1.2993981838226318,-1.2184443473815918
1783202857163612200,1.162612060546875,-0.2828657783798873,5.543011727547645,4.3574207179993385,1.937180757522583,1.3788546323776243,-1.237227439880371
1783202857173549000,1.172549072265625,-0.3800194904582574,5.94791530123055,4.748490412119031,1.7159810066223145,1.4616740942001345,-1.2473723888397217
1783202857183486000,1.18248583984375,-0.3456448906369507,6.210664904907345,4.985772397062182,1.5216606855392456,1.5267295837402344,-1.238734006881714
1783202857193423000,1.192423095703125,-0.2304509698793292,6.4229913122922175,5.4294496457755566,1.276846170425415,1.5546066761016846,-1.2072882652282717
1783202857203360000,1.202360107421875,-0.0798982971012592,6.612177082586288,6.024024142920971,1.004907488822937,1.543236255645752,-1.1659895181655884
1783202857213297200,1.212297119140625,0.0719778063002973,6.757116883918642,6.542527207776904,0.7117379307746887,1.473732829093933,-1.127749800682068
1783202857223234300,1.222234375,0.1518750074230134,6.957828256833553,6.950934405666589,0.411903440952301,1.3840948343276978,-1.0754382610321045
1783202857233171000,1.2321708984375,0.2862031061090528,7.15852735478878,7.360148243764042,0.1052047461271286,1.2703278064727783,-0.9956613183021544
1783202857243108900,1.24210888671875,0.4782721767544746,7.293185416081547,7.714692918562888,-0.1727704405784607,1.1368204355239868,-0.8880204558372498
1783202857253046000,1.2520458984375,0.6178405141815543,7.420931506028771,8.008120569097995,-0.3884601294994354,0.9799375534057616,-0.7545267939567566
1783202857262983200,1.261983154296875,0.7755278611451387,7.513001302438974,8.156632383698225,-0.5621089339256287,0.7809489369392395,-0.5706290006637573
1783202857272920000,1.271920166015625,0.952213192436844,7.581811219292879,8.304839662393928,-0.7209841012954712,0.5686891674995422,-0.3581655025482178
1783202857282857200,1.281857177734375,1.0451007349707186,7.613918422171473,8.552471191915869,-0.9099013805389404,0.3272547125816345,-0.140339657664299
1783202857292794000,1.291794189453125,0.8778963487297295,7.673869909787178,8.783315252766013,-1.1848305463790894,0.023971801623702,0.0562642142176628
1783202857302731000,1.30173095703125,0.4512472455762326,7.83998226300776,9.004941403415799,-1.568098068237305,-0.341188907623291,0.2156655192375183
1783202857312668200,1.311668212890625,0.1256345046207308,7.915595430135727,9.166124483540653,-2.0356674194335938,-0.754444420337677,0.3442610502243042
1783202857322605000,1.32160498046875,-0.1778720568582415,7.903133423447608,9.167411600741744,-2.546211242675781,-1.197666049003601,0.4454007148742676
1783202857332542200,1.331542236328125,-0.4826815176293254,7.921065385979413,8.906333145147562,-3.0652074813842773,-1.598153591156006,0.5189905166625977
1783202857342480100,1.341480224609375,-0.7965656807377934,7.960126645779609,8.57307792661488,-3.5963454246521,-1.905962347984314,0.5784091949462891
1783202857352417000,1.3514169921875,-0.9765921391509472,7.93765236364305,8.16035228100419,-4.12896728515625,-2.13632607460022,0.6836605072021484
1783202857362354000,1.36135400390625,-1.064519282798469,7.756026214948296,7.544425199228525,-4.64977502822876,-2.3208346366882324,0.8144220113754272
1783202857372291000,1.371291015625,-1.2931859996095298,7.660150596514343,6.646662120512128,-5.130342960357666,-2.446388006210327,0.987105906009674
1783202857382228200,1.381228271484375,-1.426030581739545,7.388174899330735,5.496388508060575,-5.52496862411499,-2.592233896255493,1.189592361450195
1783202857392165000,1.3911650390625,-1.7085072146713731,6.874660144281387,3.932003348597884,-5.819094181060791,-2.7525360584259038,1.3624684810638428
1783202857402102000,1.40110205078125,-2.440982700553536,6.2756000261545175,2.048575620350241,-6.006718635559082,-2.814713478088379,1.4313188791275024
1783202857412039200,1.4110390625,-3.482201479524374,5.561497816830873,0.087287822830677,-6.082536220550537,-2.736835479736328,1.4061427116394043
1783202857421977000,1.42097705078125,-4.226314796230197,4.452657161746919,-1.933483260270953,-6.019022464752197,-2.592015504837036,1.3256781101226809
1783202857431914000,1.4309140625,-4.273757515406609,2.911547371670604,-4.259388213792443,-5.750173568725586,-2.3746707439422607,1.2454339265823364
1783202857441851100,1.44085107421875,-3.866957752713561,1.3358663266897202,-6.792887870001793,-5.289524078369141,-2.1251111030578613,1.1855672597885132
1783202857451788300,1.450788330078125,-3.239249047729373,0.2398063888542353,-9.200879570579527,-5.615529537200928,-1.3834627866744995,1.1628988981246948
1783202857461725000,1.460724853515625,-2.5100644200861453,-1.0240725599892435,-9.111596190017462,-5.323922157287598,-0.5370394587516785,1.2211309671401978
1783202857471662000,1.470662109375,-1.9478598684087396,-2.022590115222335,-11.838840887260435,-4.534063816070557,0.142396330833435,1.2165309190750122
1783202857481599000,1.480598876953125,-1.875454703541845,-2.2113006692200896,-13.846188425165414,-3.993894338607788,0.7667681574821472,1.2324833869934082
1783202857491536100,1.4905361328125,-1.626880194081366,-2.758153337986767,-12.991943585658072,-3.4232776165008545,1.0090616941452026,1.2154048681259155
1783202857501473300,1.500473388671875,-1.4639184138461947,-3.11716200645715,-13.00996439551711,-3.1168901920318604,0.9813928008079528,1.1378830671310425
1783202857511411200,1.5104111328125,-1.689249848754704,-2.873343605482578,-12.11589958679676,-2.8322761058807373,0.8450168371200562,0.9890674948692322
1783202857521348000,1.52034814453125,-1.9450924495220183,-2.6571789351090787,-11.586736596238612,-2.5907461643218994,0.6856116652488708,0.7622417211532593
1783202857531285000,1.530284912109375,-2.3278972963824867,-2.3604569192036986,-11.309006865572927,-2.331599235534668,0.6212095022201538,0.4523959755897522
1783202857541222100,1.54022216796875,-2.573776721540093,-2.211347869362682,-11.050613119018076,-2.057333469390869,0.66611248254776,0.0945933237671852
1783202857551159000,1.550158935546875,-2.2290162125222386,-2.437184769575297,-10.76270686225295,-1.688536286354065,0.7425071001052856,-0.2223984748125076
1783202857561096200,1.56009619140625,-1.3310332074448463,-2.7438369356036185,-10.53017937836051,-1.1690841913223269,0.7869077324867249,-0.4726316332817077
1783202857571033000,1.570033203125,-0.2951318971697241,-2.75436271353215,-10.173423457252978,-0.4952034056186676,0.7841183543205261,-0.6299413442611694
1783202857580971000,1.579970947265625,0.6987274569939822,-2.5322522864967585,-9.48786403632462,0.2508714199066162,0.7134879231452942,-0.6774044036865234
1783202857590908200,1.589908203125,1.4877718753814697,-2.10817011122182,-8.391307985535263,0.9484329223632812,0.5695467591285706,-0.6108213663101196
1783202857600845000,1.599844970703125,1.941827017985284,-1.587722488169372,-6.943644833180308,1.4926810264587402,0.4152987003326416,-0.4542433619499206
1783202857610782200,1.6097822265625,2.070457635682076,-1.0585647583082318,-5.229518025061488,1.8438491821289065,0.2666226923465729,-0.2752778828144073
1783202857620719000,1.619718994140625,1.8649691114932296,-0.507803683926165,-3.507858483350277,2.033318519592285,0.1661966890096664,-0.1334968209266662
1783202857630656300,1.62965625,1.347920775490254,0.1233241818517446,-1.9183102410584687,2.1086392402648926,0.0811561048030853,-0.0630013570189476
1783202857640593400,1.639593505859375,0.7830375791881233,0.6293567644521594,-0.6930009691059589,2.1093204021453857,-0.0093911550939083,-0.0362744480371475
1783202857650530000,1.649530029296875,0.3637331397090107,0.8833743417493999,0.2999053221166133,2.038257598876953,-0.0906156972050666,-0.0388611778616905
1783202857660468200,1.65946826171875,0.0065884384796023,1.0538741893392056,1.1695131504505871,1.934791922569275,-0.1511141061782837,-0.0704059451818466
1783202857670405000,1.669405029296875,-0.3538450020968914,1.2229261031430214,1.8590870677173137,1.8047186136245728,-0.1953625082969665,-0.1094108670949935
1783202857680342300,1.67934228515625,-0.6292986045241356,1.3748758563026786,2.3810376426786184,1.6555070877075195,-0.2157295048236847,-0.1383833438158035
1783202857690279200,1.689279052734375,-0.7753847263474017,1.4593161807477473,2.7996225357115265,1.4837321043014526,-0.2581651210784912,-0.1447802484035492
1783202857700216300,1.69921630859375,-0.800868930889666,1.448310364217311,3.089246702310443,1.2899906635284424,-0.3243787288665771,-0.1350021660327911
1783202857710153200,1.7091533203125,-0.8122861777652055,1.5224851691052317,3.3415193356364963,1.0772590637207031,-0.396413505077362,-0.1320244967937469
1783202857720090000,1.719090087890625,-0.8104959333475679,1.6016541290186344,3.561560847443342,0.8380821943283081,-0.4542369544506073,-0.1234004497528076
1783202857730028000,1.729028076171875,-0.7976628283247351,1.6376181534558534,3.7338936826139686,0.5972937941551208,-0.5241776704788208,-0.1195529848337173
1783202857739965200,1.738965087890625,-0.7563147727616131,1.63443060946092,3.7752035981237886,0.352419376373291,-0.5985640287399292,-0.1133712530136108
1783202857749902300,1.74890234375,-0.7300202747497707,1.6217882777698338,3.727387953981757,0.1174281686544418,-0.6840957403182983,-0.1264463067054748
1783202857759839200,1.758839111328125,-0.7634554382964969,1.6699748010508717,3.4960271757811308,-0.0941929370164871,-0.7277395725250244,-0.1473105102777481
1783202857769776000,1.768776123046875,-0.7141716212980449,1.6930609314754603,3.1845658559054133,-0.2875232398509979,-0.7197026610374451,-0.1443738341331482
1783202857779713300,1.77871337890625,-0.5678785056605935,1.5461071599721907,2.86304491430819,-0.4704854786396026,-0.7066701054573059,-0.1328420490026474
1783202857789650200,1.788650146484375,-0.4828357583429664,1.454053730174899,2.456568976742029,-0.6465665102005005,-0.6653972268104553,-0.1273207813501358
1783202857799588000,1.798588134765625,-0.462795498420298,1.4836647323235868,2.005184806913137,-0.8024945855140686,-0.6537926197052002,-0.1022525280714035
1783202857809525200,1.808525146484375,-0.1756216475829482,1.3616085245810448,1.250462417909503,-0.912233293056488,-0.7039434313774109,-0.0262352619320154
1783202857819462400,1.81846240234375,0.2766561100848019,1.0289021721027791,0.402080332955718,-0.9868891835212708,-0.8289081454277039,0.062083501368761
1783202857829399000,1.82839892578125,0.3843881705291569,0.7869005382265896,-0.5268804325789213,-1.0280107259750366,-0.947401523590088,0.1481827050447464
1783202857839336200,1.838336181640625,0.2368837794058024,0.4191711684882641,-1.421000186356902,-1.0312974452972412,-0.9964568614959716,0.2171999514102935
1783202857849273000,1.848273193359375,-0.0224910871408879,-0.0741833535205572,-2.3641963979929685,-0.9718098044395448,-0.9003183841705322,0.2671315670013428
1783202857859210200,1.858210205078125,-0.3046338119432329,-0.5709517756260931,-3.3365918161064383,-0.8388825058937073,-0.7062535881996155,0.2623295187950134
1783202857869148200,1.868148193359375,-0.5703980872660875,-0.9768619690682738,-4.352776691585779,-0.6320302486419678,-0.5792953968048096,0.2070899903774261
1783202857879085300,1.878085205078125,-0.6068463880889118,-1.3156094283416866,-5.7024529324412345,-0.3457081317901611,-0.610552191734314,0.118869200348854
1783202857889022200,1.888022216796875,-0.5913889989770948,-1.6523350994639097,-7.395148829996585,0.0261186938732862,-0.7113645672798157,0.031768649816513
1783202857898959000,1.897958984375,-0.8449106094509363,-1.91737018372938,-9.083280196115377,0.5001753568649292,-0.7751371264457703,-0.0520806647837162
1783202857908896300,1.907896240234375,-1.2192889887496827,-2.114241393959522,-10.617650741064548,1.098587989807129,-0.762740433216095,-0.1534328460693359
1783202857918833200,1.917833251953125,-1.5229435803972184,-2.171676514840126,-11.785460010206698,1.767108678817749,-0.5908587574958801,-0.2836285233497619
1783202857928771300,1.927771240234375,-1.598237744703889,-2.062903274779767,-12.252947758096456,2.412071704864502,-0.297947496175766,-0.4486667513847351
1783202857938708200,1.937708251953125,-1.4566456463642417,-1.787904284252226,-12.113857267314197,2.9737260341644287,0.0175844151526689,-0.5865960717201233
1783202857948645000,1.94764501953125,-1.182249297904968,-1.5044082451447844,-11.693839711129664,3.387852191925049,0.2680789530277252,-0.7103108167648315
1783202857958582300,1.957582275390625,-1.2730708478197454,-0.9890538535781204,-11.158714597296717,3.6529388427734375,0.5955220460891724,-0.7974515557289124
1783202857968519200,1.967519287109375,-1.472174201016128,-0.5295959751479328,-10.350251850277186,3.801070690155029,0.9648987054824828,-0.8506399393081665
1783202857978456300,1.977456298828125,-1.771720042170584,-0.1039612366687506,-9.65582698584795,3.880713701248169,1.3244882822036743,-0.8952057361602783
1783202857988394200,1.987394287109375,-2.0735750370502477,0.2322875376567244,-9.042698010358214,3.9247095584869385,1.7178657054901123,-0.9395116567611694
1783202857998331400,1.997331298828125,-2.155956821530312,0.230427004481852,-8.239529278093576,3.9645259380340576,2.0949666500091557,-1.0095970630645752
1783202858008268000,2.00726806640625,-2.624364460743964,0.5946531153395772,-7.332260119885205,3.985384702682495,2.426888942718506,-1.1134477853775024
1783202858018205200,2.017205078125,-3.129849930855632,1.323273971620202,-6.316164091733097,3.9646575450897217,2.754805564880371,-1.19881010055542
1783202858028142300,2.027142333984375,-3.2639366220012307,1.7264114124134182,-5.069479438796639,3.9133381843566895,3.014028310775757,-1.2546097040176392
1783202858038079200,2.037079345703125,-3.315618878443539,2.2162845951125023,-3.985693437731266,3.866734266281128,3.230130910873413,-1.2893426418304443
1783202858048017200,2.04701708984375,-3.4523812185391782,2.957998157200217,-2.882878911069035,3.857666969299317,3.38451623916626,-1.297358751296997
1783202858057954300,2.056954345703125,-3.373234324327111,3.6219361134290695,-1.9460604177713392,3.872115850448608,3.5378551483154297,-1.2456618547439575
1783202858067891200,2.06689111328125,-3.0539252135604618,4.076107868149876,-0.9813339268505572,3.8994510173797607,3.655379295349121,-1.1477967500686646
1783202858077828000,2.076828125,-2.8972596108600497,4.600713926056027,-0.0833399619877338,3.9277310371398926,3.720672607421875,-1.034970760345459
1783202858087765200,2.08676513671875,-2.9341806437611577,5.172285148754716,0.8103554288983345,3.986541509628296,3.7307536602020255,-0.9237529039382936
1783202858097702100,2.0967021484375,-2.9729882210612297,5.623952811700105,1.7394617403835058,4.150051593780518,3.576869010925293,-0.8170064687728882
1783202858107640300,2.106640380859375,-2.9830820373132823,6.028036301171779,2.336968199327588,4.23952054977417,3.2753682136535645,-0.7329661846160889
1783202858117577200,2.1165771484375,-2.979424976110458,6.16104659525752,3.365694576472044,4.085839748382568,2.9023725986480717,-0.624899685382843
1783202858127514000,2.12651416015625,-2.751596171428263,6.341718219706416,4.724217556127906,3.781721591949463,2.499955177307129,-0.5966858863830566
1783202858137451300,2.136451171875,-2.66201614600718,6.52349342148304,5.746939724421501,3.509850263595581,2.1059470176696777,-0.5961390137672424
1783202858147388200,2.14638818359375,-2.3988535776153204,6.533699758198857,6.0795052071243525,3.383196353912353,1.736795425415039,-0.5575077533721924
1783202858157325300,2.1563251953125,-2.125669673685729,6.637522536244988,6.342946884718537,3.2108147144317627,1.4068608283996582,-0.507221519947052
1783202858167263200,2.16626318359375,-1.90294023796916,6.909662484079599,6.8506164208710185,2.898769855499268,1.1236416101455688,-0.4486160278320312
1783202858177200400,2.176200439453125,-1.8443965713247656,7.069410562965273,7.619037080359458,2.505349636077881,0.9155373573303224,-0.3989694714546203
1783202858187137000,2.186136962890625,-1.8769573631897567,7.255800565060973,8.115545755550265,2.06319522857666,0.7643387913703918,-0.3555263876914978
1783202858197074200,2.19607421875,-1.7882000523284076,7.312101713475585,8.464594755542278,1.575945496559143,0.6572571992874146,-0.3282546699047088
1783202858207011300,2.20601123046875,-1.7223060229212044,7.484161576923728,8.761060166338085,1.0636669397354126,0.585425853729248,-0.3214843869209289
1783202858216949200,2.21594921875,-1.590745050860941,7.594213020226359,8.986393354812265,0.5570414662361145,0.5139972567558289,-0.3155569732189178
1783202858226886400,2.225886474609375,-1.5215212925091386,7.57882548148036,9.096189362049104,0.1187535747885704,0.4435310661792755,-0.2889325618743896
1783202858236823300,2.2358232421875,-1.430959270313382,7.605133642691373,9.139732151177524,-0.2451903373003006,0.3684726357460022,-0.2316265404224395
1783202858246760200,2.24576025390625,-1.3668246517941356,7.671192215010524,9.136806034597754,-0.5632964372634888,0.2497707605361938,-0.1425328850746154
1783202858256697000,2.255697021484375,-1.307716629265249,7.788197715234756,9.124592449712752,-0.8789488673210144,0.0715988725423812,-0.0211284458637237
1783202858266634200,2.26563427734375,-1.2579337767034768,7.886847474557161,9.178113612020017,-1.2497735023498535,-0.1304591596126556,0.1124621033668518
1783202858276572200,2.275572265625,-1.3266989776328206,7.988937729722261,9.378634430798888,-1.6531263589859009,-0.3691213428974151,0.2366132736206054
1783202858286509300,2.28550927734375,-1.443305833928287,8.071710120955109,9.44472573634386,-2.0589258670806885,-0.6561107635498047,0.3596177399158478
1783202858296446200,2.2954462890625,-1.4617296716302632,8.083124079895018,9.310376887130737,-2.4354028701782227,-0.9582892060279846,0.4961583614349365
1783202858306383000,2.305383056640625,-1.4875357285380362,8.039508810052276,9.116117466834186,-2.767808198928833,-1.2539650201797483,0.6363154649734497
1783202858316320300,2.3153203125,-1.6240706896185877,8.093837781611084,8.891026270422339,-3.115332126617432,-1.5435501337051392,0.773074746131897
1783202858326258200,2.325258056640625,-1.916295686365664,8.199753732544183,8.65422710056007,-3.519263505935669,-1.833691120147705,0.8733108043670654
1783202858336195300,2.3351953125,-2.287304881492257,8.30379161464572,8.431147243970631,-4.016931056976318,-2.160820722579956,0.9417195320129396
1783202858346132200,2.34513232421875,-2.6947727527052163,8.436157181087136,8.046975492671132,-4.604465484619141,-2.509749174118042,0.9879517555236816
1783202858356069000,2.355069091796875,-3.1366759774833914,8.48616887396872,7.461586172500252,-5.200518131256104,-2.879890918731689,1.0320312976837158
1783202858366006000,2.365006103515625,-3.5071889135256407,8.223380107325315,6.621010961905122,-5.759026050567627,-3.254607677459717,1.0733689069747925
1783202858375943200,2.374943115234375,-4.109349043494463,7.962262488764524,5.394695143258572,-6.254726409912109,-3.640889167785645,1.0855321884155271
1783202858385881000,2.384881103515625,-5.027418997180462,7.668622072261571,3.8408816466927527,-6.668060302734375,-4.058452129364014,1.034751296043396
1783202858395818200,2.394818359375,-5.752935165444016,7.271525957459211,1.7319477114915849,-6.9458208084106445,-4.462341785430908,0.947700262069702
1783202858405755400,2.40475537109375,-6.090835579434037,6.601995880311727,-0.9664081603974104,-7.039252281188965,-4.751253604888916,0.8879346251487732
1783202858415692000,2.414692138671875,-5.709686975347996,5.569845958459377,-4.30579574470222,-6.859123706817627,-4.745677947998047,0.888287365436554
1783202858425629200,2.424629150390625,-4.570808324874937,4.054235059037804,-8.018102449408174,-6.211016178131104,-4.355278491973877,0.9768366813659668
1783202858435567000,2.434567138671875,-3.0131396141856905,2.2456074279695746,-12.023567340058088,-5.778318881988525,-3.5754992961883545,1.1277157068252563
1783202858445504300,2.444504150390625,-1.4259078321427106,0.872818168682605,-14.211666581910848,-5.674631118774414,-2.1978423595428467,1.2418761253356934
1783202858455441200,2.454441162109375,-0.7259618662044406,-0.3425110495906323,-14.761609325647353,-4.618009567260742,-0.9607699513435364,1.175971746444702
1783202858465378300,2.46437841796875,-0.7033467142924666,-0.8174009634956717,-18.184840729808805,-3.7113773822784415,0.1154414191842079,1.0342609882354736
1783202858475315200,2.474315185546875,-0.9301832930669188,-1.154191443482414,-17.767494438660144,-2.7244646549224854,0.8382751941680908,0.8507184982299805
1783202858485253000,2.484253173828125,-1.2697457950502633,-1.7278452446088193,-17.035114229846,-2.199437141418457,1.1847561597824097,0.690409779548645
1783202858495190000,2.49418994140625,-1.1977865473199636,-2.328224920901656,-15.182647457051276,-1.9421565532684328,1.1843701601028442,0.5659068822860718
1783202858505127200,2.504127197265625,-0.8378017272938042,-2.833956766989827,-13.598939172959328,-1.9139121770858765,0.9923474788665771,0.4335235059261322
1783202858515064300,2.514064208984375,-0.5221941744588315,-3.0664582396581768,-12.40146892504692,-1.8532902002334597,0.7262808084487915,0.2913199067115783
1783202858525001200,2.524001220703125,0.0624224808391183,-3.512797693318128,-11.812467259597778,-1.608121395111084,0.4225419461727142,0.1698936074972152
1783202858534939400,2.533939453125,0.7644913572154939,-4.036514401169121,-11.782630924260616,-1.0820908546447754,0.2713364064693451,0.1101053655147552
1783202858544876000,2.5438759765625,1.315443131864071,-4.235255058532953,-11.433266866970062,-0.4353989362716675,0.2979456484317779,0.1162066608667373
1783202858554813200,2.553813232421875,1.6512047802597285,-4.091355121642351,-10.36051722370386,0.1893195956945419,0.4140431582927704,0.1647333800792694
1783202858564750000,2.56375,1.8160910988166927,-3.6638399031788103,-8.717444311973452,0.7636412382125854,0.4858939349651336,0.2098433375358581
1783202858574687200,2.573687255859375,1.787395750208199,-3.115731389132142,-7.045764314439892,1.2884926795959473,0.4631368517875671,0.245605781674385
1783202858584625200,2.583625244140625,1.6172513649925588,-2.649538649488985,-5.447984834897518,1.6826088428497314,0.3653618097305298,0.2872645556926727
1783202858594562300,2.593562255859375,1.286687139109522,-2.1016353026255965,-3.79801047321558,1.9138559103012085,0.2527757883071899,0.3181110322475433
1783202858604499200,2.603499267578125,0.8661464358337223,-1.5039039488844572,-2.2028730326145887,2.0018935203552246,0.157746210694313,0.3508079946041107
1783202858614435600,2.613435546875,0.4151563798889517,-0.990913363839686,-0.7799035920113324,1.978768229484558,0.1100837364792823,0.3568140864372253
1783202858624372700,2.623372802734375,-0.117266598845832,-0.444124627154693,0.4286088589191436,1.871916890144348,0.0917966067790985,0.3323279321193695
1783202858634310700,2.633310546875,-0.5768401760775596,0.0011217705715447,1.430993172582984,1.6994314193725586,0.0883169546723365,0.2756004631519317
1783202858644247800,2.643247802734375,-0.9648882573537528,0.3811621211547404,2.2403788796663284,1.4754610061645508,0.1358911246061325,0.1887790262699127
1783202858654184700,2.653184814453125,-1.321019178430736,0.7153185263108461,2.863365816825628,1.2239288091659546,0.154802143573761,0.0968929603695869
1783202858664121900,2.663121826171875,-1.6060178771860896,0.8399369126915931,3.1982360693395138,0.9777927994728088,0.1587201952934265,0.0064647970721125
1783202858674058800,2.673058837890625,-1.7681449601627883,0.9178314687550068,3.417313704550266,0.7538161277770996,0.1226745024323463,-0.0718964189291
1783202858683996700,2.68299658203125,-1.8519672988399865,1.0378848853077738,3.524768701618909,0.5580196976661682,0.0578909739851951,-0.1313826441764831
1783202858693933800,2.692933837890625,-1.882703359495848,1.1434440586924552,3.54901350055933,0.3912724554538727,-0.0183802787214517,-0.175122320652008
1783202858703870700,2.70287060546875,-1.9351960555382075,1.3215301966927946,3.5152515162110327,0.2577223777770996,-0.0860794335603714,-0.1974217593669891
1783202858713808000,2.712807861328125,-1.9203037529632447,1.3773764409467577,3.446034772121906,0.13496695458889,-0.1531268209218979,-0.1894127428531646
1783202858723744800,2.722744873046875,-1.8640226244233544,1.3697911003842949,3.416798740765452,0.0108487335965037,-0.2331297695636749,-0.1673868000507354
1783202858733683000,2.732682861328125,-1.7988227147601543,1.411294784900546,3.391696448212862,-0.1233834028244018,-0.3376684486865997,-0.1508456915616989
1783202858743619600,2.74261962890625,-1.8142407947748895,1.474755157420039,3.343661608362197,-0.2903995513916015,-0.4416766166687011,-0.1651652306318283
1783202858753556700,2.752556640625,-1.937646225169301,1.648640044338256,3.2662638959050176,-0.4908536076545715,-0.4780641496181488,-0.2058183699846267
1783202858763494000,2.762493896484375,-1.991619515158236,1.7530539201453328,3.254147926175594,-0.7247017621994019,-0.487981766462326,-0.2419563978910446
1783202858773431800,2.772431884765625,-1.9504820336058732,1.6739596329033375,3.081743779334426,-0.9927968382835388,-0.4997057914733886,-0.277335911989212
1783202858783368700,2.78236865234375,-1.814032120460272,1.5532333585903049,2.823216761788726,-1.2582725286483765,-0.5637468099594116,-0.327019065618515
1783202858793305900,2.792305908203125,-1.5736518772408363,1.4174633905328808,2.334767474412918,-1.4679065942764282,-0.6924803853034973,-0.3940679132938385
1783202858803242800,2.80224267578125,-1.2561213204540311,1.2214054694470018,1.531362010782957,-1.6031970977783203,-0.8535432815551758,-0.4533093869686126
1783202858813179600,2.8121796875,-0.958608811758086,1.0055462848261,0.5555506467461586,-1.6856037378311155,-0.9915170669555664,-0.4921430051326751
1783202858823117800,2.822117919921875,-0.8168569928120821,0.7035110380087047,-0.4375783473163843,-1.7314908504486084,-1.0745266675949097,-0.5061118602752686
1783202858833054700,2.8320546875,-0.7635474274288863,0.3561429768409579,-1.4976958880245683,-1.7520647048950195,-1.1616613864898682,-0.5058867931365967
1783202858842991900,2.841991943359375,-0.5891054180845617,-0.0688122549414634,-2.7438106321185827,-1.749030351638794,-1.2507143020629885,-0.5044638514518738
1783202858852928800,2.8519287109375,-0.3310775822326541,-0.6059269351564347,-4.176745001897215,-1.7397257089614868,-1.3865911960601809,-0.4841722249984741
1783202858862865700,2.86186572265625,-0.1103920734338462,-1.2677931996777654,-6.228219266298413,-1.7040237188339231,-1.4570019245147705,-0.4057844877243042
1783202858872803600,2.871803466796875,0.1601705420814454,-2.004956989506632,-8.797286494973301,-1.5286167860031128,-1.3369559049606323,-0.2731864154338836
1783202858882740700,2.88174072265625,0.1099867075033485,-2.7967303214013577,-11.66981118528843,-1.059514045715332,-0.9348832964897156,-0.1572188138961792
1783202858892678000,2.891677978515625,-0.2127456557102501,-3.565189559334516,-14.290112926638123,-0.2200899273157119,-0.3701094388961792,-0.190104603767395
1783202858902614800,2.90161474609375,-0.7494235519431531,-3.717380646969378,-16.43794094837904,0.8432756662368774,0.2276964634656906,-0.4459739327430725
1783202858912553000,2.911552978515625,-1.3659253648668528,-2.9533129219934344,-17.60406913256645,1.9071584939956665,0.8473988175392151,-0.840651273727417
1783202858922489900,2.92148974609375,-1.2848875423416497,-1.9486555488310755,-17.549103032147883,2.868556261062622,1.3580313920974731,-1.1002544164657593
1783202858932426800,2.9314267578125,-0.5685961524106562,-1.4392014673493805,-16.797767947494982,3.676419258117676,1.675269603729248,-1.1458163261413574
1783202858942363600,2.94136376953125,-0.1259250119999051,-0.8464575466319918,-15.64672744232416,4.30896520614624,1.920652747154236,-1.1076703071594238
1783202858952300800,2.95130078125,-0.5109671163931488,0.288984407390654,-13.937066381442548,4.794415473937988,2.1111598014831543,-1.0647671222686768
1783202858962238700,2.96123876953125,-1.240525545784831,1.38556880749166,-12.053058807480337,5.120689392089844,2.1977760791778564,-1.0529404878616333
1783202858972176000,2.97117578125,-2.022879307427257,2.28214267642349,-10.21736196770072,5.27561616897583,2.219362258911133,-1.0831298828125
1783202858982112800,2.98111279296875,-2.587109958104789,2.8708868599802253,-8.489000298002361,5.306901931762695,2.2666499614715576,-1.1297986507415771
1783202858992049700,2.991049560546875,-2.715439108636975,3.229268920984864,-6.884877586913109,5.224358081817627,2.3080828189849854,-1.160008192062378
1783202859001987600,3.000987548828125,-2.7297955507695675,3.584857259617745,-5.424869916769862,5.078612804412842,2.3705122470855717,-1.1667263507843018
1783202859011924700,3.0109248046875,-2.739290524345636,4.014270420657098,-4.1125066307425495,4.882575035095215,2.477094411849976,-1.170678973197937
1783202859021862000,3.02086181640625,-2.739628377997875,4.5042198834627865,-2.900589924326539,4.6630024909973145,2.687822103500366,-1.177912712097168
1783202859031798800,3.030798828125,-2.7033962041437625,4.962909992390871,-1.714320869386196,4.472347736358643,3.0020089149475098,-1.1878626346588137
1783202859041736000,3.04073583984375,-2.7435516889214515,5.589072052454948,-0.5254810871750116,4.311624050140381,3.304173707962036,-1.1900386810302734
1783202859051673900,3.050673828125,-2.8622534716695545,6.177632988399266,0.5808230351686477,4.177577495574951,3.5539767742156982,-1.169674277305603
1783202859061610800,3.06061083984375,-2.987058831989765,6.611388562557101,1.742571981358528,4.274116039276123,3.663947343826294,-1.0703753232955933
1783202859071547600,3.070547607421875,-2.9505189073607325,7.041952647197246,2.556386610800028,4.393494129180908,3.510499954223633,-0.9594630599021912
1783202859081484800,3.08048486328125,-2.9145506451398133,7.283206458380818,3.4272160898834465,4.262901306152344,3.170243740081787,-0.8067235946655273
1783202859091422700,3.090422607421875,-2.759228273741901,7.332744688531756,5.0278012744963165,3.912400960922241,2.7573318481445312,-0.6525568962097168
1783202859101359900,3.10035986328125,-2.4895231518387795,7.336801854968071,6.185632754981517,3.647628784179688,2.3150696754455566,-0.5559858679771423
1783202859111296800,3.110296875,-2.519629828549921,7.434592951634526,6.636877224078774,3.526949882507324,1.9279314279556277,-0.5050868391990662
1783202859121233700,3.120233642578125,-2.507494277337193,7.562161931449174,6.81971157951951,3.532144784927368,1.50618577003479,-0.4163878858089447
1783202859131171600,3.130171630859375,-2.347569088318944,7.726037319397926,6.908039851313829,3.2772841453552246,1.166091799736023,-0.3363833427429199
1783202859141108700,3.140108642578125,-2.1016317954942583,7.739528669133782,7.735400775548816,2.855721950531006,0.9024641513824464,-0.2735055983066559
1783202859151046000,3.1500458984375,-2.06260297665894,7.797747049346566,8.358398234102129,2.401392936706543,0.7491076588630676,-0.2343101948499679
1783202859160982800,3.159982666015625,-2.088875482034683,7.953810302239656,8.678979849022626,1.9566144943237305,0.707081139087677,-0.2175951302051544
1783202859170920000,3.169919921875,-2.181271441659331,8.112316272109746,9.035862026858329,1.499173641204834,0.687494158744812,-0.2053634524345398
1783202859180857900,3.17985791015625,-2.197180958452821,8.201758058103918,9.326979646885396,1.0201785564422607,0.6320522427558899,-0.1809736937284469
1783202859190794800,3.189794677734375,-2.128640798451006,8.145070540720225,9.57033306069672,0.5602349042892456,0.5385759472846985,-0.1512417644262313
1783202859200731600,3.199731689453125,-2.1120868462741376,8.097590996664762,9.714866034793854,0.1812095642089843,0.3848130106925964,-0.1102266833186149
1783202859210668800,3.209668701171875,-2.1679104403048752,8.178322237458824,9.71188964933157,-0.1273831129074096,0.2056084275245666,-0.0650133788585662
1783202859220606700,3.219606689453125,-2.2792490008085964,8.345393791100383,9.784888250046968,-0.4323241114616394,-0.0099068116396665,-0.0030139219015836
1783202859230544000,3.2295439453125,-2.371782030816376,8.444083297911286,9.92336148571372,-0.8012508153915405,-0.2781752943992615,0.0711785778403282
1783202859240481000,3.23948095703125,-2.388903846009076,8.531798990765214,10.071967992860078,-1.2408124208450315,-0.5904988050460815,0.155814379453659
1783202859250417700,3.249417724609375,-2.4149001647919417,8.646462896299361,10.152760608452558,-1.711548924446106,-0.9132542610168456,0.2554583549499511
1783202859260354800,3.259354736328125,-2.352209023079276,8.677794438630341,10.07052889996767,-2.179114818572998,-1.200670599937439,0.3670344352722168
1783202859270292700,3.269292724609375,-2.324280567190051,8.700970731556415,9.925203898710013,-2.627083778381348,-1.47087562084198,0.4860426187515259
1783202859280230000,3.27922998046875,-2.4245538360610603,8.75392666119635,9.67994260545075,-3.07423734664917,-1.7382320165634155,0.5993340015411377
1783202859290166800,3.289166748046875,-2.6380013564303515,8.753014807048439,9.401128002157806,-3.5429577827453613,-2.0417261123657227,0.6886647939682007
1783202859300104000,3.29910400390625,-2.87809635296762,8.746893693819642,9.08878756136,-4.050074100494385,-2.400766134262085,0.754913330078125
1783202859310041900,3.309041748046875,-3.1149934302464124,8.820277494460344,8.655739843210577,-4.596052169799805,-2.8351402282714844,0.8232539296150208
1783202859319978800,3.318978759765625,-3.113919955796004,8.739164560872316,7.83088067266345,-5.135051250457764,-3.349484443664551,0.9395451545715332
1783202859329915600,3.32891552734375,-2.8503619583457707,8.4365955725044,6.451455190232395,-5.628713607788086,-3.871709108352661,1.1499186754226685
1783202859339852800,3.338852783203125,-2.867358978115022,7.981805393624305,4.642410795056819,-5.995456218719482,-4.401972770690918,1.4253957271575928
1783202859349790700,3.348790771484375,-3.3062796799510714,7.338972769266366,2.168464567056298,-6.140648365020752,-4.815030574798584,1.703375220298767
1783202859359727900,3.358727783203125,-3.836838508781791,6.384142233937978,-0.6744172646671533,-6.035350322723389,-4.977845191955566,1.894345760345459
1783202859369665000,3.3686650390625,-4.366830351379513,5.285820927041769,-3.5814065346419808,-5.736051082611084,-4.867269515991211,2.0067970752716064
1783202859379601700,3.3786015625,-4.52699373306781,4.012702148427069,-6.341147141820192,-5.326367378234863,-4.470500946044922,2.027327537536621
1783202859389538800,3.388538818359375,-4.274903178310394,2.661624808602035,-8.79885768981278,-4.850569248199463,-3.908511877059937,1.9623007774353027
1783202859399476700,3.398476806640625,-3.98744904922694,1.3129948619291183,-11.176206999367476,-4.217404365539551,-3.286219596862793,1.8505276441574097
1783202859409414000,3.408413818359375,-3.0151486159205434,-0.2228232514798641,-13.718687834411858,-4.372823238372803,-2.565274238586426,1.819103717803955
1783202859419350800,3.418350830078125,-1.5584838264644143,-1.8075114865198727,-14.199591528713702,-4.3882598876953125,-1.5977771282196045,1.811344027519226
1783202859429287700,3.42828759765625,-1.0537570657655595,-2.8465058674395083,-15.3729069940567,-3.6723880767822266,-0.9890822768211364,1.6787657737731934
1783202859439225600,3.4382255859375,-1.1788859589517116,-2.743716524094343,-18.859664237189293,-2.8238184452056885,-0.3599495887756347,1.5974501371383667
1783202859449162800,3.448162841796875,-1.2446370727568865,-3.078296853750944,-18.727628925615548,-1.8405615091323853,-0.070170558989048,1.479910373687744
1783202859459099600,3.458099609375,-1.5299059667557475,-3.342384135772288,-19.258888011670116,-1.112665772438049,0.0277733169496059,1.4267609119415283
1783202859469036800,3.468036865234375,-1.190867780907452,-4.437734610164165,-18.02521481599808,-0.5313413143157959,-0.0233411081135272,1.346676468849182
1783202859478974700,3.477974609375,-0.6861427737742662,-5.330168602812289,-16.941566177576778,0.054755724966526,-0.0839890092611312,1.21894109249115
1783202859488912000,3.487911865234375,-0.4328476655326783,-5.7355748653203245,-15.753762752676009,0.7177449464797974,-0.0477353483438491,1.0375967025756836
1783202859498848800,3.497848876953125,-0.3591834405153989,-5.767375778728723,-14.403867900633813,1.417680740356445,0.0977278426289558,0.8466756939888
1783202859508785700,3.50778564453125,-0.3222290898665785,-5.514850047424435,-12.553906388658284,2.014784336090088,0.3123520314693451,0.6667778491973877
1783202859518723800,3.517723876953125,-0.2836167428776621,-5.0742140661031,-10.319755005204676,2.4398350715637207,0.5336489677429199,0.4968096017837524
1783202859528660700,3.52766064453125,-0.3565814413234591,-4.310227005147934,-7.919422879469394,2.6983821392059326,0.7908105850219727,0.3350298702716827
1783202859538598000,3.537597900390625,-0.607210691356659,-3.2788024749606848,-5.469479458346963,2.844705581665039,1.0610429048538208,0.1705897897481918
1783202859548534800,3.54753466796875,-0.9723685301065444,-2.234977897405624,-3.322798853075504,2.931035041809082,1.2797619104385376,0.0285926647484302
1783202859558473000,3.557472900390625,-1.311421913523972,-1.3181541443884373,-1.4833295090198515,2.9182944297790527,1.3823106288909912,-0.0634605586528778
1783202859568409600,3.56740966796875,-1.5426745551750063,-0.4704110879905521,0.1329465811997651,2.7944700717926025,1.3707802295684814,-0.0970624610781669
1783202859578346800,3.5773466796875,-1.6460725319378078,0.2496545597821474,1.5815934838950634,2.60235333442688,1.235118746757507,-0.0840622410178184
1783202859588284000,3.587283935546875,-1.6809524144001304,0.8540297354519367,2.6345401100605725,2.372415781021118,1.0177454948425293,-0.0575040988624095
1783202859598221800,3.597221923828125,-1.7450849870927632,1.3282349550284445,3.3949995814114806,2.1177515983581543,0.7413091063499451,-0.0330043472349643
1783202859608158700,3.60715869140625,-1.79368359830603,1.7357044336766003,4.012456356972455,1.8277547359466555,0.4677991271018982,-0.0196975208818912
1783202859618096400,3.617096435546875,-1.7927428103245793,2.0469871821150183,4.495866481137275,1.5230499505996704,0.2750629484653473,-0.0367417521774768
1783202859628033300,3.627033203125,-1.900884036091715,2.4289511942371727,4.871592475652695,1.2235170602798462,0.2236830443143844,-0.1022800579667091
1783202859637971500,3.636971435546875,-2.0872790066234765,2.818143404047191,5.148537777942419,0.9414281249046326,0.233673095703125,-0.164859801530838
1783202859647908400,3.646908447265625,-2.097998261297494,2.882074316687882,5.24421056728065,0.6705775260925293,0.2431554496288299,-0.2227477133274078
1783202859657845500,3.656845458984375,-2.0619680397562683,3.0245760772183536,5.29969513861537,0.3862152993679046,0.2432350814342498,-0.2814717590808868
1783202859667782400,3.666782470703125,-2.006732474746555,3.1980738645151257,5.446558016964793,0.0849899500608444,0.2238744348287582,-0.3319855332374573
1783202859677720300,3.67672021484375,-1.935201754626632,3.3167350229918955,5.5526867338657375,-0.2254656553268432,0.1966321617364883,-0.3769554197788238
1783202859687657500,3.686657470703125,-1.8751779324270783,3.432722286084294,5.599636116567254,-0.521500289440155,0.1694263070821762,-0.3992863297462463
1783202859697594400,3.696594482421875,-1.8215078631684185,3.5060800755009054,5.621752671307325,-0.8121339678764343,0.1082601621747016,-0.4038720428943634
1783202859707531500,3.706531494140625,-1.733513937895,3.512847962200641,5.633983207327127,-1.1057928800582886,0.0173390787094831,-0.3976825177669525
1783202859717469400,3.716469482421875,-1.5629615564003585,3.416903370183706,5.625552063590288,-1.4029123783111572,-0.0962492674589157,-0.3862577974796295
1783202859727406600,3.726406494140625,-1.402152570284903,3.255481220605969,5.548897862976789,-1.6839075088500977,-0.2149364799261093,-0.3646614551544189
1783202859737343200,3.73634326171875,-1.2246823722258209,3.044841158872843,5.395080927705765,-1.9565882682800293,-0.3214594721794128,-0.3325218856334686
1783202859747280400,3.7462802734375,-1.0221996787894516,2.8400457315146923,5.229012413626909,-2.2334959506988525,-0.4062462449073791,-0.2806757092475891
1783202859757218300,3.75621826171875,-0.8346130142550915,2.67087399072349,5.003321497756242,-2.5297720432281494,-0.4806248545646667,-0.2269291281700134
1783202859767155500,3.766155517578125,-0.7355938370984048,2.53285580534786,4.66671112357676,-2.849582433700561,-0.518631637096405,-0.1605392545461654
1783202859777092400,3.77609228515625,-0.6396198728565127,2.318531063752621,4.268595602598786,-3.182119131088257,-0.5623796582221985,-0.1258497238159179
1783202859787029500,3.786029541015625,-0.7544897492915391,2.067451147342473,3.623752222940325,-3.518192768096924,-0.6189357042312622,-0.1243788748979568
1783202859796967400,3.795967529296875,-1.1190583169113844,1.7002555191546678,2.6681103712290524,-3.827570199966431,-0.7146888971328735,-0.1813409626483917
1783202859806904300,3.805904296875,-1.623978335160017,1.1784678796701131,1.2612754883468151,-4.066071510314941,-0.8247612118721008,-0.3042151033878326
1783202859816841500,3.815841552734375,-2.0838298890829083,0.5735747445408255,-0.6120493635594845,-4.192169189453125,-0.9090494513511658,-0.4654793441295624
1783202859826778400,3.8257783203125,-2.3298666967593133,-0.1074218619840219,-2.7415204753547906,-4.14376163482666,-0.9992292523384094,-0.6610239744186401
1783202859836716300,3.83571630859375,-2.253338752873987,-0.6880153627131134,-5.202861488804221,-3.881373167037964,-1.0047547817230225,-0.8862802982330322
1783202859846653400,3.8456533203125,-1.7835555875234306,-1.1416753685194998,-7.667590391126275,-3.391098022460937,-0.9775084853172302,-1.089463233947754
1783202859856590600,3.855590576171875,-0.9092886813372372,-1.4943185205459597,-10.142923105049134,-2.7258689403533936,-1.0430470705032349,-1.2668137550354004
1783202859866527200,3.86552734375,-0.1184972000867128,-1.3649723019257187,-12.740372378599645,-1.9941494464874268,-1.1227822303771973,-1.3456450700759888
1783202859876465400,3.87546533203125,0.9267338832654058,-1.1152069752454756,-15.22465821430683,-1.211489200592041,-1.0661481618881226,-1.2282377481460571
1783202859886402300,3.88540234375,2.3115609324790536,-1.4083523017078636,-17.57561577602029,-0.3156978487968445,-0.7114835381507874,-0.9520750045776368
1783202859896339500,3.89533935546875,3.200047794936597,-1.832989188256115,-19.494560223329067,0.7476046681404114,-0.0110676381736993,-0.6967518925666809
1783202859906276400,3.9052763671875,3.06927768099308,-1.8740911601036785,-20.542848794555663,1.8542351722717283,0.875278115272522,-0.601063072681427
1783202859916214500,3.915214599609375,2.047368728778511,-1.423435889071226,-20.430045422196383,2.7533087730407715,1.756650686264038,-0.6895849108695984
1783202859926151400,3.9251513671875,0.8339693825893103,-0.8954715337131172,-19.01750151401758,3.34030818939209,2.4709298610687256,-0.8621812462806702
1783202859936088300,3.93508837890625,0.021685323715955,-0.6110217010121792,-16.991282102382183,3.668752908706665,2.923613786697388,-1.066045880317688
1783202859946025500,3.945025390625,-0.6837175193887204,-0.0583511762795969,-15.077038380110263,3.881312847137451,3.151746988296509,-1.1795194149017334
1783202859955963400,3.95496337890625,-0.9155551943860948,0.594433700435236,-13.393000420784947,4.0918965339660645,3.202868938446045,-1.161230206489563
1783202859965900500,3.964900634765625,-1.1644781519580631,1.5455578555263578,-12.114286306381224,4.32646369934082,3.197554588317871,-0.9880969524383544
1783202859975837400,3.97483740234375,-1.1414309653043746,2.2260388041466475,-10.835624798947572,4.58767032623291,3.138146162033081,-0.7013639807701111
1783202859985774600,3.984774658203125,-1.088243491930887,2.824824196985364,-9.637184829220176,4.916025161743164,3.0040924549102783,-0.3911563754081726
1783202859995712500,3.99471240234375,-1.2399164739757775,3.596872399321198,-8.646845173615217,5.206869125366211,2.8362364768981934,-0.1424261778593063
1783202860005649400,4.0046494140625,-1.7003272692166267,4.395798671710491,-7.645112017336487,5.489589214324951,2.777414083480835,-0.0128516545519232
1783202860015586300,4.01458642578125,-2.143546691159904,4.809777239991724,-6.61605187819302,5.805843830108643,2.8659682273864746,0.0454510673880577
1783202860025523500,4.0245234375,-2.632905202335119,5.217102195602656,-5.615646755647659,6.092793941497803,3.1142189502716064,0.0387739911675453
1783202860035461400,4.03446142578125,-3.415139575381577,6.14601386129856,-4.250470163321495,6.258643627166748,3.41410756111145,0.039619542658329
1783202860045398500,4.0443984375,-3.9578915308311577,6.806944452404975,-2.5483114408940075,6.300530910491943,3.651922225952149,0.0586422719061374
1783202860055335400,4.05433544921875,-4.363625417858362,7.458623231041431,-0.8497200555592774,6.251326560974121,3.746092557907105,0.0843838527798652
1783202860065272300,4.064272216796875,-4.682061545182764,8.238500519567728,0.6058996087580919,6.098862648010254,3.697326898574829,0.1393680870532989
1783202860075210200,4.074210205078125,-4.659347024549543,8.906302750009297,1.9245646252781152,6.043345928192139,3.4520652294158936,0.299371063709259
1783202860085147400,4.0841474609375,-4.262791007973253,9.595615385991334,2.5427245806723837,5.747002601623535,3.1039836406707764,0.4527011513710022
1783202860095084500,4.09408447265625,-3.8701980498090394,9.87711060667038,3.4978403626829384,5.399952411651611,2.7088286876678467,0.685762882232666
1783202860105021400,4.104021484375,-3.5573815159320827,10.208234073871374,4.407721749216318,4.669591903686523,2.556830406188965,0.8257262110710144
1783202860114959400,4.11395947265625,-3.33789529992044,10.110295093166828,6.021820495396852,3.9767677783966064,2.513968706130981,0.8064308166503906
1783202860124896500,4.123896484375,-3.597202946449816,9.961045611941811,6.665270959392189,3.480666160583496,2.54596209526062,0.760748565196991
1783202860134833400,4.13383349609375,-3.3067461284190416,9.653453242453931,6.791987706291676,3.044713258743286,2.498237609863281,0.6894211173057556
1783202860144771300,4.143771240234375,-2.95514042968154,9.22172595925331,7.0958169238537545,2.55271315574646,2.3394126892089844,0.5998084545135498
1783202860154708500,4.15370849609375,-2.8050965832084414,8.909635109302402,7.535583721125126,2.044147491455078,2.1772215366363525,0.5296469926834106
1783202860164645400,4.163645263671875,-2.8581115495592355,8.778698114359377,8.071919964313507,1.5812135934829712,2.0371317863464355,0.4426266252994537
1783202860174582500,4.17358251953125,-3.000056260728836,8.747524977460504,8.466797234022616,1.1558979749679563,1.859275221824646,0.3755935132503509
1783202860184520400,4.1835205078125,-2.9530297211378813,8.592553611457348,8.735347632932662,0.7220456600189209,1.6155710220336914,0.3310182094573974
1783202860194457600,4.19345751953125,-2.96509951363802,8.548613931965827,9.027517976883054,0.2354622036218643,1.3353224992752075,0.3035642206668854
1783202860204394200,4.203394287109375,-2.99848214327991,8.53954565936923,9.347084861803054,-0.2411197572946548,1.0499942302703855,0.2862589955329895
1783202860214331400,4.213331298828125,-2.983333673986792,8.430877194857597,9.48209889692664,-0.6600203514099121,0.7798056602478027,0.2681772112846374
1783202860224269300,4.223269287109375,-2.964583088548481,8.458795129352808,9.45712695275545,-1.0314276218414309,0.5510013699531555,0.2800226509571075
1783202860234206500,4.23320654296875,-2.8162419543400405,8.353376606547831,9.384884723365309,-1.3475452661514282,0.3611627519130707,0.3502376973628998
1783202860244143400,4.243143310546875,-2.7714576407179234,8.224820953783393,9.282435571759938,-1.6384921073913574,0.1856769919395446,0.4498852789402008
1783202860254080300,4.253080322265625,-2.9097157723292706,8.192891445559264,9.25844562436342,-1.9488749504089355,-0.0067688929848372,0.5621207356452942
1783202860264018200,4.26301806640625,-3.085768212544918,8.074871215334534,9.33629400319755,-2.280209541320801,-0.2259128391742706,0.656187891960144
1783202860273955300,4.272955322265625,-3.3931741195499896,8.026359990143776,9.356839947620031,-2.5680181980133057,-0.5282402038574219,0.7282685041427612
1783202860283892500,4.282892578125,-3.735076170396805,8.010159965971111,9.09593509502709,-2.812953472137451,-0.9089128375053406,0.7783387303352356
1783202860293829400,4.292829345703125,-4.129056491266191,7.930255823650955,8.791814785563945,-3.0853047370910645,-1.3636891841888428,0.8021796345710754
1783202860303767600,4.302767578125,-4.53326945233643,7.700134231856465,8.526411452507972,-3.398922920227051,-1.8675795793533323,0.8003563284873962
1783202860313704400,4.312704345703125,-4.806054712337256,7.360025494167208,8.213397642493247,-3.696989297866821,-2.3524587154388428,0.7665905952453613
1783202860323641300,4.322641357421875,-4.984864050045609,7.10559889767766,7.693457238310575,-3.925905466079712,-2.8079757690429688,0.7035389542579651
1783202860333579300,4.332579345703125,-5.1108565743237735,6.904136998656392,6.944113035213947,-4.17703914642334,-3.2421329021453857,0.6286106705665588
1783202860343516400,4.342516357421875,-5.282614239954948,6.71997110235095,6.07794278011322,-4.480515003204346,-3.634735822677612,0.5424121022224426
1783202860353453300,4.352453369140625,-5.42412757396996,6.325529885971545,5.072938054817914,-4.77100133895874,-3.9709904193878174,0.4298754334449768
1783202860363390500,4.362390380859375,-5.599883953848481,5.78508153128922,3.718743459755182,-5.022915840148926,-4.196397304534912,0.270889550447464
1783202860373328400,4.372328369140625,-5.719142201435566,5.349301173305511,2.05822081605196,-5.165605545043945,-4.41201639175415,0.1240295246243476
1783202860383265500,4.382265625,-5.369233369743824,4.700084400868415,-0.2569254275679588,-5.194911956787109,-4.673536777496338,0.0398475266993045
1783202860393202400,4.392202392578125,-4.579165234331787,3.894266615399718,-3.1847949884861704,-5.109347820281982,-4.86257266998291,0.0699692144989967
1783202860403139300,4.402139404296875,-3.359380571019649,2.934360968764126,-6.2908046095490455,-4.885283946990967,-4.80727481842041,0.2784014940261841
1783202860413077200,4.4120771484375,-2.0349729191944004,1.8475100271701808,-9.259209594473242,-4.544430732727051,-4.344119548797607,0.6136149168014526
1783202860423014400,4.422014404296875,-1.1327839868597689,0.8092050898194313,-11.715170083928108,-4.017920017242432,-3.540372610092163,0.9952272176742554
1783202860432951600,4.43195166015625,-0.8946121404048055,-0.2467027242392301,-13.533928648388384,-4.596442222595215,-2.316167116165161,1.2214622497558594
1783202860442888400,4.441888427734375,-0.966849255228415,-1.7612895413100718,-12.317384282171725,-4.5262837409973145,-1.1373485326766968,1.2015626430511477
1783202860452826600,4.45182666015625,-1.2409186367556453,-2.63875071349293,-13.809888446772096,-4.186254501342773,-0.419360488653183,1.008905291557312
1783202860462763300,4.46176318359375,-0.8110971141111105,-3.4064825139343737,-15.469610295486447,-3.646052122116089,-0.1245597973465919,0.8326173424720764
1783202860472700400,4.471700439453125,-0.4174979745790362,-4.266665511319041,-15.844914265197517,-3.269775390625,-0.134163424372673,0.6298485398292542
1783202860482638300,4.481638427734375,-0.338627266959846,-4.9318169349908825,-16.012516564714907,-3.080008745193481,-0.1720295548439026,0.4865222573280334
1783202860492575500,4.491575439453125,-0.0288173675529658,-5.712844562596082,-15.366097314041852,-2.852545976638794,-0.0858267620205879,0.352997213602066
1783202860502512400,4.501512451171875,0.3622529110886156,-5.776889457005262,-15.029738868796825,-2.2081243991851807,0.0739712044596672,0.2033635675907135
1783202860512449500,4.511449462890625,0.7300494277790188,-5.605391903614998,-15.178096369618176,-1.2286018133163452,0.2765299081802368,0.0889847874641418
1783202860522387500,4.521387451171875,1.1436101359743625,-5.22708875208795,-14.515703304743766,-0.2423226535320282,0.4837663769721985,0.0301749184727668
1783202860532324400,4.531324462890625,1.6109353137135505,-4.785706920835375,-12.697905694270132,0.552388072013855,0.6724225282669067,0.0221332386136055
1783202860542261200,4.54126123046875,1.88330147151947,-4.097104186688363,-10.1797246032238,1.140570044517517,0.815666139125824,0.0419683121144771
1783202860552198400,4.551198486328125,1.850013242162764,-3.160823161268234,-7.63048494156897,1.589899659156799,0.9158545732498168,0.0613808929920196
1783202860562136300,4.56113623046875,1.511248028036952,-2.176145476947725,-5.224575307962298,1.9171898365020752,0.9303371906280518,0.0740707069635391
1783202860572073500,4.571073486328125,1.0484636355325578,-1.3087091474339363,-3.139965666678548,2.099292516708374,0.8651683330535889,0.1026088744401931
1783202860582010600,4.5810107421875,0.6336053618073463,-0.6114961135908961,-1.255925944012403,2.110947608947754,0.7775089144706726,0.120977908372879
1783202860591948500,4.590948486328125,0.1137188067037612,0.1142041790679097,0.4461760797917842,2.0008785724639893,0.6932968497276306,0.1312707662582397
1783202860601885400,4.600885498046875,-0.3511784863013774,0.6882157806560397,1.837619916796684,1.8067659139633176,0.6206322312355042,0.1412800252437591
1783202860611822300,4.610822265625,-0.7006880164772271,1.0911090374298391,2.910748914769292,1.5701947212219238,0.5392822623252869,0.132227674126625
1783202860621759700,4.620759765625,-1.0671266888178883,1.4552679282702503,3.685701606374979,1.3089134693145752,0.4670760929584503,0.0925664082169532
1783202860631697700,4.63069775390625,-1.4404200493589043,1.6738501811794937,4.312413117015361,1.0379432439804075,0.3851444721221924,0.0191750191152095
1783202860641634800,4.640634765625,-1.7801128997236488,1.8068368021287025,4.7274423633933065,0.7558750510215759,0.2662050127983093,-0.0672094076871872
1783202860651571700,4.65057177734375,-1.981501733508706,1.84526517085284,5.022777308854461,0.4636618196964264,0.1361426413059234,-0.1532311141490936
1783202860661508600,4.660508544921875,-2.1346631274804477,1.9408022049821911,5.247589688324928,0.176963984966278,-0.0153624955564737,-0.2290159314870834
1783202860671446500,4.670446533203125,-2.204279830672592,2.045633721679449,5.3345209528028965,-0.0843104869127273,-0.1649344116449356,-0.3005492389202118
1783202860681383700,4.6803837890625,-2.260153839716315,2.1511058743678038,5.336263412556052,-0.3539874255657196,-0.2979742884635925,-0.3590719997882843
1783202860691320600,4.690320556640625,-2.263095153865218,2.217801575546712,5.253692681375146,-0.6477870941162109,-0.3905247449874878,-0.3857534229755401
1783202860701258800,4.7002587890625,-2.128973683667182,2.21645702906996,5.116527021175623,-0.972307026386261,-0.4618417918682098,-0.3695200979709625
1783202860711195600,4.710195556640625,-1.9697829464033243,2.178114438933134,4.969770525810122,-1.317646026611328,-0.5391362905502319,-0.3472978770732879
1783202860721132800,4.7201328125,-1.8464776153825224,2.110039850616455,4.723600885534286,-1.6523926258087158,-0.616260826587677,-0.3550470769405365
1783202860731069400,4.7300693359375,-1.7407412588000295,2.0513250651888546,4.389218708798289,-1.9889295101165767,-0.6956917643547058,-0.3829325139522552
1783202860741007600,4.740007568359375,-1.6404130448713898,1.945077105822414,3.9253210943549863,-2.3323397636413574,-0.7745993137359619,-0.4257190823554992
1783202860750944500,4.749944580078125,-1.4985894758634268,1.8511036677479744,3.3165766175597904,-2.6775832176208496,-0.8548845648765564,-0.4673815667629242
1783202860760881700,4.759881591796875,-1.420653272615373,1.6476462109953165,2.4906109470754862,-3.01767373085022,-0.9228922724723816,-0.5556314587593079
1783202860770819600,4.769819580078125,-1.5979180112302305,1.4908040826842188,1.4469646486967802,-3.311111688613892,-0.9157286286354064,-0.7125289440155029
1783202860780756700,4.7797568359375,-1.669004640844464,1.316370914233476,0.2744751127839088,-3.516957998275757,-0.8703005909919739,-0.9086802005767822
1783202860790693600,4.789693603515625,-1.3642327356047927,1.044406322965771,-1.2263333543032406,-3.6008026599884038,-0.8483707904815674,-1.1030608415603638
1783202860800630500,4.799630615234375,-0.9285057883087544,0.7296569943953305,-3.070467183038592,-3.4963161945343018,-0.8947309255599976,-1.2573277950286863
1783202860810568400,4.809568359375,-0.0294850376814603,0.1358871281636878,-5.519594027081132,-3.1587963104248047,-1.0267767906188965,-1.2860771417617798
1783202860820505600,4.819505615234375,1.5173795165292918,-0.9849026521828024,-8.812050348863005,-2.521320343017578,-1.203582525253296,-1.1548296213150024
1783202860830442800,4.82944287109375,2.8476871861785646,-2.3027139014177025,-12.608283291012048,-1.5530880689620972,-1.144715428352356,-0.8922121524810791
1783202860840380700,4.839380615234375,3.2864716944143173,-3.0211992942616344,-15.54568465038538,-0.45540851354599,-0.6616060137748718,-0.6306646466255188
1783202860850317800,4.84931787109375,2.494787063716352,-2.9356048313453798,-16.56688413915634,0.5527931451797485,0.268197238445282,-0.5033218860626221
1783202860860254700,4.859254638671875,1.2902924701251088,-2.3725313878789542,-16.243950992673636,1.4133728742599487,0.9447838068008424,-0.469253808259964
1783202860870191600,4.869191650390625,-0.0390824487186968,-1.81710831303522,-16.337573863744733,2.0926225185394287,1.0679763555526731,-0.4605993330478668
1783202860880129500,4.879129638671875,-0.7644047018453478,-1.88456988402009,-16.764637246787547,2.6408369541168213,0.9577634334564208,-0.5527293086051941
1783202860890066700,4.889066650390625,-1.4120131623029708,-1.823196546907723,-16.996236509919164,3.134842872619629,1.0358805656433103,-0.7571844458580017
1783202860900003600,4.899003662109375,-1.964408852149546,-1.4405609191343187,-17.0514142072618,3.632337808609009,1.5391693115234375,-0.9780313968658448
1783202860909940700,4.908940673828125,-2.0798574783205983,-0.9841814983014016,-16.61401998434067,4.091518878936768,2.4097461700439453,-1.1584163904190063
1783202860919878700,4.918878662109375,-1.9618160591773688,-0.1291359368704259,-15.603830549883842,4.439961910247803,3.317056179046631,-1.224578022956848
1783202860929815800,4.92881591796875,-1.6421812235876916,0.7293142453722655,-14.006563696038722,4.656919002532959,4.055703163146973,-1.163308024406433
1783202860939752700,4.938752685546875,-1.3780986177414656,1.5639596275269985,-11.923928569698331,4.765949249267578,4.484187126159668,-1.0225149393081665
1783202860949690600,4.948690673828125,-1.4745673797629772,2.6670605699151757,-9.943788187670709,4.79469633102417,4.652287483215332,-0.8000554442405701
1783202860959627500,4.95862744140625,-1.6652292139589786,3.4488580128490924,-8.066196910491586,4.834245681762695,4.62285041809082,-0.4978868663311004
1783202860969564700,4.968564697265625,-2.058729350095988,4.028978452706337,-6.3391732113987205,4.857152938842773,4.4765448570251465,-0.2091498523950576
1783202860979501800,4.978501708984375,-2.693260886837542,4.650462291826307,-4.675934878996015,4.957685947418213,4.220768451690674,-0.0013499993365257
1783202860989439700,4.988439697265625,-3.353155705155432,5.036756149846315,-3.274313931369781,5.088605880737305,3.8973679542541504,0.1125382184982299
1783202860999377000,4.998376953125,-3.9263498528808354,5.361926261600852,-1.8550830927729605,5.130262851715088,3.53584361076355,0.1525937020778656
1783202861009313500,5.0083134765625,-4.317550479903817,5.772189901012182,-0.3169827136456966,5.041163921356201,3.177443742752075,0.1336847245693206
1783202861019251700,5.018251708984375,-4.43294182292968,6.097813601753115,1.1027192495942115,4.994529247283936,2.8354618549346924,0.1206991747021675
1783202861029188600,5.028188720703125,-4.38991750471741,6.643238575804233,2.0625112067222595,4.925617218017578,2.538181781768799,0.0797805041074752
1783202861039125800,5.038125732421875,-4.33735232796073,7.097197564557194,2.9785739122390744,4.711190700531006,2.31276535987854,0.0614255145192146
1783202861049062700,5.048062744140625,-4.248310647200047,7.387305715280771,4.265229341036081,4.190223693847656,2.2004175186157227,0.0621698722243309
1783202861059000800,5.058000732421875,-4.065773521140217,7.596771472537517,5.592846310296655,3.701847791671753,2.09578275680542,-0.0072860238142311
1783202861068937700,5.067937744140625,-4.132249442088604,7.688791584587097,6.091822836905718,3.3704516887664795,1.9437201023101809,-0.0737766325473785
1783202861078874600,5.07787451171875,-3.9020676445394753,7.60077603200376,6.110277362006903,3.1253104209899902,1.737591028213501,-0.0822473540902137
1783202861088812500,5.0878125,-3.630867023381591,7.5907017972350115,6.2997530551582575,2.84816837310791,1.527271389961243,-0.0840202271938324
1783202861098749700,5.097749755859375,-3.5118785326465964,7.728982140678167,6.7554100800007575,2.523956537246704,1.3267446756362915,-0.098053440451622
1783202861108686600,5.1076865234375,-3.46455622497946,7.808614480319619,7.230651510757207,2.197755813598633,1.163821816444397,-0.1332636177539825
1783202861118624800,5.117624755859375,-3.397409857423604,7.98026693201065,7.53227415818572,1.863018035888672,0.9978667497634888,-0.1724235564470291
1783202861128561700,5.127561767578125,-3.266920898509025,8.136040262046455,7.735349922144413,1.493672490119934,0.8524421453475952,-0.1936055421829223
1783202861138498800,5.137498779296875,-3.095193628016114,8.240254669758677,7.973280726385116,1.0726207494735718,0.7411677837371826,-0.1998373419046402
1783202861148435700,5.147435791015625,-2.918377509951591,8.28846135904491,8.222384666547178,0.6618223190307617,0.6415330171585083,-0.1823009550571441
1783202861158373600,5.15737353515625,-2.7618977852121,8.358624444073438,8.269021330037713,0.2953093647956848,0.5307080745697021,-0.1492414325475692
1783202861168310500,5.167310546875,-2.5955253197506067,8.406258301907778,8.209437506690621,-0.0417720042169094,0.4231094717979431,-0.0992182269692421
1783202861178247700,5.17724755859375,-2.4670190590858456,8.400884207653998,8.212969187948108,-0.3563123941421509,0.3003556132316589,-0.0125531116500496
1783202861188185600,5.187185546875,-2.319020454704761,8.350999356022477,8.25300601478219,-0.6549925804138184,0.1768376678228378,0.1114780232310295
1783202861198122800,5.197122802734375,-2.296795763415098,8.270617659318447,8.34110983017087,-0.9359627962112428,0.0325347557663917,0.2359884977340698
1783202861208059600,5.2070595703125,-2.5267151106357573,8.282840012031793,8.443411097738146,-1.2046267986297607,-0.1582461148500442,0.3597562611103058
1783202861217996500,5.21699658203125,-2.7791411809578537,8.207327382668852,8.520621178668737,-1.4926775693893433,-0.4113349020481109,0.4654471576213836
1783202861227934700,5.226934814453125,-3.128879916779697,8.092383491149544,8.564271519824862,-1.7905114889144895,-0.7492468953132629,0.5120495557785034
1783202861237871600,5.23687158203125,-3.491930261856317,8.094882322227955,8.50979934040308,-2.126206874847412,-1.151880383491516,0.4962871372699737
1783202861247808800,5.246808837890625,-3.717663847824931,8.03526751922071,8.373702186217903,-2.4710164070129395,-1.535258412361145,0.46114382147789
1783202861257746700,5.25674658203125,-3.82328052355051,7.882704383403063,8.148407576188445,-2.7740302085876465,-1.8218650817871092,0.4323474168777466
1783202861267683800,5.266683837890625,-3.9469536649703976,7.834817427590488,7.806812983855605,-2.997356414794922,-1.9893311262130735,0.4016635417938232
1783202861277620500,5.276620361328125,-4.100049300229549,7.914837889766693,7.418541980543732,-3.1618082523345947,-2.0923991203308105,0.3781771659851074
1783202861287557600,5.2865576171875,-4.13422308024913,7.901046095779538,7.025349302920699,-3.304722309112549,-2.1738386154174805,0.3718132674694061
1783202861297495600,5.29649560546875,-4.173742020688951,7.829263300594687,6.67935209171474,-3.478264808654785,-2.269170045852661,0.374871164560318
1783202861307432700,5.3064326171875,-4.268818013177812,7.752235590493679,6.423074898922443,-3.727727890014648,-2.44043493270874,0.3832031190395355
1783202861317369600,5.31636962890625,-4.356073395043612,7.555261650541424,6.060837916055322,-4.093618869781494,-2.743811845779419,0.3900404572486877
1783202861327307800,5.326307861328125,-4.5625484460517765,7.406174666401744,5.380110737589002,-4.538723945617676,-3.1825296878814697,0.4419981837272644
1783202861337244700,5.33624462890625,-4.518999519443511,6.937402723920345,4.134685729324818,-4.975001811981201,-3.6799397468566895,0.5692426562309265
1783202861347181600,5.346181640625,-4.398736478728056,6.245837340575457,2.0615157659441232,-5.275763034820557,-4.177964687347412,0.7601543068885803
1783202861357119500,5.356119384765625,-4.278943393611908,5.203208110284805,-0.7386854464381932,-5.30328369140625,-4.78309440612793,0.996735453605652
1783202861367056600,5.366056640625,-3.798447111067176,3.517390574066341,-4.653518464526534,-4.975385665893555,-5.224277496337891,1.2750024795532229
1783202861376993500,5.37599365234375,-3.05813464794904,1.4725000719696282,-8.708988618317246,-4.344067096710205,-5.1977715492248535,1.5239077806472778
1783202861386930700,5.3859306640625,-2.686555836240947,-0.3120364894151687,-12.094108610749243,-3.5355353355407715,-4.622251510620117,1.6345735788345337
1783202861396868600,5.39586865234375,-2.422961890694499,-1.828930998906493,-14.662867211866375,-3.831828355789185,-3.5853404998779297,1.5780576467514038
1783202861406805800,5.4058056640625,-2.033081844750792,-3.6888428270101534,-14.703209743648769,-3.837180614471436,-2.317944049835205,1.4744160175323486
1783202861416742700,5.41574267578125,-1.814419366212189,-4.78857955366224,-16.32077938081026,-3.4432244300842285,-1.5218743085861206,1.2211308479309082
1783202861426680600,5.4256806640625,-1.7254375989452004,-5.306511248371005,-19.39035867509842,-2.750234603881836,-1.0800034999847412,0.8968790173530579
1783202861436617700,5.43561767578125,-1.315638654436171,-6.850666689753532,-20.503040515780448,-2.400148391723633,-0.8513624668121338,0.5586598515510559
1783202861446554600,5.4455546875,-0.8308893175568431,-7.924884652006626,-20.2422151581645,-2.558889389038086,-0.3790380358695984,0.2997707426548004
1783202861456492500,5.455492431640625,-0.019685601266101,-8.29599292359352,-18.320054671418667,-2.4392123222351074,0.2273615598678589,0.1201689839363098
1783202861466429700,5.4654296875,0.6915675022367388,-8.129736193466186,-17.749271384227274,-1.7662314176559448,0.8224222660064697,0.0077881123870611
1783202861476366800,5.475366943359375,1.1078843042071909,-7.422516144871711,-16.887447633898258,-1.0386420488357544,1.402326226234436,-0.0457639060914516
1783202861486303500,5.485303466796875,1.508813348235935,-6.41168490538001,-14.123912310612202,-0.3460784554481506,1.7510192394256592,-0.0284592173993587
1783202861496241700,5.49524169921875,2.02046333232671,-5.705688845622539,-11.4677747012496,0.3997353613376617,1.8312612771987915,0.0127082709223032
1783202861506178600,5.505178466796875,2.156289122224599,-4.748339605471491,-9.178313518506288,1.0773266553878784,1.7458174228668213,0.0779679641127586
1783202861516115700,5.51511572265625,1.89728966486156,-3.411403603723645,-6.6373150309741495,1.6090553998947144,1.564099907875061,0.1905965507030487
1783202861526053600,5.5250537109375,1.5226881443314253,-2.2294275698021053,-4.198413812869787,2.106351137161255,1.3072662353515625,0.3257295787334442
1783202861535990800,5.53499072265625,0.9618162294972687,-1.2363554204933345,-2.3665303938984867,2.5765585899353027,0.9936161041259766,0.4369780719280243
1783202861545927700,5.544927734375,0.2534811323329806,-0.2224241691596805,-0.8245856143027543,2.8812079429626465,0.6776717305183411,0.5127964019775391
1783202861555865900,5.554865966796875,-0.3170444537702948,0.6155779760770499,0.8063964621394872,2.942578792572021,0.4355115890502929,0.5265971422195435
1783202861565802500,5.564802490234375,-0.8425463645376264,1.3388219616249204,2.3554992967963218,2.764066219329834,0.2831292450428009,0.4840047061443329
1783202861575739600,5.57473974609375,-1.3123892972514033,1.8852575740233064,3.657655077064037,2.4289536476135254,0.208180695772171,0.3918484449386596
1783202861585676500,5.584676513671875,-1.7032517783612011,2.333210015837848,4.592644601368904,2.0290639400482178,0.1894512176513672,0.2588323354721069
1783202861595614700,5.59461474609375,-2.040468740131706,2.734604120095074,5.13493946070075,1.624853491783142,0.1726741641759872,0.1086114794015884
1783202861605551600,5.604551513671875,-2.2653591532744466,2.959558538384736,5.397770897442102,1.2033429145812988,0.1548198014497757,-0.036356896162033
1783202861615488800,5.61448876953125,-2.379223432863504,3.089982615369558,5.497883130532503,0.7623439431190491,0.1126121133565902,-0.1434583663940429
1783202861625426700,5.6244267578125,-2.367446047438681,3.1604271476879715,5.493900782898068,0.3126513659954071,0.0959481820464134,-0.2156167179346084
1783202861635363800,5.63436376953125,-2.346381485969573,3.290045753508806,5.383005874508619,-0.1175238490104675,0.1040520668029785,-0.2375877052545547
1783202861645301000,5.644301025390625,-2.2476412718847394,3.2876147269696,5.121265155613422,-0.4881623685359955,0.1045474112033844,-0.2197815477848053
1783202861655239000,5.654239013671875,-2.1061130325615407,3.1800778968364,4.742165300750732,-0.7827594876289368,0.0467160306870937,-0.1916767060756683
1783202861665175600,5.664175537109375,-1.9323845052488149,3.131495944496989,4.329325673371553,-1.0027514696121216,-0.0512645952403545,-0.1539498269557953
1783202861675112700,5.67411279296875,-1.7519637868210671,3.0411583787068723,3.9302971292018887,-1.1678247451782229,-0.1597256958484649,-0.1072187051177024
1783202861685050600,5.684050537109375,-1.569190660048276,2.8727158289730546,3.617739830783009,-1.2928756475448608,-0.2542151808738708,-0.0506046898663044
1783202861694987800,5.69398779296875,-1.38674369648993,2.6530352594330906,3.3970623591601847,-1.408023715019226,-0.367256760597229,0.0111955748870968
1783202861704925000,5.703925048828125,-1.1395636370625346,2.414309505422413,3.2203011861532924,-1.5380994081497192,-0.4915907084941864,0.0774305164813995
1783202861714861800,5.71386181640625,-0.919327041075006,2.223212640810013,3.1414445070594548,-1.6948556900024414,-0.6034179329872131,0.1313502043485641
1783202861724799700,5.7237998046875,-0.747397452943027,2.103995017494261,3.1011200954556464,-1.8955479860305784,-0.7200659513473511,0.1842560321092605
1783202861734736600,5.733736572265625,-0.6359989789456129,1.8883489641673863,3.0528999621659514,-2.176132202148437,-0.8833862543106079,0.1945357322692871
1783202861744673800,5.743673828125,-0.6811620627522468,1.6875857149347662,2.931489504981041,-2.539003133773804,-1.072326421737671,0.1458315700292587
1783202861754611700,5.75361181640625,-0.8403867753509432,1.553921340854466,2.672915725684166,-2.962219476699829,-1.3016295433044434,0.0232126917690038
1783202861764548900,5.763548828125,-1.1615106073893606,1.3022668394267558,1.965153825297952,-3.41409683227539,-1.506531000137329,-0.1889081001281738
1783202861774485800,5.77348583984375,-1.6365250975221397,0.9205249456226824,0.8973007219016551,-3.81943416595459,-1.6088429689407349,-0.4727970063686371
1783202861784424000,5.783423828125,-1.8283020533531904,0.5152923226485029,-0.5781231285601854,-4.043757915496826,-1.6801449060440063,-0.7692691683769226
1783202861794360800,5.79336083984375,-1.428707253602892,-0.0905089951005764,-2.908820577055216,-3.934720277786255,-1.7624199390411377,-1.0026873350143433
1783202861804297700,5.803297607421875,-0.567986788340658,-1.0011808561582118,-6.150147015580535,-3.40811538696289,-1.7731844186782837,-1.121302366256714
1783202861814235600,5.813235595703125,0.6196358001004905,-2.0570912275001407,-9.680831663244962,-2.5432493686676025,-1.7139467000961304,-1.1053529977798462
1783202861824172800,5.8231728515625,1.6887234867930412,-2.866455599534512,-12.952363270419836,-1.5478761196136477,-1.535983681678772,-0.9518691897392272
1783202861834109700,5.833109619140625,1.9980662070795887,-2.9613191183164718,-15.296737946611644,-0.588790774345398,-1.2185676097869873,-0.777908205986023
1783202861844046800,5.843046875,1.3553065018273889,-2.807671986654401,-16.65397906976342,0.2948928773403168,-0.7716702222824097,-0.6943755149841309
1783202861853984800,5.85298486328125,0.2891325836896896,-2.9205618682533503,-17.3337394490242,1.08440363407135,-0.296618103981018,-0.7406273484230042
1783202861863922000,5.862921875,-1.127541556161642,-2.6912682517156004,-17.548317434728144,1.7632862329483032,0.1146336048841476,-0.8317530155181885
1783202861873858800,5.87285888671875,-1.952037300223857,-2.6412080435171723,-17.449597532778977,2.3347156047821045,0.4223080277442932,-0.9673388600349426
1783202861883796700,5.882796630859375,-2.223663891708851,-2.3999469258099797,-17.05439643794298,2.7844390869140625,0.8062796592712402,-1.1096640825271606
1783202861893733600,5.892733642578125,-1.637912314096838,-2.244266973146051,-16.00820045508146,3.127936363220215,1.282525897026062,-1.133786678314209
1783202861903670800,5.9026708984375,-0.8011036164283752,-2.2751792671516538,-14.719966817182302,3.397101879119873,1.8612443208694456,-1.0926395654678345
1783202861913608700,5.912608642578125,-0.7261196140494197,-1.8444737282142043,-13.228064710128306,3.6369128227233887,2.4213223457336426,-1.0485286712646484
1783202861923545900,5.9225458984375,-1.415472362846136,-1.3033999351099133,-11.834679091405867,3.855014324188232,2.779984951019287,-1.0522842407226562
1783202861933483000,5.93248291015625,-2.4069933371901517,-0.5681688669092952,-10.763727437472342,4.054088115692139,2.9118528366088867,-1.0773353576660156
1783202861943421000,5.9424208984375,-3.102686321859061,0.3672863752111792,-9.882560688769816,4.258397579193115,3.029262065887451,-1.030321478843689
1783202861953357800,5.95235791015625,-3.2787171347647903,0.8943670065373182,-8.763167367750405,4.543972969055176,3.167804479598999,-0.9513819813728333
1783202861963294700,5.962294677734375,-3.508276124240458,1.7989353813543916,-7.568352602782845,4.920997619628906,3.2921857833862305,-0.8908482789993286
1783202861973232600,5.972232666015625,-3.638862113788724,2.879514695332944,-6.194246854069829,5.177005767822266,3.3837532997131348,-0.8300482034683228
1783202861983169800,5.982169677734375,-3.584183598139882,3.638227323016524,-4.385944801694155,5.335638046264648,3.429635763168335,-0.7894906401634216
1783202861993107000,5.99210693359375,-3.641244917272031,4.41743358041346,-2.660753578725457,5.455134391784668,3.416828393936157,-0.7459059953689575
1783202862003043800,6.0020439453125,-3.8111072706758975,5.347495000666379,-1.2833037802815437,5.465121269226074,3.387286901473999,-0.6893018484115601
1783202862012982000,6.01198193359375,-3.939308410914242,6.239551392173767,0.1316588794767856,5.320671081542969,3.329251766204834,-0.6554445028305054
1783202862022918700,6.021918701171875,-4.067656266146898,7.012088254809379,1.4374772739052772,5.1010565757751465,3.2535533905029297,-0.621261477470398
1783202862032855800,6.031855712890625,-3.966611136120557,7.5911232375174755,2.532802906116843,5.036048412322998,3.0853114128112797,-0.5382340550422668
1783202862042793700,6.041793701171875,-3.6178190334990616,8.12543820401132,3.11332900416553,4.737232685089111,2.883591651916504,-0.5236641764640808
1783202862052731000,6.05173095703125,-3.535233689270913,8.341737022158503,4.27669999859929,4.340200901031494,2.6478610038757324,-0.4534139037132263
1783202862062667800,6.061667724609375,-3.220445563060045,8.729862479519843,5.307692567110061,3.652862548828125,2.4703190326690674,-0.4443554282188415
1783202862072606000,6.07160595703125,-2.9805700544923543,8.814487220621109,6.467791992527246,3.062164545059204,2.2508363723754883,-0.4877600371837616
1783202862082542800,6.08154296875,-2.858943616469204,8.757518548208475,6.751878398743272,2.677832126617432,1.993690490722656,-0.4730543494224548
1783202862092479700,6.091479736328125,-2.328454638004303,8.543741357493401,6.703713210511207,2.378485679626465,1.7217456102371216,-0.402976930141449
1783202862102417700,6.101417724609375,-1.9262670452818276,8.53603852803111,6.810132434791326,2.022289514541626,1.4535863399505615,-0.3433138728141784
1783202862112354800,6.111354736328125,-1.7757725324317812,8.530733991882204,7.185469722250104,1.6866357326507568,1.2321033477783203,-0.2978668212890625
1783202862122291700,6.121291748046875,-1.706883120600879,8.530287417158483,7.355181561267376,1.4438848495483398,1.065948247909546,-0.252255380153656
1783202862132230000,6.13122998046875,-1.697679238925874,8.636143162336944,7.352675715926289,1.2536402940750122,0.9174482822418212,-0.202810063958168
1783202862142166800,6.141166748046875,-1.6466989932730791,8.806384578186274,7.399409994572401,1.0124812126159668,0.7621633410453796,-0.1348480582237243
1783202862152104000,6.15110400390625,-1.5588292789012193,8.9276921595186,7.668257330602407,0.6522520780563354,0.6198889017105103,-0.0575057528913021
1783202862162041900,6.161041748046875,-1.4612164614111185,8.946978459268808,8.106117417469621,0.2594307959079742,0.527935802936554,0.0268341619521379
1783202862171978800,6.170978759765625,-1.3462871829390526,8.903079696309566,8.396448271033167,-0.1086940467357635,0.420219212770462,0.1079234778881073
1783202862181915600,6.18091552734375,-1.2535904868021606,8.835473310026526,8.404903380167484,-0.4515342116355896,0.3207376301288605,0.1909618973731994
1783202862191852800,6.190852783203125,-1.1972902151703837,8.713515740352868,8.53768103454113,-0.763489305973053,0.2154148668050766,0.2714835107326507
1783202862201790700,6.200790771484375,-1.2295359497368334,8.577485221663117,8.610954360544682,-1.0557186603546145,0.0724180191755294,0.3580117523670196
1783202862211728000,6.210727783203125,-1.3889987819403409,8.499356856843828,8.607368318751455,-1.343730092048645,-0.0917791128158569,0.4290015995502472
1783202862221665000,6.2206650390625,-1.654265921396017,8.48391320399642,8.677366568607091,-1.6578134298324585,-0.290299654006958,0.4844139814376831
1783202862231603000,6.23060302734375,-1.977620508161187,8.477299338814616,8.688233999580145,-1.9919713735580444,-0.5322146415710449,0.5347157120704651
1783202862241539800,6.240539794921875,-2.3251859915971758,8.552903153592348,8.59825503796935,-2.330960512161255,-0.8107237219810486,0.5406457185745239
1783202862251476700,6.250476806640625,-2.648090788768232,8.623252116581797,8.396227321758866,-2.653712511062622,-1.1062955856323242,0.5687928199768066
1783202862261414700,6.26041455078125,-2.783320804730057,8.425423605626822,8.150638696241378,-2.9919278621673584,-1.4073148965835571,0.6169664859771729
1783202862271351800,6.270351806640625,-2.970495819723606,8.301559910070896,7.907642425304651,-3.3373067378997803,-1.701730728149414,0.640636146068573
1783202862281289000,6.2802890625,-3.33581586329788,8.381791384649276,7.638769954833388,-3.6853761672973633,-1.996517300605774,0.6295560598373413
1783202862291227000,6.290226806640625,-3.694147655420005,8.361144902461767,7.285304891964793,-4.00410270690918,-2.3423104286193848,0.6030609607696533
1783202862301163800,6.300163818359375,-3.986562914042175,8.07721105645895,6.631967240205407,-4.282391548156738,-2.7283244132995605,0.5738956332206726
1783202862311100700,6.3101005859375,-4.364944683763385,7.684671874308585,5.859516302287578,-4.556251525878906,-3.1630313396453857,0.5001770853996277
1783202862321038800,6.320038818359375,-5.02615409181118,7.362644152233004,4.9543221967875954,-4.849925994873047,-3.633944272994995,0.3863064646720886
1783202862330975700,6.329975830078125,-5.569370157641172,6.876807677704096,3.8482898771226406,-5.164359092712402,-4.131337642669678,0.2785098254680633
1783202862340913000,6.339912841796875,-5.634083745092153,6.105684773519635,2.391401215782761,-5.460649490356445,-4.554115295410156,0.2512310743331909
1783202862350850800,6.349850830078125,-5.221839160996675,5.177528894627094,0.4575625662028789,-5.659621715545654,-4.784135818481445,0.3611808121204376
1783202862360788000,6.3597880859375,-4.356712277469039,4.082156208403409,-2.071892783051729,-5.656275272369385,-4.685595512390137,0.6531247496604919
1783202862370724600,6.369724609375,-3.075914927050471,2.7583529522120958,-5.171666724595427,-5.380508899688721,-4.314406394958496,1.124288558959961
1783202862380662800,6.379662841796875,-1.845624651814997,1.2727870624423026,-8.476946287593245,-4.838766574859619,-3.7536234855651855,1.645966410636902
1783202862390599700,6.389599609375,-1.2173795018665492,-0.1512017843365669,-11.460098759794237,-3.9051456451416016,-3.27681040763855,2.057084560394287
1783202862400536800,6.399536865234375,-1.4372982640765606,-1.1396453970618543,-14.22282978096008,-4.131284713745117,-2.566536903381348,2.132672071456909
1783202862410474800,6.409474853515625,-2.4608202044457195,-2.35796481012702,-13.45019939482212,-3.813739061355591,-1.8638911247253416,1.9967199563980105
1783202862420412000,6.419411865234375,-3.7424323783785103,-3.68610960265398,-15.209657044529914,-3.177496194839477,-1.3339016437530518,1.5334149599075315
1783202862430348800,6.429348876953125,-5.140184375616908,-4.21189230312407,-16.845729137587547,-2.5889692306518555,-0.6803531646728516,1.01763117313385
1783202862440287000,6.439286865234375,-5.245994528087973,-5.164225176417827,-16.265584147810934,-2.114285707473755,-0.3472084701061249,0.450718879699707
1783202862450223600,6.4492236328125,-4.481725727581978,-5.554457835191488,-16.542800668257474,-1.97224235534668,-0.0155927957966923,0.0312120728194713
1783202862460160800,6.459160888671875,-2.9613433759748933,-6.129396488496661,-15.352496658712624,-2.010164976119995,0.3419986069202423,-0.239274799823761
1783202862470097700,6.46909765625,-1.4696030353538692,-6.221397311323881,-14.5465274820745,-1.8695454597473145,0.7654034495353699,-0.3699312806129455
1783202862480035800,6.479035888671875,-0.1682936427824199,-5.970394844064116,-13.90277832739353,-1.390346884727478,1.1141407489776611,-0.4390709400177002
1783202862489972700,6.48897265625,0.8423017421267927,-5.557578597560525,-13.528815250897408,-0.6461738348007202,1.28183913230896,-0.438652902841568
1783202862499910000,6.498909912109375,1.7328621959879993,-5.27296845973134,-12.654244247198104,0.058556642383337,1.2783674001693726,-0.3187488615512848
1783202862509847800,6.508847900390625,2.3674992389306424,-4.823649113477766,-10.86110293907523,0.6767157316207886,1.1682366132736206,-0.1447463631629943
1783202862519784700,6.51878466796875,2.485068802778423,-3.991538656628132,-8.814377330505847,1.3174744844436646,0.971968114376068,0.0277162287384271
1783202862529721900,6.528721923828125,2.158778454822302,-3.0770573750838635,-7.069288397890329,1.9663658142089844,0.7305045127868652,0.1536987572908401
1783202862539659800,6.53865966796875,1.564873381371051,-2.082131122341007,-5.375920300161838,2.48016095161438,0.4625617563724518,0.2404576241970062
1783202862549596700,6.5485966796875,1.0077867572292685,-1.2726596366703509,-3.5213393116921186,2.7557179927825928,0.2307129055261612,0.297051727771759
1783202862559533800,6.558533935546875,0.475899675469473,-0.6844374311611056,-1.652891125911474,2.7985548973083496,0.1054878681898117,0.2998403310775757
1783202862569471700,6.5684716796875,-0.1336228547598235,-0.0695712566152215,0.030875030735135,2.6791107654571533,0.0812877267599105,0.2314985692501068
1783202862579409000,6.578408935546875,-0.683560063804686,0.4842449675537645,1.3361392984122038,2.4859230518341064,0.0974035784602165,0.1194780096411705
1783202862589345800,6.588345703125,-1.0880468003150074,0.9106621616475284,2.2434037804454565,2.273049831390381,0.1255883872509002,-0.0132242934778332
1783202862599283700,6.59828369140625,-1.366102182738483,1.2987028633348645,2.8582138408899307,2.057234287261963,0.1459543704986572,-0.1443538218736648
1783202862609220900,6.608220947265625,-1.5808227917835116,1.656725881768763,3.3059932642251253,1.831621050834656,0.1543733030557632,-0.2695116102695465
1783202862619157500,6.618157470703125,-1.696124118438363,1.9392811328947543,3.6546646630764,1.5640521049499512,0.1484126150608062,-0.3648532927036285
1783202862629095700,6.628095703125,-1.7026428526826205,2.1136387518912554,3.9365181956738233,1.247411012649536,0.118288554251194,-0.4112679362297058
1783202862639032600,6.638032470703125,-1.6412465730860828,2.269943996846676,4.167434152716398,0.917250633239746,0.0823132395744323,-0.4208710491657257
1783202862648969700,6.6479697265625,-1.592833401442319,2.434470542180538,4.323722446537017,0.5972952842712402,0.0592813715338707,-0.4215030670166015
1783202862658907600,6.65790771484375,-1.6020530652083456,2.6431770055025816,4.441401315978169,0.3144031465053558,0.0499022528529167,-0.4277646839618683
1783202862668844500,6.667844482421875,-1.6222037267029283,2.791291345217824,4.450368466287851,0.0448458045721054,0.0172907635569572,-0.4003151655197143
1783202862678781400,6.677781494140625,-1.4975341215915976,2.7716008485808965,4.413800192347169,-0.2165735512971878,-0.0319556109607219,-0.3693583011627197
1783202862688719600,6.6877197265625,-1.341538673237711,2.7755831962153312,4.409012958070636,-0.4776321351528168,-0.0980146452784538,-0.3304194211959839
1783202862698656500,6.697656494140625,-1.1905549155659974,2.804073962162435,4.391659087687731,-0.714144766330719,-0.1514581590890884,-0.2840183675289154
1783202862708593700,6.70759375,-1.0218968233853578,2.771133231069147,4.372672063145041,-0.9367549419403076,-0.1665823459625244,-0.2227731049060821
1783202862718531600,6.717531494140625,-0.8799678943067789,2.713968159301579,4.399700355324149,-1.1586673259735107,-0.1651620864868164,-0.162524938583374
1783202862728468700,6.72746875,-0.7413232475958764,2.6862249968513843,4.473241392353176,-1.3914883136749268,-0.196927472949028,-0.0985649079084396
1783202862738405400,6.7374052734375,-0.5377550970103592,2.533705992436409,4.483244315451383,-1.6269639730453491,-0.2606430649757385,-0.0355478562414646
1783202862748343600,6.747343505859375,-0.377154931339994,2.3879629118971524,4.437524182283879,-1.8598804473876955,-0.3601117730140686,0.0218553207814693
1783202862758280400,6.757280517578125,-0.2286011224952526,2.298570079611242,4.277080522349476,-2.095717191696167,-0.4826781749725342,0.0797561705112457
1783202862768217600,6.767217529296875,-0.1917876416218467,2.2813823595754803,4.021640949425101,-2.3517067432403564,-0.6025084257125854,0.1171046495437622
1783202862778155500,6.777155517578125,-0.2488642131220549,2.2607594043940304,3.696501817330718,-2.625413179397583,-0.7376124858856201,0.1331118494272232
1783202862788092700,6.7870927734375,-0.3303735621491447,2.1182870160885154,3.046512891477346,-2.9098947048187256,-0.93472820520401,0.107440248131752
1783202862798029300,6.797029296875,-0.5381413929142057,1.817524346490204,1.9847136812925337,-3.166479110717773,-1.1805509328842163,0.0097645539790391
1783202862807967500,6.806967529296875,-0.8249686222709715,1.31458680729568,0.5842910035401583,-3.360346555709839,-1.3670274019241333,-0.1298326253890991
1783202862817904400,6.816904296875,-0.7925405168749392,0.6278897606395185,-1.0705939265370368,-3.500699758529663,-1.4933840036392212,-0.2860733866691589
1783202862827841500,6.826841552734375,-0.3520545384835452,-0.0697231227086856,-3.280326908048987,-3.5336499214172363,-1.6527321338653564,-0.5100671052932739
1783202862837779500,6.836779541015625,0.5804704954039305,-1.0182015490639955,-6.685986415162682,-3.2008378505706787,-1.8260338306427,-0.4444710612297058
1783202862847716600,6.846716552734375,1.6427727597400543,-2.7666537475675343,-10.63833229456544,-2.480690717697144,-1.6731369495391846,-0.3167180716991424
1783202862857653500,6.856653564453125,1.546886619912088,-3.0917426107794044,-13.303778999543187,-1.4985350370407104,-1.269627809524536,-0.337516576051712
1783202862867591700,6.866591796875,1.2613921004638076,-2.9640672479808328,-15.319824223166703,-0.4324140548706054,-0.7465819120407104,-0.4496617913246155
1783202862877528300,6.8765283203125,1.074368476639688,-3.1125282091766597,-16.459837138366698,0.5258485674858093,-0.1490306705236435,-0.5620836615562439
1783202862887465500,6.886465576171875,0.8447010583534836,-2.957903464654088,-16.558438966894148,1.274160861968994,0.5187013149261475,-0.5867012143135071
1783202862897403400,6.8964033203125,0.5841549560703336,-2.525359896634519,-15.76336761636734,1.839117169380188,1.036021709442139,-0.5012843012809753
1783202862907340500,6.906340576171875,0.1623249436363577,-2.0993400312952697,-14.849614941358563,2.301769256591797,1.241551160812378,-0.3967297971248626
1783202862917277700,6.916277587890625,-0.2504904260843992,-1.772983193974197,-14.170252036982774,2.707451343536377,1.3180058002471924,-0.3335143327713012
1783202862927214600,6.926214599609375,-0.2780336820483207,-1.8617657854072749,-13.34946756852865,3.131840944290161,1.3879681825637815,-0.3121680319309234
1783202862937152500,6.936152587890625,-0.3423465797439217,-1.921025637497008,-12.590640082293747,3.6024725437164307,1.4572460651397705,-0.3826557993888855
1783202862947089400,6.94608935546875,-0.9562709433950484,-1.1801016914170237,-11.932144609379767,4.041306018829346,1.5289846658706665,-0.5240952372550964
1783202862957026600,6.956026611328125,-1.6523738240391015,-0.1634456182293593,-11.194980673420428,4.361550807952881,1.6033912897109983,-0.6422975063323975
1783202862966964500,6.965964599609375,-2.024656253971904,0.5827776763677597,-10.387699829661846,4.564557075500488,1.721230387687683,-0.6595556735992432
1783202862976901600,6.975901611328125,-1.96962877875492,1.0452445273555817,-9.49775005504489,4.735202789306641,1.8353519439697263,-0.5772783756256104
1783202862986838500,6.985838623046875,-1.9585905212596055,1.485230958727002,-8.774276206263899,4.948456287384033,1.9647226333618164,-0.4939563870429992
1783202862996776700,6.995776611328125,-2.3583330589175224,2.2453239348530767,-8.074812763145566,5.170500755310059,2.131957054138184,-0.4378467798233032
1783202863006713600,7.005713623046875,-2.930735471743345,3.0684599348694084,-7.127159572100639,5.33543062210083,2.270227670669556,-0.4192653298377991
1783202863016650500,7.015650390625,-3.384642145787179,3.7016575926586985,-6.059499945449828,5.457712173461914,2.391864776611328,-0.4130133092403412
1783202863026588400,7.02558837890625,-3.568711595980823,4.1225972321242095,-4.889292967516184,5.5360426902771,2.4419150352478027,-0.3843425512313843
1783202863036525600,7.035525634765625,-3.641860126560926,4.558195219278336,-3.759343181169033,5.53812837600708,2.4161722660064697,-0.3571780323982239
1783202863046462500,7.04546240234375,-3.635926060336828,5.104582316359878,-2.6247897004187104,5.507560729980469,2.384225368499756,-0.3217681348323822
1783202863056400600,7.055400634765625,-3.573362344396114,5.629193050441145,-1.4974813684910535,5.449700832366943,2.3439109325408936,-0.3001299500465393
1783202863066337500,7.065337646484375,-3.647379182243347,6.327616629117727,-0.4722919333010911,5.3516764640808105,2.360759735107422,-0.2591755390167236
1783202863076274700,7.075274658203125,-3.5623102045059203,6.99755704063177,0.6884019508779049,5.318090915679932,2.336321830749512,-0.1716161072254181
1783202863086212600,7.085212646484375,-3.2519740892678497,7.524822673135995,1.5245166749328374,5.066019058227539,2.277355909347534,-0.1117301285266876
1783202863096149500,7.0951494140625,-3.1309786426246164,7.729789365407824,2.879049123647809,4.727955341339111,2.209594249725342,0.0028635633643716
1783202863106086400,7.10508642578125,-2.72954040696472,8.155933880040049,4.004831853443384,4.204905033111572,2.244802474975586,0.0597436241805553
1783202863116023600,7.1150234375,-2.529586574418843,8.304581303718686,5.45049827902317,3.8173959255218506,2.2367098331451416,0.0657887309789657
1783202863125961500,7.12496142578125,-2.3893439909920096,8.58898627436459,5.82747281229496,3.599717855453491,2.132286548614502,0.1031034141778945
1783202863135898600,7.134898681640625,-1.9555439931705596,8.672735986196994,5.97622428086996,3.380049228668213,1.998537302017212,0.1580577492713928
1783202863145835500,7.14483544921875,-1.5478478661596775,8.686810688778758,6.513823091340065,3.0871057510375977,1.786096692085266,0.2212073504924774
1783202863155773700,7.154773681640625,-1.285849080850184,8.71974206752181,6.973813761472702,2.7675089836120605,1.5420336723327637,0.2700404226779938
1783202863165710300,7.16471044921875,-1.160970363032818,8.921544742804766,7.30470692704916,2.4130730628967285,1.3114265203475952,0.2971058189868927
1783202863175647500,7.1746474609375,-1.0743155774086712,9.029991088998315,7.767927665144205,2.0042076110839844,1.0913417339324951,0.3298986554145813
1783202863185585400,7.18458544921875,-0.9785644621372224,9.089618751487135,8.195901733291148,1.5363926887512207,0.8691306710243225,0.3512269556522369
1783202863195522600,7.1945224609375,-0.910611454373598,9.227495190304516,8.52688140810728,1.0314948558807373,0.6863009333610535,0.3429879248142242
1783202863205459700,7.204459716796875,-0.8891448879748582,9.362544881263377,8.815095123386383,0.5491542220115662,0.5436404347419739,0.3134209811687469
1783202863215396600,7.214396728515625,-0.8679168065071106,9.4623724521935,8.952117575722932,0.0977047458291053,0.4391668140888214,0.2730035185813904
1783202863225334500,7.22433447265625,-0.8218070895001292,9.546895486485958,9.05833455542922,-0.353468507528305,0.3094375431537628,0.2293570041656494
1783202863235271400,7.234271484375,-0.8629495394885539,9.688395376497509,9.15468246755004,-0.8270899057388306,0.1426850408315658,0.2004606425762176
1783202863245208600,7.24420849609375,-0.8841194610282779,9.75247066604495,9.24660671800971,-1.3394020795822144,-0.0579439476132392,0.1828158497810363
1783202863255146500,7.254146484375,-0.9422256130382418,9.73783189983964,9.29690833374858,-1.8810040950775144,-0.2680122256278991,0.1496368646621704
1783202863265083600,7.264083740234375,-1.0814937984749675,9.757872232827545,9.256477539160848,-2.418766021728516,-0.507962167263031,0.0987333282828331
1783202863275020500,7.2740205078125,-1.2240455356270077,9.748597039481997,9.020019145560264,-2.952615737915039,-0.7628884315490723,0.0461492091417312
1783202863284958700,7.283958740234375,-1.311162678065896,9.666364161953329,8.736246627599,-3.4719300270080566,-1.0266766548156738,-0.0051731681451201
1783202863294895600,7.2938955078125,-1.3876514589846134,9.620731707069275,8.347963933849334,-3.9358835220336914,-1.2574491500854492,-0.0463978387415409
1783202863304832500,7.30383251953125,-1.5091265058383343,9.593809213352202,7.917486942970752,-4.341169357299805,-1.458276629447937,-0.1043424159288406
1783202863314769400,7.313769287109375,-1.7151409535974262,9.619792380392552,7.416094587391615,-4.729672908782959,-1.6701475381851196,-0.175181433558464
1783202863324707600,7.32370751953125,-1.9158976269587875,9.60733680344522,6.781153008544445,-5.12185525894165,-1.8662221431732176,-0.25283282995224
1783202863334644500,7.33364453125,-2.0779536905258893,9.405345912113786,6.170154615342617,-5.509580135345459,-2.0434987545013428,-0.3459500074386596
1783202863344581600,7.34358154296875,-2.2325686443068085,9.160650436043738,5.455838471007347,-5.881270885467529,-2.196047306060791,-0.4471027553081512
1783202863354519600,7.35351953125,-2.430897213738412,8.882387036892771,4.556014368107915,-6.243987083435059,-2.3319880962371826,-0.5306429266929626
1783202863364456700,7.363456787109375,-2.675419525198638,8.475293844211102,3.4141409197330472,-6.585007667541504,-2.5377817153930664,-0.5461350083351135
1783202863374393300,7.373393310546875,-2.8016525802344083,7.592430228462815,1.7986504269331691,-6.812576770782471,-2.80118989944458,-0.4656215012073517
1783202863384330500,7.38333056640625,-2.861889899054169,6.338941156208515,-0.3083212682843208,-6.857638835906982,-3.069579601287842,-0.3292103111743927
1783202863394268400,7.393268310546875,-3.139766929236054,4.977343006891012,-2.905431519138813,-6.63895845413208,-3.1989097595214844,-0.1731608062982559
1783202863404205600,7.40320556640625,-3.3536525487616657,3.5018741482436653,-5.652071821725368,-6.138404369354248,-3.114159345626831,-0.0134409479796886
1783202863414142700,7.413142822265625,-3.00212751404494,1.83703071873188,-8.347875671043992,-5.4080657958984375,-2.8933138847351074,0.1582152396440506
1783202863424080600,7.42308056640625,-2.232053096000105,0.2630652454972267,-11.060977861166,-4.471638202667236,-2.539649724960327,0.3912006616592407
1783202863434017500,7.433017578125,-1.1674978651054202,-1.166987577495724,-13.47960902917981,-3.836396217346192,-2.146146297454834,0.6472827792167664
1783202863443954400,7.442954345703125,-0.3910869009828194,-2.348490733208507,-14.442445176309349,-4.0394606590271,-1.2953635454177856,0.8678281307220459
1783202863453891600,7.4528916015625,-0.3445721833715215,-3.798119194287061,-13.142128301906585,-3.6247925758361816,-0.58206707239151,1.0422723293304443
1783202863463829500,7.46282958984375,-0.7292495826382189,-4.311482850427925,-15.624996087509391,-2.636420726776123,-0.1859505176544189,1.0029903650283811
1783202863473766700,7.4727666015625,-1.4832146504685282,-4.10894396982491,-16.807910571324825,-2.219038486480713,0.1215159595012664,0.9693514108657836
1783202863483703600,7.48270361328125,-1.3687842614293098,-5.080042918387055,-14.852155273491144,-1.638308048248291,0.0892778560519218,0.9202671647071838
1783202863493641700,7.492641845703125,-1.2165109023384748,-5.597791950005292,-14.711546194839476,-1.3918300867080688,0.0190321877598762,0.7524427175521851
1783202863503578400,7.502578369140625,-1.3260761695593597,-5.145743763309717,-13.122289628970622,-1.1817002296447754,-0.0287065468728542,0.5823054313659668
1783202863513515500,7.512515625,-0.9148163587175308,-5.169700977480411,-11.895150218981504,-0.9965747594833374,-0.0029838727787137,0.4201506376266479
1783202863523452400,7.522452392578125,-0.6075758714072406,-4.928057290196419,-10.753954231476785,-0.6403873562812805,0.0812743976712226,0.2407687306404113
1783202863533390600,7.532390625,-0.4085151883088052,-4.383949536223709,-9.7763396174103,-0.2235927879810333,0.1847768276929855,0.0571980997920036
1783202863543327500,7.542327392578125,-0.0936223413481377,-3.95574341288656,-8.485183954584597,0.1757334470748901,0.2661030292510986,-0.0880907401442527
1783202863553264600,7.5522646484375,0.3128413029920309,-3.559656475126743,-7.017174179771542,0.5136609077453613,0.3104403913021087,-0.2096507251262664
1783202863563201500,7.562201416015625,0.4789500394834205,-2.846308591301739,-5.473122198763489,0.7964617609977722,0.3160276710987091,-0.3138985931873321
1783202863573139500,7.572139404296875,0.5042878578249365,-2.0435328038774427,-4.013513757070899,1.0162439346313477,0.2953740656375885,-0.3988728821277618
1783202863583076400,7.582076416015625,0.4861254475381225,-1.3152427869863808,-2.6550135737687346,1.1499474048614502,0.2661612033843994,-0.4467329084873199
1783202863593013500,7.592013427734375,0.4043295001219957,-0.6613897330507635,-1.4243582646131514,1.213823914527893,0.2276484072208404,-0.4339944720268249
1783202863602950700,7.60195068359375,0.3410566860638558,-0.0658655339650809,-0.3455710947483777,1.2231932878494265,0.1862967163324356,-0.3934414982795715
1783202863612888600,7.611888671875,0.1941563252482563,0.5317501575071364,0.5481815792828798,1.1973899602890017,0.1313346624374389,-0.339613139629364
1783202863622825700,7.62182568359375,0.0225944561838172,0.9972823874149472,1.2648211981296538,1.132427453994751,0.0651685670018196,-0.2769474685192108
1783202863632762400,7.631762451171875,-0.1421014361012726,1.364566497603804,1.8505770135253667,1.0414255857467651,0.0070559973828494,-0.2287826091051101
1783202863642700500,7.641700439453125,-0.3736960230577736,1.7314729335866867,2.288472171705961,0.9372578263282776,-0.0417500436305999,-0.2007942646741867
1783202863652637400,7.651637451171875,-0.5762604034282267,1.9789530719392,2.634608499121666,0.8119949698448181,-0.0964063629508018,-0.1825516074895858
1783202863662574600,7.66157470703125,-0.7213748306751251,2.1354751745156944,2.9346307256162163,0.635305643081665,-0.1500352919101715,-0.1682325899600982
1783202863672511500,7.671511474609375,-0.8200813616860657,2.222791346658021,3.231132376769185,0.430239588022232,-0.1930035203695297,-0.1594928950071334
1783202863682449700,7.68144970703125,-0.9203844411734492,2.3154075249046087,3.395907928428054,0.2312648892402649,-0.2262597233057022,-0.1573234647512436
1783202863692386600,7.691386474609375,-0.9851987855851648,2.3757233157880604,3.4925977858543398,0.0226831920444965,-0.2556242644786834,-0.152653619647026
1783202863702323500,7.701323486328125,-0.9823240338664502,2.3174513056918977,3.565558977168798,-0.1941081583499908,-0.2912801504135132,-0.1423640698194503
1783202863712260600,7.711260498046875,-0.9416890219435096,2.273200076033175,3.6155332606494426,-0.41667041182518,-0.3119204342365265,-0.1334488689899444
1783202863722198500,7.721198486328125,-0.9017021717309952,2.268990933905542,3.633745793688297,-0.6424634456634521,-0.2936195731163025,-0.1171688586473465
1783202863732135400,7.731135498046875,-0.8148720295399426,2.173456091733277,3.61398953833878,-0.8713243007659912,-0.2943024337291717,-0.0869566276669502
1783202863742072600,7.741072509765625,-0.6371529712863266,1.971736418558657,3.506407700020074,-1.0860146284103394,-0.3100851774215698,-0.0570360533893108
1783202863752009700,7.751009765625,-0.466693711435236,1.7791992920100688,3.3882126977503297,-1.2786107063293457,-0.3418044745922088,-0.045394841581583
1783202863761947600,7.76094775390625,-0.3480020482223481,1.6073833203203975,3.2561721254795786,-1.4495768547058103,-0.3827409744262695,-0.0352756083011627
1783202863771884500,7.770884521484375,-0.2249771050455048,1.3917546565197407,3.1018904953062534,-1.611065149307251,-0.4168331623077392,-0.021442886441946
1783202863781821400,7.780821533203125,-0.0903259849501773,1.164443445970863,2.923223196417093,-1.7570152282714844,-0.4094234704971313,0.0085994331166148
1783202863791758600,7.790758544921875,0.0296870995922014,0.949663069562614,2.7910329865425823,-1.8936548233032229,-0.374773621559143,0.0324650853872299
1783202863801696500,7.800696533203125,0.091510445494391,0.7590435401383787,2.5682471444636583,-2.016615152359009,-0.3555392920970917,0.0645209625363349
1783202863811633700,7.810633544921875,0.1297484792781993,0.5745632441215217,2.2646698558360336,-2.127948760986328,-0.3557401001453399,0.1046002060174942
1783202863821570600,7.820570556640625,0.1612006888467818,0.4127586710974574,1.888233082702756,-2.241399049758911,-0.4157304167747497,0.1190063282847404
1783202863831507500,7.830507568359375,0.0166357121761888,0.431241545510292,1.2888929785907268,-2.362696409225464,-0.5536139607429504,0.100111998617649
1783202863841444600,7.840444580078125,-0.2019805891331285,0.5407425883885473,0.4356763130873441,-2.4958841800689697,-0.7651895880699158,0.041016973555088
1783202863851382500,7.850382568359375,-0.2716151933081447,0.4592723657954484,-0.7191092238306999,-2.6239960193634038,-1.073888659477234,-0.0859407037496566
1783202863861319400,7.8603193359375,-0.2808263815067708,0.179719438290596,-2.5894220344394445,-2.6914751529693604,-1.603650450706482,-0.194145455956459
1783202863871256600,7.870256591796875,0.020493483582884,-0.6882599120587111,-5.663606776696443,-2.585514068603516,-2.0000364780426025,-0.1456724554300308
1783202863881193700,7.88019384765625,0.5445543286964297,-1.7288462383449077,-8.862999030333757,-2.1959376335144043,-2.1586623191833496,-0.0649633407592773
1783202863891131600,7.890131591796875,0.6328741249233484,-2.494786771455407,-12.184143686461448,-1.4908640384674072,-2.006509304046631,-0.0200011897832155
1783202863901068500,7.900068603515625,0.3920129663191735,-3.003478051871061,-14.962209054881331,-0.503250002861023,-1.5180435180664062,-0.0812373235821724
1783202863911005400,7.91000537109375,-0.2370448151864111,-2.904040064780414,-16.61270831722021,0.5933377742767334,-0.7867794036865234,-0.2747010588645935
1783202863920942600,7.919942626953125,-0.933711467193067,-2.24490351748392,-17.152063031446932,1.6307151317596436,-0.0695665851235389,-0.5225265026092529
1783202863930880500,7.929880615234375,-1.8118194128468632,-1.3297186177149414,-17.117012760853765,2.496111392974853,0.4973700940608978,-0.7443933486938477
1783202863940817700,7.939817626953125,-2.776476053401828,-0.7085977666884661,-16.773405075132846,3.158979892730713,1.001995086669922,-0.9500744342803956
1783202863950754600,7.949754638671875,-2.728679698482156,-0.5736455447547137,-16.154722557169197,3.640273809432984,1.4807531833648682,-1.095301866531372
1783202863960691500,7.95969140625,-1.92684469903931,-0.4211838965501636,-15.316222399282454,4.040680408477783,1.839059352874756,-1.120555758476257
