time,seconds_elapsed,ax,ay,az,gx,gy,gz
1783203481112555000,0.096554931640625,5.215256275475025,-2.208078784564137,-18.635032474982737,2.3942668437957764,-0.1665302664041519,0.5289570093154907
1783203481122492200,0.1064921875,5.037799521419406,-1.2420350735649466,-17.08548832629919,3.3250732421875,0.6420528292655945,0.7640981078147888
1783203481132429000,0.116428955078125,4.594842403674125,-0.597706365430355,-14.623201556432246,4.175140857696533,1.5624865293502808,1.0282052755355835
1783203481142365000,0.126364990234375,3.866085646054149,0.0928340587809681,-12.351996161347628,4.920600414276123,2.2607533931732178,1.2513030767440796
1783203481152302000,0.136302001953125,3.54895680193603,1.1681570596665145,-10.534848539215323,5.428735256195068,2.6924612522125244,1.435459017753601
1783203481162239000,0.146239013671875,3.0325007327377795,2.346358251224458,-8.499328215271234,5.754342555999756,2.9246394634246826,1.7285513877868652
1783203481172174800,0.1561748046875,2.795387674620748,3.00260419164598,-6.6399740210503335,5.800657749176025,2.440112352371216,1.945375680923462
1783203481182112000,0.166112060546875,3.282253784458339,4.056777144736051,-5.470571929758787,5.385260105133057,1.5963561534881592,2.086428165435791
1783203481192048000,0.176048095703125,3.006249854671955,4.718004088440537,-3.1295050629407166,4.719699859619141,0.7657933831214905,2.2514681816101074
1783203481201985000,0.185985107421875,1.8994456738516687,4.841590720620751,-0.325827698880434,3.969477415084839,0.0648137405514717,2.282813549041748
1783203481211922000,0.195921875,1.3178146833010016,5.751767290708423,1.9198568859785796,3.250329732894897,-0.3010599017143249,2.272038221359253
1783203481221858000,0.205858154296875,0.5021100753944366,6.533393468728661,3.720600485798717,2.7403371334075928,-0.226020261645317,2.187952756881714
1783203481231795200,0.215795166015625,-0.6854432472027838,6.935818085077405,4.834180152103305,2.438631772994995,0.0564949549734592,2.052227020263672
1783203481241731800,0.22573193359375,-1.5696122464612126,7.327132693868875,5.022520119222999,2.2665233612060547,0.3663638532161712,1.903632640838623
1783203481251667700,0.235667724609375,-2.03149530621171,7.752780364894867,4.837636430037021,2.169583320617676,0.6649623513221741,1.797677755355835
1783203481261604900,0.24560498046875,-2.193659214067459,7.922752900674939,4.598952761602401,2.127171516418457,0.9414610266685486,1.735143780708313
1783203481271541000,0.255541015625,-2.057742092624306,7.971718883895874,4.437151257318258,2.087876796722412,1.1375315189361572,1.688640832901001
1783203481281478000,0.265477783203125,-1.8460230034828184,8.282631922239064,4.579986195325851,1.9808496236801147,1.291988730430603,1.6537177562713623
1783203481291414800,0.275414794921875,-1.9936375769823789,8.449169222873449,5.058332606360316,1.890377759933472,1.4190644025802612,1.647318720817566
1783203481301351000,0.285350830078125,-2.147187824141234,8.220092171695828,5.207963195857405,1.7616722583770752,1.4581332206726074,1.6043260097503662
1783203481311287800,0.295287841796875,-2.18165634932369,8.368018879884481,5.371577887043356,1.545313835144043,1.3781249523162842,1.5366252660751345
1783203481321225000,0.305224853515625,-2.3371571460284293,8.679669584852457,5.768814871621132,1.285591721534729,1.2841163873672483,1.4406191110610962
1783203481331160800,0.315160888671875,-2.665630537112057,8.58900614810884,6.23057313594818,0.9899734258651732,1.1487104892730713,1.3214858770370483
1783203481341097700,0.32509765625,-2.965142768257856,8.585359900560974,6.625836774626374,0.652877688407898,0.9623348116874696,1.1651138067245483
1783203481351035000,0.335034912109375,-3.031646746256947,8.7293095218122,7.070571423438191,0.2928581833839416,0.7581515908241272,0.994464099407196
1783203481360970800,0.344970703125,-3.156890205733478,8.742553034266829,7.525383814150095,-0.0874872803688049,0.5710405111312866,0.7934595942497253
1783203481370908000,0.354907958984375,-3.6646839527875184,8.643810335963964,8.164576036179065,-0.5162709355354309,0.5585928559303284,0.4858327805995941
1783203481380843800,0.36484375,-4.551167512598633,8.527716105365753,9.10137757834196,-0.9147933125495912,0.621086061000824,0.1841970235109329
1783203481390781000,0.374781005859375,-4.607650739581882,8.663475405898689,9.776705528113244,-1.3126187324523926,0.732890784740448,-0.1114446148276329
1783203481400717800,0.3847177734375,-4.742825810486078,8.69825562737882,10.215929889070988,-1.7165297269821167,0.8305861949920654,-0.4245186448097229
1783203481410654000,0.394654052734375,-4.870467563275993,8.685057707631588,10.594898811030388,-2.135817050933838,0.868267834186554,-0.7277376055717468
1783203481420590800,0.4045908203125,-4.90545149063468,8.717343189686536,10.861876846057177,-2.597649335861206,0.9451208114624025,-0.9956979751586914
1783203481430528000,0.414528076171875,-4.732738131713867,8.597012344431876,11.37608542858958,-3.067129611968994,0.9900704026222228,-1.2128961086273191
1783203481440464000,0.4244638671875,-4.228215661415457,8.618502876228094,11.72227085584402,-3.567939043045044,0.8880114555358887,-1.4195818901062012
1783203481450400800,0.43440087890625,-3.8337066404968496,8.854111959522962,11.862712761235237,-4.137119770050049,0.8018742203712463,-1.6016905307769775
1783203481460338000,0.444337890625,-3.4620465802460907,8.98944105194509,12.248062324142456,-4.6649169921875,0.7200565934181213,-1.7367194890975952
1783203481470273800,0.454273681640625,-2.8925340436428786,9.024805795314908,12.195304547423124,-5.157538414001465,0.7120133638381958,-1.8727281093597408
1783203481480210700,0.464210693359375,-2.3771255838014183,9.05299845509827,12.145474056327345,-5.642520904541016,0.7845890522003174,-1.9922997951507568
1783203481490147800,0.47414794921875,-1.4268475972108543,9.398526295226812,12.11478198094368,-6.148565292358398,0.9449828267097472,-2.121891736984253
1783203481500084000,0.484083984375,-0.7096100124709308,9.501150218877196,11.992123569524288,-6.710211753845215,1.145381212234497,-2.275167942047119
1783203481510020600,0.4940205078125,-0.0142293086215853,9.47682183330655,11.609628811526298,-7.359886646270752,1.274559736251831,-2.412340879440308
1783203481519957800,0.503957763671875,1.2193588391155004,9.710821727839113,10.61837554820776,-8.119153022766113,1.3917359113693235,-2.5246710777282715
1783203481529894000,0.513893798828125,2.7379426168680188,9.927156201821566,8.857057365325092,-8.74738883972168,1.3961724042892456,-2.581429481506348
1783203481539831000,0.5238310546875,4.498723624134064,10.042499906313418,5.645608178669214,-9.037683486938477,1.284660816192627,-2.450400114059448
1783203481549767700,0.533767578125,6.6348752366065975,9.54286579257846,0.678546911817789,-8.944087028503418,0.9315476417541504,-2.215877056121826
1783203481559703800,0.543703857421875,8.326165943539142,9.065468060570955,-5.291479683455824,-8.446359634399414,0.5164178013801575,-1.985205888748169
1783203481569641000,0.553640869140625,8.900358162391186,8.337933538222313,-11.232324607908724,-7.699517250061035,-0.0158233363181352,-1.7829638719558716
1783203481579577900,0.563577880859375,8.566915312331915,7.069308856156468,-16.316430537950993,-6.896634101867676,-0.485166072845459,-1.662174940109253
1783203481589513700,0.573513671875,7.45103496786952,5.540631554412841,-19.53325557242632,-6.111622333526611,-0.7452502250671387,-1.5492935180664062
1783203481599451000,0.583450927734375,6.456242424508929,4.068409422601759,-21.330985377383232,-5.316803455352783,-0.7891417741775513,-1.4013738632202148
1783203481609387800,0.5933876953125,5.803700891563296,2.9170138203829525,-22.440454685759544,-4.421300411224365,-0.6360448002815247,-1.201887130737305
1783203481619323600,0.60332373046875,5.519715023112297,1.9690885343983768,-23.55953821017742,-3.423482894897461,-0.4167630970478058,-0.9662364721298218
1783203481629260800,0.6132607421875,5.223305726417899,0.7316513100177049,-24.51293082165718,-2.4041759967803955,-0.236655980348587,-0.7376235723495483
1783203481639198000,0.623197998046875,4.784366904403269,-0.441795672750473,-25.037653783941263,-1.4083945751190186,-0.1335700750350952,-0.5122644901275635
1783203481649133800,0.6331337890625,4.376925336675345,-1.4750214071407912,-24.913683705401414,-0.4922975897789001,-0.1140951439738273,-0.3211171627044678
1783203481659070700,0.64307080078125,3.902513050219417,-2.4111110016420483,-24.033611181676385,0.3750694394111633,-0.1339165270328521,-0.1538359969854354
1783203481669008000,0.6530078125,3.2767996107056736,-3.3897067357003685,-22.841415659296512,1.1763113737106323,-0.1306280493736267,-0.0363469235599041
1783203481678944000,0.662944091796875,2.607593066424131,-4.090168249945342,-21.149568487524984,1.8541233539581297,-0.095372587442398,0.0496236458420753
1783203481688881000,0.672880859375,2.2197053633414208,-4.4053550200849765,-19.076187511742116,2.442861795425415,-0.0385231301188468,0.122832641005516
1783203481698817800,0.68281787109375,1.9481082902118565,-4.476272138351201,-16.92430992234945,2.95293402671814,0.1535046249628067,0.2056716084480285
1783203481708754000,0.69275390625,1.5728186412870884,-4.268135291610658,-14.67718332198858,3.3492681980133057,0.4079481065273285,0.3112851083278656
1783203481718690800,0.70269091796875,1.276381141411513,-3.87518431378901,-12.636266691958904,3.643424034118652,0.5244393348693848,0.4692941904067993
1783203481728628000,0.7126279296875,1.3647653811767697,-3.201486011046171,-11.345348929542302,3.866086006164551,0.5155255794525146,0.6501163840293884
1783203481738563800,0.722563720703125,1.378024967983365,-2.2698510578662154,-10.563086791706084,4.0679473876953125,0.4493193626403808,0.8122251033782959
1783203481748500700,0.732500732421875,1.065229476894438,-1.115132960161194,-10.020895977270603,4.233503341674805,0.3544066548347473,0.952801525592804
1783203481758438000,0.74243798828125,0.7272586280167103,0.0211787624333053,-9.428048742309212,4.301758289337158,0.1771865934133529,1.1034270524978638
1783203481768373800,0.752373779296875,0.6502870320171117,0.9401803709462284,-8.755723481485248,4.297229766845703,-0.1200237572193145,1.1946943998336792
1783203481778310700,0.762310546875,0.6266399067088961,1.807239391580224,-8.2023145229429,4.208285808563232,-0.510499119758606,1.1835298538208008
1783203481788247800,0.772247802734375,0.5027760650224984,2.713964944431185,-7.441767373308539,3.98473596572876,-0.9806477427482604,1.0832353830337524
1783203481798184000,0.782183837890625,0.3516939615428447,3.253127935478091,-6.483497511181235,3.669506549835205,-1.4056792259216309,0.9441702365875244
1783203481808120800,0.792120849609375,0.3427873092487454,3.442051547704637,-5.708588074195385,3.511582136154175,-1.6974433660507202,0.8593050241470337
1783203481818057700,0.8020576171875,0.8418012452587484,3.749317461717129,-5.29281180884242,3.4646005630493164,-1.7126060724258425,0.827827513217926
1783203481827993900,0.811993896484375,1.3259171796053648,4.258506462521851,-4.610588838860393,3.441437244415283,-1.6251291036605835,0.853146493434906
1783203481837931000,0.821930908203125,1.8670408032007515,4.408220054127276,-4.021465592858196,3.462538719177246,-1.512346267700195,0.950722873210907
1783203481847867600,0.83186767578125,2.570567111843824,4.709501633033156,-3.703989542737603,3.538440465927124,-1.451637864112854,1.0582515001296997
1783203481857804800,0.8418046875,2.973382773336768,5.232718282407522,-3.6998663253277537,3.631042242050171,-1.4132177829742432,1.131998062133789
1783203481867741000,0.851740966796875,2.9220594133347277,5.730437502431869,-3.5433091514378785,3.7435054779052734,-1.4942171573638916,1.153680682182312
1783203481877677800,0.861677734375,2.8186481386989355,6.221280406945944,-3.489260165864229,3.8361549377441406,-1.6025289297103882,1.1123214960098269
1783203481887614700,0.87161474609375,2.7081913294658064,6.610576661652326,-2.9875001460164783,3.9422898292541504,-1.6953091621398926,1.007199764251709
1783203481897550800,0.88155078125,2.4117370245859027,6.911334216684103,-2.284290502107144,4.068178653717041,-1.6982064247131348,0.9066625237464904
1783203481907487700,0.89148779296875,2.0630457519903778,7.162595042619109,-1.3331822021722792,4.173197746276856,-1.5944417715072632,0.8001127243041992
1783203481917425000,0.9014248046875,1.929186878251284,7.372413266575336,-0.1094008704394102,4.255928993225098,-1.371257185935974,0.7466960549354553
1783203481927360800,0.91136083984375,1.9993585849776865,7.362004100763797,1.2015548868775368,4.302317142486572,-1.0699055194854736,0.7523273229598999
1783203481937298000,0.9212978515625,2.052414175599813,7.355708215489983,2.5003414829730986,4.281856536865234,-0.7816305160522461,0.8293861150741577
1783203481947234800,0.93123486328125,2.189735464752465,7.184090250590443,3.5389059480428693,4.174324989318848,-0.5735300779342651,0.9446293711662292
1783203481957170700,0.941170654296875,2.192681308946013,7.14054921502769,4.476100288915634,3.956153631210327,-0.5040295720100403,1.057607650756836
1783203481967107800,0.95110791015625,1.971009273327887,6.992744671913981,5.352029721486568,3.6294217109680176,-0.5058334469795227,1.1230595111846924
1783203481977044700,0.961044677734375,1.4499921798244118,6.95828184581995,6.301495514911413,3.225625991821289,-0.5625712871551514,1.112207293510437
1783203481986982000,0.97098193359375,0.6540430235497653,6.942907166555523,7.1976692786097525,2.746149778366089,-0.6696287989616394,1.0109515190124512
1783203481996917800,0.980917724609375,-0.1273331982973962,6.892391615805029,7.976177032348513,2.239219188690185,-0.7525769472122192,0.8721065521240234
1783203482006854700,0.990854736328125,-0.7388849145330488,6.640593029731511,8.617020528715848,1.7320750951766968,-0.7651800513267517,0.7312418222427368
1783203482016791800,1.000791748046875,-1.0142862753164024,6.45273470864892,9.173629744604227,1.2436273097991943,-0.7407026886940002,0.6270155310630798
1783203482026728000,1.01072802734375,-0.9294595088370144,6.156105631724,9.50774421031475,0.7979927062988281,-0.6794238686561584,0.5702204704284668
1783203482036664800,1.020664794921875,-0.6477567828871309,5.958852874830365,9.575456395059824,0.4262295067310333,-0.5457478165626526,0.5308520197868347
1783203482046601700,1.030601806640625,-0.5039464970413595,5.878028110533952,9.47033247128725,0.1384089887142181,-0.3947934806346893,0.4584515988826751
1783203482056539000,1.040538818359375,-0.5337402353458106,5.908779222628474,8.994179186382889,-0.0702864229679107,-0.262455940246582,0.344847023487091
1783203482066475000,1.05047509765625,-0.6740656016852706,6.019391222423315,8.479094405537843,-0.2434282451868057,-0.1566750109195709,0.1772020161151886
1783203482076411600,1.06041162109375,-0.9820799229122698,6.139533851629495,8.248453173783421,-0.4305675029754638,-0.0436616465449333,-0.0286009516566991
1783203482086348800,1.070348876953125,-1.2558210223332047,6.1916527459234,8.324722174471617,-0.6451616287231445,0.068260483443737,-0.2339678108692169
1783203482096285000,1.080284912109375,-1.359667473515868,6.0857093224614855,8.455913436436653,-0.8638880848884583,0.1746668070554733,-0.3938283026218414
1783203482106221800,1.090221923828125,-1.130220931438729,5.994400573551655,8.586016903164982,-1.0943254232406616,0.2981028258800506,-0.5008960962295532
1783203482116158700,1.10015869140625,-0.8009192728374153,5.747809492993355,8.773444431614875,-1.3956100940704346,0.4150853753089905,-0.5584424734115601
1783203482126094800,1.1100947265625,-0.4251199208248406,5.486321287554502,9.071309772336482,-1.7640913724899292,0.5242733955383301,-0.5707933306694031
1783203482136031700,1.12003173828125,0.0240527834996581,5.2497693704515696,9.460855033367872,-2.1661384105682373,0.6092410087585449,-0.5427177548408508
1783203482145969000,1.129968994140625,0.4353034611869603,4.964990890318155,9.545090482890606,-2.582207202911377,0.6363829970359802,-0.4646916091442108
1783203482155905800,1.13990576171875,1.0034813151203097,4.707645191511512,9.219621095928549,-2.9578185081481934,0.6214109659194946,-0.3913276493549347
1783203482165842000,1.149842041015625,1.2683115244634449,4.617756830793619,8.460975980523228,-3.28611159324646,0.5771740078926086,-0.3767619729042053
1783203482175778800,1.15977880859375,1.1602193254698068,4.607559261906147,7.490152926293015,-3.558452844619751,0.5748802423477173,-0.4204806983470917
1783203482185716000,1.169716064453125,0.9024906917601824,4.495455562248826,6.642588002941012,-3.7204160690307617,0.672046959400177,-0.4960203170776367
1783203482195651800,1.17965185546875,0.8334628943718969,4.402219644668698,5.701064692953229,-3.752163887023926,0.864372730255127,-0.5603159666061401
1783203482205588700,1.189588623046875,1.060863682900369,4.2219677069365975,4.602524190348387,-3.647517681121826,1.0804076194763184,-0.5861480236053467
1783203482215526000,1.19952587890625,1.4317226559013128,3.9293198086023327,3.2040959012836217,-3.496355533599853,1.314388632774353,-0.5515732765197754
1783203482225463000,1.209463134765625,1.8662616355217991,3.600407003188133,1.9140619359642264,-3.353161334991455,1.4472333192825315,-0.5062569379806519
1783203482235398700,1.219398681640625,2.249321772317588,3.3236934638276696,0.6794312934368848,-3.2642159461975098,1.502364993095398,-0.4647049009799957
1783203482245336000,1.229336181640625,2.548917005571723,2.880633762490749,-0.4388239634633064,-3.263209104537964,1.4467835426330566,-0.4296563267707824
1783203482255273200,1.239273193359375,2.710545783637464,2.4525381137907503,-1.3791279607892035,-3.299526691436768,1.275767803192139,-0.4156821966171264
1783203482265209900,1.2492099609375,2.6349445992082354,2.066378988066316,-2.6133950307011604,-3.246819257736206,1.0838702917099,-0.385187029838562
1783203482275146000,1.25914599609375,2.379946194180101,1.6108797841340303,-4.197487930196523,-3.0603702068328857,0.9460459351539612,-0.3481810688972473
1783203482285083100,1.269083251953125,2.074442467534542,1.1206108801156285,-5.660555572432279,-2.807356119155884,0.8740321397781372,-0.2959536612033844
1783203482295020000,1.27902001953125,1.7461077542692425,0.5982312660872936,-6.704782301047444,-2.496578931808472,0.8565905690193176,-0.2133053690195083
1783203482304956000,1.288955810546875,1.5275079657033086,-0.0608832155078649,-7.487783274552226,-2.132243633270264,0.8935763239860535,-0.0867361947894096
1783203482314893000,1.29889306640625,1.4571698163688185,-0.6759361447975039,-8.046953865361214,-1.7942644357681274,0.9745923280715942,0.0066456836648285
1783203482324830000,1.308829833984375,1.146101441333443,-1.2170558228701351,-8.329500640919804,-1.5361829996109009,1.0508179664611816,0.0575912334024906
1783203482334767000,1.31876708984375,0.7982982036188244,-1.6728097322158515,-8.388317571547628,-1.3447678089141846,1.1055562496185305,0.0934807956218719
1783203482344703000,1.328702880859375,0.6628924657639116,-2.072894945831597,-8.603688753455877,-1.142393946647644,1.101971983909607,0.1355113983154297
1783203482354640100,1.33864013671875,0.6102908294543623,-2.606963536348939,-9.244694746908545,-0.9624848365783693,0.9163520336151124,0.1989857107400894
1783203482364577000,1.348576904296875,0.8305851469784975,-3.012269845613837,-9.972387674689292,-0.8275377750396729,0.6454929709434509,0.222040519118309
1783203482374514200,1.35851416015625,0.7750048601843417,-3.24850495185256,-10.44403137321472,-0.5562966465950012,0.3210740983486175,0.2515004277229309
1783203482384450000,1.368449951171875,0.6418738623283803,-3.256232623495161,-11.487629740798472,-0.2094200700521469,0.0117521919310092,0.2785019278526306
1783203482394387000,1.378386962890625,0.4239075493603944,-3.5341306964650747,-11.96153436999321,0.1700484305620193,-0.1746578961610794,0.332981139421463
1783203482404324000,1.388323974609375,0.2892377976298332,-3.767434717687964,-11.74847380311489,0.4820251166820526,-0.2387683391571045,0.3923172652721405
1783203482414261000,1.398260986328125,0.3181478119023144,-3.702951724122464,-10.990753401339054,0.7177479267120361,-0.186814859509468,0.4478992819786072
1783203482424196900,1.40819677734375,0.2277211065240204,-3.5249013880878683,-10.04637528644204,0.9077350497245787,-0.106071725487709,0.4836267530918121
1783203482434134000,1.418134033203125,0.0441680814199149,-3.315969883838296,-9.330272843211889,1.0480610132217407,-0.0733033940196037,0.5152137279510498
1783203482444071200,1.4280712890625,-0.0422051107838749,-3.140972505633533,-8.960555149200559,1.1391525268554688,-0.1460649520158767,0.5301293134689331
1783203482454006800,1.4380068359375,-0.0586333907544612,-2.806996279349923,-8.657801451915502,1.216915488243103,-0.3175376355648041,0.5343456268310547
1783203482463944000,1.44794384765625,0.0219673555277287,-2.335348781432211,-8.580961373341083,1.3256819248199463,-0.5876034498214722,0.5230721831321716
1783203482473881000,1.457881103515625,0.2241067154191434,-1.807641834901273,-8.656921161949635,1.451838493347168,-0.8352590799331665,0.5321916341781616
1783203482483818000,1.46781787109375,0.40940132349357,-1.2683102092891931,-8.402017595598101,1.5746307373046875,-0.9515130519866944,0.5099933743476868
1783203482493753900,1.47775390625,0.3280183407925069,-0.7692287610009312,-7.619364412617683,1.70661723613739,-0.8976830840110779,0.4642013609409332
1783203482503691000,1.48769091796875,0.0822515091639012,-0.2159232628330588,-6.701790718016028,1.852574586868286,-0.7482063174247742,0.3769233822822571
1783203482513628000,1.4976279296875,-0.2058022663131356,0.257943372438848,-5.97894756835401,2.028876543045044,-0.6071059107780457,0.2805560827255249
1783203482523565000,1.50756494140625,-0.2607195591539144,0.6185737968921661,-5.5737301064163445,2.22220230102539,-0.5287231206893921,0.2038073390722274
1783203482533501000,1.5175009765625,0.0721169225100427,1.091054823024571,-5.337674448397755,2.3987820148468018,-0.5302872061729431,0.1517718285322189
1783203482543438000,1.52743798828125,0.5272481699127703,1.5687918699890375,-4.929423902374506,2.538386821746826,-0.5735049247741699,0.0994178652763366
1783203482553375000,1.537375,0.9036693801507352,2.042913941326737,-4.286813396334648,2.601463079452514,-0.6460795402526855,0.0612145513296127
1783203482563312000,1.54731201171875,1.3793407267570494,2.6358251814350484,-3.4010458758383986,2.6886098384857178,-0.6970100402832031,0.0752151235938072
1783203482573248000,1.557248046875,1.882371789453924,2.9180621603921053,-2.7808225581735373,2.861057758331299,-0.7357715368270874,0.0802905708551406
1783203482583185000,1.567184814453125,2.10742426129058,3.3257395827025173,-2.4323101492762564,3.0654821395874023,-0.6648322343826294,0.0654761418700218
1783203482593122000,1.5771220703125,1.9633689877077936,3.862407249802351,-1.6568407403200864,3.264915227890014,-0.4924383759498596,0.0478627942502498
1783203482603059000,1.587058837890625,1.7761828667983413,4.134930643996596,-0.6067518416732549,3.408458948135376,-0.2813704013824463,0.0628688037395477
1783203482612994800,1.596994873046875,1.7469069418229162,4.359222214463353,0.370727747836709,3.517863512039185,-0.11826191842556,0.11999973654747
1783203482622932000,1.606931884765625,1.8685984079062936,4.489972162401676,1.0827806234151125,3.5720090866088867,-0.0334192663431167,0.2427075058221817
1783203482632869000,1.616869140625,2.1413364677645266,4.431949597021937,1.623772583454847,3.504034757614136,-0.0534014962613582,0.3832505047321319
1783203482642806000,1.626805908203125,2.416250848748535,4.542246539518237,2.439492754256725,3.2717058658599854,-0.1126836538314819,0.4989287257194519
1783203482652742000,1.636741943359375,2.3082912631586194,4.441352800661325,3.559593931284547,2.953016757965088,-0.1133867278695106,0.5652158260345459
1783203482662679000,1.646678955078125,1.9719392476543784,4.209975655847788,4.55246047501862,2.600738286972046,-0.0407511405646801,0.6044596433639526
1783203482672616000,1.656615966796875,1.6398983733475208,4.090750726008415,5.252282814577222,2.2315804958343506,-0.0020764493383467,0.6026545763015747
1783203482682553000,1.666552978515625,1.3153325110964476,3.9198534765988575,5.491717593640089,1.8597936630249023,-0.0014741183258593,0.5811441540718079
1783203482692489000,1.676489013671875,1.1317334548935294,3.987721144166589,5.463764587831497,1.5058467388153076,0.0070365453138947,0.554831862449646
1783203482702425900,1.68642578125,1.0284148269772528,3.913187588968873,5.440947191345692,1.203700065612793,0.0100927501916885,0.5326617956161499
1783203482712363000,1.696363037109375,0.9340853420067576,3.73737860212028,5.32647442446947,0.9445593357086182,0.0440794788300991,0.5280550718307495
1783203482722300200,1.706300048828125,1.003147041664645,3.6523429421305655,5.313297547510266,0.740242600440979,0.1073107570409774,0.5505325198173523
1783203482732237000,1.716237060546875,1.3071686399936675,3.5456606830000874,5.245787022817135,0.5924853682518005,0.1164816245436668,0.6214684844017029
1783203482742173000,1.7261728515625,1.8183207575649023,3.337809375202656,4.857586162132025,0.5138117671012878,0.0540832579135894,0.7379416227340698
1783203482752110000,1.736110107421875,2.23867426770553,3.256135885122418,4.250117112100124,0.4790619909763336,-0.0629741176962852,0.8264946341514587
1783203482762047000,1.746046875,2.3683875660724936,3.436659625533223,3.840957634538412,0.446643054485321,-0.1713543236255645,0.8851583003997803
1783203482771984100,1.755984130859375,2.024344557674229,3.5588141790837047,3.859950504299998,0.3730548322200775,-0.2670936286449432,0.8675875663757324
1783203482781920000,1.765919921875,1.3466934256523846,3.4511727195322512,4.312122025114298,0.2476017326116562,-0.3462132513523102,0.7737542390823364
1783203482791857000,1.77585693359375,0.5921718929830938,3.4896675776213404,4.943898417928815,0.0957996845245361,-0.379819393157959,0.6375948190689087
1783203482801794000,1.7857939453125,0.0137382371690124,3.4819746850311755,5.522193980446458,-0.0794335603713989,-0.3267582654953003,0.4852165579795837
1783203482811731200,1.795731201171875,-0.3847651140827685,3.30458515099287,6.220417068114877,-0.2615671455860138,-0.1843297481536865,0.3655671179294586
1783203482821667000,1.8056669921875,-0.3860289234735071,3.004640081387758,6.87795509417355,-0.426921010017395,0.0171966068446636,0.3016566932201385
1783203482831604000,1.81560400390625,-0.0438075775444507,2.726567236372828,7.473111775121092,-0.5744564533233643,0.2955424785614013,0.2741161584854126
1783203482841541000,1.825541015625,0.2123288916029035,2.504531335878372,7.878020609501004,-0.735185980796814,0.5742291212081909,0.2562044262886047
1783203482851478000,1.83547802734375,0.313638444719091,2.472880060073733,8.256410854789614,-0.9109298586845398,0.8339821696281433,0.2582851648330688
1783203482861415000,1.845414794921875,0.4273540365524589,2.4844886648029085,8.497980892315507,-1.1072213649749756,1.016473412513733,0.2520246207714081
1783203482871351000,1.85535107421875,0.4710268087361007,2.5629975533723828,8.592162566313148,-1.369783639907837,1.0738317966461182,0.2324293553829193
1783203482881288000,1.865287841796875,0.5010549037856981,2.9237001662790774,8.795092784321307,-1.7365483045578003,0.9963166117668152,0.1798043698072433
1783203482891225000,1.87522509765625,0.3713185898693278,3.257255244541168,9.263091404342653,-2.1974544525146484,0.8877270221710205,0.1095717400312423
1783203482901162000,1.885161865234375,0.2057282146962359,3.686377898201346,9.863649067550895,-2.6992311477661133,0.8232694864273071,0.013494555838406
1783203482911098000,1.89509814453125,-0.0763037797406315,4.212886574858427,10.529292074131964,-3.2318921089172363,0.9116560816764832,-0.053422424942255
1783203482921035000,1.905034912109375,-0.1002233287820592,4.619073758611083,11.152261475634576,-3.756521224975586,1.096680998802185,-0.0714798420667648
1783203482930972200,1.91497216796875,0.25999924552273,5.038700854173302,11.414382133758068,-4.321965217590332,1.2806066274642944,-0.0568178072571754
1783203482940908800,1.92490869140625,0.6390283367041498,5.443176557832956,11.36107607550621,-4.907171726226807,1.392756462097168,-0.0225818622857332
1783203482950846000,1.934845947265625,0.935137262212485,5.756665584143996,10.91161030651927,-5.459164142608643,1.4292311668395996,0.0172132197767496
1783203482960782000,1.944781982421875,0.963626420724392,6.037613107812405,10.002813208091258,-5.8559250831604,1.392043948173523,-0.0049102841876447
1783203482970719000,1.954718994140625,0.7450999896556139,6.495958348825574,8.262505664533377,-6.035673141479492,1.429619312286377,-0.0734749659895896
1783203482980655900,1.96465576171875,0.520900590984337,6.814102507466077,6.19937369556427,-6.012086391448975,1.544066071510315,-0.2196173071861267
1783203482990593000,1.974593017578125,0.3960164663394913,6.702068950435518,4.165284281206131,-5.8539137840271,1.7336244583129885,-0.3768918514251709
1783203483000529200,1.984529052734375,0.5310449318472296,6.359098978096246,2.151586497491598,-5.622817993164063,1.9600112438201904,-0.534837543964386
1783203483010466000,1.994466064453125,0.7918953508391976,5.676306099271774,0.3466752565979957,-5.404973983764648,2.10286283493042,-0.6749991774559021
1783203483020403000,2.00440283203125,1.2730357765063642,5.101807590949536,-1.4429296940922736,-5.243098735809326,2.143313407897949,-0.7359970808029175
1783203483030339800,2.01433984375,1.943405227087438,4.335513422095775,-3.123890730190277,-5.105935573577881,2.0839920043945312,-0.7352005243301392
1783203483040277000,2.024277099609375,2.555356390969455,3.4905654032438997,-4.934005969467759,-4.959518909454346,1.88135027885437,-0.7111779451370239
1783203483050213000,2.034213134765625,2.9991803546771405,2.774989029714465,-7.087685639846325,-4.806151866912842,1.6131422519683838,-0.6784681677818298
1783203483060150000,2.04414990234375,3.0770389626443384,2.1638103115096685,-9.043920245629549,-4.619908332824707,1.3414649963378906,-0.6806168556213379
1783203483070087000,2.0540869140625,2.7288193992137906,1.4553788412988184,-10.77440080717802,-4.391971111297607,1.0611883401870728,-0.6598332524299622
1783203483080024000,2.064024169921875,2.394053191596269,0.7550199106454849,-12.421316950333118,-4.092948913574219,0.7162377834320068,-0.5946503281593323
1783203483089961000,2.0739609375,2.170418623733521,-0.070413260397315,-14.23661514520645,-3.658554792404175,0.3261368572711944,-0.4774264991283417
1783203483099896800,2.083896728515625,2.0778227576226,-0.6223331494256854,-16.049811399364472,-3.131348133087158,-0.009908334352076,-0.3626385033130646
1783203483109834000,2.093833984375,1.6510468132190406,-0.8605037537716329,-17.196767265570163,-2.593705415725708,-0.2198335975408554,-0.2628735601902008
1783203483119771000,2.10377099609375,0.9474735966943204,-1.1118464127711951,-17.494169664955137,-2.088395595550537,-0.3313120007514953,-0.2047701030969619
1783203483129708000,2.1137080078125,0.3603684125162661,-1.143868859975785,-17.305598227167128,-1.5990054607391355,-0.3842993080615997,-0.178765133023262
1783203483139645200,2.123645263671875,-0.1608984179645776,-1.1412718292199076,-17.007538825178145,-1.0703545808792114,-0.3841878175735473,-0.2009088844060897
1783203483149581000,2.1335810546875,-0.7332603526495397,-1.1215832322791215,-16.824390581482646,-0.4507485032081604,-0.3107213079929352,-0.2210245430469513
1783203483159518000,2.14351806640625,-1.0444064690962434,-1.2152284613125026,-16.677290971767903,0.2390394210815429,-0.2319864332675933,-0.2223655730485916
1783203483169455000,2.153455078125,-1.0172624415829776,-1.4046639685839413,-16.37846000088453,0.9272735118865968,-0.1399188190698623,-0.2004943490028381
1783203483179392000,2.16339208984375,-0.9430940664358436,-1.584833050338179,-15.542119066858293,1.5458738803863523,-0.0189084317535161,-0.1416061520576477
1783203483189329000,2.173328857421875,-0.79026380411461,-1.6870901865027843,-14.196867656707765,2.0464882850646973,0.1225056871771812,-0.0615688450634479
1783203483199265000,2.18326513671875,-0.5720426396027207,-1.5089078946515917,-12.6545505366683,2.4342758655548096,0.2363932877779007,0.0550884194672107
1783203483209202200,2.1932021484375,-0.3264912773557007,-1.0757397649928926,-11.351399900144338,2.739933013916016,0.2859898805618286,0.2017396390438079
1783203483219139000,2.20313916015625,-0.1145389639802277,-0.7662374702304601,-10.474781900787352,2.9269752502441406,0.2362827062606811,0.2937080860137939
1783203483229076000,2.213075927734375,-0.0817846953697502,-0.0714285749197006,-9.732660050159692,3.015597343444824,0.1360897868871688,0.3251717388629913
1783203483239012400,2.223012451171875,-0.2364279984623193,0.6536526359926909,-8.934103195604681,3.0500261783599854,-0.0157445594668388,0.2974199652671814
1783203483248949200,2.23294921875,-0.4076179472081363,1.2198488876547664,-8.321952709758282,3.1026365756988525,-0.2087102830410003,0.2269098162651062
1783203483258886400,2.242886474609375,-0.4520910029239952,1.8573384704843163,-7.979622204366326,3.196842670440674,-0.4033450186252594,0.1514841169118881
1783203483268823300,2.2528232421875,-0.2910413399204611,2.296622014283389,-7.644783516034483,3.295183658599853,-0.6199026107788086,0.0900258049368858
1783203483278760400,2.262760498046875,-0.0654204205460846,2.654194658601284,-7.073182482719421,3.382676839828491,-0.8134952783584595,0.0206016581505537
1783203483288697600,2.272697509765625,0.1648852956436574,3.02224354261756,-6.297390417680144,3.4497599601745605,-0.9609787464141846,-0.044890534132719
1783203483298633200,2.28263330078125,0.3895034677162766,3.367701240119338,-5.374795095524192,3.517411231994629,-1.071071982383728,-0.0710435733199119
1783203483308570400,2.2925703125,0.7344508776083588,3.5314106238514182,-4.4898798079431055,3.587188482284546,-1.1869772672653198,-0.0581954196095466
1783203483318507500,2.302507568359375,1.2081576461434365,3.760931619404256,-3.74692793623209,3.650593042373657,-1.2652822732925415,-0.0423296354711055
1783203483328444400,2.3124443359375,1.463582752151042,3.944843540948629,-2.8475556687533854,3.678257465362549,-1.2718427181243896,-0.0304303672164678
1783203483338381300,2.32238134765625,1.475861657357216,4.236462096235156,-1.8714450295090677,3.718560218811035,-1.2200181484222412,-0.0159349013119936
1783203483348317400,2.3323173828125,1.4724030413359404,4.46673478693813,-1.128470361444354,3.780331611633301,-1.1297463178634644,0.0021852469071745
1783203483358254300,2.34225439453125,1.4880202971845864,4.695768875756859,-0.5467705434411764,3.8560309410095215,-1.0471340417861938,0.044789895415306
1783203483368191500,2.35219140625,1.5161103733763095,4.932229607445001,-0.0795925921529531,3.941568374633789,-0.942954421043396,0.122852474451065
1783203483378128400,2.36212841796875,1.564665437708795,5.021035433623195,0.4601531672179699,3.991002559661865,-0.8450287580490112,0.2180256992578506
1783203483388065300,2.372065185546875,1.574449457359314,5.095784092876315,1.108231291013956,3.980619430541992,-0.7490236759185791,0.3224123120307922
1783203483398001400,2.38200146484375,1.5401698788776992,5.240651413494348,1.7885282613694666,3.906402111053467,-0.6754582524299622,0.4290020167827606
1783203483407938600,2.3919384765625,1.4554399238362907,5.341977698549628,2.469862758079171,3.756996154785156,-0.6389281749725342,0.5190962553024292
1783203483417875200,2.401875244140625,1.3664884055770934,5.476242961132527,3.0411463960081337,3.5394480228424072,-0.6815505027770996,0.601533830165863
1783203483427812400,2.411812255859375,1.3638282464571296,5.513557085004448,3.514272442045808,3.2399790287017822,-0.8052458167076111,0.6786413788795471
1783203483437749500,2.42174951171875,1.4666222659774124,5.554486476764082,3.874037481841445,2.890869617462158,-0.9660170674324036,0.7433403730392456
1783203483447685400,2.431685302734375,1.4683913214765487,5.556014416983723,4.21414855761826,2.541203022003174,-1.1607972383499146,0.7869938015937805
1783203483457622300,2.441622314453125,1.4826327589273451,5.581773127618432,4.52762004827261,2.1880598068237305,-1.305658936500549,0.815706729888916
1783203483467559400,2.451559326171875,1.5059138274021446,5.640189660751819,4.881642745023965,1.889323115348816,-1.372555136680603,0.8442097902297974
1783203483477496300,2.461496337890625,1.3858774350494143,5.604954681241512,5.259332733088732,1.644246220588684,-1.3540815114974976,0.8471760749816895
1783203483487433500,2.47143359375,1.1085853651486337,5.661296746188402,5.608610281139612,1.4425766468048096,-1.2747437953948977,0.8085879683494568
1783203483497370400,2.481370361328125,0.7831712885703891,5.752609002229571,5.893289977073669,1.2821732759475708,-1.1568937301635742,0.7583564519882202
1783203483507306200,2.49130615234375,0.4781450432434678,5.87713729917407,6.108008832553029,1.1401506662368774,-1.0217111110687256,0.7035526037216187
1783203483517243400,2.501243408203125,0.252961053981632,5.861766711562872,6.428883292940259,0.9965983629226683,-0.8836405277252197,0.656740665435791
1783203483527180500,2.5111806640625,0.1635303739033639,5.828792078199983,6.808629044491052,0.8545778393745422,-0.7485466003417969,0.6305199861526489
1783203483537117400,2.521117431640625,0.2672325943097472,5.8297051013916725,7.155211362108588,0.7099663615226746,-0.606279730796814,0.626316487789154
1783203483547054300,2.531054443359375,0.1994799314238131,5.701463336881995,7.565120781254768,0.5560398697853088,-0.4704164266586303,0.6349965333938599
1783203483556990500,2.540990478515625,0.0696745708592236,5.6276125032514335,7.922577544108033,0.3813592195510864,-0.3531413972377777,0.6202479600906372
1783203483566927400,2.55092724609375,-0.2343102756559848,5.671664410945773,8.361198678475619,0.1725783050060272,-0.1960929334163665,0.5816819071769714
1783203483576864500,2.560864501953125,-0.5783145594790577,5.718260157904028,8.932116990223527,-0.0559936389327049,-0.0044067003764212,0.5045028924942017
1783203483586801400,2.570801513671875,-0.9212347013272344,5.82795738094151,9.472803245314957,-0.3269463181495666,0.2355060428380966,0.3934512138366699
1783203483596738300,2.58073828125,-1.2691074971467255,5.907552895703912,10.032965185248852,-0.6402133107185364,0.507539689540863,0.2672972381114959
1783203483606675500,2.590675537109375,-1.5274144422009586,5.87139261804223,10.54517236483097,-1.004421591758728,0.7601767182350159,0.1285992860794067
1783203483616611600,2.600611572265625,-1.6804786594085397,5.971193300965428,10.900023913621904,-1.4283281564712524,0.9954907298088074,-0.0282134898006916
1783203483626548200,2.61054833984375,-1.7672136706620454,6.073083065122366,11.087961729681492,-1.902265667915344,1.1617558002471924,-0.202963724732399
1783203483636485400,2.6204853515625,-1.848686231342703,6.168806707865,11.023058757138251,-2.3981857299804688,1.2875123023986816,-0.416078507900238
1783203483646422300,2.63042236328125,-1.8382111606881024,6.2914306324929,10.81386421803832,-2.909411191940308,1.3788235187530518,-0.6568775773048401
1783203483656359400,2.640359375,-1.5130729053765537,6.381470968902111,10.45153312714696,-3.431823968887329,1.4460076093673706,-0.8939726948738098
1783203483666295300,2.65029541015625,-0.9323565454527736,6.318019364210963,9.892395854085684,-3.930084466934204,1.5226507186889648,-1.0891646146774292
1783203483676232400,2.660232421875,-0.1540167321594432,6.026500177645683,9.22958076440692,-4.405972003936768,1.599012017250061,-1.228518009185791
1783203483686169300,2.67016943359375,0.9774524092420936,5.811883613497018,8.419798166960478,-4.824563980102539,1.6659897565841677,-1.300473690032959
1783203483696106500,2.6801064453125,2.1950727341271934,5.6060407229125495,7.251057169926166,-5.164183139801025,1.6583930253982544,-1.3367122411727903
1783203483706043400,2.69004345703125,3.2488395906344056,5.33266801841259,5.591488465946912,-5.432798385620117,1.6271024942398071,-1.3091384172439575
1783203483715980300,2.699980224609375,4.180626811766624,5.052251825141907,3.817342365673184,-5.514628887176514,1.5104613304138184,-1.2376848459243774
1783203483725916400,2.70991650390625,5.05442683109343,4.737062424653768,1.588248265609145,-5.378293037414551,1.4058257341384888,-1.1225849390029907
1783203483735853300,2.719853271484375,5.478645930621028,4.157593142181635,-0.7935948482334614,-5.068890571594238,1.351619005203247,-1.005664944648743
1783203483745790500,2.72979052734375,5.535701696795225,3.442624086895585,-2.770638433289528,-4.657949447631836,1.3549729585647583,-0.8843593001365662
1783203483755727400,2.739727294921875,5.624844792103767,3.0563062634781,-4.35527260005474,-4.228340148925781,1.411784529685974,-0.7229337096214294
1783203483765664300,2.749664306640625,5.904332180091738,2.7073200995892286,-5.385995703974366,-3.8995437622070312,1.5208269357681274,-0.5402011871337891
1783203483775601400,2.759601318359375,6.16570874184966,2.2701146772384644,-5.7798874697774645,-3.77123761177063,1.6355819702148438,-0.3515565991401672
1783203483785537500,2.76953759765625,6.555073385617137,2.3627736717134717,-5.786102106508612,-3.791142225265503,1.6584631204605105,-0.1566606014966964
1783203483795474200,2.77947412109375,6.866909968546032,2.2633694407619536,-6.272987213307618,-3.908496141433716,1.5555790662765503,-0.0258791372179985
1783203483805411300,2.789411376953125,6.815504190957546,2.260520042680204,-7.273595749470591,-4.038156032562256,1.280229568481445,0.0686961039900779
1783203483815348500,2.799348388671875,6.604167963653802,2.2821026366740464,-8.725760304898023,-4.103192329406738,0.8435925841331482,0.1179555431008338
1783203483825285400,2.809285400390625,6.247981366866827,2.19535432754755,-10.388001442956924,-4.076480865478516,0.3447113931179046,0.1538624167442321
1783203483835222500,2.819222412109375,5.791724622565508,2.0839428479380904,-11.754751568210123,-3.9414541721344,-0.1443977952003479,0.2277409583330154
1783203483845158400,2.829158447265625,5.507095195513964,1.7981649815037846,-12.769227886205911,-3.713268995285034,-0.556168794631958,0.32489013671875
1783203483855095300,2.83909521484375,5.160196651554108,1.3882374421790242,-13.422177415430545,-3.4196646213531494,-0.8482576608657837,0.3956096172332763
1783203483865032400,2.849032470703125,4.57116751357615,1.0794051556326447,-13.560276557087898,-3.052623987197876,-1.0095775127410889,0.4546729326248169
1783203483874969600,2.858969482421875,3.911149945661425,0.70389967200011,-13.589762179291249,-2.5753891468048096,-1.0727951526641846,0.4952128827571869
1783203483884906200,2.86890625,3.241908622327447,0.2462634560391306,-13.662932629442214,-1.958513617515564,-1.0419200658798218,0.5203930139541626
1783203483894843400,2.878843505859375,2.664810160639882,-0.2361623332634568,-13.737180937957763,-1.248114824295044,-0.903052031993866,0.5375698208808899
1783203483904779500,2.888779541015625,2.275697299676388,-0.7025505954787135,-13.493164091801642,-0.4928554594516754,-0.6515883803367615,0.5878380537033081
1783203483914716400,2.89871630859375,2.2360556096397337,-1.0947045777037738,-12.863928615641592,0.2571341395378113,-0.339069128036499,0.7062693238258362
1783203483924653300,2.9086533203125,2.446829234624654,-1.4129367068886756,-12.067923199135064,0.950602114200592,-0.0262124277651309,0.8957177996635437
1783203483934590500,2.918590576171875,2.8615304180920123,-1.7019482945472002,-11.143253993314504,1.5337824821472168,0.2095998525619506,1.0982897281646729
1783203483944527400,2.92852734375,3.067841802971065,-1.6521378233261406,-10.11687447155714,1.96275532245636,0.38426673412323,1.3062264919281006
1783203483954464500,2.938464599609375,3.1412679814487694,-1.365744601472467,-9.009069297000766,2.241034030914306,0.4570942223072052,1.4801092147827148
1783203483964400400,2.948400390625,3.1328029354423284,-0.6857819776378572,-8.083504019123316,2.374229669570923,0.4495793282985687,1.6235380172729492
1783203483974337300,2.958337158203125,2.973518966937065,-0.1367205467805266,-7.331770290541648,2.454314947128296,0.3456656038761139,1.7453190088272097
1783203483984274400,2.9682744140625,2.8125290712967512,0.3273135535240173,-6.941679086065292,2.5230190753936768,0.168889507651329,1.846525311470032
1783203483994211300,2.97821142578125,2.665289468589425,0.8920755345992744,-6.731240684384107,2.582040309906006,-0.0532909333705902,1.9054700136184688
1783203484004148500,2.9881484375,2.4126626149982213,1.4745803853750228,-6.393400476148724,2.665034770965576,-0.2651017308235168,1.9234380722045896
1783203484014085400,2.99808544921875,2.1318827029816805,1.931866326593608,-6.013644787725806,2.802975654602051,-0.4386070966720581,1.920717000961304
1783203484024021500,3.008021484375,1.8676516285754736,2.41936547363773,-5.525002023604512,2.986215829849243,-0.5382178425788879,1.91838538646698
1783203484033958400,3.01795849609375,1.6452008636698126,2.734268604530394,-4.835735564851761,3.2049896717071533,-0.544265627861023,1.9430190324783323
1783203484043895600,3.0278955078125,1.52766374078691,2.9478818368554114,-3.9562469784945247,3.419820547103882,-0.4703251123428345,2.0038888454437256
1783203484053832200,3.037832275390625,1.5880065658077596,3.134258394947648,-2.8740362639218566,3.562706232070923,-0.3711784780025482,2.1253581047058105
1783203484063769300,3.047769287109375,1.8524829932771625,3.26089827721864,-1.5945552567988632,3.60024094581604,-0.2728066444396972,2.2887558937072754
1783203484073706500,3.05770654296875,2.0054611396364868,3.3579069913357493,-0.2191840181946754,3.5605385303497314,-0.1859554052352905,2.4453604221343994
1783203484083643400,3.067643310546875,1.888662852422148,3.44610140761733,0.9614882396519184,3.4603099822998047,-0.1425213813781738,2.578615427017212
1783203484093579300,3.077579345703125,1.5490212938532233,3.6059371647864578,1.9346996503233909,3.353321313858032,-0.1383012384176254,2.668529748916626
1783203484103516400,3.087516357421875,1.020702206773311,3.643473699237406,2.640502817857265,3.228450298309326,-0.1734421849250793,2.7036521434783936
1783203484113453300,3.097453369140625,0.3954872913662344,3.801256323269009,3.284585734537244,3.055243730545044,-0.2657719254493713,2.656089305877685
1783203484123390500,3.107390380859375,-0.2722514453850686,4.118425207136571,3.969100030326843,2.8517301082611084,-0.3881191611289978,2.5374865531921387
1783203484133327400,3.117327392578125,-0.9686027478322388,4.355238697785139,4.6173546797335145,2.624070882797241,-0.528016209602356,2.3694183826446533
1783203484143264300,3.12726416015625,-1.6245141956023872,4.479159968747198,5.185629198974371,2.3511264324188232,-0.6642014980316162,2.172546863555908
1783203484153200400,3.137200439453125,-2.1883155149519444,4.524966903415322,5.8083624536335465,2.0735561847686768,-0.7948033809661865,1.9433223009109497
1783203484163137500,3.147137451171875,-2.694353650510311,4.433160726377368,6.321082258912921,1.8054627180099487,-0.8395884037017822,1.7164300680160522
1783203484173074400,3.157074462890625,-2.9678631331324574,4.372973384179175,6.857718361830711,1.564064860343933,-0.8139006495475769,1.5122302770614624
1783203484183011300,3.16701123046875,-3.2466406192854045,4.138929065982997,7.304647305816411,1.361586570739746,-0.7238000631332397,1.317379593849182
1783203484192948200,3.1769482421875,-3.4974566240623592,3.9417397297143935,7.610609443753957,1.189894437789917,-0.5776676535606384,1.1414865255355835
1783203484202885400,3.186885498046875,-3.690243341457844,3.764707046289742,7.843005410221218,1.0531413555145264,-0.4383012950420379,0.9742780923843384
1783203484212822500,3.196822509765625,-3.869509483022988,3.546808683991432,7.903473030665516,0.920788586139679,-0.2964212596416473,0.8111355900764465
1783203484222758400,3.20675830078125,-4.065981026411056,3.403721232527494,7.96016288613677,0.7776492834091187,-0.2115287184715271,0.6317165493965149
1783203484232695300,3.2166953125,-4.252178720805048,3.344441945084929,8.003405231013893,0.6030774712562561,-0.1215892657637596,0.4433431625366211
1783203484242633000,3.226633056640625,-4.4305546355322,3.194356597557664,8.083805632418393,0.3940909802913666,-0.0658567696809768,0.2508293688297272
1783203484252569900,3.23656982421875,-4.562085504715144,3.0352292809188364,8.121843394389748,0.176318809390068,-0.0266753360629081,0.0658919662237167
1783203484262507000,3.246507080078125,-4.657110936060548,2.816387792551517,8.07355487203896,-0.016468483954668,-0.0088555933907628,-0.1202488839626312
1783203484272444000,3.25644384765625,-4.7573359818756575,2.6293922257781026,7.924959470808505,-0.1751464754343032,0.0433202311396598,-0.3036147356033325
1783203484282379800,3.2663798828125,-4.8440983195275065,2.5219156013995407,7.840527621930837,-0.3109122812747955,0.1526160836219787,-0.4855200946331024
1783203484292317000,3.27631689453125,-4.971885910528898,2.2298154000759123,7.866916447162628,-0.4327698945999145,0.2835609912872314,-0.6776235103607178
1783203484302254000,3.286254150390625,-4.976738026735187,2.1133342159867285,7.906883715891838,-0.5730952620506287,0.4348525106906891,-0.8334466218948364
1783203484312191000,3.29619091796875,-4.704713521973789,1.9861162415668367,8.023544932723045,-0.7954021692276001,0.5568944215774536,-0.9109658002853394
1783203484322128000,3.3061279296875,-4.030736694550514,1.882922993595898,8.15507638642788,-1.1315213441848757,0.6195858120918274,-0.9328351616859436
1783203484332064800,3.316064697265625,-3.5194998213052746,1.9005776004910468,8.273992688709496,-1.5514808893203735,0.6286782026290894,-0.9333218336105348
1783203484342002000,3.326001953125,-3.46738151153326,1.7749331589981912,8.221357661587,-2.067265272140503,0.6188700795173645,-0.9230758547782898
1783203484351938000,3.33593798828125,-3.5172529191613195,1.7840771271795033,8.172685692876577,-2.6750762462615967,0.5212726593017578,-0.941142201423645
1783203484361875000,3.345875,-3.4630560495495795,2.28659965583235,7.8420491324096915,-3.2758235931396484,0.3801368474960327,-0.9762775897979736
1783203484371811800,3.355811767578125,-3.49190688098073,2.860025274226069,7.091774370464682,-3.814309597015381,0.3000776767730713,-1.0718300342559814
1783203484381749000,3.3657490234375,-3.7660783346429465,3.299413593573868,6.254405262434482,-4.279861927032471,0.3058186769485473,-1.269798994064331
1783203484391686000,3.375685791015625,-3.8875422755807634,3.927529418054223,5.305749616348743,-4.64398717880249,0.3664235472679138,-1.5255494117736816
1783203484401623000,3.385623046875,-3.6414679123729465,4.414008866661787,4.249287675538659,-4.895971298217773,0.4615039825439453,-1.7869937419891355
1783203484411560000,3.395559814453125,-3.084974724079669,4.612074108982086,3.0507465835243464,-5.128881931304932,0.5036500096321106,-1.9879608154296875
1783203484421495800,3.405495849609375,-2.083736803971976,4.690930788075924,1.953945033541321,-5.332365036010742,0.447481244802475,-2.0922200679779053
1783203484431433000,3.415432861328125,-0.9301098625045268,4.442662714216113,0.8522919518738985,-5.495996952056885,0.3110680282115936,-2.085226058959961
1783203484441370000,3.4253701171875,0.1796301525719463,4.21103305594623,-0.2763561042249202,-5.644798278808594,0.2223762273788452,-2.0619513988494877
1783203484451306800,3.435306640625,0.7083029484603554,4.245019496700167,-1.1850853981137277,-5.824095726013184,0.2190063446760177,-2.077361583709717
1783203484461244000,3.445243896484375,0.989365622941032,4.677983920480311,-1.9944939015507697,-5.9832444190979,0.2341592013835907,-2.108757734298706
1783203484471180800,3.455180908203125,1.4322421497307718,5.449894467911124,-3.3308512266278263,-5.991860866546631,0.1969580054283142,-2.138505458831787
1783203484481118000,3.465117919921875,1.7100298941940069,5.95617751814127,-5.638578133901953,-5.761155128479004,0.0898576527833938,-2.1864500045776367
1783203484491053800,3.4750537109375,1.7938892038807273,6.36606764806509,-8.497291741007565,-5.292394161224365,-0.1183783188462257,-2.2493491172790527
1783203484500991000,3.484990966796875,1.822821576115489,6.484352082183957,-11.404693098914622,-4.6421799659729,-0.3601613938808441,-2.323673248291016
1783203484510928000,3.494927978515625,1.848884530393779,6.488883880394697,-13.537940806639194,-3.9176297187805176,-0.5492612719535828,-2.380265474319458
1783203484520865000,3.504864990234375,2.092096928299218,6.215346340721846,-14.52140239316821,-3.1743035316467285,-0.631057858467102,-2.3916983604431152
1783203484530802000,3.514802001953125,2.4449209167852994,5.583173642066121,-14.615612124216556,-2.397660732269287,-0.5953543186187744,-2.337543487548828
1783203484540738800,3.52473876953125,2.8463220353052017,4.732130228948593,-14.325622631436586,-1.6041340827941897,-0.3957197368144989,-2.2279460430145264
1783203484550676000,3.534676025390625,3.139129215854406,3.8325203533217302,-13.511384808146952,-0.8250768780708313,-0.0412634499371051,-2.0853869915008545
1783203484560611800,3.54461181640625,3.3457655949041247,2.82750802924186,-12.27375439928174,-0.0891061797738075,0.3958379924297333,-1.898275375366211
1783203484570549000,3.554549072265625,3.5661794471547004,1.7478730103760958,-10.943203714656828,0.577380359172821,0.8141189217567444,-1.6877304315567017
1783203484580486000,3.56448583984375,3.825810918810964,0.7897922410801053,-9.743560798880456,1.1263362169265747,1.1239646673202517,-1.4772815704345703
1783203484590422800,3.5744228515625,4.049457469372451,0.0586716769382357,-8.610038999265432,1.515552282333374,1.2912224531173706,-1.252177596092224
1783203484600360000,3.58435986328125,4.214272183997929,-0.5053013457164168,-7.539440981075167,1.771906852722168,1.324841856956482,-1.0358269214630127
1783203484610297000,3.594297119140625,4.323825322389602,-0.9095064157411455,-6.6318088347733015,1.9362151622772217,1.2621971368789673,-0.8278294205665588
1783203484620234000,3.60423388671875,4.326808722114563,-1.0922621529877186,-5.910392503044009,2.0463755130767822,1.1643158197402954,-0.6326210498809814
1783203484630169900,3.614169921875,4.15080362817198,-1.1666323343172669,-5.240016622722148,2.133989095687866,1.0668431520462036,-0.4600291848182678
1783203484640107000,3.62410693359375,3.8397278004825113,-1.0348717480316758,-4.612766767421364,2.2126457691192627,0.9973599910736084,-0.3152903914451599
1783203484650044000,3.6340439453125,3.4824840958580374,-0.7262859835922718,-3.992360494405031,2.268357992172241,0.9538366198539734,-0.1862180978059768
1783203484659981000,3.64398095703125,3.100800946503877,-0.351769949388504,-3.366283190014958,2.319650173187256,0.9214972853660583,-0.0733235031366348
1783203484669917700,3.653917724609375,2.7151152835100887,0.1056689904347062,-2.8493875603556638,2.3473832607269287,0.8909216523170471,0.0178148634731769
1783203484679854800,3.663854736328125,2.422045652632415,0.5349219924762845,-2.361872923481464,2.3401849269866943,0.8148860335350037,0.1132068932056427
1783203484689792000,3.6737919921875,2.1738556124448776,0.8471766546867787,-1.941885177913308,2.31701135635376,0.7006399631500244,0.1851341724395752
1783203484699729000,3.68372900390625,1.923733873542398,1.1040671570718288,-1.621859443309903,2.28033185005188,0.580220103263855,0.2351509928703308
1783203484709664800,3.693664794921875,1.6487524186715483,1.2671721451699731,-1.3045815461099146,2.23810076713562,0.4347317218780517,0.2497023493051529
1783203484719602000,3.703601806640625,1.3409820622682571,1.4352610591605304,-1.081056283840537,2.1829264163970947,0.3120169639587402,0.2461526244878769
1783203484729538800,3.713538818359375,1.0786349019125103,1.5452027584783732,-0.8314192597150802,2.131747245788574,0.1899793893098831,0.2209456712007522
1783203484739476000,3.72347607421875,0.926833398117125,1.7429343849301338,-0.6159487090855836,2.090498447418213,0.0958715379238128,0.2066857814788818
1783203484749412900,3.733412841796875,0.911546835527569,1.764508211095631,-0.4758732989192009,2.0656025409698486,-0.0078424736857414,0.206379160284996
1783203484759349800,3.743349853515625,1.0044114355772733,1.7630533361122012,-0.4308768038511276,2.050138235092163,-0.0867300927639007,0.2163108885288238
1783203484769287000,3.753286865234375,1.0737918457955122,1.8298697410613296,-0.3829641290754079,2.052454710006714,-0.1680376082658767,0.2346490025520324
1783203484779223000,3.76322314453125,1.215891601396352,1.9000449549190697,-0.4236281478971243,2.0921099185943604,-0.2735531032085418,0.2933014035224914
1783203484789159700,3.77315966796875,1.4638538241773842,1.9183539340697229,-0.574352962371707,2.153491258621216,-0.4225006699562073,0.3866716623306274
1783203484799096800,3.783096923828125,1.7606978590272366,1.8667489806473252,-0.6411725821912289,2.2267374992370605,-0.5570552945137024,0.4845300614833832
1783203484809034000,3.793033935546875,1.8867003201775248,1.9260553022272884,-0.4471253433406352,2.318287134170532,-0.598953127861023,0.590811550617218
1783203484818971000,3.802970947265625,1.8872071006558837,2.013555452634394,0.1023819315880537,2.378599166870117,-0.5577647089958191,0.6916904449462891
1783203484828908000,3.812907958984375,1.9048422721982,2.145318084746599,0.8172410967588424,2.422236680984497,-0.4891290366649627,0.8224003911018372
1783203484838844700,3.8228447265625,2.022969323798269,2.2452502850949765,1.4361176759898662,2.439030408859253,-0.4185433089733124,0.9730842113494872
1783203484848781800,3.83278173828125,2.213498763786256,2.183771441781521,1.8817530730336904,2.439755916595459,-0.3483862578868866,1.1524481773376465
1783203484858718000,3.842718017578125,2.3355492724403737,2.230922192274034,2.290456038999557,2.422106504440308,-0.3421469926834106,1.3528119325637815
1783203484868654800,3.85265478515625,2.416243688355386,2.175106343158334,2.5454490372002123,2.399868488311768,-0.3851613402366638,1.5399577617645264
1783203484878591700,3.862591796875,2.3932024199858306,2.2880869717806576,2.75588276270628,2.3865599632263184,-0.3879299759864807,1.700009822845459
1783203484888529000,3.87252880859375,2.0588386556893585,2.4498249093092976,3.189577546587586,2.37796688079834,-0.3651666641235351,1.8226797580718996
1783203484898465800,3.8824658203125,1.753456363466382,2.594716049194336,3.676676003876328,2.350874900817871,-0.3266514837741852,1.917457699775696
1783203484908403000,3.89240283203125,1.4753086996495723,2.77889538950324,4.2778596900284285,2.280558586120605,-0.2507151365280151,2.01167631149292
1783203484918339800,3.90233984375,1.2661983317017556,2.849232662054896,4.993561735764145,2.1486918926239014,-0.1534588932991027,2.117761373519897
1783203484928276700,3.91227685546875,1.1533148798435926,2.9221202036112546,5.848276530870795,1.92113196849823,-0.0442595370113849,2.202791929244995
1783203484938212900,3.922212890625,0.9829451614394784,3.117762894959748,6.715006173419952,1.583173155784607,0.0417270101606845,2.256265878677368
1783203484948150000,3.93214990234375,0.734237454053387,3.443571304617822,7.490346403038501,1.1558961868286133,0.1251408159732818,2.2898972034454346
1783203484958087000,3.9420869140625,0.4211673107415437,3.6671973969131706,8.154781787395477,0.6612889170646667,0.1664666831493377,2.280517339706421
1783203484968023800,3.95202392578125,-0.0045734819279983,3.865925487056374,8.57703046363294,0.1275246292352676,0.1505222618579864,2.212827444076538
1783203484977960700,3.961960693359375,-0.5468582582572474,4.19009986577183,8.726528366661071,-0.4245912730693817,0.0820031315088272,2.09338927268982
1783203484987897900,3.97189794921875,-1.2045477120179682,4.397188372503221,8.718131125193834,-0.9541539549827576,-0.0185388606041669,1.9187769889831543
1783203484997835000,3.9818349609375,-1.9795596595302225,4.508754019761085,8.58273715084195,-1.3837218284606934,-0.0478179231286048,1.6948435306549072
1783203485007772000,3.99177197265625,-2.7369442534804342,4.430700766004621,8.327107023781538,-1.7120405435562134,0.0416500754654407,1.438995122909546
1783203485017707800,4.001707763671875,-3.3657568280532955,4.6451326212361455,8.15046976941526,-1.9246302843093872,0.2584913074970245,1.159321427345276
1783203485027645000,4.01164501953125,-3.783516668438912,4.923367086553573,7.94058023378849,-2.0377752780914307,0.5655054450035095,0.8909353017807007
1783203485037581800,4.021581787109375,-3.932885099868476,5.095023629897833,7.5815166202604765,-2.130690813064575,0.872998833656311,0.650166392326355
1783203485047519000,4.03151904296875,-3.8385976274088014,5.313487517124414,7.277593879196047,-2.2534072399139404,1.1459873914718628,0.4096890389919281
1783203485057455900,4.041455810546875,-3.675307930393517,5.5354865927398205,6.992536582121253,-2.41998028755188,1.366760015487671,0.1638460010290146
1783203485067392800,4.051392822265625,-3.4955966754093764,5.692701938277483,6.682005821093917,-2.6106863021850586,1.533380150794983,-0.0807594880461692
1783203485077330000,4.061329833984375,-3.3342736022919413,5.677815919312835,6.273519712749123,-2.77164888381958,1.67227303981781,-0.3232421875
1783203485087266800,4.071266845703125,-3.2040546924903985,5.659633196890354,5.701820479756593,-2.923013210296631,1.8166745901107788,-0.5762284994125366
1783203485097202700,4.08120263671875,-3.0275881185159084,5.574477709913253,5.16524516711533,-3.075922727584839,1.952448844909668,-0.8451910018920898
1783203485107139800,4.091139892578125,-2.7436072185009714,5.479892715811729,4.656850239297747,-3.21561336517334,2.0736963748931885,-1.112291932106018
1783203485117077000,4.101076904296875,-2.349910390748084,5.2893742356091735,3.9126083277761934,-3.354952335357666,2.180997133255005,-1.3571531772613523
1783203485127014000,4.111013916015625,-1.7311013237953186,4.955141111955046,3.07149711060822,-3.516809225082397,2.2310585975646973,-1.5946946144104004
1783203485136951000,4.120950927734375,-1.0738896070815622,4.648277056741714,2.169302186924219,-3.6805105209350586,2.189927577972412,-1.7990400791168213
1783203485146887700,4.1308876953125,-0.2504294896773993,4.296060240368544,0.98815471278131,-3.826082706451416,2.049736738204956,-1.9681684970855715
1783203485156824800,4.140824951171875,0.6919757177114486,3.800284555627405,-0.4520119463384151,-3.9271512031555176,1.7890222072601318,-2.077179431915283
1783203485166762000,4.150761962890625,1.6198349517449735,3.138913527277112,-2.064722453030944,-3.979655742645264,1.4228445291519165,-2.093818664550781
1783203485176697900,4.16069775390625,2.630565361210704,2.4852552652612325,-3.5885949848413463,-3.990246534347534,1.0195554494857788,-2.043911457061768
1783203485186634800,4.170634765625,3.475442068392038,1.9371473357364533,-4.804210545775294,-3.974663496017456,0.6268338561058044,-1.956395983695984
1783203485196572000,4.180572021484375,3.958044383305311,1.5685823188915848,-5.718178324839473,-3.924049854278565,0.3261321187019348,-1.8396393060684204
1783203485206508800,4.1905087890625,4.245596419805288,1.1277022996813058,-6.436091616883874,-3.849423408508301,0.0716869309544563,-1.662967562675476
1783203485216446000,4.200446044921875,4.8118449861764905,0.7790776625812054,-7.095569671094417,-3.7212982177734375,-0.160780131816864,-1.4258253574371338
1783203485226382800,4.2103828125,5.205727984151244,0.4499731339871883,-7.886762134361267,-3.5037081241607666,-0.3645920753479004,-1.1863049268722534
1783203485236319700,4.22031982421875,5.12938182657361,0.116232762286067,-8.773710973596572,-3.194976329803467,-0.5176551342010498,-0.9838463664054872
1783203485246256600,4.230256591796875,4.747085221496224,0.0034913492470979,-9.532019988915325,-2.8070316314697266,-0.6082507371902466,-0.8073463439941406
1783203485256193500,4.240193603515625,4.378732386097312,-0.2391524549901485,-10.063284335666896,-2.348966598510742,-0.6441469788551331,-0.6415024995803833
1783203485266129400,4.25012939453125,4.207815262943506,-0.3759939978018403,-10.38834514182806,-1.843350887298584,-0.6425431370735168,-0.48538339138031
1783203485276066600,4.260066650390625,4.053044972470403,-0.4811725743710994,-10.564012674379349,-1.314071536064148,-0.6188106536865234,-0.3264464735984802
1783203485286003700,4.270003662109375,4.018697589449585,-0.5901069963425397,-10.52295702589154,-0.7968354225158691,-0.5745000243186951,-0.1594883203506469
1783203485295940600,4.279940673828125,4.083941630515456,-0.6076011519789696,-10.192079057884216,-0.3068236708641052,-0.5102632641792297,0.0281667970120906
1783203485305877500,4.28987744140625,4.267997636705637,-0.6405640949040651,-9.619529345542192,0.131462886929512,-0.4594818949699402,0.2496091425418853
1783203485315814400,4.299814453125,4.5574248194277285,-0.7358528533607721,-8.906982548967003,0.4860393702983856,-0.4356293082237243,0.4639232754707336
1783203485325751600,4.30975146484375,4.647541435943544,-0.8097691534429788,-8.038139859786629,0.7427718639373779,-0.4059481918811798,0.6385459303855896
1783203485335688700,4.319688720703125,4.49785385556221,-0.6824497644752263,-7.022991341617703,0.9631271362304688,-0.3839257061481476,0.7777698636054993
1783203485345624300,4.329624267578125,4.320334557664395,-0.5322337763056159,-6.269308232533931,1.149070382118225,-0.3774140179157257,0.8633861541748047
1783203485355561500,4.3395615234375,4.016619029609859,-0.4182362257257103,-5.676598944738507,1.291484236717224,-0.3609610199928283,0.9191450476646424
1783203485365498600,4.34949853515625,3.7322850783735513,-0.3618737025126814,-4.976455702662467,1.4067989587783811,-0.3536107242107391,0.9542644023895264
1783203485375435500,4.359435546875,3.5581723740488287,-0.2838219100609421,-4.324616180506348,1.5043214559555054,-0.3463309705257416,0.9799982905387878
1783203485385372400,4.369372314453125,3.460490582975745,-0.2881076245561242,-3.773542386913299,1.5674759149551392,-0.323368102312088,1.0237140655517578
1783203485395309600,4.3793095703125,3.429207263700664,-0.3921764863178134,-3.208467540496588,1.6130691766738892,-0.2932754456996918,1.083620309829712
1783203485405246500,4.38924658203125,3.4419238296717403,-0.4084782172992825,-2.703625921246409,1.6385160684585571,-0.2354212552309036,1.1504117250442505
1783203485415183600,4.39918359375,3.3489918634742497,-0.4790513444334268,-2.3402093732059,1.6734474897384644,-0.1743741482496261,1.208561658859253
1783203485425120500,4.40912060546875,3.170098354613781,-0.331799466766417,-2.245677570596337,1.70798921585083,-0.1295308470726013,1.2611944675445557
1783203485435057400,4.419057373046875,3.02915171457082,-0.2012178611323237,-2.260989121496677,1.7717527151107788,-0.1352201551198959,1.3204234838485718
1783203485444993500,4.42899365234375,2.8637194525688887,-0.2351975798845291,-2.553375738546252,1.876875042915344,-0.1819814443588256,1.38377845287323
1783203485454930400,4.438930419921875,2.757272171238065,-0.2247469130188226,-2.890445546931028,1.9729243516922,-0.2299380600452423,1.4470815658569336
1783203485464867600,4.44886767578125,2.6721540936619044,-0.0140948685869574,-2.927724599489569,2.084766149520874,-0.2789117991924286,1.5167322158813477
1783203485474804500,4.458804443359375,2.649692086485028,0.1072623971059918,-2.9601550429731605,2.2259981632232666,-0.3142010867595672,1.5939583778381348
1783203485484741400,4.468741455078125,2.522746791526675,0.2056897458493709,-2.96028656039834,2.38173770904541,-0.2987090945243835,1.667675495147705
1783203485494678500,4.478678466796875,2.345252189678699,0.296440860876441,-2.714354236009717,2.536454200744629,-0.2454373389482498,1.752363204956055
1783203485504615400,4.488615478515625,2.240975822646171,0.4386196730628609,-2.3781132796645164,2.7088623046875,-0.1539652645587921,1.8486013412475584
1783203485514552600,4.498552490234375,2.15552646728903,0.576406095509231,-2.038965495961905,2.88897705078125,-0.0310997907072305,1.9518033266067505
1783203485524489500,4.508489501953125,2.010362063420564,0.6827512316398322,-1.671853016012907,3.063225507736206,0.1067230328917503,2.0795016288757324
1783203485534425600,4.518425537109375,1.9564863885872064,0.7753212326571345,-1.23051210129261,3.220622062683105,0.2312423288822174,2.218985319137573
1783203485544362500,4.528362548828125,1.9081682017505168,1.0369542533941567,-0.7624521064728498,3.3443102836608887,0.3412676453590393,2.3757874965667725
1783203485554299600,4.538299560546875,1.7850846967868506,1.1464724666029211,-0.2129343101501464,3.4247281551361084,0.4123346209526062,2.5332491397857666
1783203485564236300,4.548236328125,1.5116718064069747,1.3976609579540789,0.3683195176512002,3.4590539932250977,0.4478377997875213,2.6429073810577397
1783203485574173400,4.55817333984375,1.0689471822433172,1.7586339122347532,0.9501303948134184,3.448134422302246,0.4401210248470306,2.7118399143218994
1783203485584110600,4.568110595703125,0.449786233112961,2.1222040434017777,1.5426386070787903,3.35596227645874,0.3683848083019256,2.7148585319519043
1783203485594047500,4.578047607421875,-0.2940961974464356,2.5077269170492884,2.278203875669837,3.170775413513184,0.22417913377285,2.6392416954040527
1783203485603984600,4.587984619140625,-1.0341393421038985,2.873143698996305,3.0839649625152346,2.901838779449463,0.0292957052588462,2.509477138519287
1783203485613921300,4.59792138671875,-1.708279397264868,3.013256810824573,3.8740415734946727,2.583810329437256,-0.1838866174221038,2.363544225692749
1783203485623858400,4.6078583984375,-2.257299765459448,3.057352849921584,4.714838902407885,2.239035129547119,-0.3645821213722229,2.194325685501098
1783203485633794600,4.617794677734375,-2.6717174558103083,3.048443567278981,5.513500970903039,1.9192166328430176,-0.4886771738529205,2.047112226486206
1783203485643731700,4.627731689453125,-3.0135321206346157,2.957168720638752,6.144759477323293,1.6398133039474487,-0.519504964351654,1.913609743118286
1783203485653668400,4.63766845703125,-3.298700184607505,2.7518802490666507,6.705131845137476,1.4092330932617188,-0.4725006818771362,1.7978200912475586
1783203485663605500,4.64760546875,-3.556383737066388,2.634868611362577,7.187786182498932,1.2159743309020996,-0.3353011906147003,1.7017607688903809
1783203485673542400,4.65754248046875,-3.802118785317242,2.4555530776977537,7.656831681224704,1.035190463066101,-0.1565418392419815,1.6364243030548096
1783203485683479600,4.6674794921875,-3.874240310937166,2.424522564139962,8.112352512466908,0.8173818588256836,0.0471048504114151,1.5668715238571167
1783203485693416700,4.677416748046875,-3.8492163443177936,2.658780232825875,8.599965933540464,0.5359357595443726,0.2524446845054626,1.5132030248641968
1783203485703353300,4.687353271484375,-3.797135151685774,2.9323759324267504,8.995094547662138,0.1938164681196212,0.4043877124786377,1.4503092765808103
1783203485713290500,4.69729052734375,-3.833647896046936,3.2025054172217846,9.140211459127068,-0.212678849697113,0.468809574842453,1.3639205694198608
1783203485723226600,4.7072265625,-3.9123604904949674,3.659768123695254,8.915205018389225,-0.6393678188323975,0.4511905312538147,1.2343162298202517
1783203485733163500,4.71716357421875,-4.202527677929401,4.111121021603048,8.423904433235526,-1.033887267112732,0.381226897239685,1.0647895336151123
1783203485743100400,4.727100341796875,-4.388517282530665,4.600165644523501,7.617183561447263,-1.3829364776611328,0.3281226754188537,0.8578187227249146
1783203485753037600,4.73703759765625,-4.582128760312497,5.006689512884616,6.805503605946898,-1.6748114824295044,0.3179797828197479,0.6180106401443481
1783203485762974500,4.746974365234375,-4.693723341403901,5.337714195886254,5.952137887361645,-1.9467278718948364,0.3541795313358307,0.3562098741531372
1783203485772911600,4.75691162109375,-4.631926518182456,5.65542580832839,5.121445772877335,-2.1831743717193604,0.430928111076355,0.0755305662751197
1783203485782848500,4.7668486328125,-4.436658797626197,5.94589986975491,4.1595431072056295,-2.382540464401245,0.4779430031776428,-0.1805137544870376
1783203485792785400,4.776785400390625,-3.878934606233239,6.222042623490095,2.9591204392284154,-2.515911817550659,0.4866635203361511,-0.3955163657665252
1783203485802722600,4.78672265625,-3.2236808917194604,6.2442521172106265,1.5888912396878003,-2.550155639648437,0.4706529974937439,-0.5599786639213562
1783203485812659500,4.796659423828125,-2.47618728492558,6.201055949562788,0.2179962697148323,-2.5119171142578125,0.4443971514701843,-0.7004609704017639
1783203485822596600,4.8065966796875,-1.747829463495314,6.225999836683273,-0.9452741869539022,-2.431790590286255,0.4420332610607147,-0.8226675987243652
1783203485832532500,4.816532470703125,-1.132024108403176,6.052623629939556,-1.8227648774921892,-2.318770170211792,0.4169740080833435,-0.93849116563797
1783203485842469400,4.826469482421875,-0.668285630044341,5.863213987761736,-2.5713532937854526,-2.1655428409576416,0.4067713022232055,-1.0765659809112549
1783203485852406500,4.836406494140625,-0.3213400320723653,5.522069477283955,-3.162481449869275,-1.9852086305618288,0.4010069072246551,-1.2037410736083984
1783203485862343400,4.846343505859375,0.0800116943478584,4.987294492062926,-3.579633679750561,-1.8099273443222048,0.3806163072586059,-1.296400785446167
1783203485872280600,4.856280517578125,0.6452601437658071,4.227519495844841,-3.7530735993802544,-1.6498808860778809,0.3357255458831787,-1.3397825956344604
1783203485882217500,4.866217529296875,1.250974020693451,3.3303555520653725,-3.76941975402534,-1.5238085985183716,0.3037917912006378,-1.3365426063537598
1783203485892154400,4.876154296875,1.851883712209761,2.3822741987362503,-3.5964638185203075,-1.4359440803527832,0.2851981222629547,-1.3057445287704468
1783203485902091500,4.886091552734375,2.371343931660056,1.4719460913486777,-3.2377631930857893,-1.390575885772705,0.2769154906272888,-1.257083773612976
1783203485912028700,4.896028564453125,2.7814184782400724,0.6187102827534079,-2.9432056617379185,-1.3534332513809204,0.2787107229232788,-1.1929506063461304
1783203485921965600,4.905965576171875,3.152029321698844,-0.2270430611319839,-2.8262644589215515,-1.3252360820770264,0.2570531964302063,-1.1083674430847168
1783203485931901400,4.9159013671875,3.4918484287917613,-1.067098777897656,-2.766503525441885,-1.2973103523254397,0.2121605277061462,-1.0059049129486084
1783203485941838600,4.925838623046875,3.867954947057366,-1.7933315699979662,-2.900175498306751,-1.2224647998809814,0.1429250836372375,-0.8887941837310791
1783203485951775500,4.935775390625,4.07598921020627,-2.436689971795678,-3.1220833885073658,-1.1147689819335938,0.1036053597927093,-0.7574127316474915
1783203485961712600,4.945712646484375,4.233160716602206,-2.90579100010097,-3.2333494682967663,-0.9778633713722228,0.0963882207870483,-0.6159543395042419
1783203485971649500,4.9556494140625,4.312504594691098,-3.144961575269699,-3.184490452581644,-0.83746337890625,0.1410438418388366,-0.4590015411376953
1783203485981586400,4.96558642578125,4.38853686401397,-3.202741271804273,-2.9998446638047693,-0.7045220136642456,0.2255516946315765,-0.2916075587272644
1783203485991523600,4.975523681640625,4.4192014668688175,-3.1627707882046696,-2.797563265094161,-0.5817747712135315,0.3207240104675293,-0.1182301789522171
1783203486001460500,4.98546044921875,4.422575034955144,-3.0525737989515065,-2.703393866056204,-0.5108129978179932,0.3802001476287842,0.0286623556166887
1783203486011397600,4.995397705078125,4.404226016055048,-2.844262472426891,-2.6649808410316704,-0.465847909450531,0.3597478866577148,0.1607492864131927
1783203486021334500,5.00533447265625,4.414552472019195,-2.682548354165256,-2.907465655314922,-0.4123550355434418,0.2355465143918991,0.2872914373874664
1783203486031271400,5.015271484375,4.545719768586754,-2.456195759515464,-3.3228502910017967,-0.3490335941314697,0.0813913121819496,0.4054215550422668
1783203486041207600,5.02520751953125,4.497031725524366,-2.345499442438036,-3.5370465839117764,-0.2797454297542572,-0.0598927401006221,0.5144594311714172
1783203486051144700,5.035144775390625,4.422002495764196,-2.206643491064012,-3.4986341434091326,-0.2138252705335617,-0.141484260559082,0.6302691102027893
1783203486061081300,5.045081298828125,4.39189201966077,-2.119256153381616,-3.2462510354459284,-0.1466947048902511,-0.1812585741281509,0.7608364820480347
1783203486071018500,5.0550185546875,4.45574139149785,-1.950752228849381,-3.033592035105824,-0.0620189607143402,-0.2060627192258834,0.9060892462730408
1783203486080955400,5.064955322265625,4.520706615622341,-1.763076863118261,-3.023337767595053,0.0377422906458377,-0.22944937646389,1.0545984506607056
1783203486090892500,5.074892578125,4.507823460912705,-1.508432824485749,-3.048829936248064,0.1495439261198043,-0.2382830828428268,1.1985780000686646
1783203486100829700,5.08482958984375,4.441199655926227,-1.2053780984275042,-3.0199995630830525,0.2338844984769821,-0.2413434535264969,1.338505744934082
1783203486110766300,5.094766357421875,4.376264534679055,-0.9093960872344672,-2.954289950332045,0.3104567527770996,-0.2456756085157394,1.4578582048416138
1783203486120703500,5.104703369140625,4.2744098418354985,-0.5316868099473416,-3.005700404095649,0.3596110343933105,-0.269931435585022,1.5625406503677368
1783203486130640400,5.114640380859375,4.198955664661527,-0.1913881026439368,-3.163171185699105,0.3817456364631653,-0.3382982313632965,1.6473537683486938
1783203486140577500,5.12457763671875,4.203047902411222,0.1148304212074726,-3.4347985078364607,0.4104759693145752,-0.4633153975009918,1.7261790037155151
1783203486150513400,5.134513427734375,4.283372900491953,0.4316298141755163,-3.858181741061807,0.4659075438976288,-0.5800175666809082,1.796844720840454
1783203486160450600,5.144450439453125,4.301181528905034,0.6606319734860211,-4.256906333848834,0.5556058287620544,-0.6747180223464966,1.864242434501648
1783203486170387500,5.154387451171875,4.29606900819689,0.8440235244181007,-4.460190772122145,0.6732707023620605,-0.7676802277565002,1.9266278743743896
1783203486180324600,5.16432470703125,4.401405405676365,1.1861886101152748,-4.662479769617319,0.8068752288818359,-0.8021355271339417,2.016664505004883
1783203486190261500,5.174261474609375,4.488279971531033,1.1874048540372402,-4.628151968079805,0.9694974422454834,-0.8174439072608948,2.124761819839477
1783203486200198400,5.184198486328125,4.572280443254113,1.4042141789898277,-4.593666930153966,1.1588902473449707,-0.7741384506225586,2.239675760269165
1783203486210135600,5.194135498046875,4.509324805386364,1.61425598256886,-4.4344437519252295,1.3426512479782104,-0.6962471008300781,2.35367488861084
1783203486220072400,5.204072509765625,4.328437784621119,1.8999479242853816,-4.186368570289016,1.546236276626587,-0.5992200970649719,2.450083017349243
1783203486230009600,5.214009521484375,4.009517965433001,2.1318778806760905,-3.976653222185373,1.7821478843688965,-0.4784510731697082,2.539005994796753
1783203486239946500,5.223946533203125,3.585030570358038,2.296612515802681,-3.719150286990404,2.006868839263916,-0.2996419668197632,2.601710081100464
1783203486249883100,5.233883056640625,3.114491325943172,2.512228320121765,-3.211885239985585,2.179253101348877,-0.1175099611282348,2.661613941192627
1783203486259820300,5.2438203125,2.752088046598434,2.7805086699187758,-2.627033679953217,2.318676471710205,0.0567969270050525,2.728058099746704
1783203486269756200,5.253756103515625,2.414504589603096,2.9256355182558296,-2.199702001363039,2.414070606231689,0.2146416902542114,2.793524742126465
1783203486279693000,5.263693115234375,2.114075243612379,3.133159493795037,-1.812353373593092,2.486795663833618,0.3455927968025207,2.868192434310913
1783203486289630200,5.273630126953125,1.7584335673570632,3.335522433309257,-1.5124240860790013,2.5447893142700195,0.4719312787055969,2.944699048995972
1783203486299567000,5.283567138671875,1.3342822723686694,3.5326787440910934,-1.2056903792470692,2.5706121921539307,0.6000558137893677,3.0073564052581787
1783203486309504000,5.29350390625,0.87258494444862,3.8413705992534752,-0.9001952742993831,2.534862279891968,0.7155650854110718,3.0391526222229004
1783203486319441200,5.303441162109375,0.386086060488224,4.181964782372117,-0.6176297940403223,2.39690375328064,0.7915926575660706,3.036163806915283
1783203486329378000,5.3133779296875,0.0030792613148689,4.527863793900608,-0.4828191725343465,2.250776529312134,0.7501999139785767,3.019335985183716
1783203486339315200,5.323315185546875,-0.2328932484649121,4.71137853282094,-0.9104448656350372,2.174570083618164,0.6320544481277466,2.9944264888763428
1783203486349252000,5.333252197265625,-0.3928687063656747,4.832007191978395,-1.7530881146758794,2.17077374458313,0.4762366116046905,2.95290756225586
1783203486359189000,5.34318896484375,-0.6591349398612976,5.102968451422453,-2.4358938529819247,2.243860244750977,0.3455711007118225,2.8764801025390625
1783203486369126100,5.353126220703125,-1.1111885333843528,5.482507866746187,-2.767701210793853,2.3900036811828613,0.3026326894760132,2.780057430267334
1783203486379063000,5.36306298828125,-1.6925962365731595,5.82305207324326,-2.7840467809170484,2.6005921363830566,0.3450611233711242,2.697749137878418
1783203486389000200,5.373000244140625,-2.18791336389184,6.035068099504709,-2.504976741558313,2.8043553829193115,0.4978996515274048,2.63006329536438
1783203486398936000,5.38293603515625,-2.5786250383540987,6.360766034525632,-1.906439186000824,2.959336757659912,0.6822154521942139,2.534294843673706
1783203486408873000,5.392873046875,-2.896699346628785,6.886863792294263,-1.221927812820673,3.0377957820892334,0.9110276103019714,2.4609315395355225
1783203486418810000,5.40281005859375,-3.265517169190943,7.019813296103477,-0.435672805956006,3.0512235164642334,1.1164478063583374,2.3803834915161133
1783203486428747300,5.412747314453125,-3.608098726734519,7.303322779214381,0.1859416738063097,2.985260248184204,1.2817797660827637,2.2791454792022705
1783203486438684200,5.42268408203125,-3.8767067010506975,7.472168941313028,0.6040986968159675,2.873699426651001,1.341762661933899,2.169887065887451
1783203486448621000,5.43262109375,-4.111191456490755,7.639675963762402,0.8017758166015148,2.7166521549224854,1.3068872690200806,2.04901385307312
1783203486458558200,5.44255810546875,-4.3847935858324165,7.712664627605676,0.9405594333916902,2.523248672485352,1.1882411241531372,1.8935542106628416
1783203486468495000,5.4524951171875,-4.720033548441529,7.769463788670301,1.0954103878855703,2.292834758758545,0.9766724109649658,1.696648359298706
1783203486478432300,5.462432373046875,-5.086220730239153,7.822179479813575,1.362688867163658,2.0361015796661377,0.6985858082771301,1.4581623077392578
1783203486488369200,5.472369140625,-5.467071228161454,7.906721803328394,1.735955193567276,1.771581768989563,0.408550500869751,1.1856294870376587
1783203486498306000,5.48230615234375,-5.799066217499971,7.986611917123198,2.2729431786626577,1.512006402015686,0.2132589071989059,0.909800946712494
1783203486508243200,5.4922431640625,-6.0984232580840585,7.952901955223083,3.0930314815461637,1.2468421459197998,0.1509513258934021,0.6321568489074707
1783203486518179000,5.502178955078125,-6.278264276927709,8.10956609661877,4.24714014211595,0.9743528962135316,0.2627535760402679,0.3797449171543121
1783203486528116200,5.5121162109375,-6.250151112121343,7.993039319822191,5.433568771532178,0.6970568895339966,0.4542074203491211,0.1512835025787353
1783203486538053000,5.52205322265625,-6.116833359521627,8.110666751337051,6.351050111675262,0.4050869941711426,0.6931717991828918,-0.0450814850628376
1783203486547990000,5.531989990234375,-5.864851233574748,8.139030676034093,7.114238131207228,0.0961608439683914,0.9050057530403136,-0.1938416659832
1783203486557927200,5.54192724609375,-5.532721804201603,8.12687437429428,7.614395976555347,-0.2389523833990097,1.0676742792129517,-0.3124333322048187
1783203486567864000,5.551864013671875,-5.044477684009075,8.370175765657425,8.031682646471262,-0.6428114771842957,1.205521583557129,-0.3660683333873749
1783203486577801200,5.56180126953125,-4.531901671114563,8.419034781372547,8.651452375149727,-1.0879251956939695,1.284396409988403,-0.3819242715835571
1783203486587738000,5.571738037109375,-4.050995346464217,8.445756784081459,9.052921882730722,-1.609358787536621,1.286126732826233,-0.3992236256599426
1783203486597675000,5.581675048828125,-3.6458544568940994,8.828730850028991,9.230521260127423,-2.186025857925415,1.186968445777893,-0.4418323338031769
1783203486607612200,5.591612060546875,-3.301099646964669,9.251127410304546,9.16976897752285,-2.808988332748413,1.0297763347625732,-0.5521782636642456
1783203486617549000,5.601549072265625,-3.152278035762906,9.85642788412571,9.033328124466538,-3.4912543296813965,0.821537971496582,-0.7410731315612793
1783203486627486200,5.611486328125,-3.0813305223584173,10.482911431229114,8.974290244564413,-4.1946868896484375,0.6255005598068237,-0.991625189781189
1783203486637423000,5.621423095703125,-2.977586947028339,11.15346442168355,8.898203030183911,-4.874294281005859,0.5789389610290527,-1.2908413410186768
1783203486647360000,5.631360107421875,-2.5896660723283884,11.682415815317633,8.77865661330521,-5.464020729064941,0.6927968263626099,-1.5514330863952637
1783203486657296100,5.641296142578125,-1.6219916913874446,11.680339593565463,8.169645010006427,-5.914695262908936,0.8765904307365417,-1.7851444482803345
1783203486667233300,5.6512333984375,-0.2762412456735968,11.647734962558744,6.565258095023036,-6.094592094421387,1.026108980178833,-1.9814934730529783
1783203486677170000,5.661169921875,1.167454464355111,11.480516109400988,3.950469564136863,-6.001026630401611,1.0740302801132202,-2.0897812843322754
1783203486687107000,5.671107177734375,2.725284210824966,10.738502979844808,1.0617693995684383,-5.783102035522461,0.9700937271118164,-2.068713426589966
1783203486697044200,5.681044189453125,4.331020202329754,9.792128138172624,-1.1550719526439903,-5.588549137115479,0.7664846777915955,-1.9002623558044436
1783203486706981000,5.690981201171875,5.596182176721095,8.573585876137019,-2.309448324239254,-5.548370361328125,0.6893752813339233,-1.646388292312622
1783203486716918300,5.700918212890625,6.379564258497953,7.476047828572988,-2.303447622519732,-5.55443286895752,0.7256916761398315,-1.379627704620361
1783203486726855000,5.71085498046875,6.517023933207988,6.788143305823207,-2.661794027689099,-5.450255393981934,0.8119474649429321,-1.1208525896072388
1783203486736792000,5.7207919921875,6.445203144100308,6.497081799897551,-4.140954142069816,-5.305894374847412,0.9155009388923644,-0.8724648952484131
1783203486746729200,5.730729248046875,6.279497618114948,5.974335106122493,-5.518233844643831,-5.222892284393311,0.9485017657279968,-0.6177367568016052
1783203486756666000,5.740666015625,6.164164435017109,5.331629907536506,-6.689362029075622,-5.109582901000977,0.8551160097122192,-0.3771115243434906
1783203486766603300,5.750603271484375,5.891342350137234,4.513396292608976,-8.243925467225909,-4.9260101318359375,0.6621255278587341,-0.1957675665616989
1783203486776540200,5.7605400390625,5.325452680206299,3.5311849984019994,-9.970102194100615,-4.724370956420898,0.450193703174591,-0.0823330283164978
1783203486786477000,5.77047705078125,4.61781908237487,2.2936535198666155,-11.149889485806224,-4.461872577667236,0.199501559138298,0.0267591066658496
1783203486796413200,5.7804130859375,4.210589988353848,0.7367308052390813,-12.16205811138153,-4.117931365966797,-0.1115201190114021,0.1519743800163269
1783203486806350300,5.790350341796875,3.9787843889951695,-0.7512196415796876,-13.250892628008126,-3.7162563800811768,-0.393799215555191,0.2943565845489502
1783203486816287000,5.800286865234375,3.669920684397221,-2.0586054314553737,-13.899448890709875,-3.298825263977051,-0.541599452495575,0.4495510756969452
1783203486826224000,5.81022412109375,3.2425086340472102,-3.0688401663586498,-13.980519738721847,-2.885228395462036,-0.5004043579101562,0.580727219581604
1783203486836161000,5.8201611328125,2.373933363631368,-3.850037889833748,-13.662242893612383,-2.4304819107055664,-0.3091022968292236,0.6649587154388428
1783203486846098200,5.83009814453125,1.3448933904930949,-4.502253259564936,-13.572884694248437,-1.949295282363892,-0.06781005859375,0.6523364186286926
1783203486856035300,5.840035400390625,0.1857905748978257,-5.005836110925674,-13.859245475137232,-1.49247944355011,0.1303698569536209,0.5253428220748901
1783203486865972000,5.849971923828125,-0.9247548382773996,-5.364045737972855,-14.190430901658534,-1.0665602684020996,0.1920686513185501,0.2922975420951843
1783203486875909000,5.8599091796875,-1.6830843118622898,-5.55117048408389,-14.73376971708536,-0.6657164096832275,0.0961084216833114,0.0171870030462741
1783203486885846000,5.869845947265625,-1.914458534066379,-5.709531492525339,-15.259520268851515,-0.2748554348945617,-0.0921522974967956,-0.2271292507648468
1783203486895783200,5.879783203125,-1.6674474745303391,-6.026317806816101,-15.493914715659615,0.1369501650333404,-0.2788361608982086,-0.4073597192764282
1783203486905720300,5.88972021484375,-1.139718316167593,-6.219488262832164,-15.336500632679462,0.5785365700721741,-0.3722638487815857,-0.5117851495742798
1783203486915657000,5.899656982421875,-0.6823325678363442,-6.18680355232656,-14.769231491088869,1.0263981819152832,-0.362679660320282,-0.5201787352561951
1783203486925594000,5.909593994140625,-0.1632891124933957,-5.942507304707169,-14.01268247117996,1.474877953529358,-0.3122692108154297,-0.4478105008602142
1783203486935531300,5.91953125,0.3091808077231049,-5.330137038630247,-13.347878838032484,1.8845864534378047,-0.2402189224958419,-0.3558408319950104
1783203486945467100,5.929467041015625,0.4355640848845243,-4.459220465785265,-12.663161713147163,2.2513911724090576,-0.2045610547065735,-0.2704977095127105
1783203486955404000,5.939404052734375,0.3050432695269584,-3.372822528655827,-12.055237905085086,2.563702344894409,-0.2394552081823349,-0.2245989888906479
1783203486965341200,5.949341064453125,0.0179345928803086,-2.1304086849063637,-11.597309428179264,2.8610451221466064,-0.3645958006381988,-0.2078700810670852
1783203486975278000,5.959278076171875,-0.2457996379196643,-0.9733011347815392,-11.256434966814515,3.1731045246124268,-0.5610488057136536,-0.2540097236633301
1783203486985215200,5.96921533203125,-0.489985410901904,0.0404077059730887,-10.947524500465391,3.4922189712524414,-0.7811617255210876,-0.3045730292797088
1783203486995152100,5.979152099609375,-0.6522425499990582,0.8528960552468895,-10.369566791599988,3.743897438049317,-1.0145583152770996,-0.3916481137275696
1783203487005089000,5.989089111328125,-0.5750079191491008,1.6555856256924568,-9.35425460730195,3.93047308921814,-1.250633955001831,-0.4553431868553161
1783203487015026200,5.999026123046875,-0.1947147628486156,2.19732752731666,-8.054283185335994,4.117831230163574,-1.4862717390060425,-0.478739321231842
1783203487024963000,6.008963134765625,0.3287830415546894,2.408217764418572,-6.941274596917629,4.3259992599487305,-1.695575714111328,-0.4820331037044525
1783203487034900200,6.018900146484375,0.8681485694363713,2.9000393047064543,-5.788609705415368,4.51570463180542,-1.8290860652923584,-0.4575617611408233
1783203487044837000,6.028837158203125,1.388037097301334,3.600756547278165,-4.27533864711821,4.670901298522949,-1.8642921447753904,-0.4168989956378937
1783203487054774000,6.03877392578125,1.787194382417202,4.238452685530484,-2.552751469168067,4.823838710784912,-1.8242008686065676,-0.3726632297039032
1783203487064711200,6.048711181640625,2.0390812312960622,4.858012570850551,-1.0134691867798566,4.975078582763672,-1.7332608699798584,-0.3440031111240387
1783203487074648000,6.05864794921875,2.129536870507896,5.408859277689457,0.2966816838949918,5.120234489440918,-1.6212220191955566,-0.29460608959198
1783203487084585200,6.068585205078125,2.3017206525966523,5.90084141536653,1.465490485468507,5.244447231292725,-1.531903862953186,-0.2533015310764313
1783203487094521000,6.07852099609375,2.2350230517216025,6.292663389158249,2.483475688368082,5.321252346038818,-1.4957984685897827,-0.2488366961479187
1783203487104458000,6.0884580078125,2.049615484791994,6.829720932358503,3.3821535438418384,5.292774200439453,-1.5207147598266602,-0.237377643585205
1783203487114395100,6.09839501953125,2.0920994125172494,7.353503983443975,4.507909385630488,5.151919364929199,-1.590959906578064,-0.2275556027889251
1783203487124332300,6.108332275390625,2.071587370364368,7.653028197288513,5.710540377306938,4.970498085021973,-1.7031277418136597,-0.2254927158355713
1783203487134269200,6.118269287109375,1.979297793723643,7.927956899058818,6.647723612263798,4.722054481506348,-1.8280071020126345,-0.2396351844072342
1783203487144206000,6.1282060546875,1.876028996298462,8.286432483565807,7.607368269875645,4.382132530212402,-1.969792723655701,-0.2526905238628387
1783203487154143000,6.13814306640625,1.7852409102618694,8.359396597489715,8.596403857144713,3.984676599502564,-2.1155688762664795,-0.2682721614837646
1783203487164080000,6.148080078125,1.7141535499952731,8.349179739379883,9.427260222280024,3.549485445022583,-2.2223658561706543,-0.2720900774002075
1783203487174017300,6.158017333984375,1.6444178965985774,8.28178144288957,10.191786796939372,3.0860965251922607,-2.2372748851776123,-0.2814142107963562
1783203487183954200,6.1679541015625,1.451256500671804,8.097589243099092,10.92684645409584,2.61309814453125,-2.1486129760742188,-0.2843202650547027
1783203487193891000,6.17789111328125,1.2699001088291406,8.035840935194491,11.664898863327505,2.137230634689331,-1.9773955345153809,-0.3154034912586212
1783203487203828200,6.187828125,0.9597872809529304,8.136545288959145,12.239720027732847,1.679515719413757,-1.7353668212890625,-0.3813033998012543
1783203487213765000,6.19776513671875,0.5713043884560466,8.081640563338995,12.660769849574566,1.291698932647705,-1.406993389129639,-0.4670773148536682
1783203487223702300,6.207702392578125,0.1107163369521498,7.906091104209422,12.880262495326996,0.9610496163368224,-1.0558966398239136,-0.5719006061553955
1783203487233639200,6.21763916015625,-0.1542816301733255,7.982963331487775,12.90000530667305,0.6367133259773254,-0.6995390057563782,-0.6950547695159912
1783203487243577000,6.2275771484375,-0.301405497546494,8.069276171806454,13.030269516921043,0.2415995895862579,-0.356223464012146,-0.8226814270019531
1783203487253513700,6.237513671875,-0.3856140590623021,8.162199954697488,13.258913437378403,-0.2427493780851364,-0.0524151399731636,-0.9598552584648132
1783203487263449900,6.247449951171875,-0.451592551882565,8.33422533135414,13.296445587915182,-0.8263521194458008,0.1526490598917007,-1.0943840742111206
1783203487273387000,6.257386962890625,-0.3350844797864556,8.733011883461474,12.97395200189352,-1.527640461921692,0.2346663475036621,-1.206646203994751
1783203487283324000,6.267323974609375,-0.0280441912233829,8.96504544635713,12.538950811588764,-2.324648380279541,0.2417780458927154,-1.3106917142868042
1783203487293260800,6.2772607421875,0.4074444903373718,9.140596659052372,11.951136894619465,-3.163368463516236,0.2668615877628326,-1.398079514503479
1783203487303198000,6.287197998046875,0.9014555034935474,9.255209711182117,11.234621778935193,-3.990900278091431,0.343786746263504,-1.5057601928710938
1783203487313134800,6.297134765625,1.418802237921208,9.400256480020284,10.337566556227207,-4.66326379776001,0.4886767268180847,-1.593803882598877
1783203487323072000,6.307072021484375,2.130893107422441,9.538736729949711,8.766194022095203,-5.081335067749023,0.6676512360572815,-1.6283326148986816
1783203487333009000,6.3170087890625,2.919813095712662,9.32672771795094,6.389965825524926,-5.223732948303223,0.8261041641235352,-1.5990700721740725
1783203487342945800,6.32694580078125,3.9174607362434255,9.17840236583352,3.514251399257779,-5.120992183685303,0.8779186606407166,-1.4992369413375854
1783203487352883000,6.336883056640625,4.739540212944149,8.85021670565009,0.472452676820755,-4.742862701416016,0.7474107146263123,-1.3750945329666138
1783203487362819800,6.34681982421875,4.968591545158624,8.327206392502784,-2.6588632349342105,-4.185357093811035,0.6044378280639648,-1.2506433725357056
1783203487372757000,6.356757080078125,4.727970771181584,7.603475938612222,-4.842255322009325,-3.682610988616944,0.604596734046936,-1.1696962118148804
1783203487382694000,6.36669384765625,4.269442867077887,6.620424101927876,-5.403405103936791,-3.300384044647217,0.7249215245246887,-1.15345299243927
1783203487392630800,6.376630859375,3.5966444357842207,5.284267267858982,-5.389460749736428,-2.9067933559417725,0.9297361373901368,-1.1671282052993774
1783203487402568000,6.38656787109375,3.190563050493598,3.974285324010253,-5.862138467484712,-2.557509422302246,1.1765451431274414,-1.2017368078231812
1783203487412504800,6.3965048828125,3.207890909652412,2.779664035788178,-6.42602790350914,-2.286980152130127,1.343756914138794,-1.2242364883422852
1783203487422442000,6.40644189453125,3.342159679366648,1.6027312567308545,-7.079758938500285,-2.0813205242156982,1.3714545965194702,-1.210953950881958
1783203487432379000,6.41637890625,3.5536692174106834,0.2201157460868358,-8.1761133292377,-1.914543986320496,1.2144232988357544,-1.2284013032913208
1783203487442314800,6.426314697265625,3.602891221219301,-0.8006006353422999,-9.46294586816728,-1.754518985748291,0.9954435229301452,-1.28735089302063
1783203487452252000,6.436251953125,3.5027322263777254,-1.80208946147114,-10.617835449981689,-1.522568702697754,0.6952580213546753,-1.3739134073257446
1783203487462189000,6.44618896484375,3.5581694514393805,-2.851863010558486,-11.88803541854024,-1.2701131105422974,0.506320059299469,-1.4128142595291138
1783203487472126000,6.4561259765625,3.883020998764038,-4.097665327702463,-12.767314161539076,-0.938122570514679,0.3905691504478454,-1.2861045598983765
1783203487482062800,6.466062744140625,5.172179934814572,-4.718514960572123,-13.197396015620232,-0.6250789165496826,0.4093801379203796,-1.1250873804092407
1783203487491999700,6.475999755859375,5.88622018481791,-5.21757741189897,-13.74884331870079,-0.3208179771900177,0.5161173343658447,-0.9568588733673096
1783203487501937000,6.48593701171875,6.213320972374081,-5.416746231546997,-14.155630806434154,0.0055963369086384,0.5896557569503784,-0.7717322111129761
1783203487511874000,6.4958740234375,6.574498801577091,-5.555559658953547,-14.809874467122556,0.3257652223110199,0.6222657561302185,-0.5912344455718994
1783203487521811000,6.50581103515625,6.701214379432797,-5.44135986379981,-15.280610987675187,0.6172090768814087,0.563053548336029,-0.3887979984283447
1783203487531747800,6.515747802734375,6.582859802687167,-5.180005513873696,-15.308859761559962,0.8318803906440735,0.4889774918556213,-0.2203327864408493
1783203487541685000,6.52568505859375,6.009095453858375,-5.01132710955739,-14.65922564049363,0.912160873413086,0.424190491437912,-0.072052776813507
1783203487551622000,6.535621826171875,5.459385934355855,-4.671537520819903,-13.293824591761826,0.8183203935623169,0.3388414978981018,0.0567158535122871
1783203487561559000,6.54555908203125,5.097447057652473,-4.212991204276681,-11.822579488289357,0.5525866746902466,0.2277285754680633,0.1791751980781555
1783203487571496000,6.555495849609375,5.008755797764659,-3.594236205598712,-10.419447551578283,0.1734448373317718,0.0605187900364398,0.2588519155979156
1783203487581432800,6.565432861328125,5.032354700016975,-2.824204603782296,-9.64650152361989,-0.0419622883200645,-0.2098027169704437,0.3404607474803924
1783203487591370000,6.575369873046875,4.98266215608716,-2.372632217904925,-10.161524929666518,0.0503823682665824,-0.5171952247619629,0.3915086984634399
1783203487601307000,6.585306884765625,4.574471231296658,-2.1910829338386653,-11.176105292558669,0.4794256091117859,-0.7569465637207031,0.4140805900096893
1783203487611244000,6.595244140625,3.808881995841861,-2.1825237798079846,-11.650372325325012,1.1828982830047607,-0.8046203851699829,0.3976003527641296
1783203487621180000,6.605179931640625,2.895574726513028,-2.205925698183477,-11.19697272402048,1.962701439857483,-0.6196745038032532,0.3754031956195831
1783203487631116800,6.61511669921875,2.293738860062509,-1.9256413145989175,-9.599927403971552,2.621821880340576,-0.3062593936920166,0.4203924536705017
1783203487641054000,6.625053955078125,2.250177804625034,-1.6408628344655036,-7.378894445288181,3.0787999629974365,-0.0065941121429204,0.551730215549469
1783203487650990800,6.634990966796875,2.5779554685294626,-1.354425188948214,-5.291680174463987,3.370961904525757,0.1896732747554779,0.7267434597015381
1783203487660928000,6.644927978515625,2.9044305254027245,-0.8805226055800914,-3.8225954638957975,3.491401433944702,0.3015156686306,0.8954789638519287
1783203487670865000,6.654864990234375,2.9798730121389028,-0.2917600095838308,-2.579725985333323,3.4776811599731445,0.2825569808483124,1.0792927742004397
1783203487680801800,6.6648017578125,3.11760010561347,0.2717939108759165,-1.6921183899283407,3.400993824005127,0.1325573623180389,1.267704725265503
1783203487690739000,6.674739013671875,3.22780294008553,0.7912088298797607,-1.29873457364738,3.3592536449432373,-0.0896992981433868,1.4497017860412598
1783203487700675800,6.68467578125,3.141054338698089,1.2498723430618643,-1.2824439485818149,3.356565237045288,-0.3728106319904327,1.618855118751526
1783203487710613000,6.694613037109375,2.843736402726173,2.005034584787488,-1.1589566851228474,3.380879640579224,-0.596416175365448,1.7553702592849731
1783203487720550000,6.7045498046875,2.483063600435853,2.6582962487012147,-0.7334370243906975,3.428194761276245,-0.729708194732666,1.8890631198883057
1783203487730486800,6.71448681640625,2.1158027980573477,3.3984704723924395,-0.0689186379253864,3.4951229095458984,-0.7653005123138428,2.011471033096313
1783203487740424000,6.724423828125,1.7669729937739669,4.121879146982729,0.7205816344708204,3.5620508193969727,-0.6983965635299683,2.141345977783203
1783203487750361000,6.734361083984375,1.5360641971245408,4.727682894150912,1.5575234569996594,3.6091270446777344,-0.6016075611114502,2.276947259902954
1783203487760297700,6.744297607421875,1.3999059604018926,5.266043628904223,2.341713348028064,3.613993406295776,-0.5381814241409302,2.409331798553467
1783203487770235000,6.75423486328125,1.1907057222135364,5.744615665388107,3.015541414630413,3.576497793197632,-0.5106682181358337,2.532275438308716
1783203487780171800,6.764171875,0.9566893149375916,6.092435415846109,3.686148765620589,3.480064392089844,-0.5167375206947327,2.6195156574249268
1783203487790109000,6.77410888671875,0.6205909819334745,6.364542045933008,4.471828018423914,3.3130807876586914,-0.5418136119842529,2.676553010940552
1783203487800046000,6.784046142578125,0.1704533050343394,6.473215186619759,5.40915036959052,3.058720350265503,-0.6159653663635254,2.682324171066284
1783203487809982700,6.793982666015625,-0.3735977503150701,6.535662582704425,6.331906435266137,2.7700891494750977,-0.6689013838768005,2.633202075958252
1783203487819918800,6.8039189453125,-0.9980313791513442,6.544229920041561,7.214685295340418,2.428305149078369,-0.6889006495475769,2.5532805919647217
1783203487829856000,6.81385595703125,-1.7251102666869758,6.33501550719738,8.209417048424482,2.0465896129608154,-0.6768251657485962,2.4405517578125
1783203487839793000,6.82379296875,-2.441472822158038,6.141316643393039,9.085179307734968,1.6335947513580322,-0.6003410220146179,2.2840678691864014
1783203487849729800,6.833729736328125,-3.212480283269286,5.931227785801887,9.917826063418389,1.2096765041351318,-0.4775168001651764,2.089972734451294
1783203487859667000,6.8436669921875,-3.999055608129501,5.738040963172912,10.643424649268388,0.755003809928894,-0.3524398505687713,1.846555471420288
1783203487869603800,6.853603759765625,-4.852561027446389,5.504097767263651,11.15719250229597,0.2905455529689789,-0.2433998435735702,1.574907898902893
1783203487879541000,6.863541015625,-5.578816615900397,5.2739200613677495,11.537571291053297,-0.1864705234766006,-0.1350848227739334,1.2494655847549438
1783203487889478000,6.873477783203125,-6.2916346306324,5.145336351552605,11.771833635914325,-0.6382057070732117,-0.0328309237957,0.8806387186050415
1783203487899414800,6.883414794921875,-6.973915468281507,5.052850960078835,11.915233222067355,-1.0738967657089231,0.0944916158914566,0.4565468430519104
1783203487909352000,6.89335205078125,-7.635349917256832,4.978749366557598,11.934637010717392,-1.4958291053771973,0.2600741684436798,-0.0059345532208681
1783203487919288800,6.903288818359375,-8.050189194020628,4.972597858190536,11.956016483354569,-1.8919906616210935,0.4764117896556854,-0.4600461423397064
1783203487929226000,6.91322607421875,-7.984781779086589,5.016757902434468,11.852052251011132,-2.270817756652832,0.6994195580482483,-0.8663132786750793
1783203487939163000,6.923162841796875,-7.489344532519579,5.071004456406832,11.50219836437702,-2.647315263748169,0.9005651473999023,-1.2206792831420898
1783203487949099800,6.933099853515625,-6.70176850618422,5.169991484859586,11.000604933267832,-3.060540199279785,1.0959393978118896,-1.5463565587997437
1783203487959037000,6.943036865234375,-5.865777116248012,5.369966360193491,10.57328085346222,-3.502586841583252,1.2307182550430298,-1.8071943521499636
1783203487968973800,6.952973876953125,-4.782006020490825,5.525616940632462,9.811949275451898,-3.921189546585083,1.278999924659729,-1.9678436517715452
1783203487978911000,6.962910888671875,-3.3830949163451787,5.513037445044517,8.6318042563498,-4.303345680236816,1.242615818977356,-2.040557146072388
1783203487988847900,6.972847900390625,-1.9936136115849017,5.51025278276205,7.227929392316937,-4.656921863555908,1.2067445516586304,-2.080960988998413
1783203487998784800,6.98278466796875,-0.9601533377863466,5.524452573028206,5.937111583143472,-4.959846019744873,1.2016385793685913,-2.137725591659546
1783203488008722000,6.992721923828125,-0.2994146342565305,5.6220273965954775,4.499454861018061,-5.16643762588501,1.2385852336883545,-2.258076906204224
1783203488018658000,7.002657958984375,-0.0858932997323572,5.667900674498081,2.6689491601407527,-5.149535179138184,1.30704927444458,-2.4463815689086914
1783203488028595000,7.012594970703125,-0.0757473149016499,5.685860694080591,0.2107324161916971,-4.881576061248779,1.3898423910140991,-2.6757900714874268
1783203488038531800,7.02253173828125,-0.0332537425652146,5.258748795720934,-2.4296266092807053,-4.47520112991333,1.4725205898284912,-2.8696649074554443
1783203488048468700,7.03246875,0.4112064732193947,4.914399351722002,-4.506186215099692,-4.0223774909973145,1.3393336534500122,-2.933290719985962
1783203488058406000,7.042406005859375,1.7290588581822812,4.316508277374505,-6.263889130094647,-3.694557905197144,1.095599889755249,-2.829099178314209
1783203488068343000,7.052343017578125,3.2982603318855164,3.1846967888087034,-7.038726086366176,-3.5934154987335205,0.7861524820327759,-2.589993476867676
1783203488078280000,7.062280029296875,4.574724913796782,2.0479563194081187,-7.093871635004878,-3.571661710739136,0.4902310669422149,-2.2852914333343506
1783203488088216800,7.072216796875,5.152745166504383,1.1657622004192325,-7.394080323982238,-3.470955371856689,0.274984210729599,-1.9868106842041016
1783203488098153700,7.08215380859375,5.08126515365839,0.576720750948973,-8.233321071103214,-3.233067035675049,0.2048277705907821,-1.775107741355896
1783203488108091000,7.0920908203125,4.456323575299978,0.0705947179114446,-9.271085325706004,-2.8889825344085693,0.2000553160905838,-1.6604961156845093
1783203488118028000,7.102028076171875,3.712344698628783,-0.2127484321892261,-10.29802248134613,-2.485342502593994,0.161239743232727,-1.60710871219635
1783203488127965000,7.11196484375,3.3257691010579467,-0.541686883501336,-11.231468867862224,-2.085190773010254,0.0046380395069718,-1.5321663618087769
1783203488137901800,7.12190185546875,3.478952122339606,-1.0446442233748734,-12.078920393967628,-1.7036149501800537,-0.285459041595459,-1.4400135278701782
1783203488147838700,7.131838623046875,3.685105978569388,-1.4591492997482418,-12.588242373502254,-1.3190759420394895,-0.5477511882781982,-1.32854962348938
1783203488157776000,7.14177587890625,3.7827930303394792,-1.8229028246581556,-12.70801792296171,-0.9096846580505372,-0.7288581132888794,-1.205355882644653
1783203488167713000,7.151713134765625,3.77728975674808,-2.010867382594198,-12.453496049404144,-0.4782726764678955,-0.781739354133606,-1.0651682615280151
1783203488177650000,7.16164990234375,3.8016158042311674,-2.0857775160193444,-11.97231178459525,-0.036089401692152,-0.7383080124855042,-0.8970779180526733
1783203488187586800,7.1715869140625,3.852749486880004,-2.1206600288301707,-11.380958003062007,0.4148700833320617,-0.6266329884529114,-0.7019212245941162
1783203488197523700,7.181523681640625,3.869324481844902,-2.09595535729304,-10.757587619543076,0.8716445565223694,-0.4660614132881164,-0.4823161959648132
1783203488207460900,7.1914609375,3.8264594458475703,-2.09173978542462,-10.109773699641227,1.323710799217224,-0.2853163778781891,-0.2526395916938782
1783203488217398000,7.20139794921875,3.712178986673057,-2.033803583154082,-9.355569197031857,1.7370861768722534,-0.1155233457684516,-0.051150407642126
1783203488227335000,7.2113349609375,3.4545436572700736,-1.8964377242073416,-8.5258771995008,2.0829625129699707,-0.002916429657489,0.1317208409309387
1783203488237271800,7.221271728515625,3.120794225479662,-1.7983458910286425,-7.661642880898714,2.3537628650665283,0.0447253920137882,0.2691546082496643
1783203488247209000,7.231208984375,2.798152463158965,-1.6192144817590712,-6.756525932288169,2.5312232971191406,0.073015496134758,0.3715490102767944
1783203488257144800,7.241144775390625,2.472916884952784,-1.628493766757846,-5.866757359457016,2.6098008155822754,0.0631556808948516,0.4597297310829162
1783203488267081700,7.251081787109375,2.329363715673238,-1.5831559109061957,-5.02883821632862,2.587205648422241,-0.0343332402408123,0.5260739326477051
1783203488277019000,7.261018798828125,2.5332947812870144,-1.3346341545462608,-4.394051535782218,2.49485182762146,-0.1934043914079666,0.6363405585289001
1783203488286955800,7.270955810546875,2.9266891189619897,-1.2607169776812197,-4.023410881707072,2.4107186794281006,-0.3971858620643616,0.7535527944564819
1783203488296893000,7.280892822265625,3.2011212693870066,-1.0720625377848745,-4.08602252844274,2.399106979370117,-0.5788608193397522,0.8530330061912537
1783203488306829800,7.290829833984375,3.1675901711851355,-0.5350519024662673,-4.3460108507126565,2.465423822402954,-0.6710194945335388,0.9085850715637208
1783203488316766700,7.3007666015625,2.816285208959877,-0.0847333160422742,-4.48821275151372,2.646857261657715,-0.6745553612709045,0.936357319355011
1783203488326703900,7.310703857421875,2.460556585073471,0.4131673980288207,-4.599625546297431,2.888150453567505,-0.5948948860168457,0.95069819688797
1783203488336640800,7.320640869140625,2.2931395789951083,0.9193405581437052,-4.468842865133285,3.1368534564971924,-0.4601708948612213,0.9857048988342284
1783203488346578000,7.330577880859375,2.3073552974827587,1.217212766997516,-4.06250662829876,3.351905107498169,-0.3398656547069549,1.0843381881713867
1783203488356514800,7.340514892578125,2.5924004657283426,1.2768772543653846,-3.603205109474063,3.5385022163391118,-0.3074120879173279,1.216567873954773
1783203488366451700,7.35045166015625,2.920713259422779,1.602429643435776,-3.2695985932856795,3.695061683654785,-0.2731606662273407,1.3940390348434448
1783203488376388900,7.360388916015625,3.0149063315972686,1.765439062204957,-2.783123820853233,3.831847667694092,-0.2290270179510116,1.553097367286682
1783203488386325800,7.37032568359375,2.876801929242909,2.3160230264544484,-2.2426953399151563,3.948704242706299,-0.1441685706377029,1.663844108581543
1783203488396263000,7.380262939453125,2.5475360726073384,3.076249565832317,-1.550245574951172,4.031919002532959,-0.0602600872516632,1.7045470476150513
1783203488406199800,7.39019970703125,2.049859522680938,3.6570521427348255,-0.8928373127520084,4.057798862457275,-0.027784027159214,1.700003743171692
1783203488416136700,7.40013671875,1.5396692358791828,4.100608687677979,-0.3479647118866443,4.038432121276856,-0.0752314329147338,1.6621205806732178
1783203488426073900,7.410073974609375,1.135607665978372,4.47841967177391,0.1261199500501156,3.967972993850708,-0.2272841036319732,1.5888099670410156
1783203488436010800,7.4200107421875,0.7654258615866303,4.758083000850677,0.5792495022416114,3.846987247467041,-0.4153115451335907,1.4919906854629517
1783203488445948000,7.429947998046875,0.5134785146921873,4.967587336552143,1.239715982967615,3.703605890274048,-0.5599701404571533,1.4117885828018188
1783203488455884800,7.439884765625,0.4125491200000047,5.241720504030585,2.0305945579797027,3.5487959384918213,-0.6250607371330261,1.3397974967956543
1783203488465821700,7.44982177734375,0.2652882187763228,5.379262596327066,2.868604886522889,3.382919311523437,-0.6111505627632141,1.284240961074829
1783203488475757800,7.4597578125,0.119479817915894,5.48153171519041,3.634064358118176,3.198737382888794,-0.5508288741111755,1.2376668453216553
1783203488485695000,7.469695068359375,6.99234310537e-05,5.572268801692128,4.317210288164019,2.9819324016571045,-0.4949477612972259,1.1855626106262207
1783203488495631600,7.479631591796875,-0.1409156603828072,5.633076029354333,4.838019291874766,2.7320306301116943,-0.4557561576366424,1.1298538446426392
1783203488505568800,7.48956884765625,-0.2337218813087791,5.808104679480195,5.378541880837083,2.4646365642547607,-0.4695774614810943,1.06368887424469
1783203488515505700,7.499505615234375,-0.4127586710974574,5.895162785208225,5.613747644028067,2.2029616832733154,-0.4879873394966125,0.9967023134231568
1783203488525442800,7.50944287109375,-0.7034753091081977,5.937574524480104,5.844234562003612,1.9618778228759768,-0.538823664188385,0.9038171172142028
1783203488535380000,7.5193798828125,-1.07360947496593,6.011857904309034,5.958965103033185,1.725924730300903,-0.5779367685317993,0.7959532737731934
1783203488545316600,7.529316650390625,-1.397768071590364,6.01000029374361,6.0947355094820255,1.4997202157974243,-0.6148558259010315,0.6828908920288086
1783203488555253800,7.539253662109375,-1.6628915647916496,5.953959842091798,6.298067294028401,1.2734827995300293,-0.6336377859115601,0.5786890983581543
1783203488565191000,7.54919091796875,-1.8654177320435643,5.914412844601273,6.6018719616711135,1.0549309253692627,-0.6226457357406616,0.4543728828430176
1783203488575127800,7.5591279296875,-2.0661358269602057,5.870976438456774,6.896514248692989,0.8409901261329651,-0.5902693867683411,0.3207620978355407
1783203488585065000,7.56906494140625,-2.2678169216901063,5.893259581935405,7.124268526834249,0.6410526633262634,-0.5380344986915588,0.1826457530260086
1783203488595001600,7.579001708984375,-2.4463255228862164,5.845534538686275,7.322192314857244,0.4360619187355041,-0.4902528822422027,0.0447491221129894
1783203488604938800,7.588938720703125,-2.61746096496582,5.744534416845441,7.520648017799854,0.2005210369825363,-0.4436448812484741,-0.0919437408447265
1783203488614876000,7.5988759765625,-2.7417168747097254,5.64362080424428,7.793854133561253,-0.0302938017994165,-0.3911071121692657,-0.2072285115718841
1783203488624812800,7.608812744140625,-2.8706653261840342,5.475260964357853,8.04496415284872,-0.2829152941703796,-0.2977189719676971,-0.3649357557296753
1783203488634750000,7.61875,-3.0425512943699955,5.445374944660068,8.3389827550143,-0.5324193835258484,-0.203670784831047,-0.5309646725654602
1783203488644686600,7.6286865234375,-3.13692089215517,5.378081277588009,8.559141755720972,-0.806300699710846,-0.0745874196290969,-0.7009596228599548
1783203488654623700,7.638623779296875,-3.2047149099648,5.22474014313519,8.853650187230109,-1.0902942419052124,0.0599088706076145,-0.878413200378418
1783203488664561000,7.648560791015625,-3.181368521168828,4.9265334416300055,9.020630555456876,-1.3622329235076904,0.1884473413228988,-1.0088118314743042
1783203488674497800,7.658497802734375,-3.008746932184696,4.551706441780924,9.035305562019348,-1.64073383808136,0.358368456363678,-1.0490611791610718
1783203488684435000,7.66843505859375,-3.119535749851167,3.466199608272314,9.02308613191545,-1.9318782091140747,0.6561133861541748,-0.9752904772758484
1783203488694371600,7.67837158203125,-4.070265279601514,0.7178846504718065,8.998341566759347,-2.2618603706359863,1.05992591381073,-0.9189513325691224
1783203488704308700,7.688308837890625,-5.6247956922650335,-1.567152870610356,8.701945714068412,-2.5394954681396484,1.5332770347595217,-0.9470921754837036
1783203488714246000,7.698245849609375,-7.223707975229621,-3.222988817802072,7.766087590235471,-2.6736490726470947,1.9613783359527588,-1.1399469375610352
1783203488724182800,7.708182861328125,-8.25830178310275,-3.3123470171660183,5.939563652470707,-2.607757329940796,2.1880850791931152,-1.6295281648635864
1783203488734120000,7.718119873046875,-8.25722275569439,-1.157500641095638,3.5009225466072555,-2.436664342880249,2.198902368545532,-2.3933918476104736
1783203488744056600,7.728056640625,-7.133301143595576,1.585145038896799,1.2902151671051978,-2.3239994049072266,1.9123889207839968,-3.1664249897003174
1783203488753992700,7.73799267578125,-4.645770334617794,2.9734231053471563,-0.2103822875797748,-2.3802425861358643,1.3659123182296753,-3.669080972671509
1783203488763929900,7.747929931640625,-1.1140212725922465,2.6666385451108217,-1.3354004627436398,-2.511049509048462,0.6658152937889099,-3.727113962173462
1783203488773867000,7.757866943359375,2.687112008818984,1.2515958058536052,-2.670435014784336,-2.5917322635650635,0.0330162420868873,-3.3928840160369877
1783203488783803600,7.7678037109375,5.82068300602436,0.1612847869336605,-4.110861786144971,-2.497145891189575,-0.4067656993865967,-2.771099328994751
1783203488793740800,7.77774072265625,7.6354650680691,-0.4830687633812427,-5.466867814543843,-2.1848864555358887,-0.5724816918373108,-2.045421838760376
1783203488803677700,7.787677734375,8.04727944405377,-0.7006874319553374,-6.528053276744484,-1.689089059829712,-0.4306458532810211,-1.302670121192932
1783203488813614800,7.79761474609375,7.4917293818295,-0.7151052488863467,-7.054737894490361,-1.1525098085403442,-0.0355632342398166,-0.6800830364227295
1783203488823552000,7.807552001953125,6.137004040890932,-0.2458329556673765,-6.839308260393143,-0.7358932495117188,0.4630365669727325,-0.2947322726249695
1783203488833488600,7.817488525390625,4.337114719812572,0.690706720688939,-6.284504048100113,-0.4856389164924621,0.8972423076629639,-0.1490829139947891
1783203488843425800,7.82742578125,2.688634103819728,1.5331231752365826,-5.971632276904582,-0.3903605341911316,1.0999360084533691,-0.1981574892997741
1783203488853362700,7.83736279296875,1.3714888442128896,2.105377119502425,-6.260101428249478,-0.3301323354244232,0.9270117282867432,-0.4228704869747162
1783203488863299800,7.8472998046875,0.466871515687555,2.4567606999218463,-7.264111881810426,-0.2952136099338531,0.4968787729740143,-0.7174967527389526
1783203488873237000,7.857237060546875,-0.0383747388407588,2.4348200862705704,-8.255378004610538,-0.23158560693264,-0.0849681347608566,-1.0105701684951782
1783203488883173600,7.867173583984375,0.0831831639908254,2.0653063903987405,-8.828817359268665,-0.1014232188463211,-0.6025093793869019,-1.170158624649048
1783203488893110800,7.87711083984375,0.8848524514779448,1.563436480435729,-8.944452155661583,0.1083497107028961,-0.9252690672874452,-1.1865942478179932
1783203488903047700,7.887047607421875,1.7837535943135618,1.0191349574565889,-8.576731188425422,0.3822330236434936,-0.9883372783660888,-1.106470227241516
1783203488912984800,7.89698486328125,2.2800568100601435,0.5776140099942684,-7.74857765250802,0.6778092980384827,-0.852033793926239,-0.9462533593177797
1783203488922922000,7.906921875,2.5507117800340056,0.2051233441382646,-6.67888564324677,0.9454498887062072,-0.6227242946624756,-0.7598495483398438
1783203488932858600,7.916858642578125,2.491924367761612,0.0109252986401319,-5.644027631479501,1.14878511428833,-0.4128429591655731,-0.614067554473877
1783203488942795800,7.926795654296875,2.11499192006588,0.0692260964393615,-4.745308859473466,1.281219482421875,-0.3070513010025024,-0.5300475358963013
1783203488952733000,7.93673291015625,1.577219360464066,0.1744821221590042,-4.077945604971051,1.3604788780212402,-0.3253725171089172,-0.5142307281494141
1783203488962669800,7.946669921875,1.1091953137405215,0.500576947543025,-3.613976678857207,1.3956968784332275,-0.3990357518196106,-0.5517032146453857
1783203488972607000,7.95660693359375,0.7628573262728751,0.5920517006695271,-3.160046331676841,1.42928946018219,-0.5403201580047607,-0.5921566486358643
1783203488982543600,7.966543701171875,0.6160976160369813,0.7167103459954262,-2.8262960231035947,1.439539909362793,-0.6129230856895447,-0.6391415596008301
1783203488992480800,7.976480712890625,0.4614037518009543,0.7000134782165288,-2.2634189789921044,1.4748516082763672,-0.6336898803710938,-0.6892595887184143
1783203489002418000,7.98641796875,0.428980176449567,0.715669897031784,-1.7928180675178764,1.5334771871566772,-0.5571771860122681,-0.699466347694397
1783203489012354800,7.996354736328125,0.7061047808289528,0.5606441704928875,-1.2723188604086637,1.5699821710586548,-0.4321915805339813,-0.6744235754013062
1783203489022292000,8.0062919921875,1.0286486357331277,0.3462479710966348,-0.7221002223402261,1.596867918968201,-0.318958044052124,-0.5840879082679749
