time,seconds_elapsed,ax,ay,az,gx,gy,gz
1783196885872912000,0.098911865234375,0.2554780783038586,-0.3912552798196673,-0.4260287792980671,0.4980406463146209,-0.576449453830719,-0.2883857190608978
1783196885882848800,0.108848876953125,0.3318006358101963,-0.5285679472744464,-0.4790256254702806,0.5424264669418335,-0.547456681728363,-0.2783578634262085
1783196885892786700,0.11878662109375,0.1638006422121077,-0.6410849039077758,-0.4211562048256397,0.5492150187492371,-0.5006239414215088,-0.2472046166658401
1783196885902723800,0.128723876953125,-0.2450298956561833,-0.7838388856336473,-0.4376560887277126,0.5154980421066284,-0.4458320140838623,-0.2156674563884735
1783196885912661800,0.138661865234375,-0.6475058038007467,-0.9584905191406607,-0.4517448198348283,0.4475211799144745,-0.4205412864685058,-0.2158872634172439
1783196885922599000,0.148598876953125,-0.9518446513853966,-1.1431588120102882,-0.6356394979834556,0.3865867257118225,-0.4190089106559753,-0.2527139782905578
1783196885932535800,0.158535888671875,-1.182487636705488,-1.330955173772573,-1.047264488875866,0.3661622703075409,-0.3344082832336426,-0.3124991953372955
1783196885942474000,0.168473876953125,-1.3664087644696234,-1.5298881388381125,-1.3945873957276342,0.4142962694168091,-0.176043152809143,-0.3922060132026672
1783196885952410600,0.17841064453125,-1.485499838796258,-1.7214295323476194,-1.7369816140055656,0.5196758508682251,-0.0004302076995372,-0.4796658158302307
1783196885962348800,0.188348876953125,-1.388373928040266,-1.6394076672211289,-2.0237468840420245,0.6389502882957458,0.0526375360786914,-0.5895102620124817
1783196885972285700,0.19828564453125,-1.4337223052859305,-1.3526876976311206,-2.2909949681818484,0.7639056444168091,-0.0665172487497329,-0.7513851523399353
1783196885982222800,0.208222900390625,-1.5366782373696564,-1.5558482172638175,-2.5401345641791817,0.8977822661399841,-0.1652006804943084,-0.8874311447143555
1783196885992160800,0.218160888671875,-1.0679029338873922,-1.758023525251448,-2.6330185995817184,0.9912093281745912,-0.2018130719661712,-0.9791049957275392
1783196886002098000,0.228097900390625,-0.6497920881070196,-1.541934842723608,-2.749029243549705,1.0200886726379397,-0.2595536112785339,-1.0655871629714966
1783196886012034800,0.238034912109375,-0.456382197311893,-1.3791191929608582,-2.80769244492054,1.0206257104873655,-0.2773614823818207,-1.109380125999451
1783196886021973000,0.247972900390625,-0.2436889293760061,-1.319760702802241,-2.6170763495624065,1.0395357608795166,-0.2680808901786804,-1.1182239055633545
1783196886031909600,0.25790966796875,-0.0149107150144875,-1.2210574597269297,-2.4119366388112304,1.0499632358551023,-0.2583059668540954,-1.0944716930389404
1783196886041847800,0.267847900390625,0.2244420117881149,-1.130999587661028,-2.229060782316327,1.0498967170715332,-0.3383587300777435,-1.0284092426300049
1783196886051784700,0.27778466796875,0.2372727787233889,-1.019147232416272,-2.151392436224222,0.977171778678894,-0.5332649946212769,-0.9462298154830932
1783196886061723000,0.287722900390625,0.1199791092075407,-0.7018889166995883,-1.89426768669188,0.8416059613227844,-0.671026885509491,-0.9402547478675842
1783196886071659800,0.29765966796875,-0.0313248203292489,-0.5508712567582726,-1.3596429235965013,0.7082083821296692,-0.7701776623725891,-0.9393476247787476
1783196886081597000,0.307596923828125,-0.1295041125956922,-0.4036231784835457,-0.8285352287113666,0.5662837624549866,-0.7289857268333435,-0.9757530689239502
1783196886091534800,0.317534912109375,0.0536965188741683,-0.2099965031325817,-0.3757978907078504,0.4747939109802246,-0.5570928454399109,-0.9760450720787048
1783196886101472000,0.327471923828125,0.4757091943986714,-0.3483779688626527,-0.8824684789508581,0.5112107992172241,-0.3823205232620239,-0.8957920074462891
1783196886111408600,0.33740869140625,0.595425561016798,-0.4997223765403032,-1.7310767738759516,0.6642677187919617,-0.200512483716011,-0.779787540435791
1783196886121346800,0.347346923828125,0.5840689582873135,-0.2179606138795614,-2.012335847711563,0.8624109029769897,0.0127747654914855,-0.7353076934814453
1783196886131283700,0.35728369140625,0.2108683905962854,0.6104921972453594,-1.8621715897291895,1.1014093160629272,0.2387317568063736,-0.7620395421981812
1783196886141222000,0.367221923828125,-0.1590666724927723,1.4189496835678814,-1.4137345792680978,1.3608390092849731,0.4648341238498688,-0.8037041425704956
1783196886151158800,0.37715869140625,-0.3422778253566473,1.850750616526604,-0.9919009135723114,1.605920672416687,0.629693865776062,-0.8075485825538635
1783196886161096000,0.387095947265625,-0.3451394253328442,2.082639217993617,-0.6423907258093356,1.789743423461914,0.7437282800674438,-0.7573900818824768
1783196886171033900,0.397033935546875,-0.2290912258334457,2.193597839269042,-0.2669043852686882,1.845746994018555,0.6885428428649902,-0.6768612861633301
1783196886180971000,0.406970947265625,-0.1905269557699561,2.2249153530746697,0.0837467892229557,1.7838820219039917,0.5155034065246582,-0.5911810398101807
1783196886190909000,0.416908935546875,-0.0555148203425109,2.2293115422070025,0.8091390388458967,1.6290968656539917,0.3620377480983734,-0.5290364623069763
1783196886200845800,0.426845703125,0.0907930727389641,2.249510280627012,1.6429051539480686,1.4114338159561155,0.1903520375490188,-0.4955343902111053
1783196886210783700,0.43678369140625,0.080556030357629,2.3104092782258987,2.1769956640362738,1.1547162532806396,0.0567759983241558,-0.4659577906131744
1783196886220720600,0.446720703125,0.1371405257582664,2.3374434156239032,2.6480636085003613,0.8956266641616821,-0.0619213618338108,-0.4481939971446991
1783196886230657800,0.45665771484375,0.1903314331978559,2.3580361217975616,2.9185359153836963,0.6353500485420227,-0.1967322081327438,-0.3954374194145202
1783196886240595700,0.466595703125,0.1587349563203751,2.452320671647787,3.044798488774896,0.380874365568161,-0.2849286496639251,-0.3307356536388397
1783196886250532900,0.476532958984375,0.0757623663403093,3.1458541401952504,3.2189649691134687,0.1412159949541092,-0.357744038105011,-0.2574359178543091
1783196886260470800,0.486470703125,0.179351043369621,3.328212110295892,3.256235253843665,-0.0433445274829864,-0.2427064180374145,-0.1944111585617065
1783196886270408000,0.496407958984375,0.5361604482300579,2.876439817932248,3.539423834437132,-0.1925469040870666,-0.1572160869836807,-0.1259397119283676
1783196886280344800,0.5063447265625,0.5621861392378806,2.892439351096749,3.5132167955130336,-0.346063494682312,-0.0639977306127548,-0.0765162259340286
1783196886290282800,0.51628271484375,0.5445331397779286,2.999044453337788,3.596988719177246,-0.4937881529331207,0.0765660256147384,-0.0492101646959781
1783196886300219600,0.5262197265625,0.3500238363735377,3.127159961119294,3.8505776957988735,-0.6566787362098694,0.1876033395528793,-0.0262883361428976
1783196886310157800,0.53615771484375,0.1142810436964035,3.1211124976485967,3.877624692678451,-0.8156746625900269,0.2305653691291809,-0.0063703907653689
1783196886320094700,0.5460947265625,0.1445433493606746,2.910623242563009,3.765574184513092,-0.9432685971260072,0.2427011281251907,-0.0025088069960474
1783196886330031900,0.556031982421875,0.228452927929908,2.852138320368528,3.740841894316673,-1.0197579860687256,0.2421051412820816,-0.0360304974019527
1783196886339969800,0.5659697265625,0.2089827960453927,2.9686043068885803,3.729842945918441,-1.0408196449279783,0.240779161453247,-0.1171336024999618
1783196886349907000,0.575906982421875,0.1857742082849144,3.096955961513519,3.781171566617489,-1.020822286605835,0.2459673583507537,-0.2031819820404052
1783196886359844900,0.585844970703125,0.2754617857336998,3.176625710555911,3.878180572995544,-0.9895602464675904,0.2208268493413925,-0.2669287323951721
1783196886369781800,0.59578173828125,0.3247320125982165,3.190793936640024,3.8873628273606298,-0.9852834939956664,0.1339884549379348,-0.2849196195602417
1783196886379718700,0.60571875,0.4440903595589101,3.109381143322586,3.8800802691370246,-1.0365408658981323,-0.0438185557723045,-0.2328649461269378
1783196886389656800,0.61565673828125,0.6509896273285151,2.940217001315951,3.74383055473864,-1.1388076543807983,-0.2885364294052124,-0.1163991913199424
1783196886399593700,0.62559375,0.8870426549986005,2.6609628375619647,3.564949905359745,-1.2680743932724,-0.4904423952102661,0.0574911125004291
1783196886409532000,0.635531982421875,1.0139565319053827,2.338655714023113,3.4790427232325074,-1.4396932125091553,-0.6250872015953064,0.2409686893224716
1783196886419468800,0.64546875,0.8772172804243862,2.1166034469157458,3.291732683682441,-1.634419322013855,-0.7031369805335999,0.4023969769477844
1783196886429407000,0.655406982421875,0.5544369864158332,2.0690902928516266,2.9799440315485,-1.8681929111480715,-0.7545009851455688,0.5369232296943665
1783196886439343900,0.66534375,0.1297863636031747,1.978618287026882,2.525540221637488,-2.111290454864502,-0.7857145071029663,0.6265537738800049
1783196886449280800,0.67528076171875,-0.1745699465729296,1.7888661150217056,1.9318337394982572,-2.3361926078796387,-0.7440943121910095,0.6879264116287231
1783196886459218700,0.68521875,-0.4124704287406057,1.4583996504247188,1.3427362124592066,-2.5055506229400635,-0.7254987955093384,0.7217970490455627
1783196886469155800,0.69515576171875,-0.5650030963547528,1.017110758152604,0.3537894725173711,-2.5784897804260254,-0.7117354869842529,0.716616690158844
1783196886479093800,0.70509375,-0.683032240538299,0.5848357779413461,-0.6712105775803328,-2.519047975540161,-0.6123538017272949,0.6898428797721863
1783196886489031000,0.715031005859375,-0.7335596278570592,0.2499824765622615,-1.465553029310703,-2.3456525802612305,-0.374789834022522,0.6247155070304871
1783196886498967800,0.7249677734375,-0.7032723338820039,-0.0846478297159075,-2.0299533374667167,-2.0930376052856445,-0.1200007051229476,0.5207033753395081
1783196886508906000,0.734906005859375,-0.6189843504544347,-0.4171718113645911,-2.5969763953417537,-1.8130463361740112,0.0283355712890625,0.3978505432605743
1783196886518842600,0.744842529296875,-0.5323967848476022,-0.6565703500702976,-2.9793501573085783,-1.5756564140319824,0.0540151000022888,0.2985990643501282
1783196886528780800,0.75478076171875,-0.4097209839019924,-0.8913990966424346,-3.0261276905745267,-1.4276291131973269,-0.0269324779510498,0.2467603534460067
1783196886538717700,0.7647177734375,-0.3285584390185773,-1.1368448065578938,-2.90243525993228,-1.3907558917999268,-0.2217408567667007,0.2402758151292801
1783196886548654800,0.77465478515625,-0.271524811610952,-1.4412942018449306,-2.8914538471907374,-1.4062315225601196,-0.477842628955841,0.272554337978363
1783196886558592800,0.7845927734375,-0.2184827380575239,-1.8640321229040624,-3.049337301248312,-1.4206418991088867,-0.7290616035461426,0.2812634110450744
1783196886568530000,0.794530029296875,-0.2267019195441156,-2.16717394272387,-3.3943940167337656,-1.384987235069275,-0.959509551525116,0.2330937534570694
1783196886578467800,0.8044677734375,-0.3066385758943855,-2.394902940293401,-4.117850329858064,-1.280595302581787,-1.013825535774231,0.127023234963417
1783196886588405000,0.814405029296875,-0.5904023990925401,-2.5141440906152126,-4.413243727508187,-1.1726740598678589,-0.8712342381477356,-0.0101859206333756
1783196886598343000,0.824343017578125,-0.9211378168240189,-2.4439655157566067,-4.3990375075012444,-1.0729777812957764,-0.5769962072372437,-0.1541769057512283
1783196886608279800,0.83427978515625,-1.1078066358610987,-2.364925881311297,-4.28966294054687,-0.998251974582672,-0.2272926568984985,-0.264071524143219
1783196886618216700,0.844216796875,-1.062739852035791,-2.311733512566984,-4.465919086641073,-0.912710428237915,0.0300768222659826,-0.3111144006252289
1783196886628155000,0.85415478515625,-0.8500305828131735,-2.260808504232764,-4.932617729979754,-0.7750939726829529,0.3111204504966736,-0.2723506987094879
1783196886638091800,0.864091796875,-0.549793909850344,-2.297609856276959,-5.087310863563418,-0.5847262144088745,0.5318962931632996,-0.2071384042501449
1783196886648029700,0.87402978515625,-0.3605779636137187,-2.267743125801533,-5.284458991038799,-0.3650574684143066,0.6389167308807373,-0.147526353597641
1783196886657966800,0.883966796875,-0.2803817064791917,-2.206296285061538,-5.348982024353743,-0.1359403729438781,0.6249846816062927,-0.1106005609035492
1783196886667904800,0.89390478515625,-0.1887527857042849,-2.200737189629674,-5.372629441922903,0.1013142466545105,0.5045509338378906,-0.1067794561386108
1783196886677842000,0.903842041015625,-0.1036069433383643,-2.2330054282888767,-5.364039308232068,0.3495813012123108,0.3464118838310241,-0.1121071130037307
1783196886687778800,0.91377880859375,-0.0383724007532,-2.249522263325751,-5.280921464562415,0.6112949252128601,0.1905287206172943,-0.1170825064182281
1783196886697716700,0.923716796875,-0.0669339669141918,-2.1242207900516688,-5.112141353437305,0.8894085884094238,0.0787404030561447,-0.1232567802071571
1783196886707654000,0.93365380859375,-0.1533230142742395,-1.8803085733138023,-4.959454883500934,1.1603493690490725,0.0132124572992324,-0.1335455328226089
1783196886717591800,0.943591796875,-0.3132665426667779,-1.5780036427095532,-4.8617479579865925,1.4044315814971924,0.067233882844448,-0.1544255167245865
1783196886727528700,0.95352880859375,-0.5229794065523893,-1.3253598379835485,-4.499622034278512,1.593353033065796,0.2102394551038742,-0.1988041251897812
1783196886737465900,0.9634658203125,-0.6221156342174857,-1.0345432467296718,-4.00843893802464,1.7178558111190796,0.3399726748466491,-0.2522031962871551
1783196886747403800,0.97340380859375,-0.4968385647322982,-0.7212573417752981,-3.589759936967492,1.7888447046279907,0.3923702836036682,-0.293852150440216
1783196886757341000,0.9833408203125,-0.2831689991101622,-0.4673278811529278,-3.1571190460532903,1.8133574724197388,0.3911058008670807,-0.3044494092464447
1783196886767278800,0.99327880859375,-0.0385932038970291,-0.2707067001610994,-2.6690432681649923,1.7969990968704224,0.3380182683467865,-0.2784646451473236
1783196886777215700,1.0032158203125,0.1692271973054856,-0.1070943470627069,-2.269747012969851,1.7661551237106323,0.267524391412735,-0.2245026230812072
1783196886787153700,1.013153564453125,0.2734158129893243,0.0256339152112603,-1.7719301777899263,1.7457523345947266,0.1503735333681106,-0.1714667528867721
1783196886797090800,1.0230908203125,0.4316727765344083,0.1475692730531096,-1.4381331074655055,1.7373167276382446,-0.0451477579772472,-0.1179995462298393
1783196886807030000,1.033030029296875,0.4286595661930739,0.1887789430588483,-1.3615928886204958,1.7480814456939695,-0.1283882707357406,-0.0797442644834518
1783196886816967000,1.042966796875,0.2155066448561847,0.3117483201235532,-0.9599608839541672,1.7659987211227417,-0.1707312017679214,-0.0804095193743705
1783196886826904000,1.052904052734375,0.0861139567457139,0.4852431848108768,-0.8983581220000981,1.8033406734466555,-0.160813882946968,-0.1205422803759574
1783196886836842000,1.062842041015625,-0.034869945590198,0.6467199871852993,-0.716091337314248,1.8579572439193728,-0.1070880591869354,-0.2005937099456787
1783196886846779100,1.072779052734375,-0.1232885990817099,0.9188780551984904,-0.3687456341087818,1.9275883436203003,-0.0473636463284492,-0.2900781631469726
1783196886856717000,1.082717041015625,-0.1226811347078531,1.2382368503257632,0.0979722984522581,1.9840902090072632,-0.0548053160309791,-0.36371910572052
1783196886866654200,1.092654296875,-0.0107406627882272,1.5162357533216475,0.53130292519629,2.0047318935394287,-0.143658310174942,-0.3906031847000122
1783196886876592000,1.102592041015625,0.1928838941596448,1.744403580699861,1.0132587588995694,1.9752603769302368,-0.3070743978023529,-0.3784424066543579
1783196886886529000,1.112529052734375,0.4337894033621996,1.9507137965351344,1.426231657269597,1.9087027311325075,-0.4861446619033813,-0.3503421247005462
1783196886896466000,1.1224658203125,0.6875291135661303,2.100181304425001,1.7348405103236435,1.8183780908584597,-0.5980783700942993,-0.3238053321838379
1783196886906404000,1.132404052734375,0.8988076923985033,2.178604852798581,1.9746376929581164,1.717388391494751,-0.6327103972434998,-0.2992117702960968
1783196886916341000,1.142341064453125,0.9722072751302272,2.281352110567689,2.1085557495385405,1.6152228116989136,-0.5924798846244812,-0.2880637645721435
1783196886926279200,1.152279052734375,0.9496467760149389,2.4741741915374997,2.2160312048733237,1.4999855756759644,-0.4682900309562683,-0.2982903122901916
1783196886936216000,1.162216064453125,0.808460920388624,2.700852949401736,2.412122516772151,1.3689380884170532,-0.3162722587585449,-0.3074947297573089
1783196886946154200,1.172154296875,0.7703283928059041,2.83837107630074,2.450352586445212,1.2307549715042114,-0.1649204343557357,-0.2965405583381653
1783196886956091100,1.182091064453125,0.8242681458514183,2.771485405507684,2.372569089540839,1.1019285917282104,0.0358691215515136,-0.2469985634088516
1783196886966028000,1.192028076171875,0.8695373934462666,2.655589327830076,2.4875942296028137,0.992833971977234,0.2248849123716354,-0.17853744328022
1783196886975966000,1.201966064453125,0.8942204376734793,2.600517428949475,2.4713345841974017,0.9117835760116576,0.359314352273941,-0.112760029733181
1783196886985903000,1.211903076171875,0.88032247989811,2.611442727589607,2.503462245342136,0.8666709065437317,0.4375852048397064,-0.065877266228199
1783196886995841000,1.221841064453125,0.8238220825843513,2.6509470549821854,2.6250585804879663,0.8588584661483765,0.466976910829544,-0.0401151776313781
1783196887005778200,1.231778076171875,0.6964869845908135,2.6896441576451062,2.8136171587944028,0.8601859211921692,0.4383703470230102,-0.0342007279396057
1783196887015716000,1.241716064453125,0.6135049691952764,2.7512428279459478,3.064069006434083,0.8518568873405457,0.3602454662322998,-0.0308185145258903
1783196887025653200,1.2516533203125,0.6099906774640083,2.7762632874339817,3.329487537059188,0.8132016658782959,0.236546128988266,-0.0336102321743965
1783196887035590100,1.261590087890625,0.6294559870429337,2.7729917184174058,3.556251635119319,0.7306321859359741,0.1035446673631668,-0.0432628579437732
1783196887045528000,1.271528076171875,0.685174367133528,2.784381711959839,3.801775378707051,0.6046696901321411,-0.0134917395189404,-0.0523006655275821
1783196887055465000,1.28146484375,0.7591625634081661,2.750433849650621,4.024139195981621,0.4331718981266022,-0.0866588950157165,-0.0509152896702289
1783196887065403000,1.29140283203125,0.8179825627759099,2.643527718636393,4.209067308831215,0.2308964878320694,-0.1357169598340988,-0.020273171365261
1783196887075340000,1.301340087890625,0.8979930880799889,2.505346743914485,4.293245475208759,0.0216718986630439,-0.164782166481018,0.0325793884694576
1783196887085278000,1.31127783203125,0.8396974779125302,2.3520938722670075,4.286246994623542,-0.1869604885578155,-0.1811170428991317,0.0991060808300972
1783196887095215000,1.321215087890625,0.7454914731912314,2.250581124728918,4.255296560564637,-0.3931155502796173,-0.2189701497554779,0.1766975373029709
1783196887105153000,1.331153076171875,0.6678725191988051,2.188038451576233,4.087410767930746,-0.5946590304374695,-0.2535436451435089,0.2473175078630447
1783196887115090200,1.341090087890625,0.5434954672932625,2.074194045731425,3.893084127616882,-0.8034213185310364,-0.2481187880039215,0.3114799559116363
1783196887125027000,1.351027099609375,0.3441012413915246,1.9566624758064743,3.6711312292307614,-1.0143208503723145,-0.2049745768308639,0.362085610628128
1783196887134965000,1.360965087890625,0.1585609879929572,1.8327987802505488,3.332974210131168,-1.2384068965911863,-0.1951403319835662,0.3933122158050537
1783196887144902000,1.37090185546875,-0.0074045771680772,1.5684265438079834,2.820060928106308,-1.4482579231262207,-0.1442425400018692,0.4124003648757934
1783196887154840000,1.380840087890625,-0.1827328678276389,1.1819131978183983,2.438813539820909,-1.6143544912338257,-0.0444634780287742,0.4217832088470459
1783196887164777000,1.39077685546875,-0.3113231535140425,0.909966142207384,2.064397458860278,-1.7337243556976318,0.0067250016145408,0.4142085909843445
1783196887174715100,1.400715087890625,-0.3833632113955915,0.7869955960988998,1.4456944826304912,-1.7791975736618042,-0.0176746137440204,0.4065738320350647
1783196887184652000,1.410652099609375,-0.4087246663410216,0.6230103180348873,0.7191080547869205,-1.778406858444214,-0.0661651864647865,0.4059421420097351
1783196887194590200,1.420590087890625,-0.4756288957040757,0.48475218642354,0.08614449801445,-1.7643507719039917,-0.0781936198472976,0.430381715297699
1783196887204527000,1.430527099609375,-0.5885169506721198,0.39146483091712,-0.4724503387331962,-1.7528215646743774,-0.0210121590644121,0.4806382358074188
1783196887214464000,1.440464111328125,-0.6903421982254833,0.227870013475418,-0.9727402860283852,-1.7726911306381226,0.0546935200691223,0.5300356149673462
1783196887224402000,1.45040185546875,-0.7424497674077749,0.0459989501088857,-1.6391250508874653,-1.791352391242981,0.1130558177828788,0.581917941570282
1783196887234339000,1.460339111328125,-0.8636055191792548,-0.1946332220450043,-2.3134201504796743,-1.7476491928100586,0.363395631313324,0.6221185922622681
1783196887244277000,1.470277099609375,-0.813533693608269,-0.3986062271043658,-1.7090742009043691,-1.6794519424438477,0.3641663789749145,0.6066995859146118
1783196887254214100,1.480214111328125,-0.284428351521492,-0.7279144615769386,-2.478728786101937,-1.6334959268569946,-0.0330105349421501,0.5414460301399231
1783196887264152000,1.490152099609375,-0.1204121668625622,-1.2777943692103026,-3.409872740894556,-1.58477520942688,-0.2627987563610077,0.5138844847679138
1783196887274089200,1.500089111328125,-0.2097815452076494,-1.7458236766308546,-3.3701883807599544,-1.5248721837997437,-0.3225702345371246,0.4849713146686554
1783196887284027100,1.510027099609375,-0.5339630112510174,-1.7604317554369568,-3.9013977824538943,-1.4174543619155884,-0.2289128899574279,0.445566177368164
1783196887293964000,1.519964111328125,-0.8238925905372947,-1.8634362028375264,-4.338995418992639,-1.2594200372695925,-0.0087823970243334,0.379072368144989
1783196887303901000,1.52990087890625,-0.9336245926272124,-2.0600962545350194,-4.614851757001877,-1.0777183771133425,0.2182913422584533,0.2883850634098053
1783196887313838800,1.5398388671875,-0.9359196447618304,-2.168847136633098,-4.767224923205376,-0.9029134511947632,0.4019615650177002,0.1901413351297378
1783196887323776000,1.54977587890625,-0.8157491777006536,-2.3107585300549864,-4.627447034680843,-0.7547066807746887,0.5222248435020447,0.1106254607439041
1783196887333714000,1.5597138671875,-0.6785400436855852,-2.467191785304248,-4.299741851490736,-0.634392499923706,0.599755585193634,0.060311421751976
1783196887343651000,1.569651123046875,-0.7124257274787873,-2.491282562726736,-3.680460783112049,-0.5439590215682983,0.5791158080101013,0.0367158539593219
1783196887353589000,1.579589111328125,-0.6885501271769404,-2.4718521783307192,-3.2751357691466807,-0.4695519208908081,0.3901825845241546,0.0431005172431468
1783196887363526100,1.589526123046875,-0.542174155561626,-2.5580893230646846,-3.2274703471302986,-0.3700200021266937,0.0701142475008964,0.0706179365515708
1783196887373464000,1.599464111328125,-0.4909276601880789,-2.710618264351785,-3.4911002407729623,-0.1689713150262832,-0.1491086483001709,0.0900662019848823
1783196887383401200,1.609401123046875,-0.5754394424341619,-2.7741315361022947,-3.5391637221962213,0.1212916821241378,-0.2448962032794952,0.0536251775920391
1783196887393337900,1.619337890625,-0.7391619779087603,-2.5433038418650624,-3.5675709015131,0.4404507577419281,-0.2938080728054046,-0.0507845841348171
1783196887403276000,1.629276123046875,-0.8528294928167015,-2.262293189832568,-3.604381167516112,0.7605626583099365,-0.2431524097919464,-0.1800300180912017
1783196887413213000,1.639212890625,-0.8965753302365541,-1.9666499090746044,-3.294838833004236,1.0335087776184082,-0.1050416827201843,-0.3018419444561004
1783196887423151000,1.649151123046875,-0.9273089797396212,-1.552678939577937,-2.771927304056286,1.227072834968567,0.0080235842615365,-0.3900109827518463
1783196887433088000,1.659087890625,-0.7955861681811511,-1.1534735775366425,-2.330652440309525,1.3336981534957886,0.0529015734791755,-0.4288555979728699
1783196887443026200,1.669026123046875,-0.5215381217028945,-0.918351400975883,-1.92213184517324,1.3698984384536743,0.0263329036533832,-0.423584520816803
1783196887452963000,1.678963134765625,-0.2178286580629646,-0.7436807705074548,-1.578897084417939,1.3696800470352173,-0.0511131510138511,-0.3892417252063751
1783196887462901000,1.68890087890625,0.0062130292959511,-0.5144175491079688,-1.299075349909067,1.3291571140289309,-0.1546231508255005,-0.348281055688858
1783196887472838100,1.698838134765625,0.1586835914593189,-0.2652452198848128,-1.057070428097248,1.265419363975525,-0.2390647977590561,-0.3040014803409576
1783196887482776000,1.708776123046875,0.3042870443321764,-0.1473641058698296,-0.8992828356295823,1.184111714363098,-0.2708717286586761,-0.2539003491401672
1783196887492713000,1.718712890625,0.351151671359688,-0.1366229316249489,-0.7722808420479297,1.089092493057251,-0.2189219892024994,-0.2078534960746765
1783196887502650000,1.728650146484375,0.3074488693639636,-0.1235083062469959,-0.6440963606834411,0.98493891954422,-0.1636691242456436,-0.173497661948204
1783196887512588000,1.738588134765625,0.1953786335848271,-0.0823421831220388,-0.7478443199276924,0.8896430134773254,-0.0846222266554832,-0.1533471196889877
1783196887522525200,1.748525146484375,0.0726411655798554,-0.0904401493817567,-0.8549971191793679,0.8259268999099731,0.0364892818033695,-0.1418300122022628
1783196887532463000,1.758463134765625,-0.0092661332562565,-0.0954731751129031,-0.9600321956247092,0.8151274919509888,0.0893865823745727,-0.1372778713703155
1783196887542400000,1.76839990234375,-0.0964800871331244,-0.0398702380955219,-1.3566414036929606,0.8872522115707397,0.1616639047861099,-0.1386344283819198
1783196887552338200,1.778338134765625,-0.194401239920035,0.0901052183389663,-1.383944421160221,1.0241546630859375,0.2350640892982483,-0.1429298371076584
1783196887562275000,1.788275146484375,-0.3011892244473099,0.3361854267656803,-1.2878379165798426,1.1919628381729126,0.2483791261911392,-0.1471679508686065
1783196887572213200,1.798213134765625,-0.3406364878904074,0.5732645826131105,-1.170332065618038,1.377198576927185,0.2037045955657959,-0.1468390524387359
1783196887582150000,1.80814990234375,-0.3019606472112238,0.7191735212385654,-0.9436562303632496,1.548020839691162,0.1034390106797218,-0.1393146365880966
1783196887592088000,1.818088134765625,-0.2281113479506224,0.8511702543675899,-0.6802151372909545,1.6720432043075562,-0.0232219956815242,-0.1410696506500244
1783196887602025000,1.82802490234375,-0.1694326567497104,1.0198352146804333,-0.3547480884164571,1.7295007705688477,-0.1458997428417205,-0.1501813232898712
1783196887611962000,1.837962158203125,-0.1252691053744405,1.199950374290347,0.0384942735671997,1.7305277585983276,-0.2180306613445282,-0.1633794009685516
1783196887621900000,1.847900146484375,-0.0783341165244579,1.330994921261072,0.4380161542117595,1.6811150312423706,-0.2282504439353943,-0.1822150200605392
1783196887631837200,1.857837158203125,-0.0486383587017655,1.446511644232273,0.8103694574236869,1.5734673738479614,-0.197955384850502,-0.2065981179475784
1783196887641775000,1.867775146484375,-0.01585011475645,1.5555547872751951,1.1297639083862303,1.4318201541900637,-0.1438176333904266,-0.23503378033638
1783196887651712300,1.877712158203125,0.0300665638964623,1.646794562602043,1.4259703759849072,1.2583096027374268,-0.0707905516028404,-0.2584938406944275
1783196887661650200,1.887650146484375,0.0848318810459226,1.7287901242434978,1.6927490890473127,1.0630820989608765,0.0063400911167263,-0.2746728360652923
1783196887671587000,1.897587158203125,0.1368677001662552,1.775155569577217,1.9093553657084703,0.8589877486228943,0.078926146030426,-0.2691169381141662
1783196887681525000,1.90752490234375,0.2029867705009877,1.7657231398433446,1.949077135244012,0.6890314221382141,0.1180005073547363,-0.2527941167354584
1783196887691462100,1.917462158203125,0.2427946839500218,1.7155542105734347,1.8195622820585968,0.5763741135597229,0.1999281197786331,-0.2449923902750015
1783196887701400000,1.927400146484375,0.2479658760428428,1.7656331234723328,1.9285364515185357,0.5071228742599487,0.2943837940692901,-0.2514031529426574
1783196887711337200,1.937337158203125,0.2064637989617884,1.910445499032736,2.023162362152338,0.4460664689540863,0.3498353362083435,-0.2606065273284912
1783196887721275100,1.947275146484375,0.1901166214033961,1.9866075322151184,2.104503259277344,0.380402147769928,0.3750020265579223,-0.2598765194416046
1783196887731212000,1.9572119140625,0.2033097188450396,2.0070494317412377,2.232508876943588,0.2990471124649048,0.3672359883785248,-0.2510952651500702
1783196887741149000,1.96714892578125,0.2280377712577581,2.000793293955922,2.3655916517436504,0.206608310341835,0.3454148769378662,-0.2453782111406326
1783196887751086800,1.9770869140625,0.2133358766883611,2.026634422177076,2.5378724644660946,0.1103590056300163,0.3337704837322235,-0.2582601904869079
1783196887761024000,1.98702392578125,0.2388406125620007,2.0990069999486205,2.669208103337884,0.0195826292037963,0.3189593851566314,-0.2702543139457702
1783196887770962000,1.9969619140625,0.3585270224332809,2.140515652900934,2.71626971424222,-0.0537232756614685,0.2867713570594787,-0.2700566947460174
1783196887780899000,2.006899169921875,0.4991815476618707,2.154310954019427,2.6847277440309525,-0.1128227487206459,0.2472282946109771,-0.2634829580783844
1783196887790837000,2.0168369140625,0.6052262395411729,2.179704922994971,2.677518251043558,-0.1565513163805008,0.2147300243377685,-0.2428610175848007
1783196887800774100,2.026774169921875,0.6986727311320603,2.199080070072412,2.752299643522501,-0.1964480727910995,0.2013412564992904,-0.2135387361049652
1783196887810712300,2.03671240234375,0.7753796848461032,2.237172777101397,2.845885105192661,-0.2415755987167358,0.1854216903448104,-0.1722464263439178
1783196887820649500,2.0466494140625,0.8742879489742219,2.2411434342980385,2.8979397020787,-0.2914782464504242,0.1234587877988815,-0.1087581887841224
1783196887830587400,2.05658740234375,0.9554287934824824,2.146321708831191,2.8105817366212604,-0.3399800062179565,0.0453650504350662,-0.0203417725861072
1783196887840524500,2.066524658203125,1.0560193116091192,2.011828482711315,2.793671518352628,-0.382534384727478,-0.0385843738913536,0.0863966196775436
1783196887850462500,2.07646240234375,1.0807270518861711,1.8926561598420144,2.765850029969215,-0.4140686094760895,-0.1074209585785865,0.1927550137042999
1783196887860399400,2.0863994140625,0.938127822330594,1.7910200781852006,2.7890368442893028,-0.4637303352355957,-0.1543361395597458,0.2763898074626922
1783196887870336500,2.09633642578125,0.682393504243344,1.6844371877759694,2.8098727115690707,-0.5424451231956482,-0.2059700340032577,0.3316676914691925
1783196887880274400,2.1062744140625,0.3971948990017175,1.616952382045984,2.7912743940830227,-0.6668968796730042,-0.262341171503067,0.3714679777622223
1783196887890211300,2.11621142578125,0.1338394383862614,1.5692542268037797,2.75625451862812,-0.8287251591682434,-0.2857370376586914,0.3762635290622711
1783196887900149200,2.126149169921875,-0.0913454276584088,1.5135878691613671,2.681156899806857,-1.0195355415344238,-0.2666262090206146,0.3381057679653168
1783196887910086400,2.13608642578125,-0.2934094938239082,1.50390351049304,2.562300218757987,-1.221279501914978,-0.210657462477684,0.2591603398323059
1783196887920024300,2.1460244140625,-0.3818657759120688,1.4989508565217255,2.370476501175761,-1.4121699333190918,-0.1278534829616546,0.1643417477607727
1783196887929961500,2.15596142578125,-0.3702471247129142,1.4745119963139297,2.142403658604622,-1.559085249900818,-0.0476321429014205,0.0942835658788681
1783196887939899400,2.1658994140625,-0.2378036707296967,1.4004326146245,1.8078899644434447,-1.6314514875411987,0.0077064530923962,0.0923638865351677
1783196887949836500,2.17583642578125,-0.0167831578228622,1.1883172196418046,1.4329893148362636,-1.607758641242981,0.05369658395648,0.1614822447299957
1783196887959774500,2.1857744140625,0.1955884038779884,0.8367652969181537,1.148612401241064,-1.4897441864013672,0.056066196411848,0.2807062566280365
1783196887969711600,2.195711669921875,0.275887098473683,0.5117652810335159,0.8996791414707899,-1.3233259916305542,-0.0633374229073524,0.3968115448951721
1783196887979649500,2.2056494140625,0.1179459959447383,0.306821385115385,0.6408826593339443,-1.1913751363754272,-0.2502860426902771,0.4702171683311462
1783196887989586400,2.21558642578125,-0.2495101828753948,0.2660153274744748,0.5448007046729326,-1.1675028800964355,-0.4480230808258056,0.4943528771400451
1783196887999523300,2.2255234375,-0.611291603994742,0.1383966632992029,0.4588917689800262,-1.2515133619308472,-0.5737168192863464,0.4711887538433075
1783196888009461500,2.23546142578125,-0.9135903240539132,-0.0052794017076492,0.3591980535626411,-1.418170690536499,-0.6255933046340942,0.3949765563011169
1783196888019398400,2.2453984375,-1.0607072502296415,-0.1189677402079105,0.1139314996063709,-1.618843913078308,-0.6254112124443054,0.2938626408576965
1783196888029336600,2.255336669921875,-0.9815666396278888,-0.3003147797003388,-0.2792857279360294,-1.8008228540420532,-0.588687002658844,0.224039614200592
1783196888039273500,2.2652734375,-0.7335466222450137,-0.503297896939516,-0.8262374731630087,-1.9210000038146973,-0.5337424278259277,0.1982107758522033
1783196888049211400,2.27521142578125,-0.4580827906847,-0.6376484997183084,-1.581015976268053,-1.9524776935577397,-0.4609971642494201,0.2176688909530639
1783196888059148500,2.2851484375,-0.275692671880126,-0.705100864483416,-2.332361582314968,-1.8999061584472656,-0.3533375561237335,0.255522757768631
1783196888069086500,2.29508642578125,-0.1772267446920275,-0.7706646390229464,-2.9037872590631246,-1.7882394790649414,-0.2549598515033722,0.3058788478374481
1783196888079023400,2.3050234375,-0.1572434025883674,-0.947829716655612,-3.41406200927794,-1.64363431930542,-0.1984371542930603,0.350730150938034
1783196888088961300,2.314961181640625,-0.179329562190175,-1.2660749975830317,-3.830100724959373,-1.486937165260315,-0.161319613456726,0.377592921257019
1783196888098898400,2.3248984375,-0.273371681586653,-1.6066329403445123,-4.095714485895633,-1.3397023677825928,-0.1553279757499694,0.3721363544464111
1783196888108836400,2.33483642578125,-0.4444705910481512,-1.868742200291157,-4.304056207558513,-1.209438681602478,-0.1751067489385604,0.3499005436897278
1783196888118773500,2.3447734375,-0.5956638998173177,-2.1501286998987195,-4.515622151964903,-1.0747957229614258,-0.1847765743732452,0.3178414404392242
1783196888128711400,2.35471142578125,-0.654626522526145,-2.422351065319776,-4.748568153530359,-0.9121885299682616,-0.1716514527797699,0.270494669675827
1783196888138648600,2.364648681640625,-0.7048031967110931,-2.5081238074123857,-4.948482823109626,-0.7162039279937744,-0.1325091123580932,0.2000889778137207
1783196888148586500,2.37458642578125,-0.7411410228967666,-2.4891473042637107,-5.0808419598102565,-0.4915148913860321,-0.0743803009390831,0.1220969632267952
1783196888158523400,2.3845234375,-0.7188624094627797,-2.4285873293608424,-5.092736395743489,-0.2687990367412567,0.0017628101631999,0.0503362789750099
1783196888168460300,2.394460205078125,-0.6174652511283755,-2.339372045598924,-4.961142982718348,-0.0681061521172523,0.0507889427244663,-0.002929339185357
1783196888178398500,2.4043984375,-0.4618231462568044,-2.257628412891924,-4.870960022968053,0.0972610414028167,0.0601094737648963,-0.0232011806219816
1783196888188335400,2.41433544921875,-0.3125863783828914,-2.278731698936224,-4.7939738139212125,0.2558890283107757,0.0777265504002571,-0.0120175015181303
1783196888198273500,2.4242734375,-0.1575285031400621,-2.3648308965042237,-4.683288748890162,0.4288985431194305,0.080151118338108,0.0008607970084995
1783196888208210400,2.43421044921875,-0.0543048600308597,-2.3780407989501957,-4.692359359574318,0.6388909220695496,0.0667796581983566,0.0081876851618289
1783196888218148400,2.4441484375,-0.0173345811605453,-2.2440113909497854,-4.598455333474278,0.8806433081626892,0.0690832212567329,0.0049511846154928
1783196888228085500,2.45408544921875,-0.0334893048867583,-1.987820415136218,-4.345007226628065,1.1219145059585571,0.0680776163935661,0.0007010460831224
1783196888238023400,2.4640234375,-0.0887380216389894,-1.6994357272043823,-3.999197646948695,1.338394284248352,0.0432282537221908,0.005147295538336
1783196888247960300,2.473960205078125,-0.142063076852262,-1.4846131190896033,-3.5660137351989745,1.498989224433899,-0.0013991319574415,0.0135959070175886
1783196888257898200,2.483898193359375,-0.1571115929022431,-1.34091162738055,-3.1247119834452866,1.6059577465057373,-0.0471837967634201,0.0239094533026218
1783196888267835400,2.49383544921875,-0.1804275865599513,-1.2438196188941597,-2.7535762393295764,1.6648051738739014,-0.0773512870073318,0.0192792806774377
1783196888277773300,2.503773193359375,-0.2765658014528453,-1.0959031398385763,-2.3971412207394835,1.6916519403457642,-0.0709155574440956,-0.0090900175273418
1783196888287710500,2.51371044921875,-0.3949330915495753,-0.8661252469152212,-2.039059019464254,1.708752155303955,-0.0380145944654941,-0.0598205737769603
1783196888297648400,2.5236484375,-0.4738024839945137,-0.6282958572223782,-1.7339771714925765,1.7132354974746704,-0.0158609263598918,-0.1169256865978241
1783196888307585500,2.53358544921875,-0.498158926615864,-0.4217857349008321,-1.4870435611069202,1.7009060382843018,-0.001300357747823,-0.1652822941541671
1783196888317523500,2.5435234375,-0.4981983818434178,-0.2211407052204012,-1.2094400871694089,1.6808586120605469,0.019800666719675,-0.1992932558059692
1783196888327460600,2.553460693359375,-0.459549502236396,-0.0178711722552776,-0.9704355162173508,1.6476407051086426,0.0420556403696537,-0.2345338016748428
1783196888337397200,2.563397216796875,-0.448834193085134,0.2228273431330919,-0.7383861712306737,1.6156070232391355,0.0806213691830635,-0.2717209160327911
1783196888347335400,2.57333544921875,-0.4543148164533078,0.4449322172105312,-0.4967869076102972,1.5730273723602295,0.112780638039112,-0.3153027296066284
1783196888357272300,2.583272216796875,-0.4411589822821319,0.6560965950787067,-0.2508703653126954,1.5233677625656128,0.1365985125303268,-0.3616342842578888
1783196888367210500,2.59321044921875,-0.3928229675278067,0.828959591603279,-0.0107446813762187,1.4782942533493042,0.1399652808904647,-0.3942598700523376
1783196888377147400,2.6031474609375,-0.2723470147140324,0.971698083499074,0.1382756672680377,1.4475595951080322,0.0931191220879554,-0.4159618616104126
1783196888387085300,2.613085205078125,-0.141097885081917,1.147702300658822,0.1253735155969858,1.4552918672561646,0.0433438345789909,-0.4238602519035339
1783196888397022500,2.6230224609375,-0.0916845964848995,1.353757957211137,0.1902425858706235,1.4767053127288818,0.0628770962357521,-0.4262601137161255
1783196888406960400,2.63296044921875,-0.0642695700105279,1.5994295848369595,0.4077420119792223,1.4706772565841677,0.0864703059196472,-0.428687036037445
1783196888416897500,2.6428974609375,-0.0499731144368648,1.7895172724068165,0.5666448722124099,1.4402908086776731,0.1149404272437095,-0.4296680986881256
1783196888426835500,2.65283544921875,-0.0261713830888271,1.88981012276113,0.7902005296200514,1.386215329170227,0.1500811129808426,-0.4233548045158386
1783196888436772400,2.6627724609375,0.0252930658843368,1.9525854356259107,1.0317945325434208,1.3203577995300293,0.1726607233285904,-0.4067973792552948
1783196888446710300,2.672710205078125,0.0932890360068529,1.991483613818884,1.1868757886618375,1.265153169631958,0.1757912635803222,-0.3869872093200683
1783196888456647400,2.6826474609375,0.1468553526300937,2.039842863318324,1.3415794436395168,1.2240769863128662,0.1757014840841293,-0.3684420585632324
1783196888466585300,2.69258544921875,0.2042878431621939,2.095671718046069,1.5559943477362392,1.1916213035583496,0.1675828248262405,-0.3488507866859436
1783196888476522500,2.7025224609375,0.2381422550342977,2.190494612556696,1.7909809152185916,1.1466739177703855,0.1364541053771972,-0.3241073787212372
1783196888486460400,2.71246044921875,0.2663095611806959,2.272873620557785,2.037245248040557,1.0878169536590576,0.0802475661039352,-0.2935545146465301
1783196888496397600,2.7223974609375,0.3318628143262118,2.2971289408922195,2.2911779235333203,1.0020382404327393,0.0066224765032529,-0.2563797831535339
1783196888506335500,2.73233544921875,0.3412489207003265,2.332251107677817,2.529500357440114,0.8864334225654602,-0.0441562831401824,-0.2298422008752823
1783196888516272600,2.742272705078125,0.3109380266539752,2.391413490742445,2.760195365208387,0.758164644241333,-0.0323926657438278,-0.2121757417917251
1783196888526209300,2.752209228515625,0.251947346894443,2.4156045136690136,2.972820463278889,0.6109365820884705,0.0387675277888774,-0.2096515893936157
1783196888536147500,2.7621474609375,0.0939744609877467,2.470755907526612,3.196743200433254,0.4452394843101501,0.1259732991456985,-0.2423685938119888
1783196888546084400,2.77208447265625,-0.0354296983648091,2.6116502328604456,3.462045411202311,0.2737670540809631,0.21602863073349,-0.3035440742969513
1783196888556022500,2.7820224609375,-0.0736184861794114,2.7979163163155314,3.743267660158872,0.1027808636426925,0.2280952483415603,-0.3636425733566284
1783196888565959400,2.79195947265625,0.1249232145462185,3.12256094289124,3.7578777847915887,0.0002481006085872,0.3443693816661834,-0.3588302433490753
1783196888575897300,2.8018974609375,0.7475412453278899,2.386866494962573,4.080376631510258,-0.0809340998530387,0.5268338322639465,-0.3074069917201996
1783196888585834500,2.81183447265625,0.6716073218129575,2.331355035620928,4.412862034714221,-0.1923407912254333,0.479508638381958,-0.2720809578895569
1783196888595772400,2.8217724609375,0.7227285833716393,2.687538125276565,4.182929828011989,-0.3064243793487549,0.3451873362064361,-0.2461359947919845
1783196888605709600,2.83170947265625,0.7782461801931262,2.8440017756640907,4.2501638738513,-0.4143028855323791,0.1693537235260009,-0.2402453571557998
1783196888615647500,2.8416474609375,0.7420680746138095,2.942300821852684,4.3899031839311125,-0.5351410508155823,0.1127382591366767,-0.18925641477108
1783196888625584400,2.85158447265625,0.9121151369348168,2.6970979807823894,4.695149867075681,-0.7377277612686157,0.0884132161736488,-0.1108662635087966
1783196888635522300,2.861522216796875,1.00596567928195,2.481556703004241,4.732125552773476,-1.036928415298462,0.0262463446706533,0.0036260979250073
1783196888645459500,2.87145947265625,1.06302042254284,2.238693703058362,4.562254139280319,-1.386156678199768,-0.1189545169472694,0.1482389420270919
1783196888655397400,2.8813974609375,0.9504610880725084,2.078984787139297,4.137387389498949,-1.7141412496566772,-0.3158178031444549,0.2695073187351227
1783196888665334500,2.89133447265625,0.6138074592731892,2.054886118671298,3.657017363682389,-1.9596660137176516,-0.441343754529953,0.3450223207473755
1783196888675272400,2.9012724609375,0.2123581176973879,1.9165484920829532,3.289659969061613,-2.1355221271514893,-0.5025668740272522,0.3738310635089874
1783196888685209600,2.911209716796875,-0.2118593743950128,1.739017503747344,2.89596226452589,-2.2807178497314453,-0.5476574301719666,0.3602116405963897
1783196888695147500,2.9211474609375,-0.5155182038262486,1.6448416749686,2.397418868637085,-2.402069568634033,-0.611672580242157,0.2881897687911987
1783196888705084400,2.93108447265625,-0.8167615696135908,1.5968641182631254,1.875520900645852,-2.505302906036377,-0.6114656329154968,0.1680822521448135
1783196888715022300,2.941022216796875,-1.0762358779467642,1.566132879912853,1.5638053137481212,-2.577148914337158,-0.581494927406311,0.0156077770516276
1783196888724959500,2.95095947265625,-1.152601105551049,1.5423825864911078,1.0328770670831202,-2.573362112045288,-0.3824460208415985,-0.1061897650361061
1783196888734897400,2.9608974609375,-0.9526466884832828,1.4499550626844169,0.7266290979415178,-2.5096826553344727,-0.2098279297351837,-0.1875314116477966
1783196888744834300,2.970834228515625,-0.7308838327765464,1.4278624733418226,-0.0464671521425247,-2.386080503463745,-0.1290297508239746,-0.2297299951314926
1783196888754771500,2.980771484375,-0.3711903969123959,1.4125444927006958,-0.7894517570793628,-2.22510313987732,-0.1434048265218734,-0.2300697565078735
1783196888764709400,2.99070947265625,-0.0575746024165302,1.305686584742367,-1.3057272090137004,-2.0662686824798584,-0.1941803991794586,-0.1971126049757003
1783196888774646500,3.000646484375,0.1972564832206815,1.119915591327846,-1.6546300785332917,-1.9498531818389893,-0.2611933648586273,-0.1308603733778
1783196888784584400,3.01058447265625,0.3194203160561621,0.8855296200871468,-1.954795512890816,-1.8932276964187624,-0.3373451232910156,-0.0449718236923217
1783196888794521300,3.020521240234375,0.356953635636717,0.5456488459348678,-2.3022195420295,-1.8505779504776,-0.364494115114212,0.046028085052967
1783196888804458000,3.0304580078125,0.2895490555360913,0.2281301257163286,-2.490637835082412,-1.803589940071106,-0.3172046244144439,0.102756880223751
1783196888814395000,3.040394775390625,0.1810802052497863,0.0069140171721577,-2.6505156778275967,-1.73753559589386,-0.2693154811859131,0.1174112409353256
1783196888824333000,3.0503330078125,0.0805589529670774,-0.1841544981285929,-2.9172102197378877,-1.6479703187942505,-0.2311371862888336,0.1212872117757797
1783196888834270000,3.06027001953125,0.0180798465698957,-0.4894429745882749,-3.1220149994462725,-1.5413851737976074,-0.2238736152648925,0.1393489986658096
1783196888844208000,3.0702080078125,-0.0277262843806296,-0.901956146492064,-3.375382442271709,-1.416115164756775,-0.2685888707637787,0.1915994137525558
1783196888854145000,3.08014501953125,-0.1456225959647446,-1.3456228738114238,-3.6799896584689615,-1.290950059890747,-0.3041255474090576,0.2482950836420059
1783196888864083000,3.0900830078125,-0.3458256540313363,-1.7029042800977825,-3.824994926252961,-1.1729482412338257,-0.3167246878147125,0.2751134037971496
1783196888874019800,3.100019775390625,-0.6161905550174415,-1.878689886070788,-3.9300498764425513,-1.062385320663452,-0.2929872274398803,0.255214661359787
1783196888883957800,3.109957763671875,-0.834496036811918,-2.001913822418451,-4.04212025835216,-0.9493034482002258,-0.2552741765975952,0.204505443572998
1783196888893895000,3.11989501953125,-0.8986642653398216,-2.154229705476761,-4.2604315853655335,-0.7994848489761353,-0.2150444090366363,0.1505408436059951
1783196888903832800,3.129832763671875,-0.8696551746070385,-2.3207307657539844,-4.528906580951809,-0.6174108982086182,-0.1837210953235626,0.1061478108167648
1783196888913770000,3.13977001953125,-0.819883574091643,-2.4525734773650765,-4.801871873694658,-0.3939598202705383,-0.161870539188385,0.0666703730821609
1783196888923708000,3.1497080078125,-0.7979143188677728,-2.461856269495189,-4.960342187729478,-0.1549328416585922,-0.1166439279913902,0.0299267452210187
1783196888933645000,3.15964501953125,-0.7545362187817692,-2.385067336586117,-4.893412677794695,0.0864455625414848,-0.0812167003750801,-0.0061234179884195
1783196888943583000,3.1695830078125,-0.6692879389546811,-2.288282494352758,-4.771114916381239,0.2970086336135864,-0.0538870766758918,-0.0434982180595397
1783196888953519900,3.179519775390625,-0.5392731734231114,-2.239410326895117,-4.5406244912743565,0.4716907143592834,-0.0306787192821502,-0.0773980244994163
1783196888963457800,3.189457763671875,-0.3814106160230934,-2.188605145548284,-4.223696722686291,0.5897175073623657,-0.0092836841940879,-0.0983557701110839
1783196888973395000,3.19939501953125,-0.2805336821705103,-2.1176400964871047,-3.973089392223954,0.6572765707969666,-0.0204797480255365,-0.111947163939476
1783196888983332900,3.209332763671875,-0.2385483516171574,-2.0426286946445704,-3.8302363340377807,0.7071226835250854,-0.0200230162590742,-0.1175693646073341
1783196888993270000,3.21927001953125,-0.1606992421306669,-1.9838196550622584,-3.662028469842672,0.7606303691864014,-0.0256071984767913,-0.1190143525600433
1783196889003207000,3.22920703125,-0.0930767814956605,-1.8848212284326555,-3.621075112685561,0.8309242129325867,-0.0305042192339897,-0.1141351759433746
1783196889013145000,3.23914501953125,-0.0591755348071455,-1.7401573214322328,-3.579235620343685,0.9100474715232848,-0.0017337538301944,-0.1138684824109077
1783196889023082000,3.24908203125,-0.0181203247107565,-1.5803881997585296,-3.466509404873848,0.9968249797821044,0.0367012545466423,-0.1189798861742019
1783196889033020000,3.25902001953125,-0.0083043024867773,-1.447329682616889,-3.401932011023164,1.0804412364959717,0.0749851316213607,-0.1209120750427246
1783196889042956800,3.268956787109375,-0.0310670461758971,-1.3239400343135,-3.32995047839582,1.1539833545684814,0.1158582642674446,-0.1322925686836242
1783196889052894700,3.278894775390625,-0.0641726124420762,-1.2078721072003245,-3.2642297597289085,1.2362968921661377,0.1359866261482238,-0.1393130421638488
1783196889062831900,3.288831787109375,-0.0832177969127893,-1.112039743386209,-3.310892726704478,1.354099988937378,0.1600360423326492,-0.1481781750917434
1783196889072769800,3.298769775390625,-0.0988029040575027,-0.9389341702774168,-3.295096607157588,1.505062222480774,0.1887768507003784,-0.1566589176654815
1783196889082707000,3.30870703125,-0.1250474985130131,-0.6591609510853886,-3.216665459999442,1.6800395250320437,0.2121474146842956,-0.1638869941234588
1783196889092644900,3.318644775390625,-0.1331657769083976,-0.3889645385339856,-3.0298242070049044,1.8688117265701292,0.221664547920227,-0.1683305203914642
1783196889102582000,3.32858203125,-0.1165199086643755,-0.1864537149816751,-2.786072733786702,2.0563840866088867,0.2098981589078903,-0.1695883274078369
1783196889112520000,3.33852001953125,-0.0896207227576524,0.0280190567821264,-2.4706395876705645,2.223235845565796,0.1566939353942871,-0.179865688085556
1783196889122457000,3.34845703125,-0.1127360792767256,0.3006578940495849,-2.2062901475816963,2.360132932662964,0.0501326024532318,-0.2078355401754379
1783196889132395000,3.35839501953125,-0.1287109894566238,0.4786062310144305,-2.0306717148691416,2.478779554367065,-0.0480608083307743,-0.2496193200349807
1783196889142332000,3.368331787109375,-0.098766955961287,0.5717313816964626,-1.7004706232100724,2.581700563430786,-0.1356599032878875,-0.3113955855369568
1783196889152269800,3.378269775390625,-0.0725986416123807,0.7182002922922373,-1.403442902356386,2.6720776557922363,-0.2218961119651794,-0.395937442779541
1783196889162207000,3.38820703125,-0.0611598404921591,0.9435539390325546,-1.1273480794161557,2.731924533843994,-0.2730628848075866,-0.4969340860843658
1783196889172145000,3.398144775390625,-0.0110902068782597,1.2168114927202462,-0.7642302220612764,2.751981019973755,-0.2496484220027923,-0.5970964431762695
1783196889182082000,3.40808203125,0.0245357447110116,1.5956699400424956,-0.3992448172688484,2.7205777168273926,-0.1671647280454635,-0.6805785894393921
1783196889192020000,3.41802001953125,0.0882332139220088,1.909926443594694,-0.0193722244679927,2.6468987464904785,-0.0548057965934276,-0.7361711263656616
1783196889201956900,3.427956787109375,0.2224314756833016,2.077342865151167,0.3538414949655533,2.533300876617432,0.0498620271682739,-0.7496038675308228
1783196889211895000,3.43789501953125,0.3878578924663364,2.184509108406305,0.7238204702615737,2.3964126110076904,0.1175543218851089,-0.7161478996276855
1783196889221832000,3.44783203125,0.5619967541456222,2.2766771044939755,1.0255699589401484,2.242004632949829,0.1748849749565124,-0.655293881893158
1783196889231770000,3.45777001953125,0.6513142561729997,2.424126842820644,1.3573498442232608,2.08350682258606,0.2186872959136963,-0.6005494594573975
1783196889241706800,3.467706787109375,0.6492125346533953,2.649313316300512,1.713396155756712,1.8974629640579224,0.2653389573097229,-0.5536415576934814
1783196889251645000,3.47764501953125,0.6188944071486592,2.7307927451133724,2.056663649737835,1.681551218032837,0.3046846389770508,-0.5138712525367737
1783196889261581800,3.487581787109375,0.4914003192011266,2.7121652015328404,2.385978606212139,1.431843876838684,0.3315138518810272,-0.4984499216079712
1783196889271520000,3.49752001953125,0.2398058043323457,2.70338217561841,2.7502187455952165,1.1666293144226074,0.3472088575363159,-0.5056360363960266
1783196889281457000,3.507456787109375,-0.0206860470129176,2.719955124756693,3.123844552960992,0.9035493731498718,0.3686316013336181,-0.5101900696754456
1783196889291394000,3.51739404296875,-0.1114885999662801,2.697770180955529,3.425374845930934,0.676697313785553,0.3887385129928589,-0.5193710327148438
1783196889301332000,3.52733203125,-0.0843228355452418,2.7140789261996745,3.518603164726496,0.5224912166595459,0.3416162729263305,-0.5108031034469604
1783196889311269000,3.53726904296875,-0.0393600966162979,2.772961323279142,3.274816620194912,0.4430150389671325,0.277249813079834,-0.4976904094219208
1783196889321207000,3.54720703125,0.0296659106737002,2.9035633871793745,3.250218770033121,0.420456975698471,0.3089810907840729,-0.478024274110794
1783196889331144000,3.55714404296875,0.1369255860996432,3.111386053404212,3.574221007052064,0.4288825988769531,0.3987039923667907,-0.4635591506958008
1783196889341081900,3.567081787109375,0.1987410957552492,3.3778549698650835,3.8563393280655145,0.4441787302494049,0.4698245227336883,-0.4381110370159149
1783196889351019000,3.57701904296875,0.2670909938819706,3.618274083790183,3.9961803449541327,0.4430725574493408,0.4943106472492218,-0.3958103954792022
1783196889360957000,3.58695703125,0.3228644651606678,3.7615228632956734,4.086368565401434,0.4100221991539001,0.4641945362091064,-0.3346573114395141
1783196889370894000,3.59689404296875,0.3237311649926007,3.877002761387825,4.22451914498508,0.3388034105300903,0.4042672514915466,-0.2669180333614349
1783196889380832000,3.60683203125,0.3510509874641895,3.886715177106857,4.438122732698917,0.2185374349355697,0.339829683303833,-0.1908288449048996
1783196889390769000,3.616768798828125,0.3475419564299285,3.788343065682053,4.687652204796672,0.0382156521081924,0.2277204394340515,-0.1146356686949729
1783196889400707000,3.62670703125,0.3243557266317308,3.5830963874250648,4.778049684080481,-0.2089142501354217,0.0487988926470279,-0.0296778939664363
1783196889410644000,3.63664404296875,0.3985385686956346,3.3249826268553733,4.710604625838995,-0.5163965225219727,-0.1500146090984344,0.0764530524611473
1783196889420582100,3.64658203125,0.5087240136414766,3.1203076110064982,4.635573057991266,-0.86440110206604,-0.3248079717159271,0.1970622986555099
1783196889430518800,3.656518798828125,0.4746095625936984,3.024334961938858,4.536566740316152,-1.2386337518692017,-0.428583025932312,0.315871000289917
1783196889440457000,3.66645703125,0.3429818089075386,2.822006216955185,4.34234882107377,-1.593513250350952,-0.5117200016975403,0.4333227872848511
1783196889450393900,3.676393798828125,0.2475203242324292,2.574597390273213,4.016787664175033,-1.919399380683899,-0.5695149898529053,0.5155707597732544
1783196889460332000,3.68633203125,0.1766357930615544,2.5138813480257984,3.5367864716708657,-2.205608367919922,-0.6351853609085083,0.5737264752388
1783196889470269000,3.69626904296875,0.0507993543942458,2.5679735882192847,2.8610750755399463,-2.433492422103882,-0.7236637473106384,0.6197396516799927
1783196889480206800,3.706206787109375,-0.146804864551872,2.125965149500966,2.018206785571575,-2.5620005130767822,-0.7313619256019592,0.6319102644920349
1783196889490144000,3.71614404296875,-0.4029674910537898,1.8536486760556696,1.5740350313395262,-2.5728085041046143,-0.5776861906051636,0.6115272045135498
1783196889500082000,3.72608203125,-0.6962079484537244,1.8754104260087008,1.3452245221436023,-2.4989709854125977,-0.3563790917396545,0.5536724328994751
1783196889510018800,3.736018798828125,-0.9622294134080408,1.8878718481749293,0.9402806164503096,-2.3907361030578613,-0.1829122304916381,0.5011273622512817
1783196889519956700,3.745956787109375,-1.0329972593966872,1.7555214793026446,0.4736947858363389,-2.2713818550109863,-0.0952625423669815,0.4425494968891144
1783196889529894000,3.755893798828125,-0.9383969215955584,1.4794061980962752,-0.0737608172595501,-2.1792092323303223,-0.1032852828502655,0.3971490263938904
1783196889539831800,3.765831787109375,-0.7710228048108517,1.1343670182675123,-0.6558563565820456,-2.1032793521881104,-0.1758990436792373,0.3715592324733734
1783196889549769000,3.77576904296875,-0.6036226037368178,0.8115344095498322,-1.0828133566409348,-2.025153636932373,-0.2618632912635803,0.3668867349624634
1783196889559707000,3.785706787109375,-0.5014217278040946,0.5635054051429033,-1.3510206412017345,-1.946400046348572,-0.3460253179073334,0.3477431237697601
1783196889569644000,3.79564404296875,-0.4818278234094381,0.4282464553475379,-1.6364859345555305,-1.8613197803497317,-0.4175292253494262,0.331165611743927
1783196889579582000,3.80558203125,-0.3785645789422094,0.2686959448605776,-1.914486298856139,-1.7798147201538086,-0.485465407371521,0.3225596249103546
1783196889589519000,3.81551904296875,-0.2188914649888872,-0.0070136781543493,-2.267576683193445,-1.7010520696640017,-0.5479828119277954,0.327301025390625
1783196889599457000,3.82545703125,-0.1187694411568343,-0.3350564227357506,-2.7954432042002675,-1.612911820411682,-0.5778499245643616,0.3526308834552765
1783196889609394000,3.835393798828125,-0.141775784343481,-0.5909414013400673,-3.166760150101781,-1.5058046579360962,-0.516410768032074,0.373156875371933
1783196889619330800,3.845330810546875,-0.2157748673383146,-0.6804448543936014,-3.1941432470679283,-1.3818440437316897,-0.4022365510463714,0.3831328153610229
1783196889629269000,3.85526904296875,-0.2822211238007992,-0.7109390691176056,-3.1938346195101737,-1.2362936735153198,-0.264989286661148,0.377803087234497
1783196889639206000,3.865205810546875,-0.3134046359632164,-0.7642690927669405,-3.1371254748165605,-1.0977855920791626,-0.166872039437294,0.3572655916213989
1783196889649143800,3.875143798828125,-0.2819929410681128,-0.9142439656570552,-3.1196751583218574,-0.9734182357788086,-0.136878490447998,0.3487629890441894
1783196889659081000,3.8850810546875,-0.1571801280938088,-1.248820788182318,-3.140365479651093,-0.8592545986175537,-0.1573978960514068,0.3588795363903045
1783196889669019000,3.895018798828125,-0.0149297119759023,-1.5413795469284055,-3.102286216625571,-0.7530637979507446,-0.2153678834438324,0.3750361502170563
1783196889678956000,3.9049560546875,0.0562495643578469,-1.6585671257212755,-3.05055310677886,-0.6455397009849548,-0.2808251976966858,0.3808767199516296
1783196889688894000,3.91489404296875,0.0602193447716534,-1.638939172926545,-3.0145944891691205,-0.5317132472991943,-0.3235257863998413,0.3705656230449676
1783196889698830800,3.924830810546875,0.0311918415993452,-1.6031915677189823,-2.8641052370160818,-0.4137389659881592,-0.302560031414032,0.3609875738620758
1783196889708768800,3.934768798828125,-0.006825754366815,-1.592767204338312,-2.601300688281655,-0.3148847222328186,-0.2997080981731415,0.3501934707164764
1783196889718706000,3.944705810546875,-0.0349494405671954,-1.6613655242681502,-2.545078450322151,-0.2465328127145767,-0.3172471225261688,0.3540904819965362
1783196889728643800,3.954643798828125,-0.1102902204945683,-1.860904638533294,-2.5225597445219754,-0.2113169580698013,-0.3280705213546753,0.3490975201129913
1783196889738581000,3.9645810546875,-0.2917418894052505,-2.018794522331655,-2.5167542731136083,-0.2003876119852066,-0.2861656844615936,0.3142471313476562
1783196889748519000,3.974518798828125,-0.5000462016671896,-2.0142913656935093,-2.380720831814408,-0.2069242596626281,-0.2140498757362365,0.2366959899663925
1783196889758456000,3.9844560546875,-0.6800266289815307,-1.903187782989442,-2.24442318662107,-0.2419850528240203,-0.1526408493518829,0.1450443714857101
1783196889768394000,3.99439404296875,-0.6982011680975556,-1.8946213224351405,-2.2751626082777974,-0.2884165644645691,-0.1097901538014411,0.0702929943799972
1783196889778331100,4.0043310546875,-0.5182008670389652,-2.078956730088592,-2.4516291822522875,-0.3210509419441223,-0.09811432659626,0.0480899550020694
1783196889788269000,4.01426904296875,-0.3474934411130845,-2.2962577110156417,-2.690648950773477,-0.3136490285396576,-0.084994189441204,0.0531609952449798
1783196889798206000,4.0242060546875,-0.2767012644007802,-2.384735328152776,-2.867338812109828,-0.2612342834472656,-0.0714118033647537,0.0708518475294113
1783196889808143600,4.0341435546875,-0.3276557910904288,-2.3781579955890773,-2.980954669895768,-0.1736292839050293,-0.0572126619517803,0.0720119923353195
1783196889818080800,4.044080810546875,-0.4386079826250672,-2.3627415230095385,-3.131814508926868,-0.0450055375695228,-0.0336178541183471,0.057579256594181
1783196889828018700,4.054018798828125,-0.5778779216274619,-2.350741288614273,-3.261959476709366,0.1226852685213089,0.0106689594686031,0.0198842827230691
1783196889837955800,4.063955810546875,-0.7195749416463076,-2.276394488160312,-3.3430741638630628,0.3180699348449707,0.0483795888721942,-0.0243321806192398
1783196889847893800,4.073893798828125,-0.8224902494587004,-2.1745941558524966,-3.3914638085007667,0.5288912057876587,0.1010003834962844,-0.0781682282686233
1783196889857830700,4.08383056640625,-0.8456849548242986,-2.071713919353485,-3.351999228596687,0.7262048125267029,0.1351886987686157,-0.1237397044897079
1783196889867768800,4.093768798828125,-0.8421496203050017,-1.940326842555404,-3.2948587067484856,0.8753390908241272,0.1165123283863067,-0.168100893497467
1783196889877705500,4.10370556640625,-0.7502658479861914,-1.7790885251119732,-3.301230579867959,0.9705979824066162,0.0508222617208957,-0.1992457658052444
1783196889887643600,4.1136435546875,-0.5384574731260537,-1.7030509950920938,-3.388963808378577,1.0348626375198364,-0.0029584458097815,-0.2032297849655151
1783196889897580500,4.12358056640625,-0.3604932079397142,-1.6492518926262854,-3.4544846205592155,1.101449728012085,-0.0205163992941379,-0.1890332698822021
1783196889907518700,4.133518798828125,-0.2924797021605074,-1.5482111465141175,-3.551785303360224,1.18562114238739,0.0028381247539073,-0.1743642836809158
1783196889917455600,4.14345556640625,-0.2907232138819992,-1.3705994941577315,-3.7033418924838304,1.2987524271011353,0.0706078484654426,-0.160694807767868
1783196889927393800,4.153393798828125,-0.3215584971286356,-1.1736156173333523,-3.726006728756428,1.4280767440795898,0.1608627438545227,-0.1556101441383361
1783196889937330700,4.16333056640625,-0.3424770742557942,-0.958622328826785,-3.706639764985442,1.564122200012207,0.2456458061933517,-0.1442991644144058
1783196889947267800,4.173267822265625,-0.36180180632025,-0.7979299548283219,-3.599042144575715,1.7090516090393066,0.318898469209671,-0.1412402093410492
1783196889957205800,4.183205810546875,-0.4220760961495339,-0.6482008733928203,-3.3053707484126087,1.842706084251404,0.3582160472869873,-0.1467119455337524
1783196889967142700,4.193142578125,-0.5267582675039768,-0.4042746281296014,-2.9770974099457264,1.9542938470840452,0.3487674593925476,-0.1742734611034393
1783196889977080600,4.20308056640625,-0.6083553313471377,-0.1259644672274589,-2.5988509570419787,2.050208568572998,0.3115013241767883,-0.2261076420545578
1783196889987017700,4.213017822265625,-0.6400621367312967,0.1230751755267381,-2.1859189752042294,2.118448495864868,0.2545095682144165,-0.2823830544948578
1783196889996955600,4.22295556640625,-0.6339474532432854,0.332323490640521,-1.774793750527501,2.1588776111602783,0.2153624445199966,-0.3386313915252685
1783196890006892800,4.232892822265625,-0.550036121108383,0.5681003317177296,-1.3028554529696703,2.1652188301086426,0.2133150100708007,-0.3838661015033722
1783196890016830700,4.242830810546875,-0.4360276107430458,0.8501473410606384,-0.8197527873188257,2.1488962173461914,0.2365239262580871,-0.4214241504669189
1783196890026767600,4.252767578125,-0.3215902074411511,1.1853875959306954,-0.3869219267904758,2.10558557510376,0.282894492149353,-0.4441226124763489
1783196890036705800,4.262705810546875,-0.2486822806838899,1.516727336230874,0.0061690440237522,2.040210485458374,0.335282564163208,-0.4467596709728241
1783196890046642700,4.272642578125,-0.1635053125273436,1.7824094862282276,0.3107821054399013,1.9545626640319824,0.371259331703186,-0.4284044802188873
1783196890056580900,4.282580810546875,-0.044664413569495,1.9592337875992056,0.546426260048151,1.8793089389801023,0.3810200989246368,-0.4026557207107544
1783196890066517500,4.292517578125,0.0605660393174737,2.0834768378615376,0.7259469608962535,1.8156321048736568,0.3731245398521423,-0.3787963092327118
1783196890076455700,4.30245556640625,0.1321126876588911,2.200750049111247,1.0148743774026632,1.754344463348389,0.3485124111175537,-0.3792194724082947
1783196890086392600,4.312392578125,0.1352221979815512,2.339979656103253,1.3151941255390642,1.6881636381149292,0.2363532036542892,-0.3878892362117767
1783196890096330800,4.322330810546875,0.1128640165053307,2.4688977124392983,1.4390309330880642,1.613323211669922,0.067001461982727,-0.4000113904476166
1783196890106267600,4.332267578125,0.0820010415341705,2.556529234141111,1.5536445697396992,1.5481199026107788,-0.0631553381681442,-0.3953577280044555
1783196890116205600,4.34220556640625,0.1764138208739459,2.618701320415735,1.7981319560170173,1.440854787826538,-0.3115121722221374,-0.3937190771102905
1783196890126142700,4.352142822265625,-0.0020903233427554,3.378042016869783,1.7886194467842578,1.3194904327392578,-0.5713871121406555,-0.3475714921951294
1783196890136080600,4.36208056640625,0.7013768755242228,3.0208599793046718,1.994469351631403,1.219433069229126,-0.5176777839660645,-0.2527973353862762
1783196890146017800,4.372017822265625,0.8029495365560054,2.795907314580679,3.003158902919292,1.1286840438842771,-0.3704046308994293,-0.1644169986248016
1783196890155955700,4.381955810546875,0.7767973696243018,2.9961966626912355,3.173596133601665,1.0329879522323608,-0.2285865098237991,-0.1172779873013496
1783196890165892600,4.391892578125,0.5701126213882118,3.2775480909854173,3.212543411633372,0.909039318561554,-0.1851493120193481,-0.1006969213485717
1783196890175830500,4.40183056640625,0.400715182082355,3.434145596885681,3.0367244879126547,0.772826075553894,-0.2418834269046783,-0.1150518879294395
1783196890185767700,4.411767578125,0.3348834042564034,3.4801743576109407,2.784162516251206,0.6522495150566101,-0.4157021343708038,-0.1449145078659057
1783196890195705600,4.42170556640625,0.3096171533137559,3.491306577000022,2.585672326517105,0.5510246157646179,-0.5386001467704773,-0.2001878917217254
1783196890205642800,4.431642822265625,0.3502304648615419,3.593524842458963,2.999267156177759,0.4794991314411163,-0.4577605724334717,-0.2603869438171386
1783196890215580700,4.44158056640625,0.473276487359032,3.8115246193051338,3.7848569771319625,0.432030975818634,-0.2846492528915405,-0.3264317214488983
1783196890225517800,4.451517822265625,0.5723312472857535,3.97617391423583,4.1697126190423965,0.3965438604354858,-0.2061727046966552,-0.3950182199478149
1783196890235455700,4.461455810546875,0.635158947924897,3.952116746822,4.038071859744191,0.3339982032775879,-0.127939686179161,-0.4439122676849365
1783196890245393000,4.471392822265625,0.8354045299589633,4.0217227824896575,4.186795855790376,0.2245502769947052,0.0158987678587436,-0.4739794135093689
1783196890255330800,4.481330810546875,0.9756430217325688,4.253081807124614,4.516237068992853,0.0568169429898262,0.2479679584503173,-0.5171617269515991
1783196890265267700,4.491267822265625,1.0138553365532308,4.630766534492373,4.870461425796151,-0.1544666141271591,0.4980069994926452,-0.5764963030815125
1783196890275204600,4.50120458984375,0.989158336865902,4.959639007896184,5.082374576205015,-0.416372001171112,0.7071956396102905,-0.6106017827987671
1783196890285142800,4.511142822265625,0.9523422256439924,5.02072622154355,5.161455711704492,-0.737384557723999,0.8754251599311829,-0.6028057932853699
1783196890295079700,4.52107958984375,0.8988894523978233,4.872890114247799,5.276603016841412,-1.1388570070266724,0.9767440557479858,-0.5458218455314636
1783196890305017600,4.531017578125,0.8384938742764294,4.576749113100767,5.320719221943617,-1.6207737922668457,1.0099717378616333,-0.4409106075763702
1783196890314954800,4.540954833984375,0.7214182314254343,4.149605650559067,5.402706015756726,-2.158421039581299,1.0058212280273438,-0.2996496260166168
1783196890324892700,4.550892578125,0.6050861004181206,3.6737598241686817,5.575183227834105,-2.7280988693237305,0.9470884203910828,-0.1430854499340057
1783196890334829600,4.56082958984375,0.5819214979298413,3.1506542339533565,5.626119634345174,-3.3099193572998047,0.7766266465187073,0.0181465838104486
1783196890344767500,4.570767578125,0.7254857731252908,2.5547259841114283,5.428449528822303,-3.8659088611602783,0.4481796622276306,0.1872384250164032
1783196890354704600,4.58070458984375,0.9987971028268336,1.9316548758000132,5.037340671736001,-4.355570316314697,-0.1588652729988098,0.3804107904434204
1783196890364642600,4.590642578125,1.0133641189701854,1.5618325523704288,4.1316257572323085,-4.758525848388672,-1.1338915824890137,0.4256874620914459
1783196890374579700,4.600579833984375,0.050031749288924,2.516853641834855,3.323836379429698,-5.0423736572265625,-2.1186211109161377,0.3761880993843078
1783196890384517600,4.610517578125,-0.3712523562327027,3.18595234182775,3.2793811516314744,-5.193618297576904,-3.136069774627685,0.3215726912021637
1783196890394454800,4.620454833984375,-0.2274469657577574,2.933115644878149,2.203563352966309,-4.914697647094727,-3.547689437866211,0.5173794627189636
1783196890404392700,4.630392822265625,1.384220607753098,1.366506671886146,1.5251976429343224,-4.379652976989746,-2.0781030654907227,0.632840096950531
1783196890414329900,4.640329833984375,0.0480577823348343,1.929407681395113,1.6369892079025503,-3.7952375411987305,-1.7806451320648191,0.6484786868095398
1783196890424267800,4.650267822265625,-2.346537407183647,3.2623627968132496,-0.8509832073628902,-3.2483906745910645,-1.1549242734909058,0.5616932511329651
1783196890434204700,4.66020458984375,-2.23067698534131,2.976592090772092,-1.0035685550123452,-2.804517984390259,-0.4797282516956329,0.5569106936454773
1783196890444142600,4.670142578125,-2.042873609316349,2.32750099054128,-1.8155244048446413,-2.491877317428589,0.0541281811892986,0.6449012756347656
1783196890454079700,4.680079833984375,-1.929478993065655,1.768909660924971,-2.887182161220908,-2.2797791957855225,0.3956525027751922,0.7624247074127197
1783196890464017700,4.690017578125,-1.6620608130559325,1.3461346227258444,-3.7496009548336255,-2.124473094940185,0.5065640807151794,0.8294623494148254
1783196890473954600,4.69995458984375,-1.307482820509374,0.926102161233127,-4.429838888478279,-1.974221348762512,0.4294941127300262,0.8564404249191284
1783196890483892700,4.709892822265625,-0.9894361308939754,0.4143061928004026,-4.71721498388946,-1.8424636125564573,0.2764989137649536,0.8213238716125488
1783196890493829600,4.71982958984375,-0.872476807899028,0.0063750879898667,-4.610324634966254,-1.7422213554382324,0.0824098512530326,0.7307790517807007
1783196890503767800,4.729767822265625,-0.932627032957226,-0.2641360895991325,-4.59059935927689,-1.6753685474395752,-0.1753155589103698,0.6050735712051392
1783196890513704700,4.73970458984375,-1.055983948034793,-0.5768690368458629,-4.781692424497008,-1.6384702920913696,-0.4061120152473449,0.480938583612442
1783196890523643000,4.749642822265625,-1.0602718544870615,-0.9968034447915852,-4.896601244702935,-1.6036028861999512,-0.5539625287055969,0.3842621147632599
1783196890533579500,4.75957958984375,-1.082329957038164,-1.5066592389419673,-5.081802329275011,-1.5599473714828491,-0.6297031044960022,0.3038807213306427
1783196890543517700,4.769517578125,-1.2312186421267688,-1.8610969462350009,-5.253297544577718,-1.5023515224456787,-0.6895416975021362,0.21388840675354
1783196890553454600,4.77945458984375,-1.2514007216729224,-1.9566342726252968,-5.674798032796383,-1.3951209783554075,-0.7559084892272949,0.1196662932634353
1783196890563392500,4.789392578125,-1.1649188083976507,-2.0852344951838253,-6.055759589877725,-1.229447841644287,-0.7378107905387878,0.0698805972933769
1783196890573329700,4.79932958984375,-0.8585624104455113,-2.4122835525527595,-6.193048584195971,-1.0395159721374512,-0.702535092830658,0.0453765913844108
1783196890583267600,4.809267578125,-0.8073302358582616,-2.5286890410572287,-6.51836424190104,-0.8509740233421326,-0.639957070350647,0.0545164458453655
1783196890593204700,4.819204833984375,-0.8134114554680884,-2.65811913856864,-6.746927498337626,-0.6785413026809692,-0.541634738445282,0.0859377533197403
1783196890603142000,4.829141845703125,-0.8995419249571859,-2.9087741075649856,-6.78927494020164,-0.5183901190757751,-0.4178004562854767,0.1142084598541259
1783196890613079800,4.839079833984375,-1.0672492922842505,-3.138509038129449,-6.756057730254531,-0.3773592710494995,-0.3047711253166199,0.1177762970328331
1783196890623016700,4.8490166015625,-1.2420375577829776,-3.330840705233812,-6.822905991646647,-0.2138574868440628,-0.2460313886404037,0.0627699270844459
1783196890632954600,4.85895458984375,-1.4615800340265035,-3.4334459241837263,-7.008018228891491,0.0029600420966744,-0.1199831664562225,-0.0189885888248682
1783196890642891500,4.8688916015625,-1.4618664497524498,-3.484599188315868,-6.711928665670752,0.2586925625801086,0.0473850965499877,-0.1044652014970779
1783196890652829700,4.87882958984375,-1.468126240799576,-3.3355604272320867,-6.314563086277246,0.538547933101654,0.1575459539890289,-0.1957839280366897
1783196890662766600,4.8887666015625,-1.4632517666310072,-3.0591420714259145,-6.040620472934842,0.8173686265945435,0.1790598928928375,-0.2778017818927765
1783196890672704800,4.898704833984375,-1.3138491406708954,-2.759643576544523,-5.768787983614206,1.060689926147461,0.1226075366139411,-0.3363186120986938
1783196890682641700,4.9086416015625,-1.1281718168891963,-2.5020465333253146,-5.484651893037557,1.258825659751892,0.024161659181118,-0.3916744291782379
1783196890692579800,4.918579833984375,-0.9584475567817689,-2.2544164651080965,-5.223506801947951,1.41175639629364,-0.0883520990610122,-0.4421024322509765
1783196890702516700,4.928516845703125,-0.8480190968602895,-2.0016563405260444,-5.051379133960604,1.534798502922058,-0.1945631653070449,-0.4897615909576416
1783196890712455000,4.938454833984375,-0.8200250283889472,-1.7395330520540475,-4.883747023826837,1.6322797536849976,-0.2422622442245483,-0.5201395153999329
1783196890722391600,4.9483916015625,-0.7857014646351337,-1.5067125765644014,-4.662460480394959,1.7222473621368408,-0.2241221517324447,-0.5409287214279175
1783196890732329700,4.958329833984375,-0.8082792071461677,-1.2403469743475315,-4.371060536295175,1.7916661500930786,-0.1538181602954864,-0.5653527975082397
1783196890742266600,4.9682666015625,-0.8476271749332547,-0.904145473229885,-4.105473078843951,1.8443094491958616,-0.0631384328007698,-0.5944071412086487
1783196890752204500,4.97820458984375,-0.9331113093428312,-0.6186518305644393,-3.8786458524197336,1.8801593780517576,0.0611222684383392,-0.6318786144256592
1783196890762141700,4.9881416015625,-0.9988368503153324,-0.374547306124866,-3.630412849873304,1.90223228931427,0.2292739450931549,-0.670455813407898
1783196890772079600,4.99807958984375,-1.029210945791006,-0.1430947579875588,-3.32114699421525,1.90127432346344,0.4013043045997619,-0.7039037346839905
1783196890782016800,5.008016845703125,-1.0100178772822022,0.0789011027574539,-2.982063507920504,1.8896043300628664,0.5297365188598633,-0.7300610542297363
1783196890791954700,5.01795458984375,-0.8882425323076546,0.2717643925204873,-2.701447408163548,1.8789175748825075,0.622921347618103,-0.7287771701812744
1783196890801891800,5.027891845703125,-0.6849795752137899,0.4075739619359373,-2.314935815739632,1.87611985206604,0.6790223121643066,-0.7050055265426636
1783196890811830500,5.03783056640625,-0.5440621612653136,0.6139288936957716,-1.9620172808378933,1.879854440689087,0.6891968846321106,-0.6736209392547607
1783196890821767700,5.047767578125,-0.4732876663401723,0.8822346701949835,-1.6206307782977818,1.9004762172698972,0.6816571950912476,-0.6312360763549805
1783196890831705600,5.05770556640625,-0.3927008024528622,1.1079685484245418,-1.1733663187474013,1.928242564201355,0.6512183547019958,-0.5854592323303223
1783196890841642500,5.067642578125,-0.3369195862591266,1.3667176842883229,-0.7084545588254928,1.9528416395187376,0.5577350854873657,-0.5487306118011475
1783196890851580700,5.07758056640625,-0.2764826532140374,1.5615315235972405,-0.3217535813093185,1.9793277978897093,0.3746982216835022,-0.5138970017433167
1783196890861517600,5.087517578125,-0.2240041318275034,1.6591516476109622,0.0414174675375223,2.007612466812134,0.1383570730686187,-0.4889951944351196
1783196890871454500,5.097454345703125,-0.2274333756238222,1.7272551697611809,0.4937357033461332,2.0159718990325928,-0.0869104042649269,-0.4850345253944397
1783196890881392400,5.107392333984375,-0.2830281293347478,1.840507454931736,0.9873124167382716,1.9835424423217771,-0.2448990792036056,-0.5370166301727295
1783196890891329500,5.11732958984375,-0.3799241768576205,1.950139796039462,1.213635785293579,1.932867288589477,-0.2325225621461868,-0.6648638248443604
1783196890901267500,5.127267333984375,-0.5149599854215979,1.8576976591855283,1.28896136765182,1.861867904663086,-0.0950733572244644,-0.8284523487091064
1783196890911204600,5.13720458984375,-0.6204144563227891,1.8219079684019088,1.3584487453758716,1.7690281867980957,0.1153280884027481,-0.9784967303276062
1783196890921142500,5.147142578125,-0.633253479629755,2.0090221931189296,1.5809154385030268,1.6614973545074463,0.3445114195346832,-1.092318415641785
1783196890931079700,5.15707958984375,-0.5495730336412787,2.3950550621151923,1.866620970353484,1.5559048652648926,0.5347993969917297,-1.1633659601211548
1783196890941017600,5.167017578125,-0.3263168706368655,2.750469505485892,2.0756354767113923,1.4582771062850952,0.6625251770019531,-1.1867979764938354
1783196890950954800,5.176954833984375,-0.0753738054141402,2.9415339291334157,2.346025366008281,1.3678675889968872,0.6978752017021179,-1.1600337028503418
1783196890960892700,5.186892578125,0.143306574107334,3.019662293952704,2.5329630651146173,1.3032315969467163,0.6632037162780762,-1.106308937072754
1783196890970829600,5.19682958984375,0.420093032573536,3.070139266258478,2.756736164665222,1.255406379699707,0.5348689556121826,-1.041509985923767
1783196890980767500,5.206767578125,0.6789970667380839,3.154698540908098,2.8939813198417426,1.203594446182251,0.3068342506885528,-0.9837021231651306
1783196890990704600,5.21670458984375,0.889167319002375,3.1968425691545006,2.9742431895583867,1.155000925064087,0.0314407423138618,-0.9089096188545228
1783196891000642600,5.226642578125,1.1351946281980725,3.1777883245944976,3.131042940032482,1.0977847576141355,-0.2201344966888427,-0.8360274434089661
1783196891010579700,5.236579833984375,1.2658239454314113,3.2034067499756813,3.359936451336741,1.0091485977172852,-0.4215458929538727,-0.746524453163147
1783196891020517600,5.246517578125,1.3251089319624003,3.4171395170271395,3.562081071925163,0.8286500573158264,-0.5642157196998596,-0.6201543211936951
1783196891030454500,5.25645458984375,1.6712907059550284,3.4304724613308903,3.750929573088884,0.6041290760040283,-0.6256631016731262,-0.5192258358001709
1783196891040392700,5.266392822265625,2.003316967214644,3.1388129895120858,3.711110772919655,0.3455203473567962,-0.6088668704032898,-0.4121005535125732
1783196891050329300,5.276329345703125,1.8010981123462315,3.245527981868386,3.838849848604202,0.0934236645698547,-0.5359649658203125,-0.2572001814842224
1783196891060267500,5.286267578125,1.4300592527337372,3.558236671456694,4.0493268287301065,-0.1062804237008094,-0.4406525194644928,-0.0594862140715122
1783196891070204400,5.296204345703125,1.3698811167553069,3.91364059343338,4.261749097704887,-0.2267141640186309,-0.3284876346588135,0.1490832269191742
1783196891080142600,5.306142578125,1.3217708735808729,4.334247932204604,4.69311865350902,-0.2721929848194122,-0.2766534388065338,0.308605432510376
1783196891090079500,5.31607958984375,1.1280736902769657,4.6839153563559055,5.073395150935649,-0.2754431068897247,-0.2163927555084228,0.4427832067012787
1783196891100017700,5.326017578125,0.924345015367493,4.772407294279336,5.599342102056742,-0.2997444868087768,-0.0733809098601341,0.5594029426574707
1783196891109954600,5.33595458984375,0.6704712304551154,4.776361584863066,6.175683607897162,-0.3928443193435669,0.093740165233612,0.624155580997467
1783196891119892500,5.345892578125,0.5241502769626677,4.829615620666742,6.431411350113153,-0.5696344375610352,0.1939249634742736,0.625783383846283
1783196891129829600,5.35582958984375,0.4911573042254895,4.761410099446773,6.408172513344884,-0.8419570326805115,0.2062897533178329,0.555698037147522
1783196891139767600,5.365767578125,0.5072558407850564,4.564201766216755,6.266570332002639,-1.1947802305221558,0.0865925103425979,0.4630289673805237
1783196891149704400,5.375704345703125,0.5712152488678693,4.229986178219318,5.9317637923747295,-1.5879405736923218,-0.1593810468912124,0.3740231990814209
1783196891159641600,5.3856416015625,0.6597653467193245,3.830214122205972,5.6581900123447175,-2.05069637298584,0.4579654335975647,0.3788632154464721
1783196891169579500,5.39557958984375,1.2296695129886268,3.777947928395867,6.090470837774872,-2.300723075866699,1.3799954652786257,0.5542656779289246
1783196891179516700,5.4055166015625,1.2523206129968163,3.321131796646118,4.186598287391663,-2.372758626937866,1.1020768880844116,0.8267015814781189
1783196891189454600,5.41545458984375,-0.0358314840987324,2.641784674361348,3.0708757638394832,-2.300731658935547,1.243938684463501,0.9687719345092772
1783196891199391500,5.4253916015625,0.2756367769744247,2.458814709842205,3.376751392537355,-2.1611568927764893,1.2526897192001345,1.046907901763916
1783196891209329700,5.43532958984375,0.2958342732854187,2.529109896817803,3.005446137073636,-2.045583486557007,1.239094614982605,1.0409685373306274
1783196891219266600,5.4452666015625,0.3572614229442551,2.453461658376455,2.865522118076682,-1.9907182455062864,1.041242003440857,0.9935110807418824
1783196891229204700,5.455204833984375,0.5942194000974297,2.10076115013957,2.3295371725440024,-1.971361756324768,0.7051218748092651,0.961645007133484
1783196891239141400,5.465141357421875,0.5534009213663638,1.7668556510046125,1.810146803459525,-2.01387882232666,0.2356117814779281,0.8667660355567932
1783196891249079600,5.47507958984375,-0.3845553803222253,2.208831648758053,1.5546528699994089,-2.108361959457397,-0.1736969053745269,0.6696798801422119
1783196891259016400,5.485016357421875,-1.1128151116728782,2.578392106381058,1.688378618878126,-2.238800048828125,-0.5012755990028381,0.4450625479221344
1783196891268954600,5.49495458984375,-1.2146228966347872,2.304806635913253,1.6535118881583213,-2.4078218936920166,-0.8824319839477539,0.2637628018856048
1783196891278891500,5.5048916015625,-0.9650872139919549,1.8391899425923823,0.8888976352155208,-2.541576147079468,-1.3578550815582275,0.1584014147520065
1783196891288829400,5.514829345703125,-0.4274889149785041,1.468231308609247,-0.4027221379905938,-2.5032401084899902,-1.4991624355316162,0.1593234091997146
1783196891298766600,5.5247666015625,-0.014486717448756,1.0834762044638395,-0.8622481132209301,-2.30359435081482,-1.387448787689209,0.2074194550514221
1783196891308704500,5.53470458984375,-0.3679290570288896,1.005659389811754,-1.420622000694275,-2.0356032848358154,-1.2460397481918335,0.2475359886884689
1783196891318641700,5.5446416015625,-0.7384253341972827,1.1539756818398832,-2.280906704887748,-1.7721359729766846,-1.1361759901046753,0.3020502626895904
1783196891328579600,5.55457958984375,-0.6962703461654484,1.1825775069460271,-2.8139257863521574,-1.56789231300354,-1.0924556255340576,0.3792217373847961
1783196891338516500,5.5645166015625,-0.6016796529754996,0.8961872077018022,-3.1839795804500577,-1.419625997543335,-1.1253536939620972,0.5052840709686279
1783196891348454400,5.574454345703125,-0.4459707664780318,0.329100729201734,-3.647445817738771,-1.3233509063720703,-1.246078610420227,0.6423854231834412
1783196891358391600,5.5843916015625,-0.3665444708026945,-0.1333700673088431,-4.114461856463551,-1.2448748350143433,-1.3675094842910769,0.7872447371482849
1783196891368329500,5.59432958984375,-0.4479638399913906,-0.6036722880974411,-4.444766408497095,-1.1607232093811035,-1.4106175899505615,0.8903809785842896
1783196891378266600,5.6042666015625,-0.7466266147010028,-1.028897642058134,-4.629550728961825,-1.0753988027572632,-1.3476382493972778,0.943798005580902
1783196891388204500,5.61420458984375,-1.082959779374301,-1.3606433328107,-4.681205512875319,-1.0153852701187134,-1.210422158241272,0.945448875427246
1783196891398141700,5.6241416015625,-1.3054741110354662,-1.6905919110134242,-4.736559151306748,-0.9820604920387268,-1.050147533416748,0.9018313884735109
1783196891408078600,5.63407861328125,-1.5102113784655928,-2.0064736776798964,-4.872071199080348,-0.9881852269172668,-0.8667031526565552,0.8368505239486694
1783196891418016800,5.644016845703125,-1.540679874226451,-2.336475739635527,-5.0474119838953015,-1.009691596031189,-0.7305997610092163,0.767760694026947
1783196891427953400,5.653953369140625,-1.433698924410343,-2.74075708976686,-5.39895046261549,-1.0293487310409546,-0.651716947555542,0.7110869884490967
1783196891437891600,5.6638916015625,-1.3108897063434124,-3.1129940731227395,-5.8214750331848855,-1.0088919401168823,-0.5889724493026733,0.6600548028945923
1783196891447828500,5.673828369140625,-1.3161615092664956,-3.4349802941441534,-6.225956582063436,-0.9214770793914796,-0.530191957950592,0.6121533513069153
1783196891457766700,5.6837666015625,-1.4454893154472113,-3.694347854167223,-6.539165622389316,-0.7947900295257568,-0.4769963026046753,0.5632272362709045
1783196891467703600,5.69370361328125,-1.5592425358772275,-3.882448167312145,-6.823015881761908,-0.6208802461624146,-0.4084643721580505,0.4986772537231445
1783196891477641500,5.703641357421875,-1.733366346117854,-4.01587990168035,-7.122433712622523,-0.4111960828304291,-0.3251359462738037,0.4164678454399109
1783196891487578600,5.71357861328125,-1.872327949823439,-4.079378852644562,-7.378412799251079,-0.1609452217817306,-0.2339604943990707,0.3192227780818939
1783196891497516500,5.7235166015625,-1.9105612343668936,-4.100914977148175,-7.612215709906816,0.1120339334011077,-0.1573566496372223,0.1949354112148285
1783196891507453700,5.73345361328125,-1.9335069334074853,-3.9867885394915934,-7.754362665650248,0.3873206377029419,-0.1226378008723259,0.0618332736194133
1783196891517391400,5.743391357421875,-1.9332336694240568,-3.77756974273324,-7.801318478092551,0.6414587497711182,-0.1025009155273437,-0.0597322508692741
1783196891527328500,5.75332861328125,-1.8132175892069933,-3.61234820087254,-7.750769609594345,0.8788380026817322,-0.083016961812973,-0.1740055531263351
1783196891537266400,5.763266357421875,-1.7540768334522845,-3.4198473146811126,-7.686599042978882,1.119816780090332,-0.0097421817481517,-0.2808659374713897
1783196891547203600,5.77320361328125,-1.8453718460977075,-3.0901705391570924,-7.465445770537853,1.3484116792678833,0.1347092688083648,-0.3875284790992737
1783196891557141500,5.7831416015625,-1.8896973100364207,-2.723721783813834,-7.045490758195519,1.5327918529510498,0.2991684675216675,-0.487213671207428
1783196891567078700,5.79307861328125,-1.957866590899229,-2.3840086213134226,-6.64468176034987,1.666520357131958,0.4493023157119751,-0.585537850856781
1783196891577016600,5.8030166015625,-2.140700946339965,-2.0301303014688195,-6.293209332603216,1.755312204360962,0.5661020278930664,-0.6803687214851379
1783196891586953700,5.81295361328125,-2.299533956207335,-1.6809271338284015,-5.964228138127923,1.7947789430618286,0.6662682890892029,-0.7739934921264648
1783196891596891600,5.8228916015625,-2.4165499778255817,-1.4125439081788065,-5.661715848383307,1.8091298341751096,0.7779001593589783,-0.8471181392669678
1783196891606828500,5.83282861328125,-2.5163529988363385,-1.2093413029700515,-5.3608910733342165,1.830782651901245,0.9146170020103456,-0.9042229652404784
1783196891616766500,5.842766357421875,-2.6025071414619685,-0.9338859469771384,-4.982193954053521,1.863149046897888,1.0697077512741089,-0.9710955023765564
1783196891626703600,5.85270361328125,-2.71159675399512,-0.4802554595261812,-4.527989466106892,1.910582423210144,1.2229527235031128,-1.0516436100006104
1783196891636640500,5.862640625,-2.687630479735136,0.0199687290564179,-4.006402463760971,1.9698197841644287,1.3501769304275513,-1.1359363794326782
1783196891646578400,5.872578369140625,-2.459431380435824,0.4101403052926063,-3.4737609834373,2.0573647022247314,1.4257252216339111,-1.2094541788101196
1783196891656515600,5.882515625,-2.157836205536127,0.7747200518935918,-2.8514468309730288,2.1470401287078857,1.4582287073135376,-1.2676478624343872
1783196891666453500,5.89245361328125,-1.8987404481917616,1.290190617185831,-2.1756103471577166,2.2216222286224365,1.446333408355713,-1.3098448514938354
1783196891676390700,5.902390625,-1.6132982434526084,1.8270950156509875,-1.5582622926682232,2.285975933074951,1.396525502204895,-1.2971175909042358
1783196891686328600,5.91232861328125,-1.2567124182149767,2.1639093879699707,-0.9943249258488416,2.335799217224121,1.3032011985778809,-1.2411587238311768
1783196891696265500,5.922265380859375,-0.9571849164348096,2.4366972783192997,-0.4653817155212164,2.3705437183380127,1.1921433210372925,-1.1628310680389404
1783196891706203400,5.932203369140625,-0.7260541475977749,2.774034797729552,0.1204296294540166,2.3841559886932373,1.081007480621338,-1.0801810026168823
1783196891716140500,5.942140625,-0.5345950986094773,3.103978992018104,0.6258382349371909,2.3824403285980225,0.9693008661270142,-0.9984790682792664
1783196891726078500,5.952078369140625,-0.2805373354323208,3.291822700053453,1.104748709595203,2.3768057823181152,0.8485667109489441,-0.8974603414535522
1783196891736015600,5.962015625,-0.0137310037106275,3.387812300255894,1.5066940179944035,2.3649115562438965,0.6884253621101379,-0.7929579019546509
1783196891745953500,5.97195361328125,0.1232880145598202,3.504890281194448,1.811383651778102,2.3379952907562256,0.5064371824264526,-0.6974750757217407
1783196891755890700,5.981890625,0.1860972296942025,3.643759822702408,2.0833803917497398,2.2846004962921143,0.3547114431858063,-0.6037848591804504
1783196891765828600,5.99182861328125,0.1829575434289872,3.723828800195456,2.4665777450591326,2.1988325119018555,0.2597439289093017,-0.5174153447151184
1783196891775765800,6.001765869140625,0.1172670007046312,3.7276422210037703,2.82274271453619,2.0816962718963623,0.1989598572254181,-0.4590523838996887
1783196891785703700,6.01170361328125,-0.0314270385947078,3.78764047037065,3.038331338587403,1.920388340950012,0.2167207449674606,-0.411022275686264
1783196891795640600,6.021640625,-0.1008834001259878,3.824472363683581,3.421982280883193,1.7255572080612185,0.320807546377182,-0.3383351564407348
1783196891805578500,6.03157861328125,-0.0419603787751868,3.8663258845508097,3.75039707364738,1.499902844429016,0.4641220867633819,-0.2363781780004501
1783196891815516200,6.04151611328125,0.1931152369637973,3.9198300957232712,3.97371249255836,1.259609341621399,0.5997987389564514,-0.1087279021739959
1783196891825453300,6.051453369140625,0.4880712478436529,3.9446459725499152,4.093614298745989,1.0290610790252686,0.6685988306999207,0.0046258214861154
1783196891835391200,6.06139111328125,0.6695404524110258,4.026002067244053,4.11649657716155,0.8301819562911987,0.6272916197776794,0.0886209830641746
1783196891845328100,6.071328125,0.7147600887104868,4.045784626078605,3.993926428547501,0.6693520545959473,0.4939284920692444,0.1230087801814079
1783196891855266000,6.08126611328125,0.6853720816627145,3.960349737638235,3.857328923624754,0.5482814908027649,0.3148052990436554,0.1026380881667137
1783196891865203200,6.091203125,0.646892128881812,3.794768130293488,3.678222064274549,0.4858934581279754,0.1538776755332946,0.0616645589470863
1783196891875141000,6.10114111328125,0.5667952404685318,3.652114978593588,3.62540349727869,0.45792356133461,0.0644648075103759,0.0006259805522859
1783196891885078300,6.111078369140625,0.5255548830635846,3.5809114446014165,3.7528462203651674,0.4482943713665008,0.0363482162356376,-0.0569409094750881
1783196891895016200,6.12101611328125,0.5621906692825257,3.5882647299736736,3.8451808051913976,0.4347820281982422,0.0200316309928894,-0.095682218670845
1783196891904953300,6.130953369140625,0.6877683291494846,3.6472827361315487,3.9751077463090416,0.4143880903720855,0.0079941442236304,-0.1007342338562011
1783196891914891300,6.140891357421875,0.8764952497601508,3.755717976409197,4.157776682054997,0.3836991488933563,-0.009029047563672,-0.0916805490851402
1783196891924828400,6.150828369140625,1.0075378970347344,3.866881180346012,4.379045105308294,0.3382379114627838,-0.0401992164552211,-0.0921822935342788
1783196891934766300,6.160766357421875,0.9239970056474208,4.0651913373380895,4.590700481563807,0.2763329148292541,-0.0674578621983528,-0.1154545471072197
1783196891944703000,6.170702880859375,0.9288932532563804,4.194119330546259,4.8292590623140335,0.1985539942979812,-0.0769837200641632,-0.1710735857486724
1783196891954640100,6.18064013671875,0.8438476563945412,4.206256927585602,5.143952203717827,0.1003323346376419,-0.075907677412033,-0.2477653622627258
1783196891964578000,6.190578125,0.7930681940108537,4.193175912216305,5.358215716645121,-0.0242554023861885,-0.0710543319582939,-0.3172496259212494
1783196891974515200,6.20051513671875,0.8929813973978161,4.132220800516009,5.5332490429461,-0.1793874949216842,-0.0700784921646118,-0.358507752418518
1783196891984453000,6.210453125,0.9066884357109666,4.007857338744402,5.753759925830364,-0.3663406074047088,-0.1136800274252891,-0.3764222860336303
1783196891994390300,6.220390380859375,0.8977565028451383,3.788881994864344,5.861445224523544,-0.5919972658157349,-0.2319071888923645,-0.37062469124794
1783196892004328200,6.230328125,0.8831921170502901,3.386209541234374,5.841165822082758,-0.8751940727233887,-0.4124447405338287,-0.3864611983299255
1783196892014265300,6.240265380859375,0.803399910672009,2.728086993286013,5.707874957489967,-1.2154810428619385,-0.5796762704849243,-0.3293966352939605
1783196892024203300,6.250203369140625,1.0530315279699862,2.379503857240081,5.444284811335802,-1.6459975242614746,-0.7805353403091431,-0.1571668237447738
1783196892034140200,6.26014013671875,1.4242501280635596,2.124172420865297,5.048025147357583,-2.141481399536133,-0.9956894516944884,0.0990567803382873
1783196892044077000,6.2700771484375,1.3849448303744196,1.897201986578107,4.514828371238708,-2.666372060775757,-1.2635791301727295,0.3329670131206512
1783196892054015200,6.28001513671875,0.6872977159630507,2.106730287677049,3.954958107727766,-3.073880910873413,-1.363927960395813,0.4793159067630768
1783196892063952100,6.2899521484375,0.0184910577192902,2.6010405760407447,3.2538147486984728,-3.2618837356567383,-1.0033963918685913,0.5538886785507202
1783196892073890300,6.299890380859375,-0.4763434737142175,2.7526638006597755,3.146015468236804,-3.255657196044922,-0.5424302816390991,0.5819371342658997
1783196892083827200,6.3098271484375,-0.8407182723276316,2.706863587993383,2.145152080529928,-3.106379270553589,-0.1820441633462906,0.6201167106628418
1783196892093765400,6.319765380859375,-0.6434487834949046,2.4126748899579047,1.4061989230662584,-2.899701833724976,0.0177936311811208,0.6836403012275696
1783196892103702000,6.329701904296875,-0.390561013945192,2.076577725997567,1.127367953160405,-2.7079193592071533,-0.0010024267248809,0.7519762516021729
1783196892113640200,6.33964013671875,-0.4298134124033153,1.8791104495704172,1.032114850538969,-2.587367296218872,-0.183973416686058,0.8102254867553711
1783196892123577000,6.3495771484375,-0.7314226888936013,1.7345909194767477,0.9995441218018531,-2.5375118255615234,-0.4327307939529419,0.8269543647766113
1783196892133514200,6.35951416015625,-0.880397371765226,1.3776605185851454,0.9993050523489712,-2.5269529819488525,-0.6892617344856262,0.8037742376327515
1783196892143452200,6.3694521484375,-1.1041602421827614,0.9891472309499978,0.9410013319402932,-2.5643203258514404,-0.9790844917297364,0.7219784259796143
1783196892153389300,6.379389404296875,-1.353515380626917,0.8785741018608212,0.6001613573670387,-2.645853281021118,-1.2843079566955566,0.5859019160270691
1783196892163327200,6.3893271484375,-1.300602997867763,0.7681739912509917,-0.0227653740376234,-2.71087384223938,-1.5821682214736938,0.4826748967170715
1783196892173264400,6.399264404296875,-1.133234360975772,0.3914829510957002,-0.8913649021118879,-2.7089316844940186,-1.805881142616272,0.4333223700523376
1783196892183202300,6.409202392578125,-1.2226546657904982,0.1537672509104013,-1.7688193522930145,-2.653177499771118,-1.8933912515640257,0.4218470752239227
1783196892193139200,6.41913916015625,-1.35029685697183,0.1255570554703474,-2.6552327694773674,-2.511556386947632,-1.7780349254608154,0.4056432247161865
1783196892203076000,6.429076171875,-1.611517643646151,0.1167071017995476,-3.4861861652463677,-2.2911598682403564,-1.5135869979858398,0.3662950098514557
1783196892213014000,6.439013916015625,-1.824797406233102,0.0839578016251325,-4.073796084076166,-2.0698673725128174,-1.195845127105713,0.2850108742713928
1783196892222951200,6.448951171875,-1.7353848463334145,0.0760764007255434,-4.464925983950495,-1.8981033563613887,-0.935724914073944,0.1840253919363021
1783196892232889000,6.45888916015625,-1.3979220931082963,-0.0268365689992904,-4.776893499782681,-1.7844058275222778,-0.7338513731956482,0.1164412125945091
1783196892242826200,6.468826171875,-0.9041435735337436,-0.2750793622873723,-4.883220954126119,-1.7070895433425903,-0.6457582712173462,0.1135269105434417
1783196892252764200,6.47876416015625,-0.4304417734347283,-0.6313260186985135,-5.088246098586916,-1.6557003259658811,-0.6818714737892151,0.1736195832490921
1783196892262701300,6.488701416015625,-0.1812337883763015,-1.0431734201699494,-5.4992742926299565,-1.600059986114502,-0.7895601391792297,0.2623044550418854
1783196892272638200,6.49863818359375,-0.2181611048877239,-1.4479766022183,-5.9634758584558965,-1.522965908050537,-0.8766994476318359,0.3248011767864227
1783196892282576100,6.508576171875,-0.5849453757956624,-1.8169949157886207,-6.42017157869637,-1.4136101007461548,-0.9262264966964722,0.3470279276371002
1783196892292513000,6.518512939453125,-1.0168953618362546,-2.243294620982557,-6.988859939435124,-1.284195899963379,-0.919619083404541,0.3064348995685577
1783196892302451200,6.528451171875,-1.535705592945218,-2.6190862280800937,-7.646877273443341,-1.1102720499038696,-0.8056600689888,0.2183116972446441
1783196892312388000,6.53838818359375,-1.869600862947106,-3.031023061400652,-8.135477951988577,-0.8778954744338989,-0.5779592990875244,0.1167689859867096
1783196892322326300,6.548326171875,-2.0246771506294605,-3.415254726193845,-8.385660335037112,-0.6175083518028259,-0.2989409565925598,0.0112265748903155
1783196892332263200,6.55826318359375,-2.085504252035916,-3.597659750306606,-8.452874507132172,-0.3581133484840393,-0.0174579881131649,-0.1021226197481155
1783196892342200300,6.568200439453125,-2.08357532979995,-3.635077334553003,-8.375064706742762,-0.1104894205927848,0.2055095881223678,-0.2182289958000183
1783196892352138200,6.57813818359375,-1.897822748824954,-3.5957419339865444,-8.290521214184164,0.1312915980815887,0.3557602167129516,-0.3171986639499664
1783196892362075100,6.5880751953125,-1.6272782534882426,-3.5390070703297853,-8.162804934853314,0.3668370246887207,0.415547639131546,-0.3914164304733276
1783196892372013000,6.598012939453125,-1.376605748835206,-3.429843515777588,-8.047009979462624,0.6006571650505066,0.3941090703010559,-0.4524866342544555
1783196892381950200,6.6079501953125,-1.2777055218830704,-3.2728865289151665,-7.957288792005181,0.8299018144607544,0.371946781873703,-0.5260607600212097
1783196892391887000,6.61788720703125,-1.3317755502447486,-3.0624136404424904,-7.803396453410387,1.0357840061187744,0.3648827373981476,-0.6066136360168457
1783196892401825300,6.6278251953125,-1.429333130416274,-2.8121111381456254,-7.734578353250026,1.2245912551879885,0.3807735741138458,-0.6820231676101685
1783196892411762200,6.63776220703125,-1.4407920975416897,-2.6105358418777582,-7.727343725821376,1.4021958112716677,0.4490626752376556,-0.7368647456169128
1783196892421700400,6.647700439453125,-1.3158984744161366,-2.5350176595568654,-7.660724012488126,1.5727332830429075,0.5283856987953186,-0.7650913000106812
1783196892431637200,6.65763720703125,-1.2250360079690814,-2.442124271804094,-7.575708226242661,1.7436257600784302,0.5909003615379333,-0.7750091552734375
1783196892441574100,6.66757421875,-1.2527815085068343,-2.282147206468135,-7.440072844350338,1.929616928100586,0.6215964555740356,-0.7855417132377625
1783196892451512000,6.677511962890625,-1.451807558683306,-2.108283654598892,-7.291712420919537,2.107836961746216,0.6471757888793945,-0.8296182155609131
1783196892461449200,6.68744921875,-1.8118731888607145,-1.8313047423005104,-7.106542316007614,2.29938006401062,0.7059296369552612,-0.909427285194397
1783196892471387100,6.69738720703125,-2.0466662795975803,-1.6120672403529286,-6.688872784253954,2.482072353363037,0.7774953842163086,-1.003090262413025
1783196892481324300,6.70732421875,-2.1121904527790845,-1.3726321690291166,-6.133246149662137,2.6394290924072266,0.8274120688438416,-1.0932338237762451
1783196892491261200,6.71726123046875,-1.985792270309478,-1.0573922073975204,-5.37923629284203,2.770189046859741,0.838420033454895,-1.1557031869888306
1783196892501199400,6.727199462890625,-1.702330864124,-0.6727589760661125,-4.535861222395301,2.8744089603424072,0.7664920687675476,-1.1750755310058594
1783196892511136300,6.73713623046875,-1.3447519361957907,-0.2382341711014509,-3.800027073734999,2.9535577297210693,0.5932291746139526,-1.153503656387329
1783196892521074200,6.74707421875,-0.9037064972907304,0.1595744758844375,-3.2586382233321665,3.0041089057922363,0.3519741892814636,-1.1057696342468262
1783196892531011000,6.757010986328125,-0.52042058891505,0.5400619857132435,-2.8488088836848733,3.007018566131592,0.1028609573841095,-1.048454999923706
1783196892540948200,6.7669482421875,-0.3408779684960842,0.9699424720034002,-2.409996026137471,2.9680354595184326,-0.0635043159127235,-1.0020883083343506
1783196892550886100,6.77688623046875,-0.2704151698686182,1.350499247676134,-1.9103455457895997,2.889222860336304,-0.1442502737045288,-0.982349693775177
1783196892560823300,6.7868232421875,-0.2845233363285661,1.7660545637547969,-1.4906465540349485,2.773455142974853,-0.1494716703891754,-0.9930683970451356
1783196892570760200,6.79676025390625,-0.261994109134376,2.223296811962128,-1.0315876117944718,2.635995864868164,-0.103944793343544,-1.021106839179993
1783196892580698400,6.806698486328125,-0.1658832206398248,2.720624402320385,-0.5575269152551889,2.474179983139038,-0.0562832653522491,-1.04559326171875
1783196892590635300,6.81663525390625,-0.049013183363527,3.30613413400054,-0.0245516729325056,2.2995285987854004,-0.0281192958354949,-1.0398396253585815
1783196892600573200,6.8265732421875,0.0959039677456021,3.852965467718243,0.443770772215724,2.145817518234253,-0.0160330701619386,-1.013137936592102
1783196892610510000,6.836510009765625,0.1976414639502763,4.434566501522064,0.7930138334751129,2.0502774715423584,0.0302201062440872,-0.960306704044342
1783196892620447200,6.846447265625,0.3861123639732599,4.937707746595144,1.2836112387955187,2.0665409564971924,0.0831680074334144,-0.9141011238098145
1783196892630385200,6.85638525390625,0.4328746996700763,5.486454558545351,1.6665794595241543,2.166105270385742,0.1561540365219116,-0.890347421169281
1783196892640322300,6.866322265625,0.5324917696546763,5.895488948422671,2.17096047552526,2.2807302474975586,0.2025835812091827,-0.866600513458252
1783196892650259200,6.87625927734375,0.7759083118300885,6.011818741342425,2.773842782288789,2.3506999015808105,0.1626604944467544,-0.8398783802986145
1783196892660197400,6.886197265625,0.9784847479645162,6.044196577855944,3.3082103557527063,2.349888324737549,0.0687526389956474,-0.7972379922866821
1783196892670134300,6.89613427734375,1.088680933500081,6.050310092300176,3.906967691540718,2.283077955245972,-0.0460544750094413,-0.7313855886459351
1783196892680072200,6.906072265625,1.1174129608571528,6.029063890653848,4.458676860427857,2.16228985786438,-0.1739181578159332,-0.6485823392868042
1783196892690009000,6.916009033203125,1.0301130091972648,5.956878359887003,4.8392245760113,1.994582176208496,-0.2654913961887359,-0.5864457488059998
1783196892699946200,6.9259462890625,0.8539805625479668,5.867797808420658,5.211709396648407,1.77850604057312,-0.2746385633945465,-0.5647537708282471
1783196892709884200,6.93588427734375,0.6451167897723615,5.885332880589366,5.573572285506129,1.5142840147018433,-0.2287327796220779,-0.5752767324447632
1783196892719821300,6.9458212890625,0.4348052293412387,5.881045412528515,5.851260515117645,1.2254979610443115,-0.1526635736227035,-0.5874777436256409
1783196892729758200,6.95575830078125,0.2784245810620486,5.789609237846732,5.984049859929084,0.9287647008895874,-0.0457969307899475,-0.5929478406906128
1783196892739696400,6.9656962890625,0.0550599892470985,5.749587024059891,6.025140579730272,0.6372985243797302,0.0741438567638397,-0.6123037338256836
1783196892749633000,6.975633056640625,-0.2560820355463772,5.789493502512574,5.867578028190136,0.3685576021671295,0.1697146296501159,-0.6401255130767822
1783196892759571200,6.9855712890625,-0.4909940399551764,5.890335218921304,5.549644297429919,0.1263385713100433,0.226904422044754,-0.6477717161178589
1783196892769508000,6.995508056640625,-0.477186500409618,6.06526040867269,5.246257562938332,-0.0980672761797905,0.2584683895111084,-0.6186285018920898
1783196892779445200,7.0054453125,-0.3999252738136798,6.157401516753435,5.010545603790879,-0.301645427942276,0.256898432970047,-0.5290538668632507
1783196892789383200,7.015383056640625,-0.3922676351999863,5.991839783152938,4.738918866175413,-0.4631937146186828,0.2440177053213119,-0.3943011164665222
1783196892799320300,7.0253203125,-0.2465736544994637,5.774764719936251,4.411681885018944,-0.5604544878005981,0.257628321647644,-0.2744327783584595
1783196892809257500,7.035257568359375,-0.2224866034040227,5.681954334291816,4.138946893900632,-0.6026143431663513,0.3130112588405609,-0.2004056870937347
1783196892819195400,7.0451953125,-0.2612282758610323,5.6610997623115775,4.001670759063959,-0.6140068173408508,0.3786912262439728,-0.1556451320648193
1783196892829132300,7.05513232421875,-0.2216546095592901,5.594354376772046,4.005895683282613,-0.6277569532394409,0.4308502972126007,-0.1087386161088943
1783196892839069400,7.0650693359375,-0.0556890352651011,5.421801761370897,4.116109039148688,-0.6619775295257568,0.4571609795093536,-0.0373318158090114
1783196892849007400,7.07500732421875,0.1540567353762686,5.215602312433719,4.283612554466724,-0.7367720603942871,0.4555482268333435,0.0372919999063015
1783196892858944500,7.084944580078125,0.2806052495693787,5.02799942741692,4.480997997829318,-0.8681721687316895,0.4346032738685608,0.1120061874389648
1783196892868881400,7.09488134765625,0.4455217806015163,4.831798809924721,4.617172308903933,-1.0427749156951904,0.398338109254837,0.188828095793724
1783196892878819600,7.104819580078125,0.7446598446726799,4.48567534199059,4.5850049002707,-1.2320116758346558,0.360533207654953,0.2738519310951233
1783196892888756500,7.114756591796875,0.9672416155468672,4.024732485699653,4.4406911218822,-1.4057210683822632,0.3418134450912475,0.3640678226947784
1783196892898693400,7.124693359375,1.0709168018158524,3.607601298606395,4.383762196958065,-1.5534296035766602,0.3494037091732025,0.4330602288246155
1783196892908631300,7.13463134765625,1.0592624582488088,3.385560137414932,4.405339822515845,-1.6802921295166016,0.3795957267284393,0.4589983522891998
1783196892918568400,7.144568359375,0.9814113029357046,3.331718072590232,4.427065916633605,-1.7728638648986816,0.4210509955883026,0.446656733751297
1783196892928505300,7.15450537109375,0.9142702691420912,3.3745003987401723,4.39434555029273,-1.8458099365234373,0.4636560380458832,0.4248749911785126
1783196892938443500,7.164443603515625,0.8973529635455458,3.2933874651521444,4.403349525481462,-1.9170225858688357,0.4783990085124969,0.4323714971542358
1783196892948380400,7.17438037109375,0.8462901541758329,3.128222037392854,4.292905867990851,-1.995265007019043,0.4793518781661987,0.4532038271427154
1783196892958317600,7.184317626953125,0.6469169710621238,3.036263884663582,4.161544510155916,-2.124478578567505,0.4342363178730011,0.4992557466030121
1783196892968255500,7.19425537109375,0.4889780604902655,3.039264820045233,4.197544044297933,-2.3255558013916016,0.3344871401786804,0.5575898885726929
1783196892978192400,7.2041923828125,0.3471417050659656,3.0984459078103304,4.374968649649619,-2.6237034797668457,0.1044723391532898,0.6094242930412292
1783196892988130300,7.21413037109375,0.3096779435902834,3.119626643005013,4.393697315517068,-3.0066163539886475,-0.3090333044528961,0.6773886680603027
1783196892998067500,7.2240673828125,0.3922393589535728,2.9026351664185523,3.872483238136768,-3.426121711730957,-0.8405269980430603,0.7974908351898193
1783196893008004400,7.23400439453125,0.3184810989772901,2.3581740689635278,2.7828952727943657,-3.778430461883545,-1.3435418605804443,0.966200351715088
1783196893017941500,7.24394140625,-0.0497337892556563,1.738012710618973,1.2129635851204394,-3.930664300918579,-1.6145906448364258,1.1198490858078003
1783196893027879400,7.25387939453125,-0.8979392390009016,1.447695885580778,-0.5126373876929283,-3.8886191844940186,-1.6364792585372925,1.1738797426223757
1783196893037816600,7.263816650390625,-1.877110946316272,1.5804928291767837,-1.9521160645484923,-3.703948974609375,-1.381364345550537,1.0958765745162964
1783196893047753200,7.273753173828125,-2.317301960349083,1.6359546041578052,-2.8091122485905884,-3.478752851486206,-0.9696522355079652,0.9529085159301758
1783196893057691400,7.28369140625,-2.040886088760942,1.3762337006524203,-3.4205899497419594,-3.280045986175537,-0.6522207260131836,0.8183626532554626
1783196893067628300,7.293628173828125,-1.4572083948135377,0.973587258246541,-4.015406438949704,-3.150774478912353,-0.5643108487129211,0.775397002696991
1783196893077565400,7.3035654296875,-0.8407346389405429,0.2753770300596952,-4.751422958439588,-3.0689005851745605,-0.6688918471336365,0.9122837781906128
1783196893087503400,7.31350341796875,-0.243718009340018,-0.8014291951209306,-5.583711402204632,-2.9738550186157227,-0.8939070701599121,1.1635819673538208
1783196893097440500,7.3234404296875,-0.2271964981280267,-1.720712323988974,-6.379367859143018,-2.812859058380127,-1.130995512008667,1.3953627347946167
1783196893107377400,7.33337744140625,-0.7306517775863408,-2.3595395120978355,-7.039443294724822,-2.562918901443481,-1.2878165245056152,1.506436467170715
1783196893117315600,7.343315673828125,-1.381260588903725,-2.834526675832272,-7.51806267748177,-2.288994073867798,-1.385656714439392,1.4671005010604858
1783196893127252200,7.353252197265625,-1.9027112515188755,-3.185836606493592,-7.879583036512136,-2.0469906330108643,-1.439861536026001,1.2995362281799316
1783196893137189400,7.363189453125,-2.291336913487315,-3.5357290715724226,-8.23769446388185,-1.8369206190109253,-1.4341557025909424,1.0718042850494385
1783196893147127300,7.373127197265625,-2.4880674000725147,-4.03342841785252,-8.75858997683227,-1.638327717781067,-1.330080509185791,0.8691960573196411
1783196893157064400,7.383064453125,-2.53767664963305,-4.47420585347116,-9.384956035035849,-1.436003565788269,-1.1162254810333252,0.7228191494941711
1783196893167001600,7.393001708984375,-2.6047543358668683,-4.717482694914937,-9.933831441801786,-1.2119481563568115,-0.8222800493240356,0.6303030252456665
1783196893176939500,7.402939453125,-2.729212490184605,-4.842653965938091,-10.372980399435756,-0.962138056755066,-0.4702720046043396,0.5876495838165283
1783196893186876400,7.41287646484375,-2.7624036889076238,-4.97783166719079,-10.521452466547489,-0.7053073644638062,-0.1258643418550491,0.5323595404624939
1783196893196813300,7.422813232421875,-2.766756623420119,-4.936948452660441,-10.470465791153908,-0.4453417956829071,0.1318148672580719,0.4433529675006866
1783196893206751200,7.432751220703125,-2.708111542227864,-4.77660679179579,-10.341471162450311,-0.1764910966157913,0.248591810464859,0.3152769207954407
1783196893216688400,7.4426884765625,-2.4974825864106416,-4.6017222263157365,-10.364198542565108,0.1381139904260635,0.2344589531421661,0.1634501069784164
1783196893226625500,7.45262548828125,-2.280332119870186,-4.2712741741582745,-10.426194103229044,0.4996900558471679,0.1653404086828231,0.0070667816326022
1783196893236563500,7.4625634765625,-2.108932473896444,-3.792841546145081,-10.345472799307109,0.8908088207244873,0.0727939754724502,-0.1359745264053344
1783196893246500600,7.47250048828125,-1.9153993220478296,-3.3239529915466903,-10.169626403057574,1.2718641757965088,-0.0033820895478129,-0.2482439875602722
1783196893256437500,7.4824375,-1.756391540135443,-2.824750839488208,-9.898408246243,1.6294373273849487,-0.0311340913176536,-0.3255731463432312
1783196893266374400,7.49237451171875,-1.6460566037163138,-2.431462884797156,-9.536461186233163,1.9551867246627808,-0.003042671829462,-0.3828610777854919
1783196893276312300,7.502312255859375,-1.628508672066033,-2.1428696686811746,-9.057342037260533,2.2140543460845947,0.0587948635220527,-0.4313788115978241
1783196893286249500,7.51224951171875,-1.7846406062811613,-1.855952130692452,-8.566292211997508,2.434781551361084,0.16370689868927,-0.5191534757614136
1783196893296186400,7.522186279296875,-2.152565279395878,-1.4875409892350435,-8.169232337552309,2.6161513328552246,0.3708632886409759,-0.622377872467041
1783196893306124500,7.53212451171875,-2.242056749750674,-1.2851850639835,-7.542749959492683,2.7678682804107666,0.5894085168838501,-0.6944931745529175
1783196893316061400,7.5420615234375,-2.1216429023876784,-1.125368888297677,-6.926430663529038,2.917874574661255,0.7544541954994202,-0.7278631329536438
1783196893325998600,7.55199853515625,-1.976726628061384,-0.8254048217311502,-6.171126675245166,3.0771758556365967,0.8494942784309387,-0.7319498658180237
1783196893335936500,7.5619365234375,-1.860977703769505,-0.3876683612436056,-5.239570047998428,3.247730016708374,0.8798609972000122,-0.7270374298095703
1783196893345873400,7.571873291015625,-1.7575014010734855,0.0632861849963665,-4.234872781217098,3.414931058883667,0.8300121426582336,-0.7348498106002808
1783196893355810300,7.581810302734375,-1.6738953354954718,0.5405988690689206,-3.228416688069701,3.5392262935638428,0.7042060494422913,-0.7576220035552979
1783196893365747500,7.59174755859375,-1.5921221844330429,1.0338707542955874,-2.3495488639593125,3.610648632049561,0.5702511668205261,-0.7919101715087891
1783196893375685400,7.601685302734375,-1.42809102140069,1.4633403216972949,-1.509392171037197,3.629722833633423,0.4731006324291229,-0.8340032696723938
1783196893385622500,7.61162255859375,-1.208799743439257,1.8409300642579796,-0.6811568020552397,3.561166524887085,0.4223434627056122,-0.8710864782333374
1783196893395559400,7.621559326171875,-0.9501780333474278,2.294338433390856,0.2163420727670192,3.399501085281372,0.3866943717002868,-0.8651643991470337
1783196893405497600,7.63149755859375,-0.6421969568029046,2.654058465000987,1.2472984009206294,3.1496005058288574,0.3756168782711029,-0.8209200501441956
1783196893415434200,7.641434326171875,-0.3386389573976397,2.940053335186839,2.22088624368906,2.8343544006347656,0.3595249950885772,-0.7546600699424744
1783196893425371400,7.651371337890625,-0.0924490049861371,3.245069132184982,3.018280484205484,2.489768743515014,0.3183832764625549,-0.6799957752227783
1783196893435308500,7.66130859375,0.124662444718182,3.547224863576889,3.607354630368948,2.149943590164185,0.2619090676307678,-0.6123600006103516
1783196893445246500,7.67124658203125,0.2609171275526285,3.829684545373917,4.012100967663526,1.8128759860992432,0.2194283455610275,-0.5620070695877075
1783196893455183600,7.68118359375,0.3832156196184456,4.104123417800665,4.260777622324228,1.4910739660263062,0.1941757202148437,-0.5409680604934692
1783196893465120500,7.69112060546875,0.5275119354154915,4.324927146151661,4.367319596201181,1.1995301246643066,0.1960560083389282,-0.5338097810745239
1783196893475058400,7.701058349609375,0.5414390462201089,4.538208662304282,4.329465958625078,0.9518712759017944,0.288797378540039,-0.5003170967102051
1783196893484995300,7.710995361328125,0.6582345569554716,4.671062304523587,4.336745594239234,0.7582902312278748,0.4742385447025299,-0.4351144731044769
1783196893494932500,7.720932373046875,0.7293775198668241,4.717152440047264,4.331721044075489,0.6450217366218567,0.7159305810928345,-0.3656509518623352
1783196893504869400,7.730869384765625,0.6925512525770813,4.716427632904052,4.128346004909277,0.5948539972305298,0.993779718875885,-0.3201352059841156
1783196893514807600,7.7408076171875,0.6707422294162213,4.74021007502973,4.039309877106547,0.6273874640464783,1.273983120918274,-0.3177588880062103
1783196893524744400,7.750744384765625,0.5373946662001311,4.862372227364778,4.001981724709272,0.7093033790588379,1.498107671737671,-0.3392880856990814
1783196893534681300,7.760681396484375,0.4726416965868323,4.963177118894458,4.097206770280003,0.7929436564445496,1.5893808603286743,-0.3393426537513733
1783196893544619300,7.770619384765625,0.5726529535207897,4.916148825737833,4.243207478842139,0.8427635431289673,1.5521687269210815,-0.3112156093120575
1783196893554556400,7.780556396484375,0.653279053439945,4.805721534860134,4.510626243373752,0.8396915793418884,1.4164568185806274,-0.2731489241123199
1783196893564493300,7.790493408203125,0.6873251154266298,4.797043138363957,4.774612110847235,0.7604527473449707,1.1919031143188477,-0.2530418038368225
1783196893574430500,7.800430419921875,0.7203782939184457,4.791153495803475,5.005121825176477,0.6174580454826355,0.9354052543640136,-0.2377243638038635
1783196893584368400,7.810368408203125,0.752521517958492,4.6965883754462,5.18805671838224,0.4330916702747345,0.6955739259719849,-0.2168360352516174
1783196893594305500,7.820305419921875,0.746855089694634,4.551049439176917,5.274762941932678,0.2359373122453689,0.5063398480415344,-0.1889868229627609
1783196893604242400,7.830242431640625,0.6790417095974087,4.45747508342266,5.2939124635607,0.0409789197146892,0.3694354295730591,-0.1376606523990631
1783196893614179300,7.840179443359375,0.5598435946997254,4.434900263521075,5.221542808398604,-0.1410726308822631,0.3003828525543213,-0.0724206566810607
1783196893624117200,7.8501171875,0.375079659435898,4.416424695631862,5.125635041260719,-0.3138799667358398,0.3010499477386474,-0.0122314281761646
1783196893634054400,7.860054443359375,0.2418583529479801,4.366429369363188,5.052390941351652,-0.46856889128685,0.3599385619163513,0.038473293185234
1783196893643991600,7.869991455078125,0.1565736135680228,4.296909258413314,4.928585113462805,-0.6010021567344666,0.4478224515914917,0.0855360180139541
1783196893653929500,7.879929443359375,0.1918769090741872,4.210354426032304,4.884528529593348,-0.7107206583023071,0.5374218821525574,0.1345821171998977
1783196893663866600,7.88986669921875,0.3284747062578797,4.15191334297955,4.952414317339659,-0.8228304386138916,0.5927653312683105,0.1744163781404495
1783196893673803300,7.89980322265625,0.4601484910428524,4.136398962983489,5.0271875265121455,-0.9410161972045898,0.5971208810806274,0.2075325101613998
1783196893683740400,7.909740478515625,0.5744511620491742,4.060965828597546,5.012838683164119,-1.0786255598068235,0.5155819654464722,0.2611610889434814
1783196893693678300,7.91967822265625,0.7436834739211946,3.861991070216894,4.92641361464262,-1.236331343650818,0.3680846393108368,0.3361325263977051
1783196893703615500,7.929615478515625,0.8853615700438618,3.5720559379726646,4.755873508107662,-1.4017239809036257,0.1771176159381866,0.4423524439334869
