time,seconds_elapsed,ax,ay,az,gx,gy,gz
1783197014940642000,0.10264208984375,-0.3944308411158621,-0.0183376207232475,0.9317080184161662,0.0456546656787395,0.2418241649866104,-0.0466442294418811
1783197014950579200,0.1125791015625,-0.4542342985630035,0.0481938298046588,0.925009397560358,0.0444671139121055,0.3078860342502594,-0.0782412737607956
1783197014960516000,0.12251611328125,-0.5347191633805632,0.1119464632689952,0.9511609069049358,0.0738652125000953,0.3640225529670715,-0.1114436984062194
1783197014970453200,0.132453369140625,-0.5423886750951409,0.2158130804568529,1.0148574262678622,0.1596778035163879,0.4148108661174774,-0.1481361240148544
1783197014980390400,0.142390380859375,-0.5610417915083468,0.3082224840849638,1.1292004292845723,0.3022170960903168,0.4631848037242889,-0.1878739446401596
1783197014990327000,0.1523271484375,-0.6139977211482822,0.4180658375948667,1.1724591407746077,0.4838214218616485,0.5040885806083679,-0.2275014221668243
1783197015000264200,0.16226416015625,-0.6603267799943685,0.5789531496435404,1.243515375250578,0.6201528906822205,0.3566200733184814,-0.3176693916320801
1783197015010201000,0.172201171875,-0.9985274921052156,1.148222525140643,1.2886246830433603,0.786703884601593,0.4595527648925781,-0.3884139657020569
1783197015020138200,0.18213818359375,-0.6497784979730844,1.350853467941284,1.6407897692292928,0.9364097714424132,0.6675992012023926,-0.4166226983070373
1783197015030075400,0.192075439453125,-0.3245572405532002,1.2370517321944237,2.789048534727097,1.0052324533462524,0.6335210800170898,-0.4329533576965332
1783197015040012000,0.202011962890625,-0.0481182803504168,1.677421756055951,2.883413748598098,1.0063408613204956,0.3137369155883789,-0.3291878402233124
1783197015049949200,0.21194921875,0.4345230513989925,1.452135913854837,2.7940853598505258,0.9763727188110352,0.0871642678976059,-0.1651460975408554
1783197015059886300,0.22188623046875,1.0098746694192289,1.2907564343750475,3.3780735810518263,0.9246985912322998,-0.0103899892419576,-0.0989284589886665
1783197015069823200,0.2318232421875,1.0560589129671454,1.3006845386713743,4.472996477681398,0.8819603323936462,-0.1951756775379181,0.1359528601169586
1783197015079760400,0.241760498046875,0.4944152100428938,1.321550801089406,4.714198266416788,0.6721131205558777,-0.4915173351764679,0.5317869782447815
1783197015089697000,0.251697021484375,0.683959292255342,2.3302216476768254,4.903687988093495,0.1964258700609207,-0.7135836482048035,0.8907895088195801
1783197015099634200,0.26163427734375,1.110682191297412,3.463630050045252,5.452079995256662,-0.4216879308223724,-0.8382605910301208,1.0709915161132812
1783197015109571300,0.2715712890625,1.705304911498725,4.335375474929809,6.214802150842547,-1.042083978652954,-0.7734802961349487,1.1062909364700315
1783197015119508200,0.28150830078125,2.0422595690712333,4.714353749239445,6.800506528311968,-1.635435700416565,-0.56528639793396,1.066296100616455
1783197015129445400,0.2914453125,2.098506795341521,4.804951719531417,7.311862059500813,-2.1951935291290283,-0.3703464865684509,1.0193700790405271
1783197015139382000,0.301382080078125,2.1318137293986976,4.978978499138355,7.52332220544517,-2.775216817855835,-0.1435117274522781,1.0548417568206787
1783197015149319200,0.311319091796875,2.137621831155568,5.245601729378104,7.29666858202219,-3.47532057762146,0.5461855530738831,1.5182126760482788
1783197015159256300,0.32125634765625,1.681658224581927,6.127565181416273,6.40845834454894,-3.819038152694702,0.5683653950691223,1.893963098526001
1783197015169193200,0.331193115234375,1.6878939041011034,5.695130626729131,3.66688175509274,-3.773228883743286,0.884465217590332,2.440638780593872
1783197015179130400,0.34113037109375,2.8934067348241803,4.3575396682038905,2.9401719931304453,-3.593188524246216,0.817223072052002,2.59688401222229
1783197015189067000,0.35106689453125,3.538845742288232,4.394731627000868,2.5903338885873555,-3.4439876079559326,0.1263325810432434,2.438595056533813
1783197015199004200,0.361004150390625,2.9951579672932622,4.287416038402915,0.6235761352241039,-3.3650243282318115,-0.5896782279014587,2.346197843551636
1783197015208941300,0.37094140625,1.51459032420218,3.439686572138965,0.1299748719125986,-3.3832075595855717,-1.1369843482971191,2.45136833190918
1783197015218878200,0.380878173828125,0.1549082376390695,2.6375185413494706,-0.1975567082762718,-3.50460147857666,-1.586410641670227,2.5869598388671875
1783197015228815000,0.390815185546875,-1.6936279177084563,2.135704599357396,-1.399725927659869,-3.52077579498291,-1.925631046295166,2.443242311477661
1783197015238752000,0.400751953125,-3.768865335012972,1.4149318262286483,-4.046080394154787,-3.288008213043213,-2.0775599479675293,1.9190127849578855
1783197015248689200,0.410689208984375,-5.339024109441041,0.0712701694875955,-6.967534242811799,-2.8381309509277344,-2.0112946033477783,1.2693663835525513
1783197015258626300,0.420626220703125,-6.157965580376982,-1.2276087810665368,-9.762654206407069,-2.308605432510376,-1.5666559934616089,0.8147083520889282
1783197015268563200,0.430563232421875,-6.324516909536719,-1.961811967524141,-11.584334211272,-1.885002851486206,-0.9098317623138428,0.6333664655685425
1783197015278500000,0.4405,-6.258744168421626,-2.203681572518497,-12.189907072293758,-1.618506669998169,-0.3410913646221161,0.6297054290771484
1783197015288437200,0.450437255859375,-5.912629468315839,-2.593357620322704,-11.87758884332776,-1.4252498149871826,-0.0566492080688476,0.6395626068115234
1783197015298374100,0.4603740234375,-5.509720867842436,-3.2703938353165984,-11.515539491987228,-1.17241632938385,-0.0347598865628242,0.5490715503692627
1783197015308311300,0.470311279296875,-5.461394936090708,-4.00172628864348,-11.576226892662048,-0.7327445149421692,-0.1185069605708122,0.3077519834041595
1783197015318248200,0.480248291015625,-5.805056397825479,-4.511166926121711,-12.022432198548316,-0.1822044104337692,-0.2681265473365783,-0.0304212439805269
1783197015328185000,0.49018505859375,-5.941001576319336,-4.834696869453787,-12.22430969263315,0.334660142660141,-0.419585108757019,-0.3974539935588836
1783197015338122200,0.500122314453125,-5.4944543251276015,-4.91235060249865,-11.60941838364601,0.7644178867340088,-0.5697448253631592,-0.6987597346305847
1783197015348059100,0.51005908203125,-4.594421840174496,-4.688179443541169,-10.490624782085415,1.0913015604019165,-0.6447128057479858,-0.8990636467933655
1783197015357996300,0.519996337890625,-3.532926873633265,-4.311468821902573,-9.2222479373008,1.307481288909912,-0.5952783823013306,-1.0069348812103271
1783197015367933200,0.52993310546875,-2.602890003299713,-3.901152867782116,-7.814947774994373,1.4132258892059326,-0.5001503229141235,-1.0523762702941897
1783197015377870000,0.5398701171875,-1.8926970763742923,-3.5131916610717773,-6.559780540394782,1.4541757106781006,-0.3971022367477417,-1.0823837518692017
1783197015387807200,0.54980712890625,-1.4342805236905811,-3.0527450638651845,-5.851286234080791,1.5264569520950315,-0.3222399950027466,-1.0898667573928833
1783197015397744000,0.559744140625,-1.0710632976144552,-2.68500217705816,-5.724010099732875,1.6803759336471558,-0.3189730942249298,-1.0726689100265503
1783197015407681300,0.569681396484375,-0.6857575738489627,-2.3080498556181785,-5.906987663036585,1.8915245532989504,-0.4289313554763794,-1.0411407947540283
1783197015417618200,0.5796181640625,-0.338397842118144,-1.9163409868121144,-6.085452132830024,2.104748487472534,-0.5525478720664978,-1.0156488418579102
1783197015427555000,0.58955517578125,-0.1315200555279851,-1.6652198616087437,-6.0044940975427625,2.2555384635925293,-0.7102365493774414,-0.9861411452293396
1783197015437492200,0.5994921875,-0.0438818118244409,-1.4450614454239603,-5.726908743783831,2.321471929550171,-0.8516658544540405,-0.9842194318771362
1783197015447429000,0.60942919921875,-0.2088771437138319,-1.1731295873820782,-5.467929306295514,2.354867935180664,-0.9135637283325196,-1.0238550901412964
1783197015457366300,0.6193662109375,-0.6374959395051002,-0.9310378640696406,-5.354670006862283,2.4193265438079834,-0.7824259400367737,-1.0516538619995115
1783197015467303200,0.62930322265625,-0.8807441393762826,-0.9021692047208548,-5.346050062555074,2.574814558029175,-0.4924254119396209,-1.0732334852218628
1783197015477240000,0.639239990234375,-0.9416393375828862,-0.7001090475454926,-5.647506705766916,2.817110300064087,-0.1134251058101654,-1.1930288076400757
1783197015487177200,0.64917724609375,-1.4811401822820305,-0.1329082950159907,-5.96281534872055,3.030548095703125,0.2774680852890014,-1.3082969188690186
1783197015497114000,0.659114013671875,-1.6900471366122365,0.5934808566898108,-5.757781436431408,3.0981605052948,0.6110076904296875,-1.3493218421936035
1783197015507051300,0.66905126953125,-1.4455243867605925,0.9776423788562416,-4.9891655466318126,3.0862956047058105,0.8732380270957947,-1.337413668632507
1783197015516988200,0.67898828125,-1.17383510530293,1.4760262002691626,-4.021061688232422,3.0655627250671387,1.0345652103424072,-1.2921929359436035
1783197015526925000,0.688925048828125,-0.8084718071088194,1.9603718517184257,-3.306959478908777,3.0826854705810547,1.1064528226852417,-1.2512255907058716
1783197015536862200,0.6988623046875,-0.4928317402437329,2.479461776551604,-2.779349563011527,3.1649861335754395,1.0709978342056274,-1.264657735824585
1783197015546799000,0.708799072265625,-0.4752805937230587,3.1850042473226785,-2.3507851277559992,3.33457350730896,1.0314991474151611,-1.2230205535888672
1783197015556736300,0.718736328125,-0.1592696477189659,3.733485686334968,-1.8997686221957208,3.4825189113616943,0.902713179588318,-1.1305558681488037
1783197015566673200,0.728673095703125,0.5223395742788911,3.8810055672883994,-1.194008709281683,3.571333169937134,0.6912714838981628,-1.1005809307098389
1783197015576610000,0.738610107421875,0.6004089023873209,4.168434854191541,-0.4272603669196367,3.5230977535247803,0.4744787514209747,-1.1136504411697388
1783197015586547200,0.748547119140625,0.5348711390718818,4.90684908247292,1.0773182663559913,3.29673171043396,0.2774823606014251,-1.062739014625549
1783197015596484000,0.758484130859375,0.9148667737305164,4.911048287728429,2.316183769974113,3.024846076965332,0.193997323513031,-1.0325273275375366
1783197015606421200,0.768421142578125,0.99981124830544,4.980374921932817,3.4500405006319284,2.680691719055176,0.1247331127524375,-1.0115283727645874
1783197015616358400,0.7783583984375,0.906944748559594,5.414419249904156,4.404624367722868,2.32056188583374,0.1239845007658004,-0.936842441558838
1783197015626295000,0.788294921875,1.1999462826371192,5.442252428725362,4.920117729368806,2.0269460678100586,0.1810290962457656,-0.8782463073730469
1783197015636232200,0.798232177734375,1.2290665786594153,5.435356823992729,4.766258123999834,1.822361946105957,0.2662433385848999,-0.8587349653244019
1783197015646169000,0.808169189453125,1.007687096247077,5.725929669618607,4.387610689079761,1.643386721611023,0.3327457010746002,-0.8290311694145203
1783197015656106200,0.818106201171875,0.9985283688880504,5.897337206637859,4.218620734596252,1.479913592338562,0.3943837583065033,-0.7975931167602539
1783197015666043400,0.82804345703125,1.077128589002788,6.028739481005072,4.22750312923193,1.3306392431259155,0.4077952802181244,-0.7558794617652893
1783197015675980000,0.83797998046875,1.2131680216513574,6.1778556912392375,4.418970288461447,1.1401978731155396,0.3385461866855621,-0.656446099281311
1783197015685917200,0.847917236328125,1.594680929005146,6.17691928717196,4.87689759632349,0.9322836399078368,0.2295391261577606,-0.5043778419494629
1783197015695854000,0.85785400390625,2.108817469214648,6.001342940035462,5.285861843574047,0.7542494535446167,0.1188442930579185,-0.3666540682315826
1783197015705791200,0.867791259765625,2.260342494156212,5.932486261430382,5.547120916432142,0.5729743838310242,-0.0105975409969687,-0.2537449896335602
1783197015715728400,0.877728271484375,2.2306319771558045,6.05828589348495,5.8085237816751,0.3898948431015014,-0.1302706748247146,-0.1748879849910736
1783197015725665000,0.8876650390625,2.030513747828454,6.194193078055977,5.898273610705137,0.1974552869796753,-0.1994671821594238,-0.1283628046512603
1783197015735602200,0.897602294921875,1.726102930986136,6.26925562556386,5.958769872722029,-0.0364307090640068,-0.2188068032264709,-0.0824373885989189
1783197015745539000,0.9075390625,1.591206969284266,6.317123876675963,6.106665601250529,-0.2960763871669769,-0.1798378676176071,-0.0220020413398742
1783197015755476200,0.917476318359375,1.6328607297956943,6.228834183326363,6.185577809923887,-0.5684072971343994,-0.0921998918056488,0.0506087765097618
1783197015765414100,0.9274140625,1.6743829728819428,6.081119072061777,6.189865862506628,-0.8355071544647217,0.0114737972617149,0.1273113340139389
1783197015775351300,0.937351318359375,1.6806363341882824,6.007521920931339,6.214277834707498,-1.106244444847107,0.0876204967498779,0.1982784420251846
1783197015785288200,0.9472880859375,1.661259725806117,5.94403524492681,6.3163113912492985,-1.3928701877593994,0.093478113412857,0.2449335008859634
1783197015795225000,0.95722509765625,1.5297000689201057,5.765635657063126,6.372336060810088,-1.6987653970718384,0.0618456155061721,0.2722609937191009
1783197015805162200,0.967162353515625,1.299979897533357,5.678742971029878,6.396352896213531,-2.0557382106781006,-0.0018460117280483,0.2808344960212707
1783197015815099100,0.97709912109375,1.034169737242162,5.5983186042279005,6.458471790996193,-2.4688432216644287,-0.0833475291728973,0.2609899640083313
1783197015825036300,0.987036376953125,0.7341904731065034,5.490393651559948,6.4232116770446295,-2.902441024780273,-0.1411799192428589,0.2334430962800979
1783197015834973200,0.99697314453125,0.4313859224170446,5.360635052746534,6.094888069695234,-3.2593588829040527,-0.1571564972400665,0.2193331271409988
1783197015844910000,1.00691015625,0.078249945372343,5.227167662543058,5.254751250517368,-3.4730000495910645,-0.1221115589141845,0.2031823545694351
1783197015854847200,1.01684716796875,-0.3039240562386811,5.107259426614642,4.038118036973477,-3.511204242706299,-0.0574100650846958,0.1720848977565765
1783197015864784100,1.0267841796875,-0.666989452753961,4.824678748786449,2.6106553766041998,-3.437171697616577,0.0063128573819994,0.1388795673847198
1783197015874721300,1.03672119140625,-0.9599011165909468,4.343876176771522,1.4415397010385989,-3.333014249801636,0.0275875199586153,0.0977728813886642
1783197015884658200,1.046658203125,-1.1238809878274798,3.876253404325247,0.6654477762699127,-3.272050142288208,-0.0370737202465534,0.0922346711158752
1783197015894595000,1.056594970703125,-0.9391551195517182,3.2919676614820954,0.3283586786627769,-3.3380720615386963,-0.1652047932147979,0.1062008216977119
1783197015904532200,1.0665322265625,-0.7245940849825739,2.800284214490652,0.2952303160429,-3.5121560096740723,-0.2869130373001098,0.1078328043222427
1783197015914469000,1.07646923828125,-0.6797631557397544,2.3956290626108645,0.3184539552420377,-3.73345398902893,-0.3397458791732788,0.0853173732757568
1783197015924406300,1.08640625,-0.8764503877051174,2.0609166310071942,-0.0193283853262662,-3.955401659011841,-0.322539210319519,0.0584622547030448
1783197015934344200,1.09634423828125,-1.1178640656255183,1.840047143943608,-0.6715338181853294,-4.130346298217773,-0.28294837474823,0.0657654479146003
1783197015944281000,1.106281005859375,-1.262502984315157,1.5584022856608033,-1.6587778458625078,-4.196169853210449,-0.2214169949293136,0.0926207602024078
1783197015954218200,1.11621826171875,-1.3990598649665713,1.2354258845582604,-2.923237224942445,-4.1313796043396,-0.141567975282669,0.1105797886848449
1783197015964155100,1.126155029296875,-1.582711089748144,1.039720064845681,-4.157416616570949,-3.94045090675354,-0.0978430062532424,0.1158826351165771
1783197015974092300,1.13609228515625,-1.6150570698186757,0.7152797286704182,-5.367945083498954,-3.6122775077819824,-0.0575797371566295,0.115561194717884
1783197015984029200,1.146029296875,-1.721066544254124,0.3870484757795929,-6.559400601166487,-3.218225240707397,-0.0610719136893749,0.1389528512954712
1783197015993966000,1.155966064453125,-1.6685253328949212,-0.056914311876893,-7.421596107417344,-2.7994251251220703,-0.1486800611019134,0.2033659368753433
1783197016003903200,1.1659033203125,-1.3509873234540224,-0.6910650326073169,-7.934844905006885,-2.420071601867676,-0.3177612721920013,0.297263354063034
1783197016013840100,1.175840087890625,-1.149578615924716,-1.379861828021705,-8.147508581522107,-2.061211347579956,-0.5339505076408386,0.3917358219623565
1783197016023777300,1.18577734375,-1.0950602592736485,-2.01990452940017,-8.331556404405832,-1.6707384586334229,-0.7221125364303589,0.4610894918441772
1783197016033714200,1.195714111328125,-1.2359800113096833,-2.5573516564399004,-8.647674610176683,-1.234180569648743,-0.8734636902809143,0.4837780296802521
1783197016043652400,1.20565234375,-1.5012632251173257,-2.933771478438377,-8.832627857467532,-0.8109874129295349,-0.96468186378479,0.4625445902347564
1783197016053589000,1.215589111328125,-1.7095286666736005,-3.259625480803847,-8.725818757086993,-0.4504409432411194,-0.9730266332626344,0.4147757589817047
1783197016063526100,1.225526123046875,-1.824102848097682,-3.5055367624044416,-8.214812769988178,-0.1881147623062133,-0.9575080275535583,0.3587923049926758
1783197016073463300,1.23546337890625,-1.767824203775823,-3.697491997411847,-7.43398855600059,-8.8389031589e-05,-0.9323371648788452,0.3128847479820251
1783197016083400200,1.245400146484375,-1.5655439741089938,-3.864216929572821,-6.577526624965667,0.1490746438503265,-0.9293009638786316,0.2885335981845855
1783197016093337300,1.25533740234375,-1.262480772483349,-4.034704429137706,-5.854326332429051,0.2952891290187835,-0.9315060377120972,0.2561367750167846
1783197016103274000,1.26527392578125,-1.080660854782164,-4.07134518379271,-5.303862779688835,0.437778502702713,-0.9347031116485596,0.1910053044557571
1783197016113211100,1.275211181640625,-1.07613665535599,-4.017178709319234,-4.897949736702442,0.5960916876792908,-0.943042814731598,0.0934624895453453
1783197016123148300,1.285148193359375,-1.0512830768674613,-4.004837114140391,-4.748120994284749,0.7642666101455688,-0.8965829014778137,-0.0334768146276474
1783197016133085200,1.295085205078125,-1.1041443139612674,-3.800165897683799,-4.598704339799284,0.901081681251526,-0.8354990482330322,-0.1528729796409607
1783197016143022300,1.305022216796875,-1.0531064929023384,-3.563539454039931,-4.265804510575532,0.980801522731781,-0.8068733215332031,-0.2410317957401275
1783197016152959200,1.314959228515625,-0.8705383871823549,-3.508225563097,-3.90739205443263,1.016059398651123,-0.8439199924468994,-0.2995675504207611
1783197016162896100,1.324896240234375,-0.7325503046840429,-3.560357901394367,-3.703427817201614,1.0421594381332395,-0.966867208480835,-0.3057918846607208
1783197016172833300,1.334833251953125,-0.6852440713688731,-3.677769352070987,-3.8749709632992735,1.1239240169525146,-1.16604483127594,-0.2730512320995331
1783197016182770200,1.344770263671875,-0.8022764596000314,-3.798921742841601,-4.525756592488289,1.277551293373108,-1.416197657585144,-0.2287473082542419
1783197016192707300,1.354707275390625,-1.195859013323486,-3.76356284469068,-5.4581999394416805,1.51359760761261,-1.6130462884902954,-0.2047333121299743
1783197016202644200,1.364644287109375,-1.6849670568689703,-3.806888483937085,-6.391528252536058,1.8009628057479858,-1.766926646232605,-0.2366959601640701
1783197016212581000,1.3745810546875,-2.337555059304833,-3.8696526908859608,-7.201210896739363,2.0812184810638428,-1.8915826082229612,-0.3544590771198272
1783197016222518300,1.384518310546875,-3.1695114946365357,-3.659923021996021,-7.808066198787093,2.324645519256592,-1.9803818464279173,-0.5342579483985901
1783197016232455200,1.394455078125,-4.006299003386498,-3.456766009494662,-8.32173176048398,2.4978299140930176,-1.9956363439559937,-0.7843540906906128
1783197016242393300,1.404393310546875,-4.920874685215949,-3.1120164602622387,-8.55972627761066,2.6609203815460205,-1.9094146490097048,-1.0973645448684692
1783197016252330200,1.414330322265625,-5.600075677028298,-2.7311402433767915,-8.770910529223084,2.8639566898345947,-1.7050615549087524,-1.449460506439209
1783197016262267100,1.42426708984375,-6.019070904427767,-2.335656239946186,-8.997942922830582,3.0887668132781982,-1.354374885559082,-1.7960166931152344
1783197016272204300,1.434204345703125,-6.286372764581442,-1.6528402725070714,-8.941985473287104,3.277855157852173,-0.9116191864013672,-2.104910373687744
1783197016282141200,1.44414111328125,-6.3545128193497655,-0.855940829770267,-8.405334172800183,3.414809465408325,-0.460450679063797,-2.3932058811187744
1783197016292078300,1.454078369140625,-6.2032923303127285,0.0712041185140609,-7.431082897686958,3.490419387817383,-0.0950764492154121,-2.6413588523864746
1783197016302015200,1.46401513671875,-5.83538022441864,0.9995756859838962,-6.288611483418941,3.5151169300079346,0.1391864418983459,-2.839287281036377
1783197016311952100,1.4739521484375,-5.300656092602014,1.9012848719775677,-5.140334013220667,3.510230779647827,0.2592081725597381,-2.9979088306427
1783197016321889300,1.48388916015625,-4.759013267438114,2.79385330466032,-4.163703734016418,3.503533840179444,0.3002090454101562,-3.122025966644287
1783197016331826200,1.493826171875,-4.325177321520448,3.684441961702704,-3.4087580576509238,3.50087308883667,0.314871609210968,-3.236055850982666
1783197016341763300,1.503763427734375,-3.9591532213300464,4.493527224534749,-2.7660657185465096,3.46138334274292,0.2998426258563995,-3.3721249103546143
1783197016351700200,1.5137001953125,-3.652836863127351,5.219492305609584,-2.13386496284008,3.407618522644043,0.3111552000045776,-3.531003952026367
1783197016361637000,1.52363720703125,-3.3686902511566874,5.882072417488694,-1.3937912769138812,3.338407516479492,0.3881589770317077,-3.6905577182769775
1783197016371574300,1.53357421875,-2.970467470411956,6.558250262087583,-0.675689768821001,3.247525930404663,0.493522971868515,-3.8165650367736816
1783197016381511200,1.54351123046875,-2.475273384951055,7.148651857462525,-0.0007101940959692,3.150175809860229,0.6194964051246643,-3.8958706855773926
1783197016391448300,1.5534482421875,-1.936180244269967,7.688614474454521,0.6126660341531038,3.0196032524108887,0.751457929611206,-3.8966174125671382
1783197016401386200,1.56338623046875,-1.3740072567746042,8.222882679197191,1.1792781731396913,2.8541622161865234,0.8755050301551819,-3.8399951457977295
1783197016411323400,1.573323486328125,-0.808146228416264,8.619688286620377,1.8112950967118144,2.6682403087615967,0.9665981531143188,-3.7927770614624015
1783197016421260000,1.583260009765625,-0.456213051290065,8.973257394385337,2.491206282620132,2.4482524394989014,1.0274808406829834,-3.7495930194854736
1783197016431197200,1.593197265625,-0.1349365859732031,9.332516822746395,3.112980044597387,2.199648380279541,1.0798293352127075,-3.672907829284668
1783197016441134300,1.60313427734375,0.319621647314541,9.525729948860404,3.681418522228301,1.9364632368087769,1.04559326171875,-3.698930978775024
1783197016451071200,1.6130712890625,0.2371080896809697,9.743801037377118,3.959289122669399,1.7253423929214478,1.0057452917099,-3.786614179611206
1783197016461008400,1.62300830078125,-0.2070603035502135,9.959829806411266,4.139195315703749,1.5692651271820068,1.0484658479690552,-3.756016969680786
1783197016470945000,1.632945068359375,0.5408450258497148,9.915742827403545,4.081844073714316,1.40405535697937,1.1672018766403198,-3.535496473312378
1783197016480882200,1.642882080078125,1.802387275373936,9.641991352719067,4.438408271642029,1.2273228168487549,1.215726017951965,-3.213507413864136
1783197016490819300,1.6528193359375,2.5129507891774177,9.167039844819902,4.671219248650968,1.0612643957138062,1.134150505065918,-2.878912925720215
1783197016500756200,1.662756103515625,2.978139612475037,9.02319602203071,4.74564700538665,0.8895485401153564,0.956162929534912,-2.547146797180176
1783197016510693400,1.672693359375,3.26210999109596,9.075757399395108,4.816678397682309,0.7139647006988525,0.7767263650894165,-2.192004919052124
1783197016520630000,1.682630126953125,3.5780148463770747,9.107127520170808,4.966837979489565,0.525742769241333,0.6332976818084717,-1.8050860166549685
1783197016530567200,1.692567138671875,3.902203838139772,9.041877341625094,5.165060458198189,0.3311440050601959,0.5234590768814087,-1.410589337348938
1783197016540505000,1.702505126953125,4.1514460177287456,8.957216360166669,5.345850156068802,0.1468500941991806,0.4266372621059418,-1.0117758512496948
1783197016550442200,1.712442138671875,4.272200933614373,8.814459163570403,5.534035809409618,-0.0459771454334259,0.3471373617649078,-0.6294808387756348
1783197016560379400,1.72237939453125,4.243769204378128,8.753083780631423,5.735916810625791,-0.2365875095129013,0.2649684250354767,-0.2547272741794586
1783197016570316300,1.73231640625,4.224492841500044,8.666120951971411,5.867216793662309,-0.4539725482463836,0.1645907014608383,0.1255643963813781
1783197016580253200,1.742253173828125,4.231553865927458,8.51179489813447,6.090211310055851,-0.7077937722206116,0.0567744188010692,0.5001697540283203
1783197016590190000,1.752190185546875,4.188260667645931,8.42494079054594,6.361880717769265,-0.9988625645637512,-0.0209328904747962,0.8642292022705078
1783197016600127200,1.762127197265625,4.097645161697268,8.403748364913463,6.6385834434747695,-1.332735538482666,-0.0720516666769981,1.2022221088409424
1783197016610064400,1.772064453125,3.914529066705704,8.44719003175497,6.849478941273689,-1.7055858373641968,-0.1080674603581428,1.5147621631622314
1783197016620001300,1.782001220703125,3.625260581676662,8.583238086101412,6.979951241314411,-2.155192613601685,-0.1249853149056434,1.7753117084503174
1783197016629938200,1.791938232421875,3.2377538407355546,8.731088806444406,7.1016557130098334,-2.6603333950042725,-0.1291981637477874,1.9994882345199585
1783197016639875000,1.801875,2.825790119408071,8.9178248454988,7.238010641348361,-3.1622228622436523,-0.1329246610403061,2.17251205444336
1783197016649812200,1.811812255859375,2.266913250848651,9.135332454913854,7.208257308119535,-3.621431827545166,-0.1901852786540985,2.323174476623535
1783197016659749400,1.821749267578125,1.7665253961369394,9.321425519889592,6.902786168569326,-4.072819232940674,-0.3524228930473327,2.5149407386779785
1783197016669686000,1.83168603515625,1.3932596542552114,9.298013080120086,6.551540535315871,-4.597354412078857,-0.583434522151947,2.7720906734466557
1783197016679624200,1.841624267578125,1.1377753654062748,9.14628639512658,6.31630905316174,-5.1725664138793945,-0.760689377784729,3.0805773735046387
1783197016689561000,1.85156103515625,0.950878875093162,8.910877218317985,6.193844118487835,-5.723824977874756,-0.9107697010040284,3.4300429821014404
1783197016699498200,1.861498291015625,0.7495199980549514,8.587558871909975,5.663050896379351,-6.036931991577148,-0.9252142906188964,3.796071767807007
1783197016709435100,1.87143505859375,0.2434032443024218,8.203980994850397,3.842156488934159,-6.197591304779053,-1.228886961936951,4.2157721519470215
1783197016719372300,1.881372314453125,-0.442496806757152,7.753671176254749,1.0942109489679337,-6.047307014465332,-1.3501957654953003,4.404135704040527
1783197016729309200,1.89130908203125,-2.2611576099313795,8.074348068243264,-0.5592863261431456,-5.669478416442871,-1.363525152206421,4.336572647094727
1783197016739246000,1.90124609375,-4.414883311408758,7.867897274893521,-2.8236551532059906,-5.187661647796631,-1.4437744617462158,3.966186285018921
1783197016749183200,1.911183349609375,-6.4901148834943765,6.757243140646815,-4.5239667864620685,-4.640779495239258,-1.6809518337249756,3.30420184135437
1783197016759120100,1.9211201171875,-8.066511967790126,5.593460642802715,-6.211857329562306,-4.0148210525512695,-1.9810091257095337,2.530275344848633
1783197016769057300,1.931057373046875,-8.874975883853436,4.371750272125006,-7.595325365382433,-3.394846200942993,-2.205472946166992,1.9476317167282104
1783197016778994200,1.940994140625,-8.269222405567765,2.810674091079831,-8.425559799227118,-2.95540189743042,-2.397836208343506,1.6457265615463257
1783197016788931000,1.95093115234375,-6.765327078381181,1.476081145326793,-8.685189809578656,-2.775668144226074,-2.465421438217163,1.5812116861343384
1783197016798869200,1.960869140625,-5.506089817863702,0.7857780370026827,-8.469049981385469,-2.8104262351989746,-2.216179132461548,1.6665319204330444
1783197016808806100,1.97080615234375,-4.688161031101644,0.1183279809996485,-7.963036980268359,-2.9243762493133545,-1.6887303590774536,1.76445209980011
1783197016818743300,1.980743408203125,-4.377944158329069,-0.560609683701396,-7.5761477867037055,-3.0112833976745605,-1.08356773853302,1.836603045463562
1783197016828680200,1.99068017578125,-4.317608639831841,-1.3388465115442871,-7.541381593748927,-3.031836032867432,-0.6084828972816467,1.8773176670074463
1783197016838617000,2.0006171875,-4.336076901197433,-2.154669850459695,-7.789332272222637,-2.9692299365997314,-0.344023585319519,1.908377766609192
1783197016848554200,2.01055419921875,-4.424395236119628,-2.895642238791287,-8.21680715867579,-2.8148434162139893,-0.2584202587604522,1.901739358901977
1783197016858491100,2.0204912109375,-4.869973642279208,-3.583486555786431,-8.709947234216331,-2.577491521835327,-0.2841478288173675,1.7906254529953003
1783197016868428300,2.03042822265625,-5.511721101748943,-4.212305560100078,-9.18274653251767,-2.2629218101501465,-0.2738368511199951,1.581305742263794
1783197016878365200,2.040365234375,-5.892402672845125,-4.812378654661774,-9.40778278387189,-1.906588435173035,-0.2615723013877868,1.3347630500793457
1783197016888302000,2.050302001953125,-5.837212700542807,-5.433461219504475,-9.35464682148993,-1.5930064916610718,-0.3150501549243927,1.140184998512268
1783197016898239200,2.0602392578125,-5.402595541119575,-5.924701598903536,-9.05324278524816,-1.3050246238708496,-0.4093057215213775,1.0326803922653198
1783197016908176100,2.070176025390625,-4.84528606800735,-6.2259694415450095,-8.629968273094295,-0.9978662133216858,-0.5021759867668152,0.961858332157135
1783197016918114300,2.0801142578125,-4.543552361419796,-6.302491540211439,-8.413864685258268,-0.6241695880889893,-0.5073953866958618,0.8377830982208252
1783197016928051200,2.09005126953125,-4.68680786292702,-6.229111246702074,-8.481411450308562,-0.2081382721662521,-0.4424523115158081,0.6231986284255981
1783197016937988000,2.099988037109375,-5.138789121866226,-6.053936466103792,-8.615942085829376,0.189573585987091,-0.3588435053825378,0.3131149113178253
1783197016947925000,2.109925048828125,-5.526474434244633,-5.670688259389996,-8.398163842779397,0.5317476987838745,-0.2987442314624786,-0.021659618243575
1783197016957862100,2.119862060546875,-5.504301180881262,-5.353887916573882,-7.821807723891735,0.7908443808555603,-0.2896779477596283,-0.3278711140155792
1783197016967799000,2.129799072265625,-5.004363115763664,-5.1027258748382325,-7.131176406526565,0.9906020164489746,-0.2976253628730774,-0.5977576971054077
1783197016977736000,2.13973583984375,-4.423698778288066,-4.64173917940557,-6.509381309500336,1.1249980926513672,-0.3567966222763061,-0.8083516359329224
1783197016987673000,2.149673095703125,-3.795378371146321,-4.227437955041229,-6.130994571343064,1.1935566663742063,-0.4739450812339782,-0.9635313749313354
1783197016997610000,2.15960986328125,-3.316463804835081,-3.847351134967804,-6.051416007715464,1.2576462030410769,-0.5386102795600891,-1.0971933603286743
1783197017007547100,2.169547119140625,-3.1460385568514466,-3.5007580036953088,-6.280068696001171,1.3454607725143433,-0.5182413458824158,-1.2138826847076416
1783197017017484000,2.179484130859375,-3.192440242542326,-3.2230145367652177,-6.820168675637245,1.451737880706787,-0.3761100172996521,-1.3102195262908936
1783197017027422000,2.189421875,-3.4876129831790923,-2.7653759827166797,-7.483672916623949,1.5107927322387695,-0.1329777985811233,-1.3808050155639648
1783197017037359000,2.199359130859375,-3.897738090902567,-2.318024575535208,-8.125508931159972,1.5473850965499878,0.1538957506418228,-1.4475106000900269
1783197017047296000,2.2092958984375,-4.211402473780512,-2.1091025697663426,-8.717525560516119,1.612080693244934,0.4962238073348999,-1.5526505708694458
1783197017057233200,2.219233154296875,-4.701210774549842,-1.7490651427701114,-9.328363794720172,1.7261898517608645,0.8396401405334473,-1.6790311336517334
1783197017067170000,2.229170166015625,-5.250376688694954,-1.1930243744194506,-9.927543155312538,1.848896861076355,1.1349607706069946,-1.8245528936386108
1783197017077107000,2.23910693359375,-5.757303297525644,-0.4163596181988716,-10.4888291308403,2.0096681118011475,1.446624517440796,-2.00195574760437
1783197017087044000,2.249044189453125,-6.158924780797958,0.5242205657199025,-10.835632982254028,2.273644208908081,1.7661545276641846,-2.1790530681610107
1783197017096981000,2.25898095703125,-6.121548113083839,1.245662031890452,-11.022027660524843,2.5990865230560303,2.0283679962158203,-2.2957773208618164
1783197017106918100,2.268918212890625,-5.777656349724531,1.97026663826704,-11.007477741646769,2.98705530166626,2.2497353553771973,-2.363486051559448
1783197017116855000,2.27885498046875,-5.364422170069814,2.944484011110663,-10.477893895328044,3.437499761581421,2.417349576950073,-2.3822591304779053
1783197017126793200,2.288793212890625,-4.956186821615695,3.7619638850614425,-9.55203635650575,3.8579530715942383,2.53079891204834,-2.3998942375183105
1783197017136729900,2.298729736328125,-4.732088143372535,4.689648931571841,-8.184723336672782,4.225291728973389,2.6098313331604004,-2.4112231731414795
1783197017146667000,2.3086669921875,-4.547427741548419,5.7709530526936055,-6.557935204789042,4.5414137840271,2.680307626724243,-2.420255184173584
1783197017156604200,2.318604248046875,-4.373658151572943,6.598123422792553,-4.885113636004925,4.771427154541016,2.748849391937256,-2.438835382461548
1783197017166541000,2.328541015625,-4.2387215655997394,7.373262576881051,-3.156916801479458,4.945558547973633,2.730919599533081,-2.462940216064453
1783197017176478200,2.338478271484375,-4.024284157410264,8.157225673416256,-1.5098931062966583,5.087619304656982,2.666967868804932,-2.508678436279297
1783197017186414800,2.348414794921875,-3.803102535657585,8.843402933982015,0.0629284575998783,5.125542163848877,2.590837001800537,-2.5739529132843018
1783197017196352000,2.35835205078125,-3.5317344489783045,9.224967717653511,1.7355775924265384,5.007369518280029,2.5567896366119385,-2.625596523284912
1783197017206289200,2.3682890625,-3.130679367417097,9.399429966068269,3.374426748982072,4.746221542358398,2.646395683288574,-2.620130777359009
1783197017216226000,2.37822607421875,-2.532822195339203,9.380869642505049,4.840449733892083,4.358216762542725,2.840449571609497,-2.546713352203369
1783197017226164200,2.388164306640625,-1.966132022680342,9.369839714446664,5.908128649765253,3.933985471725464,3.21070408821106,-2.4638097286224365
1783197017236100900,2.398100830078125,-1.7157358507506548,9.75029039939642,6.625598874217271,3.534400701522827,3.644646644592285,-2.222751379013061
1783197017246038000,2.4080380859375,-0.7764647036038339,9.020016222950815,7.089305934524536,3.0987355709075928,3.8381519317626953,-1.9282339811325075
1783197017255975000,2.417974853515625,-0.2266545002058148,8.44053174290955,7.216220834344625,2.6326005458831787,3.859863758087158,-1.651561975479126
1783197017265912000,2.427912109375,0.1122457384765148,8.587506849461793,7.586322559237479,2.1229944229125977,3.751174926757813,-1.3866342306137085
1783197017275849200,2.43784912109375,0.348670229807496,8.465291505634784,8.01861156797409,1.6314702033996582,3.528214693069458,-1.1628159284591677
1783197017285785900,2.447785888671875,0.5062029707312584,8.130963689434529,8.311032671815157,1.1955722570419312,3.1870317459106445,-0.9680637717247008
1783197017295723000,2.457722900390625,0.6514853018909692,7.921152479740977,8.356104570207,0.8396000862121582,2.7659032344818115,-0.770555853843689
1783197017305660000,2.467659912109375,0.7196008067399263,7.855249974766373,8.090110870042443,0.5902246236801147,2.3399198055267334,-0.5573519468307495
1783197017315597000,2.47759716796875,0.7896154232084751,7.755448122799396,7.807320933377742,0.4553895890712738,1.915943264961243,-0.3374029695987701
1783197017325534200,2.4875341796875,0.8752797364905476,7.581886622616648,7.489251009017229,0.3725035190582275,1.4938820600509644,-0.1279826164245605
1783197017335472000,2.49747216796875,0.8768801574245094,7.425505974337458,7.248618544602394,0.3162210583686828,1.1036970615386963,0.0684561729431152
1783197017345409000,2.507408935546875,0.8519640350937843,7.342272979855537,7.189535071992874,0.2779743373394012,0.767726480960846,0.2393227219581604
1783197017355346000,2.517345947265625,0.7535507148757576,7.127666352578998,7.202152561503648,0.2341724783182144,0.4891140758991241,0.3873285055160522
1783197017365283000,2.527282958984375,0.5832686747550964,6.940323579803109,7.204849545502662,0.1626572757959365,0.2547242343425751,0.5019832253456116
1783197017375220000,2.537219970703125,0.3573661619603633,6.9261354799747465,7.3919251917749635,0.0207453817129135,0.0386799201369285,0.5896869897842407
1783197017385157000,2.5471572265625,0.1128580251559615,6.998692182141542,7.7069310523897405,-0.1946273744106292,-0.1751364916563034,0.6678137183189392
1783197017395094000,2.557093994140625,0.0083124857932329,6.970489585486054,8.082651786208153,-0.4917740225791931,-0.395519495010376,0.7714794874191284
1783197017405031000,2.567031005859375,0.0759936908781528,6.788455440512299,8.420884208631515,-0.852677583694458,-0.6188780069351196,0.901075005531311
1783197017414968000,2.576968017578125,0.1605661172702908,6.62485711593926,8.576757491910458,-1.2815033197402954,-0.7670002579689026,1.0328210592269895
1783197017424905000,2.586905029296875,0.114375151720643,6.550096181726455,8.713243353152274,-1.8000857830047607,-0.8564577102661133,1.1302709579467771
1783197017434843100,2.596843017578125,-0.0691004242330789,6.642828825959563,8.811402114087343,-2.38711929321289,-0.8572773337364197,1.1604338884353638
1783197017444780000,2.606780029296875,-0.3275478006713092,6.730726305121183,8.891618975618481,-3.000985145568848,-0.8124198913574219,1.1435352563858032
1783197017454717000,2.616717041015625,-0.5626587251856923,6.7830825153023,8.808561337703466,-3.6082684993743896,-0.7453340888023376,1.11793315410614
1783197017464654000,2.626654052734375,-0.7413523275598883,6.846467484498024,8.505202075740694,-4.197947978973389,-0.7177945971488953,1.116369366645813
1783197017474591000,2.636591064453125,-0.8583576816536486,6.898484671983122,8.083091931191086,-4.754734992980957,-0.7486413717269897,1.1460983753204346
1783197017484528000,2.646528076171875,-0.8659370308667421,6.869846021997928,7.583754170054197,-5.274939060211182,-0.8697249293327332,1.2053276300430298
1783197017494465000,2.656465087890625,-0.8555310799255966,6.646969579026103,6.958164356920123,-5.775593280792236,-1.0572429895401,1.2597875595092771
1783197017504402000,2.66640185546875,-0.969861954113096,6.37587826346159,6.203274794656038,-6.2259039878845215,-1.221491813659668,1.2991573810577393
1783197017514339000,2.676339111328125,-1.1828374730564652,6.1876318198442455,5.462238985699415,-6.598669052124023,-1.3546900749206543,1.319720983505249
1783197017524276000,2.68627587890625,-1.5411407697364687,6.040100248453021,4.605142263892293,-6.779194355010986,-1.3260009288787842,1.2778602838516235
1783197017534214100,2.696214111328125,-2.0843080279886723,6.012106326112151,3.3575691376835106,-6.661841869354248,-1.3311132192611694,1.1695700883865356
1783197017544151000,2.706151123046875,-2.825343836945295,5.992257131782174,0.8928852435469626,-6.332391738891602,-1.179612159729004,0.9557584524154664
1783197017554088200,2.716088134765625,-3.534729539141059,6.084414606475829,0.108927407708764,-5.850338935852051,-1.0705327987670898,0.6714685559272766
1783197017564024800,2.72602490234375,-4.023867393302917,6.130895787143707,-1.640660589891672,-5.389052391052246,-0.9601802229881288,0.3083968460559845
1783197017573962000,2.7359619140625,-4.249893824738264,5.885664304500818,-2.6724276499062776,-5.056833744049072,-0.9046276807785034,-0.0562003701925277
1783197017583899100,2.745899169921875,-4.200527444022893,5.512422528016567,-2.999279431137442,-4.861951351165772,-0.8705040216445923,-0.3166069388389587
1783197017593836000,2.7558359375,-3.5505171831205486,4.879746848274767,-3.1096500233918425,-4.772805690765381,-0.910547375679016,-0.4919213056564331
1783197017603773200,2.765773193359375,-2.828889838989079,4.537594622059166,-3.203917622107267,-4.747354030609131,-1.0014463663101196,-0.5842565298080444
1783197017613709800,2.775709716796875,-2.146427653423697,4.438179139061272,-3.3214164588063952,-4.751202583312988,-1.1118452548980713,-0.5826719999313354
1783197017623647000,2.78564697265625,-1.460386586458236,4.203414105375111,-3.5658155822783706,-4.728933811187744,-1.2227851152420044,-0.4965679943561554
1783197017633585000,2.7955849609375,-0.8582242645323276,3.951545668935776,-3.9821331149011847,-4.712591648101807,-1.3607004880905151,-0.3561847805976867
1783197017643522000,2.80552197265625,-0.4868452862452715,3.8359263623729354,-4.55068937369287,-4.706886291503906,-1.4720429182052612,-0.178781509399414
1783197017653459200,2.815459228515625,-0.2810902931399643,3.7294928173065194,-5.247516038566827,-4.629118919372559,-1.4952987432479858,0.0112984022125601
1783197017663396000,2.82539599609375,-0.2009619866751134,3.393154538066685,-6.081292675063014,-4.487602710723877,-1.4772963523864746,0.1742580235004425
1783197017673333000,2.8353330078125,-0.388048702330701,3.103933107049763,-6.990445162799954,-4.283276557922363,-1.3985780477523804,0.3214620053768158
1783197017683270000,2.845269775390625,-0.5640376853886991,2.777547482025623,-7.83451756786108,-4.062205314636231,-1.2704187631607056,0.4306542873382568
1783197017693207000,2.85520703125,-0.8589744253125041,2.399974982860684,-8.54474731966555,-3.837314128875733,-1.094986081123352,0.5307885408401489
1783197017703144200,2.865144287109375,-1.0561005601517854,1.8309645505607128,-8.984522884765267,-3.635001182556152,-0.9067785739898682,0.6274471879005432
1783197017713081000,2.8750810546875,-1.233419805432856,1.060164302459359,-9.311867417949438,-3.5251567363739014,-0.7184326648712158,0.6900697946548462
1783197017723018000,2.88501806640625,-1.5044173052340746,0.6629144584000111,-9.488969951739907,-3.4491446018218994,-0.5291178822517395,0.74986732006073
1783197017732955000,2.894954833984375,-1.5292752676367758,0.225658182644844,-9.73430781736672,-3.3481900691986084,-0.3840339183807373,0.846487820148468
1783197017742893000,2.90489306640625,-1.4878969630658625,-0.4106254584610462,-10.226292293131351,-3.1551592350006104,-0.2971267104148865,0.9141387343406676
1783197017752830000,2.914829833984375,-1.6718302196592092,-0.8146236077368258,-10.91850883386135,-2.8411667346954346,-0.2218645960092544,0.9226736426353456
1783197017762767000,2.92476708984375,-2.0012591579020023,-1.0356541305810212,-11.687136414098738,-2.366511821746826,-0.105038896203041,0.8224232196807861
1783197017772704000,2.9347041015625,-2.468750997444987,-1.2303308995068072,-12.392312974166868,-1.725139021873474,0.0407323241233825,0.62949138879776
1783197017782641000,2.944640869140625,-2.843220854419469,-1.4871329929560422,-12.977622799360752,-0.9723499417304992,0.1755623072385788,0.3580047488212585
1783197017792578000,2.954578125,-3.0797020443737506,-1.6849945293977855,-13.159855681777,-0.1969369202852249,0.2410134822130203,0.0425708852708339
1783197017802515000,2.964514892578125,-3.0919910325825213,-1.6568541843235491,-12.876368410497903,0.5153681039810181,0.2285711914300918,-0.2321645468473434
1783197017812452000,2.9744521484375,-2.748359381464124,-1.5603914136514068,-12.080658762067555,1.125923752784729,0.1197998076677322,-0.4193672239780426
1783197017822389200,2.98438916015625,-2.1659262807503343,-1.3784621903568506,-10.83671084061861,1.5841389894485474,-0.0765862166881561,-0.5332839488983154
1783197017832326000,2.994325927734375,-1.4584507960900663,-1.170789161735773,-9.432503383630513,1.9181108474731443,-0.3106098175048828,-0.595895528793335
1783197017842264000,3.00426416015625,-0.838811927249655,-1.007836149328947,-8.112834743025898,2.149345636367798,-0.540876030921936,-0.6295714974403381
1783197017852201000,3.014200927734375,-0.4080770160872489,-0.8525012107104063,-6.993947033441066,2.296738624572754,-0.7417678833007812,-0.6470232009887695
1783197017862138000,3.02413818359375,-0.1400496912032365,-0.6300640359386801,-6.134347388902306,2.356757879257202,-0.9055946469306946,-0.6846233010292053
1783197017872075000,3.034074951171875,-0.078480393127352,-0.2343871402844786,-5.630853677129745,2.3762636184692383,-0.980692446231842,-0.7562359571456909
1783197017882012200,3.04401220703125,-0.2063470407143235,0.2878255927443504,-5.50767971740365,2.3720450401306152,-0.9421576261520386,-0.859770655632019
1783197017891949000,3.053948974609375,-0.421451242249459,0.7536419002905488,-5.711318375942111,2.328561544418335,-0.7437089681625366,-0.9785484075546264
1783197017901886000,3.063885986328125,-0.74577861956954,1.2868499284557997,-6.067808924111724,2.277149438858032,-0.3867154121398926,-1.0675944089889526
1783197017911823000,3.073822998046875,-0.8945246813170611,1.7540499454453586,-6.453363069680333,2.244656562805176,0.0952112302184104,-1.110387921333313
1783197017921760000,3.083760009765625,-0.9180847128637134,2.159448463038355,-6.9239452764540905,2.266566276550293,0.6551304459571838,-1.0802582502365112
1783197017931697200,3.093697265625,-0.7125427049219608,2.3903853167384863,-7.327019881144166,2.3739688396453857,1.2127070426940918,-0.94219309091568
1783197017941634800,3.103634765625,-0.2725651875093579,2.267970066425204,-7.619902172756195,2.56985092163086,1.6904935836791992,-0.7222556471824646
1783197017951572000,3.113572021484375,0.0486805904082953,2.246483772412688,-7.743045737344026,2.794563055038452,2.0410265922546387,-0.492666482925415
1783197017961508900,3.1235087890625,-0.0873518279775977,2.7449223927527666,-7.539311801737546,3.0200603008270264,2.237651824951172,-0.2595168352127075
1783197017971445800,3.13344580078125,-0.3659253890562802,3.2667379431575534,-7.062303945830464,3.2678465843200684,2.2911953926086426,-0.0585917010903358
1783197017981383000,3.1433828125,-0.6782846076197921,3.5138124233186243,-6.559850683021545,3.571415901184082,2.235200881958008,0.0852608084678649
1783197017991319800,3.15331982421875,-1.0090824230629951,3.737406659170985,-6.002886077824234,3.926633834838867,2.097799301147461,0.1650009453296661
1783197018001257000,3.163257080078125,-1.3271955289781092,3.974240900346637,-5.370111321622133,4.314507961273193,1.8938500881195068,0.1731901615858078
1783197018011194000,3.173194091796875,-1.6512690776675938,4.237133127364516,-4.576712872743606,4.702754974365234,1.6693803071975708,0.1179899126291275
1783197018021130800,3.183130859375,-1.9361276372998952,4.604931836012006,-3.572873684096336,5.066010475158691,1.4331063032150269,0.0312590114772319
1783197018031068000,3.19306787109375,-2.047118115018308,4.969180158701539,-2.406339257195592,5.349649906158447,1.1863795518875122,-0.0539532229304313
1783197018041004800,3.2030048828125,-1.9681822332084176,5.31806432352066,-1.1430302171945572,5.531991481781006,0.9411272406578064,-0.1197902932763099
1783197018050943000,3.21294287109375,-1.7655585969313978,5.640016642272472,0.1613461617320775,5.586859226226807,0.7363775372505188,-0.1868036836385727
1783197018060880000,3.2228798828125,-1.611225236570835,5.956474455261231,1.414803085282445,5.530493259429932,0.5641565322875977,-0.2437575161457061
1783197018070817000,3.232817138671875,-1.3800944677338003,6.233132172781229,2.5753128450661897,5.359776020050049,0.4615133702754974,-0.2918640971183777
1783197018080754000,3.24275390625,-1.0584842404179275,6.336103302434086,3.619091829913855,5.125169277191162,0.4667837619781494,-0.3289065361022949
1783197018090690800,3.25269091796875,-0.7689302895110101,6.327088221329451,4.476691240546107,4.861685752868652,0.5531617999076843,-0.3379967212677002
1783197018100628000,3.2626279296875,-0.4410835058931261,6.313068463805317,5.099886267498135,4.592142581939697,0.6981030106544495,-0.3123185038566589
1783197018110564900,3.27256494140625,-0.1176380990393459,6.318030470126867,5.531686031413078,4.3228044509887695,0.8811660408973694,-0.2479256242513656
1783197018120502000,3.282501953125,0.2012541745547205,6.299772928902507,5.835907463163137,4.030383110046387,1.0758734941482544,-0.1463992595672607
1783197018130439000,3.29243896484375,0.4536979266639798,6.231030232065915,6.0301715596348044,3.682604551315308,1.254391312599182,-0.0321277752518653
1783197018140375800,3.302375732421875,0.6140484284222125,6.196036660096049,6.23445377677381,3.2728424072265625,1.419438362121582,0.0793548077344894
1783197018150313000,3.31231298828125,0.6799561940938234,6.115512340050936,6.617475188994408,2.837744235992432,1.5626537799835205,0.1985051929950714
1783197018160251000,3.3222509765625,0.7916922294825315,5.918215159493684,6.97094551256001,2.4276351928710938,1.6471284627914429,0.2982903718948364
1783197018170188000,3.33218798828125,0.7546731430344283,5.74591622659266,7.05080406217277,2.093862533569336,1.6695085763931274,0.3906098008155823
1783197018180125000,3.342125,0.6571744534432887,5.709348537173867,6.843961054635048,1.818963646888733,1.6274421215057373,0.5363538861274719
1783197018190061800,3.352061767578125,1.0653155477426943,5.585742615771293,6.755808723929524,1.5645201206207275,1.5164715051651,0.6980822086334229
1783197018199999000,3.3619990234375,1.3128582299374043,5.533500971880555,6.8055942068398,1.320739984512329,1.359336495399475,0.8509659767150879
1783197018209936000,3.371935791015625,1.3974972918249666,5.502653998196124,6.942288742396235,1.0820437669754028,1.1697702407836914,0.9665884375572203
1783197018219873000,3.381873046875,1.2595825668238103,5.511748574277759,7.074810960704088,0.8349247574806213,0.9621211886405944,1.0232932567596436
1783197018229810000,3.391809814453125,1.0143206890426577,5.546995828747749,7.204954174920916,0.5772554874420166,0.7562548518180847,1.02398943901062
1783197018239746800,3.401746826171875,0.7113675236627459,5.512440063673258,7.348712072992324,0.2909126579761505,0.5559515953063965,0.985773265361786
1783197018249684000,3.41168408203125,0.4285216190271079,5.365664279085397,7.468560687687993,-0.0207977630198001,0.41253662109375,0.9331345558166504
1783197018259620900,3.421620849609375,0.2646503227315843,5.176629899960756,7.571136680543423,-0.3682957887649536,0.302997350692749,0.8795083165168762
1783197018269558800,3.431558837890625,0.1776537379324436,5.009491710823774,7.728744240269064,-0.7582775950431824,0.1978558897972107,0.8229622840881348
1783197018279496000,3.441495849609375,0.1079870581187307,4.897083475261926,7.853067370030283,-1.190902829170227,0.0963646993041038,0.773992121219635
1783197018289433000,3.45143310546875,0.1343586399547755,4.706501282173395,7.933892718848585,-1.6406469345092771,0.005670160986483,0.7474658489227295
1783197018299369700,3.46136962890625,0.1878720573469996,4.4484500654459,7.937991386339068,-2.078666925430298,-0.0680637136101722,0.7356827259063721
1783197018309307000,3.471306884765625,0.1130123389348387,4.296137689518928,7.85268217010498,-2.490251064300537,-0.1266117393970489,0.7312207818031311
1783197018319244000,3.481244140625,-0.1130150423485785,4.350709237661958,7.758608632656931,-2.855369806289673,-0.1992321461439132,0.721878707408905
1783197018329181000,3.491180908203125,-0.3785022542957216,4.462905876299739,7.638372479948401,-3.164919137954712,-0.2893416285514831,0.7357727289199829
1783197018339118000,3.5011181640625,-0.6191016201585531,4.480985722869634,7.451629426631331,-3.418788194656372,-0.4044554531574249,0.7669404745101929
1783197018349054700,3.5110546875,-0.797980589037016,4.469568841320276,7.196555764409899,-3.6171934604644775,-0.5820777416229248,0.8299350142478943
1783197018358992000,3.520991943359375,-1.036454633308947,4.475922009739279,6.967647640058398,-3.866010904312134,-0.8720227479934692,0.8836765289306641
1783197018368929000,3.530928955078125,-1.350743577826023,4.474404590913653,6.64139791637361,-4.187278747558594,-1.1897608041763306,0.8908208608627319
1783197018378867000,3.540866943359375,-1.6155917612172663,4.458261265364289,6.515476119244099,-4.539313316345215,-1.47334623336792,0.8549914956092834
1783197018388803800,3.550803955078125,-1.85734110083282,4.350343911480904,6.457510252487659,-4.893916606903076,-1.703469157218933,0.785981297492981
1783197018398741000,3.560740966796875,-2.120543708974123,4.302179307770729,6.135917414698004,-5.190914154052734,-1.8641537427902224,0.6937906742095947
1783197018408678000,3.570677978515625,-2.3453755237974225,4.341733027262985,5.593887928304076,-5.302225112915039,-1.86146080493927,0.577946662902832
1783197018418614800,3.58061474609375,-2.6323767945468424,4.364837131735682,4.516822175404429,-5.254278182983398,-1.8057408332824707,0.4922538697719574
1783197018428552000,3.590552001953125,-2.7769875100553034,4.249944970403611,3.4495588545948266,-5.018060684204102,-1.761699676513672,0.4109233617782593
1783197018438489000,3.600489013671875,-3.0570874769836665,4.203893121063709,2.4898972458481787,-4.730612754821777,-1.754880666732788,0.3275488615036011
1783197018448426000,3.610426025390625,-3.36567324142307,4.129893526612222,1.2727666041761636,-4.776376724243164,-2.005060911178589,0.1360956132411956
1783197018458363000,3.62036279296875,-3.878732946181297,4.542448199570178,0.8038380098283291,-5.077426910400391,-2.364537477493286,-0.0455506071448326
1783197018468299800,3.6302998046875,-3.722235978046059,4.58606814558804,0.2142740343213081,-5.36022424697876,-2.694767951965332,-0.0990285947918891
1783197018478237000,3.64023681640625,-3.273006063641608,3.846951321995258,-1.4045681069940328,-5.408073425292969,-2.91528868675232,-0.0983758494257927
1783197018488174800,3.6501748046875,-3.137462451685965,3.69625514909327,-4.310455553206801,-5.040744304656982,-2.898031949996948,-0.0628492534160614
1783197018498112000,3.660112060546875,-2.969290535587072,4.0651784778565165,-7.62914171026647,-4.33527421951294,-2.740837335586548,0.0814733058214187
1783197018508049000,3.670048828125,-2.820584951980412,4.002403164991736,-10.768260989248752,-3.5341131687164307,-2.500265121459961,0.2996543645858764
1783197018517985800,3.67998583984375,-2.569877668274939,3.7249604345738887,-12.962670729422568,-2.7492144107818604,-2.1949808597564697,0.5815430283546448
1783197018527923000,3.6899228515625,-2.11274414113909,2.9968714932128786,-14.03476337008476,-2.0954740047454834,-1.907070755958557,0.8470868468284607
1783197018537859800,3.69985986328125,-2.0391513739228246,2.1331733273141085,-14.43566589143276,-1.6111057996749878,-1.6104185581207275,0.9987388849258424
1783197018547797000,3.709796875,-2.478786069247126,1.4966539777562022,-14.138905297082662,-1.226834774017334,-1.28698468208313,1.0214327573776243
1783197018557734000,3.71973388671875,-3.14075389444679,0.6211088683277368,-13.523091612553596,-0.909245789051056,-0.9814004898071288,0.8981327414512634
1783197018567670800,3.7296708984375,-3.986639194148778,-0.1776973578784614,-12.85697748132944,-0.6699597835540771,-0.7253561615943909,0.6825394630432129
1783197018577608000,3.73960791015625,-4.556794120308757,-0.8076789031654595,-12.057211250984668,-0.4694607853889465,-0.5451198220252991,0.4441630840301513
1783197018587544800,3.749544921875,-4.6488504727154965,-1.7003649708785116,-11.305658724188804,-0.3063533008098602,-0.4274537861347198,0.2028763741254806
1783197018597482000,3.75948193359375,-4.536168973170221,-2.4143419463872906,-10.621556516331434,-0.1607391238212585,-0.3086946606636047,-0.0330107137560844
1783197018607420000,3.769419921875,-4.361889095585048,-2.741523690225184,-9.919939694571497,-0.0755190625786781,-0.1146550104022026,-0.2670647799968719
1783197018617357000,3.779357177734375,-4.044353716492653,-2.9823876253083346,-9.102983259972929,0.0026327297091484,0.1283624321222305,-0.4761300981044769
1783197018627294000,3.7892939453125,-3.7006805643200873,-3.2553733763173223,-8.368266717165708,0.1180156245827674,0.3791413903236389,-0.6756352782249451
1783197018637230800,3.79923095703125,-3.3980589689821,-3.1786876115217804,-7.813247400817275,0.3033173084259033,0.5848258137702942,-0.8407326340675354
1783197018647168000,3.80916796875,-3.010531477513909,-2.999318886364996,-7.300742115071415,0.5166333913803101,0.6843051910400391,-0.9716417789459229
1783197018657105000,3.81910498046875,-2.6430460725992915,-2.809045028573274,-6.8085869589149945,0.6829259395599365,0.6151018738746643,-1.0769940614700315
1783197018667042000,3.8290419921875,-2.3864573296397924,-2.5018302602261304,-6.30153935405314,0.7901057004928589,0.3943925499916076,-1.160805106163025
1783197018676979000,3.83897900390625,-2.0785440576344727,-2.272177747248113,-5.989844809943437,0.9167525768280028,0.132525235414505,-1.2093571424484253
1783197018686915800,3.848915771484375,-1.794444207414985,-2.140472982802987,-6.064952950158715,1.0653040409088137,-0.1063033416867256,-1.2507808208465576
1783197018696853000,3.85885302734375,-1.7595917974814772,-1.7339739566221832,-6.394070922756194,1.2594401836395264,-0.2380352765321731,-1.3001188039779663
1783197018706790000,3.868789794921875,-1.8085358611315487,-1.318229255451262,-6.749151019605994,1.5045206546783447,-0.2388503849506378,-1.3367561101913452
1783197018716728000,3.87872802734375,-1.874403587053716,-1.0783861147832126,-7.101235441771149,1.748335361480713,-0.1371455937623977,-1.3791184425354004
1783197018726665000,3.8886650390625,-2.126361455342173,-0.6333739642042666,-7.319626848283409,1.9612181186676023,0.0497701987624168,-1.4726483821868896
1783197018736601900,3.898601806640625,-2.4999858014032244,-0.1667076156999915,-7.428201789292693,2.165621519088745,0.2818846702575683,-1.5845259428024292
1783197018746538800,3.908538818359375,-2.748452320444584,0.1057105645541101,-7.517296953806281,2.3697428703308105,0.5421708226203918,-1.669731616973877
1783197018756476000,3.918475830078125,-2.68120658416748,0.4322014035183936,-7.506119726231693,2.5973219871521,0.79142165184021,-1.6907652616500854
1783197018766413000,3.9284130859375,-2.375286531805992,0.766838358733058,-7.409695826265215,2.823511838912964,0.986931562423706,-1.6671020984649658
1783197018776350000,3.938349853515625,-2.088308788062632,1.1539806502759455,-7.094401796358824,3.0181422233581543,1.1050808429718018,-1.6313910484313965
1783197018786286800,3.948286865234375,-1.943897686779499,1.5950634985819458,-6.543419188180565,3.1893270015716557,1.1391689777374268,-1.603067398071289
1783197018796224000,3.95822412109375,-1.9097905422553416,1.9219722706973552,-5.94021071820259,3.311891794204712,1.1038932800292969,-1.5884971618652344
1783197018806161000,3.968160888671875,-1.983196846988797,2.3965911856412885,-5.348217469722032,3.4439187049865723,1.03851580619812,-1.593936800956726
1783197018816098000,3.97809814453125,-1.9373979494966564,2.784260131406784,-4.897227852168679,3.593994379043579,0.927052915096283,-1.6271275281906128
1783197018826035000,3.988034912109375,-2.008286133929342,3.159083916385472,-4.611892322674393,3.7557101249694815,0.8273635506629944,-1.6969622373580933
1783197018835973000,3.99797314453125,-2.138826530770212,3.777488494190573,-4.232888329401612,3.933607339859009,0.7392741441726685,-1.7556023597717283
1783197018845909800,4.00790966796875,-2.0223973691292105,4.194288257372379,-3.8365848262816655,4.095923900604248,0.7042568922042847,-1.80038321018219
1783197018855847000,4.017846923828125,-1.8024333064727485,4.648383731986582,-3.406557917258143,4.216014385223389,0.7629708051681519,-1.8093549013137815
1783197018865783800,4.02778369140625,-1.522633345404267,5.20329228143692,-2.80213364174962,4.301791667938232,0.89690101146698,-1.7582969665527344
1783197018875721000,4.037720947265625,-1.2071332715317606,5.522751614329218,-2.096141673645377,4.348891735076904,1.08128559589386,-1.692363739013672
1783197018885657900,4.047657958984375,-1.0360209180667996,5.826404890802502,-1.3159376373827456,4.35391902923584,1.2610630989074707,-1.6131938695907593
1783197018895594800,4.0575947265625,-0.928945787161216,6.211336520558596,-0.47399113843441,4.320847034454346,1.3921828269958496,-1.5121623277664185
1783197018905532000,4.067531982421875,-0.7549286521654576,6.456089864295721,0.3113531833261251,4.276278018951416,1.4592361450195312,-1.4127395153045654
1783197018915469000,4.077468994140625,-0.6017600978005677,6.6696513664335,1.058905826830864,4.2373480796813965,1.456517219543457,-1.3279913663864136
1783197018925406000,4.087406005859375,-0.436584623571299,6.824294815656542,1.7300445082187652,4.182397842407227,1.3692339658737185,-1.2641072273254397
1783197018935342800,4.0973427734375,-0.3267123727604746,6.939699894946814,2.436521629491448,4.083031177520752,1.2215008735656738,-1.2133947610855105
1783197018945279200,4.107279296875,-0.1882473204001784,7.0553206628143785,3.212735719335079,3.928105115890503,1.0435295104980469,-1.1735789775848389
1783197018955216400,4.11721630859375,0.0635853140734136,7.071659803196788,4.020499378174543,3.721778154373169,0.8445859551429749,-1.11822509765625
1783197018965154300,4.127154296875,0.374629431450367,6.972714860320091,4.678412667286396,3.4571280479431152,0.6486262679100037,-1.0517369508743286
1783197018975091200,4.13709130859375,0.7023347607709467,6.898142726677656,5.198019893991947,3.1433708667755127,0.410403311252594,-1.0633786916732788
1783197018985028400,4.1470283203125,0.5886041905641556,7.122613745364546,5.611470931267738,2.9131760597229004,0.4255057573318481,-0.953697144985199
1783197018994965200,4.15696533203125,1.2025241703011096,6.875123670139908,5.965469078099727,2.6365807056427,0.3472961485385895,-0.7500039339065552
1783197019004902400,4.16690234375,1.904986064583063,5.981295008262991,5.910566106045246,2.365739107131958,0.3020348846912384,-0.596428394317627
1783197019014839300,4.17683935546875,1.912166623736918,6.139467216134071,6.0107046426206825,2.0942277908325195,0.2818611562252044,-0.4637893736362457
1783197019024776200,4.186776123046875,1.9846772948049007,6.479494705280661,6.295306597143411,1.8331373929977417,0.2951401174068451,-0.3248950242996216
1783197019034713300,4.19671337890625,2.1311785002350807,6.422745813098549,6.397437768840789,1.564368724822998,0.3144155442714691,-0.1818422824144363
1783197019044650200,4.206650146484375,2.287925497608632,6.295140008404851,6.534386571419239,1.288058519363403,0.3368601500988006,-0.0731829404830932
1783197019054587400,4.21658740234375,2.297020219820738,6.400890539643168,6.74138097012639,1.0010323524475098,0.3568911254405975,-0.0076409499160945
1783197019064524300,4.226524169921875,2.239811893433332,6.57962915020287,6.952008756899834,0.6917494535446167,0.3835975527763366,0.048663180321455
1783197019074461200,4.236461181640625,2.2588396883778272,6.677190529766678,7.18064566309452,0.3415398001670837,0.4115106761455536,0.1242309138178825
1783197019084399000,4.246399169921875,2.375520925083756,6.730298435097932,7.555536375829577,-0.0428028106689453,0.4045536816120147,0.2327324301004409
1783197019094336300,4.256336181640625,2.563867614205181,6.689408790826797,7.885726361572742,-0.4579336941242218,0.3538497388362884,0.3694005310535431
1783197019104273400,4.2662734375,2.730669118733704,6.611341800805926,8.147118705421686,-0.8794786334037781,0.2796643376350403,0.5424421429634094
1783197019114210300,4.276210205078125,2.896897499549389,6.537264757204055,8.347949905323981,-1.3166189193725586,0.1596079915761947,0.7379317283630371
1783197019124147500,4.2861474609375,2.9426038964524865,6.487818881511688,8.493533849778771,-1.7814265489578247,-0.004816529341042,0.9332306385040284
1783197019134084400,4.29608447265625,2.8237057143494484,6.450100853013992,8.559542153215407,-2.2813596725463867,-0.1852984130382537,1.0953433513641355
1783197019144021200,4.306021240234375,2.5496482424557207,6.432990728259086,8.518475398811697,-2.78619384765625,-0.3452097773551941,1.221779227256775
1783197019153958400,4.31595849609375,2.209348073847592,6.42558015974164,8.326073589080572,-3.296631097793579,-0.4798797070980072,1.3175110816955566
1783197019163895300,4.325895263671875,1.8168175133951008,6.404581795376539,7.974030667969584,-3.831019639968872,-0.6137154698371887,1.380443453788757
1783197019173832400,4.33583251953125,1.3913935681223868,6.371731080654263,7.520969504839181,-4.367403507232666,-0.7032991647720337,1.4232617616653442
1783197019183769300,4.345769287109375,1.0208867695599797,6.232078864336013,6.998117012602091,-4.860095500946045,-0.7423233985900879,1.4788280725479126
1783197019193706200,4.355706298828125,0.6951061246916651,5.993876841938495,6.343472954419255,-5.230002880096436,-0.6790158152580261,1.537017583847046
1783197019203643400,4.365643310546875,0.2406489771582186,5.835980528399348,5.17585774654448,-5.496277332305908,-0.6465399265289307,1.62113618850708
1783197019213581300,4.375581298828125,-0.1258164370588958,5.642045517751575,3.6471547258377073,-5.602567195892334,-0.5153515934944153,1.6479032039642334
1783197019223518500,4.3855185546875,-0.6282033566333353,5.448423226314783,2.7605542616486547,-5.571720600128174,-0.3921565115451813,1.6263766288757324
1783197019233455400,4.395455322265625,-1.2695868050962686,5.267216179814935,1.1854402029007671,-5.427892684936523,-0.2093214690685272,1.5213875770568848
1783197019243392300,4.405392333984375,-1.8672911247000097,5.131747971183061,0.0157546184927225,-5.163502216339111,-0.0318126007914543,1.3558590412139893
1783197019253329200,4.4153291015625,-2.2734230711340904,4.8162090266048905,-0.9687339729964732,-4.861970901489258,0.0875619947910308,1.177679419517517
1783197019263266300,4.425266357421875,-2.52076058614552,4.316447779358923,-1.8288105873972176,-4.609684944152832,0.1060409545898437,1.0188030004501345
1783197019273203500,4.435203369140625,-2.470828388240933,4.007171402306854,-2.190302304854989,-4.403194427490234,-0.0081151789054274,0.9438741207122804
1783197019283140400,4.445140380859375,-2.0870036968134342,3.5111537255033847,-2.4223458046227693,-4.267608165740967,-0.2494654059410095,0.9458813071250916
1783197019293077200,4.4550771484375,-1.6893578391738235,2.9228958641588685,-2.7080665340423584,-4.190147876739502,-0.5509583950042725,0.987021803855896
1783197019303014400,4.465014404296875,-1.4549008485235273,2.611037653920054,-2.985919598826766,-4.108641147613525,-0.8244116306304932,1.0402361154556274
1783197019312951300,4.474951416015625,-1.4655106514737009,2.296017180258036,-3.467500753998756,-3.9860899448394775,-0.9909284710884094,1.0461243391036987
1783197019322888400,4.484888427734375,-1.7003759306639432,2.0456237848073244,-4.11051048848927,-3.8273167610168457,-1.0642552375793457,0.9893174767494202
1783197019332825300,4.494825439453125,-1.9781153059408068,1.926767542149872,-4.703005841273069,-3.624445199966431,-1.0608391761779783,0.9110072255134584
1783197019342763500,4.504763427734375,-2.0960406974889336,1.6781459786772728,-5.299328643390536,-3.3998241424560547,-1.044132947921753,0.8857309818267822
1783197019352700200,4.5147001953125,-2.1165081698477266,1.350586779829115,-5.874184879109263,-3.209755182266236,-1.0459409952163696,0.9185619354248048
1783197019362637300,4.52463720703125,-2.170451503089815,1.0490138898264616,-6.443333843097091,-3.03490948677063,-1.0708093643188477,0.9739362597465516
1783197019372574200,4.53457421875,-2.230754142230749,0.6366719097711145,-6.90274116038382,-2.890176296234131,-1.0992250442504885,1.0443445444107056
1783197019382511400,4.544511474609375,-2.4376439115196464,0.029207682044804,-7.417806652006506,-2.7274904251098637,-1.0248092412948608,1.0657601356506348
1783197019392448500,4.554448486328125,-2.8655171496406195,-0.489288441613689,-7.959281427127123,-2.472536087036133,-0.7701365351676941,1.0004290342330933
1783197019402385200,4.56438525390625,-3.3752196529254315,-0.9937902344502508,-8.510982997229695,-2.1506271362304688,-0.4238076210021972,0.8550094366073608
1783197019412322300,4.574322265625,-3.879969502238929,-1.366383630028367,-8.86413183375597,-1.851602554321289,-0.0954678207635879,0.6680939197540283
1783197019422259500,4.584259521484375,-4.020317007344961,-1.6529272201381622,-8.79805221864879,-1.59722101688385,0.1530171632766723,0.4955536425113678
1783197019432196400,4.5941962890625,-3.7415573491096494,-2.03993492551595,-8.383767653158307,-1.3476521968841553,0.3062586486339569,0.3731355965137481
1783197019442133500,4.604133544921875,-3.263356776286661,-2.341469164008647,-7.860392013829946,-1.098700761795044,0.3204347193241119,0.3138095438480377
1783197019452070100,4.614070068359375,-2.741117447511852,-2.485244451606273,-7.316225515407323,-0.8615593314170837,0.2170718312263488,0.315214604139328
1783197019462007300,4.62400732421875,-2.2357751852631567,-2.706703721256554,-6.767295748105645,-0.613257646560669,0.0413744375109672,0.3164546489715576
1783197019471944400,4.6339443359375,-1.940776339888573,-2.991283463947475,-6.222806593599915,-0.3717539310455322,-0.1594366878271103,0.2926409244537353
1783197019481881300,4.64388134765625,-1.9318334472373129,-3.069228873415291,-5.693444865599274,-0.1434943974018097,-0.3549253046512604,0.2207591235637664
1783197019491819300,4.6538193359375,-2.0376637657135723,-2.9615684169024226,-5.140157487609982,0.0428283363580703,-0.530417799949646,0.1070141792297363
1783197019501756400,4.66375634765625,-2.075792713099718,-2.822433502456545,-4.595031204244494,0.2012837082147598,-0.6414868235588074,-0.0327383279800415
1783197019511693300,4.673693359375,-2.0013892140224576,-2.692155555944145,-4.031487805178761,0.3366202414035797,-0.7177693843841553,-0.1785245537757873
1783197019521630200,4.683630126953125,-1.83978177100569,-2.5149650516092774,-3.455044592529535,0.3963213264942169,-0.7741596698760986,-0.3245582282543182
1783197019531567400,4.6935673828125,-1.6109800296381116,-2.3284213202565907,-2.889488684597611,0.3921617269515991,-0.7823827266693115,-0.4734704792499542
1783197019541504300,4.703504150390625,-1.359025960741937,-2.178477719287574,-2.457478492802381,0.3628676831722259,-0.7146990895271301,-0.6122695207595825
1783197019551441400,4.71344140625,-1.0942629714161156,-2.0011933991894124,-2.1694635149657726,0.3118915855884552,-0.6221044659614563,-0.7191999554634094
1783197019561378300,4.72337841796875,-0.8823930756270885,-1.6710162729278206,-1.9649568414211271,0.19133360683918,-0.5420491695404053,-0.7821794152259827
1783197019571315200,4.733315185546875,-0.7201622400149703,-1.2177826758399606,-1.8052800742059945,-0.0155407460406422,-0.5285964608192444,-0.7997144460678101
1783197019581252400,4.74325244140625,-0.6688508627116679,-0.7757355125464499,-1.8277707229554647,-0.2882603406906128,-0.5681352019309998,-0.7651039361953735
1783197019591189500,4.753189453125,-0.777226189495623,-0.3252750334337353,-2.2142162644058465,-0.4821150302886963,-0.5983501076698303,-0.7123331427574158
1783197019601126400,4.76312646484375,-0.9802604524001478,-0.2130071561906486,-3.3637469495356083,-0.4973873496055603,-0.5793347954750061,-0.6824695467948914
1783197019611063300,4.773063232421875,-1.479180864907801,-0.1101285271268337,-5.223591557621956,-0.2575345635414123,-0.3659881949424743,-0.6774079203605652
1783197019621001200,4.783001220703125,-2.0908792230725286,0.1556960270158946,-7.067984914076328,0.2235996127128601,-0.0219151899218559,-0.6834499835968018
1783197019630938400,4.7929384765625,-2.6632784210279583,0.2560636231068521,-8.653613352575897,0.7872959971427917,0.3125503957271576,-0.6867302060127258
1783197019640875300,4.802875244140625,-3.1708973960369824,0.4444431185193359,-9.598626842767,1.3125951290130615,0.5632621645927429,-0.7024542689323425
1783197019650812400,4.8128125,-3.4964211435347794,0.5751000544119625,-9.782058579578996,1.7773388624191284,0.7106883525848389,-0.7547163963317871
1783197019660749300,4.822749267578125,-3.667072016967833,0.4813969577115028,-9.52145066410601,2.202443599700928,0.8032646179199219,-0.8679423332214355
1783197019670686200,4.832686279296875,-3.946694137251377,0.6197668060690165,-9.001438948252797,2.580012559890747,0.852193295955658,-1.0268254280090332
1783197019680623400,4.842623291015625,-4.280540307414531,1.0956155550688504,-8.31732855708897,2.901362895965576,0.8357298970222473,-1.2056132555007937
1783197019690560300,4.852560302734375,-4.393719235087931,1.5230695448644458,-7.5190207088589665,3.1499123573303223,0.7300013303756714,-1.384490132331848
1783197019700497400,4.862497314453125,-4.351961575810611,1.8674543524377047,-6.790520556348562,3.37510085105896,0.5939030051231384,-1.5534058809280396
1783197019710434600,4.8724345703125,-4.13360816322118,2.136186683785916,-6.157963826811313,3.603606939315796,0.4573829472064972,-1.7098615169525146
1783197019720371200,4.88237109375,-3.8517324187919497,2.3656118177488445,-5.720585970503091,3.8139395713806152,0.3275550901889801,-1.870501518249512
1783197019730308400,4.892308349609375,-3.660445000043511,2.754833545914292,-5.37071337916851,4.026465892791748,0.2278798967599868,-2.029364109039306
1783197019740245200,4.902245361328125,-3.381412954607606,3.217596311108768,-5.010105458807945,4.276993751525879,0.1387106329202652,-2.1580898761749268
1783197019750182400,4.912182373046875,-2.9954622109368443,3.573675940389931,-4.751016131204366,4.524385452270508,0.067131258547306,-2.257148504257202
1783197019760120300,4.922120361328125,-2.646172680187225,4.156475244067609,-4.315359691861271,4.767529487609863,-0.0097228717058897,-2.3199381828308105
1783197019770057500,4.932057373046875,-2.2223177377969026,4.68498853854537,-3.783407947367429,4.994621276855469,-0.0950958281755447,-2.372776508331299
1783197019779994400,4.941994384765625,-1.856400605112314,5.072692555624246,-3.251766583997011,5.173123836517334,-0.1578417420387268,-2.4349982738494877
1783197019789931300,4.95193115234375,-1.5573630057409404,5.640861860924959,-2.5501298884928225,5.30143404006958,-0.1811428070068359,-2.4981625080108643
1783197019799868400,4.961868408203125,-1.222626170348376,6.172258309623599,-1.6950176185011865,5.372603893280029,-0.1471937596797943,-2.5398435592651367
1783197019809805300,4.971805419921875,-0.817486011430621,6.593599223366379,-0.7548708575636148,5.36946964263916,-0.0714888796210289,-2.544462919235229
1783197019819742500,4.981742431640625,-0.3654733344398438,6.968783950611948,0.2357727494239807,5.280059337615967,0.0213142354041337,-2.5046541690826416
1783197019829679400,4.991679443359375,0.0967535703122615,7.358743637663125,1.210750585246086,5.100008487701416,0.1230797469615936,-2.4326796531677246
1783197019839616300,5.0016162109375,0.5530497698411345,7.616131422045826,2.171199544978142,4.873000144958496,0.2136600911617279,-2.3283534049987797
1783197019849553400,5.011553466796875,1.0473100085180251,7.716554036259651,2.9896693067491054,4.609451770782471,0.276750385761261,-2.2084503173828125
1783197019859490300,5.021490234375,1.5376333461374043,7.711545268186926,3.708186994427442,4.322632312774658,0.3262308537960052,-2.0960404872894287
1783197019869427200,5.03142724609375,1.861928720884025,7.754893996047973,4.342392660215497,3.9967024326324463,0.3666946589946747,-1.9843114614486692
1783197019879364400,5.0413642578125,2.2261188836455346,7.80628106893599,5.013020469471812,3.617267370223999,0.4015660285949707,-1.8731645345687864
1783197019889302300,5.05130224609375,2.548280753494799,7.766170007821917,5.598976191353797,3.174631834030152,0.3642149269580841,-1.840733885765076
1783197019899239400,5.061239501953125,2.4550746465310453,7.94721981793344,6.094713882172107,2.7948591709136963,0.5216343998908997,-1.6689852476119995
1783197019909176300,5.07117626953125,3.246626883020997,7.57388159533739,6.720740333157777,2.35823130607605,0.4872340559959411,-1.4235901832580566
1783197019919113500,5.081113525390625,3.77523866943717,6.964484207591414,6.67487406951785,1.959397792816162,0.4685322046279907,-1.1875388622283936
1783197019929050000,5.091050048828125,3.8970612145543098,7.193615619304776,6.934016004091501,1.5552783012390137,0.4020378887653351,-0.960819661617279
1783197019938987300,5.1009873046875,4.0419709130093455,7.350265732175111,7.174088496536016,1.1725566387176514,0.3351647555828094,-0.7209292650222778
1783197019948924400,5.11092431640625,4.185001665849984,7.181910568463802,7.285973585006594,0.8237624168395996,0.26638063788414,-0.4791978597640991
1783197019958861000,5.120861083984375,4.3629874122157695,7.027915354016423,7.382255446153879,0.5116826295852661,0.2174732834100723,-0.2466615289449691
1783197019968798200,5.130798095703125,4.435893073950708,7.070352812251448,7.474265621331334,0.2213740944862365,0.1651754528284073,-0.0398500189185142
1783197019978735000,5.140735107421875,4.427387403672934,7.244653732624649,7.640764928042888,-0.0894837751984596,0.1045910418033599,0.1646897196769714
1783197019988672300,5.15067236328125,4.414297035953402,7.330287943029403,7.852239102512597,-0.4425638020038605,0.0322316288948059,0.3853395283222198
1783197019998609400,5.160609375,4.436574918735027,7.310258715957403,8.076237242990732,-0.8763999938964844,-0.0435887686908245,0.6170192956924438
1783197020008546000,5.170546142578125,4.445361451780796,7.291305593684315,8.332693884003161,-1.3839905261993408,-0.1180347725749015,0.864331066608429
1783197020018483200,5.180483154296875,4.476154064929485,7.2555948133558035,8.554432262855768,-1.9403129816055296,-0.1488192677497863,1.1024224758148191
1783197020028421000,5.190421142578125,4.412405815379321,7.167713700807094,8.5673127872169,-2.482463359832764,-0.1455318629741668,1.287140130996704
1783197020038358300,5.200358154296875,4.128752247622609,7.1168386690944425,8.240505429649353,-2.9790806770324707,-0.0838838368654251,1.4295203685760498
1783197020048295200,5.210295166015625,3.778578627514839,7.239367316654324,7.731558713167906,-3.424491167068481,0.0191312320530414,1.541782021522522
1783197020058232300,5.220232421875,3.3754543384641407,7.435533447355032,7.246141340833902,-3.8140058517456055,0.1167425960302352,1.6446820497512815
1783197020068169200,5.230169189453125,3.034857232736051,7.576136096265912,6.805595960405468,-4.188460350036621,0.1640587300062179,1.7353885173797607
1783197020078106000,5.240106201171875,2.729204891400039,7.620458053073286,6.337249549859762,-4.519769668579102,0.1926606595516204,1.814253687858581
1783197020088043300,5.250043212890625,2.471435121962428,7.558824895980954,5.884300030410289,-4.753969669342041,0.1890504956245422,1.9243227243423464
1783197020097980200,5.259980224609375,2.221105001006275,7.435806419077515,5.262499672687054,-4.894634246826172,0.1185243129730224,2.0929903984069824
1783197020107917300,5.269917236328125,1.915167266857624,7.219186113891005,4.48063968591094,-5.031381130218506,-0.0657605677843093,2.313395977020264
1783197020117854200,5.279854248046875,1.4657171338312327,6.913208778384328,3.714088327425718,-5.161008358001709,-0.3322632014751434,2.577756643295288
1783197020127791000,5.289791015625,0.9986188236504792,6.471391478323936,2.937240031331777,-5.200907707214356,-0.6704729199409485,2.788933277130127
1783197020137728300,5.299728271484375,0.0807300717502832,5.804525651949644,1.6076216591209171,-5.063222408294678,-0.9680085778236388,2.777139663696289
1783197020147665200,5.3096650390625,-1.5504361290872095,5.2029187719494105,-0.0219698397457599,-4.813852787017822,-1.1508479118347168,2.4613537788391118
1783197020157602300,5.319602294921875,-3.622806466522813,4.880757194361091,-1.49265730933547,-4.571726322174072,-1.2269352674484253,1.883272767066956
1783197020167539200,5.329539306640625,-5.3938715519160025,4.578573990440368,-2.6967683104366063,-4.332422733306885,-1.2325226068496704,1.2834311723709106
1783197020177477000,5.33947705078125,-6.163412155345082,4.012974243366718,-3.8195752392917863,-4.020735740661621,-1.1987557411193848,0.935492992401123
1783197020187414300,5.349414306640625,-5.605470814070105,2.79872967852503,-5.026369195866584,-3.574459314346313,-1.174237608909607,0.8385797142982483
1783197020197351200,5.35935107421875,-4.596464451918005,1.5698922324463724,-6.233828338351845,-3.09281325340271,-1.2241477966308594,0.8643909096717834
1783197020207288300,5.369288330078125,-3.943307125161588,0.983865198893845,-6.95878453464508,-2.656313180923462,-1.3007667064666748,0.9401639699935912
1783197020217225200,5.37922509765625,-3.5428947254180905,0.6201382697299123,-7.088670559230446,-2.3014724254608154,-1.3966681957244873,1.015031814575195
1783197020227162000,5.389162109375,-3.2534552677363155,0.0971972224265337,-6.97379856390357,-2.134028196334839,-1.4641032218933103,1.035576581954956
1783197020237099300,5.399099365234375,-3.3507749474987385,0.083180972033739,-6.619810353943705,-2.1470093727111816,-1.4475486278533936,1.017053246498108
1783197020247036200,5.4090361328125,-3.585886018143594,0.1448554840497672,-6.175961255794763,-2.2201080322265625,-1.3162132501602173,0.987533152103424
1783197020256973300,5.418973388671875,-3.684292908620834,-0.2299886130645871,-6.094696931037307,-2.249889612197876,-1.111174702644348,0.9123514294624328
1783197020266910200,5.42891015625,-3.779121648350358,-0.5684076441012322,-6.429919065728783,-2.190979480743408,-0.8738476634025574,0.8334023356437683
1783197020276847000,5.43884716796875,-3.817343534716964,-0.9127445208795368,-6.908567674580216,-2.0376758575439453,-0.6684460639953613,0.7885343432426453
1783197020286784300,5.4487841796875,-3.726479022443294,-1.5115741912513971,-7.475368029615282,-1.8289740085601809,-0.520150363445282,0.7562482953071594
1783197020296721200,5.45872119140625,-3.668291621890664,-1.988744690374285,-7.95503487559855,-1.6273421049118042,-0.4030395746231079,0.7210326194763184
1783197020306658300,5.468658203125,-3.6876544940084215,-2.3378926206961275,-8.126043184167147,-1.45597243309021,-0.2673725485801697,0.6727814674377441
1783197020316596200,5.47859619140625,-3.707861123473942,-2.725946766386926,-8.066886646321416,-1.2776530981063845,-0.0995278283953666,0.6110352873802185
1783197020326533000,5.488533203125,-3.702039869974554,-3.0636662708520888,-7.946475137045979,-1.0394748449325562,0.097829982638359,0.5255414247512817
1783197020336470000,5.498469970703125,-3.627322774903476,-3.32920287489891,-7.858675273039936,-0.7548143863677979,0.2621558308601379,0.4278877079486847
1783197020346407200,5.5084072265625,-3.48413040176034,-3.428266475719213,-7.703524458816647,-0.454957902431488,0.3326222896575928,0.3471571803092956
1783197020356344300,5.51834423828125,-3.2617005335122347,-3.3707471836864946,-7.2670900208383795,-0.1756884157657623,0.2830643951892853,0.2734311521053314
1783197020366281200,5.52828125,-2.973713320465386,-3.3458477202296253,-6.672191698566079,0.0721983611583709,0.155706986784935,0.1896558254957199
1783197020376218000,5.538218017578125,-2.7604925945892926,-3.294228299890458,-6.043931204918026,0.2911773324012756,0.0092219468206167,0.1074214056134224
1783197020386155000,5.548155029296875,-2.582651517391205,-3.2417671680301425,-5.46970683736205,0.498570442199707,-0.1087955012917518,0.0138701470568776
1783197020396092200,5.558092041015625,-2.41510883910656,-3.213817669352889,-5.015368493902683,0.699403703212738,-0.1718665510416031,-0.1053202524781227
1783197020406029300,5.568029296875,-2.31236508846879,-3.055515989883244,-4.573374668231606,0.877526044845581,-0.2341062128543853,-0.2316345125436782
1783197020415966200,5.57796630859375,-2.170853508019447,-2.8089813156872987,-4.183951572275162,1.0099323987960815,-0.2999112010002136,-0.3635987341403961
1783197020425903000,5.587903076171875,-2.0572271288394925,-2.54359697959274,-3.8352082772314544,1.1288857460021973,-0.3368218243122101,-0.4815786182880401
1783197020435840300,5.59784033203125,-1.8091390877217053,-2.3268331742823123,-3.5874943301230666,1.2294089794158936,-0.3424551784992218,-0.5729851126670837
1783197020445777200,5.607777099609375,-1.6547005134209989,-2.078703924371302,-3.530284834691882,1.274576187133789,-0.3281353414058685,-0.645818293094635
1783197020455714300,5.61771435546875,-1.5982868445426224,-1.7463573451161385,-3.458300379455089,1.268537521362305,-0.3182616829872131,-0.6814311742782593
1783197020465652200,5.62765234375,-1.4546496502414346,-1.6320529205441474,-3.50503641166687,1.2654080390930176,-0.2858169078826904,-0.6620768904685974
1783197020475589400,5.63758935546875,-1.3572893462076785,-1.7825062246009706,-3.82495985493958,1.301182985305786,-0.2167494297027588,-0.6521427631378174
1783197020485526000,5.647526123046875,-1.5844672857657074,-1.850442865751684,-4.39663979870975,1.3841571807861328,-0.0824843049049377,-0.6582565903663635
1783197020495463200,5.657463134765625,-1.9856851566731928,-1.638284508410096,-4.9612470276147125,1.5146392583847046,0.0837840810418129,-0.6794308423995972
1783197020505400000,5.667400146484375,-2.2803926178857683,-1.6198048488676546,-5.496195615836978,1.6638964414596558,0.2497978210449218,-0.7161529064178467
1783197020515337200,5.677337158203125,-2.589128604450822,-1.5948565778329968,-5.916468608087301,1.7857441902160645,0.4210944473743438,-0.7657310962677002
1783197020525274400,5.6872744140625,-3.058611910071969,-1.407635385610163,-6.169408180889487,1.895861029624939,0.6131973266601562,-0.8440906405448914
1783197020535211000,5.6972109375,-3.4823534552156925,-1.1545572811201217,-6.3479597444444895,2.0076379776000977,0.8068169951438904,-0.9556726813316344
1783197020545148200,5.707148193359375,-3.8666336353257296,-0.872050545310974,-6.58710752325952,2.154018878936768,0.9792044758796692,-1.0870810747146606
1783197020555085000,5.7170849609375,-4.06604941547215,-0.5410618104055523,-6.785242323684692,2.3555612564086914,1.1265456676483154,-1.2052913904190063
1783197020565022200,5.727022216796875,-4.075350620041787,-0.189943310663104,-6.925021381253004,2.604327917098999,1.2156881093978882,-1.320030689239502
1783197020574959400,5.73695947265625,-4.043820340268313,0.2809899015054106,-6.93937022460103,2.8829879760742188,1.2600462436676023,-1.4402287006378174
1783197020584896000,5.74689599609375,-3.943587403407693,0.91580171649307,-6.7527230328738685,3.1934938430786133,1.2676576375961304,-1.554126262664795
1783197020594833200,5.756833251953125,-3.5605312121346597,1.4034975551530715,-6.329468394464254,3.4858875274658203,1.236110806465149,-1.637192726135254
1783197020604770300,5.766770263671875,-3.1897856363803148,2.0094763666272164,-5.657651083162427,3.7153728008270255,1.162441372871399,-1.6900607347488403
1783197020614707200,5.776707275390625,-2.8535967024832964,2.8009622598826884,-4.748996608075499,3.898200035095215,1.0527559518814087,-1.7084914445877075
1783197020624644400,5.786644287109375,-2.513320791533589,3.395284243571758,-3.920229324173927,4.021097660064697,0.9508365392684937,-1.7150683403015137
1783197020634581000,5.7965810546875,-2.2261356886498627,3.96992771332264,-3.103632370537519,4.125396728515625,0.8938665390014648,-1.7432581186294556
1783197020644518100,5.80651806640625,-1.9797094432644544,4.557260568776727,-2.3056232129931447,4.207559585571289,0.8876048922538757,-1.779269099235535
1783197020654456000,5.8164560546875,-1.7523720753610132,5.094705065467953,-1.5440473048329353,4.242564678192139,0.9181775450706482,-1.8008617162704468
1783197020664393200,5.826393310546875,-1.4577147369004786,5.677795461046696,-0.6999567795932292,4.216464996337891,0.9760504364967346,-1.8167037963867188
1783197020674330000,5.836330078125,-1.1104571503698826,6.181921625503898,0.2292459780037403,4.125894069671631,1.0209245681762695,-1.819844484329224
1783197020684267300,5.846267333984375,-0.6736427731633186,6.610306028017401,1.143110296693444,3.992024183273315,1.038811445236206,-1.8033291101455688
1783197020694204200,5.8562041015625,-0.1883101565033197,6.93217066848576,1.9307167181670664,3.831654071807861,1.0309665203094482,-1.7473859786987305
1783197020704141000,5.86614111328125,0.3691752576977014,7.117201072666049,2.640126970282197,3.6670949459075928,0.987150013446808,-1.660897135734558
1783197020714078200,5.876078125,0.8897866199444979,7.300643915393948,3.210717949771881,3.475255250930786,0.9047727584838868,-1.5396908521652222
1783197020724015400,5.886015380859375,1.3709180585876106,7.450676071429252,3.707974228459596,3.25166392326355,0.8259469270706177,-1.3743005990982056
1783197020733952300,5.8959521484375,1.8057257721468805,7.526988326737285,4.195392419221997,3.0066819190979004,0.7572915554046631,-1.1948013305664062
1783197020743889200,5.90588916015625,2.154085036309063,7.54187785283327,4.609247361123561,2.7381036281585693,0.7109155058860779,-1.021532654762268
1783197020753826000,5.915825927734375,2.404491145110875,7.49657799090445,5.002029704380036,2.447667121887207,0.67453932762146,-0.8525972962379456
1783197020763763200,5.92576318359375,2.6047330008178946,7.445090380251407,5.364519785225391,2.1275930404663086,0.6447950005531311,-0.6747934818267822
1783197020773700400,5.935700439453125,2.764169529536366,7.365048875287175,5.656424171715974,1.805586814880371,0.6357542276382446,-0.4959672093391418
1783197020783637200,5.94563720703125,2.884082733900845,7.349379012468456,5.930126546561717,1.509492039680481,0.624293327331543,-0.3304773271083832
1783197020793574100,5.95557421875,2.955425091841817,7.366107444429397,6.079762981277704,1.2476307153701782,0.5951433777809143,-0.1806589812040329
1783197020803511000,5.965510986328125,3.0037521926373243,7.392524326711893,6.202680920416117,0.9964672327041626,0.545850396156311,-0.0492287874221801
1783197020813448200,5.9754482421875,3.017797961385548,7.463588159972429,6.369453198850154,0.7277787923812866,0.4550797045230865,0.0708490684628486
1783197020823385300,5.98538525390625,3.008396219050884,7.515542219093441,6.564965249556303,0.4398514032363891,0.3516246974468231,0.1908742636442184
1783197020833322200,5.995322265625,3.0660359225928784,7.498560689154266,6.847155466762184,0.1366025805473327,0.2259013801813125,0.3243529796600342
1783197020843259100,6.005259033203125,3.169790311577916,7.385339383643865,7.056578553920984,-0.1628874540328979,0.0946592092514038,0.4658911824226379
1783197020853196000,6.015196044921875,3.2305548691421744,7.277247842237353,7.160527588695287,-0.462298721075058,-0.0171870291233062,0.6189159154891968
1783197020863133200,6.02513330078125,3.240052765327692,7.215903438958525,7.281798345148563,-0.7742978930473328,-0.1141282245516777,0.7713374495506287
1783197020873070300,6.0350703125,3.180430363535881,7.194419921424984,7.423508078518509,-1.1246821880340576,-0.2055054306983947,0.9245977401733398
1783197020883007200,6.04500732421875,3.033583267277479,7.141285128086805,7.569875866827369,-1.5436456203460691,-0.2946398258209228,1.0793849229812622
1783197020892944100,6.054944091796875,2.7919617918252944,7.042291085371375,7.617836472398042,-2.047354221343994,-0.3683847784996032,1.2130941152572632
1783197020902882000,6.064882080078125,2.4785262492671607,6.918346725794673,7.609052861961722,-2.601041555404663,-0.3999770581722259,1.3347947597503662
1783197020912819200,6.074819091796875,2.106336319923401,6.78380966053307,7.520214302557706,-3.1288704872131348,-0.3801776170730591,1.4247602224349976
1783197020922756000,6.084756103515625,1.6628323819503188,6.648008858945965,7.143847087529301,-3.576084613800049,-0.3642236590385437,1.4920666217803955
1783197020932693200,6.094693359375,1.1500140847325324,6.488384698700904,6.482735879158973,-3.952234983444214,-0.3901123702526092,1.5553693771362305
1783197020942631000,6.104630859375,0.5738241892572492,6.36082565575838,5.5889335207670925,-4.249912261962891,-0.4471085667610168,1.585720419883728
1783197020952568000,6.114568115234375,-0.0006819909147918,6.1899137933015815,4.660905067646503,-4.454940319061279,-0.5086552500724792,1.570495843887329
1783197020962505000,6.1245048828125,-0.6165221250593662,5.901668513840437,3.724036305466294,-4.594573974609375,-0.5605664253234863,1.5094841718673706
1783197020972441900,6.13444189453125,-1.13563046233207,5.585796391785144,2.743414326277375,-4.645129680633545,-0.5711463093757629,1.3736270666122437
1783197020982379000,6.14437890625,-1.6591107310786843,5.361821632182598,2.0148434466183183,-4.633714199066162,-0.571892261505127,1.2033262252807615
1783197020992316000,6.15431591796875,-1.9980247060254213,5.088592135545611,1.3245973291784523,-4.588834762573242,-0.6215031743049622,1.064273238182068
1783197021002253000,6.164253173828125,-2.0935947656415403,4.682195692956447,0.5890712235540151,-4.549362182617188,-0.7358267903327942,1.0230088233947754
1783197021012190000,6.17418994140625,-1.9668293572947384,4.225801001489162,-0.1931920833259821,-4.480040073394775,-0.9034746289253236,1.061805009841919
1783197021022126800,6.184126953125,-1.7627672126471996,3.760658939942717,-1.059477489238977,-4.33267879486084,-1.105303406715393,1.136436939239502
1783197021032064000,6.19406396484375,-1.6718462940111756,3.2893566022008653,-2.0596891350388526,-4.122822284698486,-1.3127148151397705,1.1777464151382446
1783197021042001000,6.2040009765625,-1.7799252681970594,2.981387216094136,-2.985757101741433,-3.84921932220459,-1.4938760995864868,1.1666783094406128
1783197021051938000,6.21393798828125,-2.0043156228631736,2.68916221934706,-3.759103527194261,-3.5368454456329346,-1.6679586172103882,1.1075857877731323
1783197021061875000,6.223875,-2.307721354316175,2.29102945497334,-4.462348826938867,-3.2382900714874268,-1.8295387029647827,1.04441237449646
1783197021071811800,6.233811767578125,-2.535191554819048,1.9195678399041292,-5.072914089420437,-3.003074407577514,-1.9799165725708008,1.0461269617080688
1783197021081749000,6.2437490234375,-2.621612823948264,1.4417898764073849,-5.557577428516745,-2.811849594116211,-2.038144111633301,1.1251349449157717
1783197021091686000,6.253685791015625,-2.543804777124524,0.790792358033359,-6.107251292183995,-2.5808119773864746,-1.9686063528060915,1.2295844554901123
1783197021101623000,6.263623046875,-2.471399758388102,0.1822057021483779,-6.684158615213632,-2.3165063858032227,-1.8101208209991453,1.318379044532776
1783197021111560000,6.273559814453125,-2.5822064039722084,-0.2907116695746779,-7.184198971661925,-2.0638256072998047,-1.611260175704956,1.4124884605407717
1783197021121496800,6.283496826171875,-2.7152234200596808,-0.8288438562691212,-7.483982713225483,-1.8475929498672483,-1.387262225151062,1.515257716178894
1783197021131434000,6.29343408203125,-2.8107342968344686,-1.5092637223519385,-7.570271588146686,-1.696171760559082,-1.184107780456543,1.6035419702529907
1783197021141371100,6.30337109375,-3.0360961268812416,-2.219902201087773,-7.597520829600096,-1.622186541557312,-0.9761309027671814,1.6405540704727173
1783197021151308000,6.31330810546875,-3.4795886666774747,-2.777269541867077,-7.5105562473744145,-1.5829706192016602,-0.7454553842544556,1.6378393173217771
1783197021161245000,6.323244873046875,-3.914063202759624,-3.4217683458715675,-7.41472212999463,-1.4947960376739502,-0.4963249862194061,1.5970932245254517
1783197021171181800,6.333181884765625,-4.248748454095423,-4.182225771395862,-7.536068874293565,-1.2887253761291504,-0.2446761280298233,1.5128096342086792
1783197021181119000,6.343118896484375,-4.510709245482087,-4.711785067795216,-7.711167082524299,-0.9736073613166808,-0.0874649286270141,1.383482575416565
1783197021191056100,6.35305615234375,-4.8373561517909165,-4.8911716208696365,-7.8482737060129635,-0.6320860981941223,-0.0300361905246973,1.2038354873657229
1783197021200993000,6.362992919921875,-5.137327817142009,-4.962991825455427,-7.77494777303934,-0.2778417766094208,-0.0156324841082096,0.9546213746070862
1783197021210930000,6.372929931640625,-5.268596235996484,-5.040569570654631,-7.437956290587782,0.0952466949820518,-0.0302503537386655,0.6622397303581238
1783197021220866800,6.38286669921875,-5.1611938458979125,-5.052973709675669,-6.994869408982992,0.4697587490081787,-0.0923539400100708,0.3629499673843384
1783197021230804000,6.392803955078125,-4.750761571921408,-4.872477149532736,-6.312255393856764,0.7719621658325195,-0.2123156785964965,0.1018340811133384
1783197021240741000,6.4027412109375,-4.191609685812891,-4.536821884121,-5.4624926681995385,0.9976464509963988,-0.3471387326717376,-0.1458534747362136
1783197021250678000,6.412677978515625,-3.659674600192904,-4.047945603504776,-4.566251684483886,1.1599987745285034,-0.4781879484653473,-0.3521203398704529
1783197021260615000,6.422614990234375,-3.110274000509083,-3.63510246899426,-3.778994807100296,1.2368274927139282,-0.5900170207023621,-0.5156583786010742
1783197021270551800,6.4325517578125,-2.586721543309092,-3.254244956809282,-3.136606419378519,1.2383376359939575,-0.6159378290176392,-0.6586225628852844
1783197021280489000,6.442489013671875,-2.1582269584193825,-2.910395863547921,-2.516157476264238,1.1709662675857544,-0.5529226660728455,-0.7826526165008545
1783197021290426000,6.452426025390625,-1.8307889017328616,-2.62012930739224,-2.018572111752629,1.0398966073989868,-0.3998886346817016,-0.9040331244468688
1783197021300363000,6.462363037109375,-1.6730419335365294,-2.255954926721752,-1.681323439669609,0.8863237500190735,-0.1749013215303421,-1.015114188194275
1783197021310300000,6.4722998046875,-1.5743679165557023,-1.8882837899766864,-1.4705056832820176,0.7099663615226746,0.0082690939307212,-1.0888408422470093
1783197021320236800,6.48223681640625,-1.4295996723979711,-1.6776409517645834,-1.5303069487720726,0.550556480884552,0.1244609504938125,-1.1242417097091677
1783197021330174000,6.492174072265625,-1.3240268358141185,-1.5999357807934282,-1.9384885212123395,0.4905182421207428,0.2333096861839294,-1.1165891885757446
1783197021340111000,6.502111083984375,-1.3905863433927297,-1.508568725825101,-2.694270648401976,0.5452755093574524,0.3003675639629364,-1.0973894596099854
1783197021350048000,6.512048095703125,-1.6873054366886615,-1.380889709764719,-3.722958447101712,0.6698656678199768,0.3118243217468261,-1.0610843896865845
1783197021359985000,6.52198486328125,-2.0336831716448067,-1.2608695378944277,-4.781473228788376,0.8582725524902344,0.3144400715827942,-1.013501763343811
1783197021369922000,6.531922119140625,-2.41239578075558,-1.35361211899966,-5.7617246210992334,1.120571851730347,0.3906382918357849,-0.9867992401123048
1783197021379859000,6.54185888671875,-2.9059996744155883,-1.48432085814476,-6.549886338368058,1.4703047275543213,0.5543494820594788,-1.029434084892273
1783197021389796000,6.551796142578125,-3.408402960602939,-1.4994418549090622,-7.064696393924951,1.8249605894088743,0.7008366584777832,-1.1383386850357056
1783197021399733000,6.56173291015625,-3.876784734722972,-1.3526014806523918,-7.315211954450607,2.127646207809448,0.8550578951835632,-1.2650223970413208
1783197021409670000,6.571669921875,-4.179547492097318,-1.028621747726202,-7.148447274801135,2.417872190475464,1.0160622596740725,-1.406272292137146
1783197021419607000,6.58160693359375,-4.295604605555534,-0.7238152095645666,-6.739120039457083,2.700336217880249,1.1421349048614502,-1.5505952835083008
1783197021429544000,6.5915439453125,-4.209382950651645,-0.2592030171111226,-6.1931952991902826,2.962867259979248,1.1809171438217163,-1.6702324151992798
1783197021439481000,6.601481201171875,-3.919901115132868,0.342584772413969,-5.4918730764627455,3.1898443698883057,1.148866057395935,-1.752314805984497
1783197021449417700,6.611417724609375,-3.4367800370424986,1.010163423232734,-4.71809235124588,3.405109167098999,1.0716791152954102,-1.806308627128601
1783197021459355000,6.62135498046875,-2.899018144965172,1.6405904472649095,-3.9145495249718425,3.591127395629883,0.9469204545021056,-1.850918412208557
1783197021469292000,6.6312919921875,-2.4671821406930685,2.2599287987887857,-3.1299142282634973,3.717195510864258,0.8203788995742798,-1.8959934711456297
1783197021479229000,6.64122900390625,-2.0575769651904703,2.9536855546981093,-2.241726787143945,3.803992748260498,0.7174333333969116,-1.922219157218933
1783197021489166000,6.651166015625,-1.5857652166217564,3.506811604645848,-1.386454942676425,3.82595419883728,0.6340997219085693,-1.9325346946716309
1783197021499102700,6.661102783203125,-1.1914824056744575,3.995334541779756,-0.5867728834837674,3.77043080329895,0.5822114944458008,-1.9287716150283811
1783197021509039900,6.671039794921875,-0.8304673658177256,4.526398397523164,0.2252642148911952,3.624317169189453,0.544263482093811,-1.926923871040344
1783197021518977000,6.68097705078125,-0.5342592907838523,4.959454883500934,0.9867769946873188,3.4151930809021,0.5535634756088257,-1.9274762868881223
1783197021528914000,6.690913818359375,-0.1844561114236712,5.286549825838208,1.6848025139570235,3.1803832054138184,0.6028375625610352,-1.9171273708343504
1783197021538851000,6.70085107421875,0.1958325148321688,5.539399382269382,2.230629639068246,2.947503566741944,0.6633523106575012,-1.891615390777588
1783197021548787700,6.71078759765625,0.5486611794933677,5.793395186126232,2.6107085680961606,2.7222461700439453,0.7142417430877686,-1.8473970890045168
1783197021558724900,6.720724853515625,0.8311804825231432,6.051468030163646,2.9178432569444177,2.4867217540740967,0.7331648468971252,-1.7971200942993164
1783197021568662000,6.730662109375,1.0024307831540704,6.245916251030564,3.187806445261836,2.2536463737487797,0.7266253232955933,-1.7539881467819214
1783197021578599000,6.740598876953125,1.0714750932857393,6.351434727078676,3.419662313503027,2.0453357696533203,0.701239824295044,-1.7326722145080566
1783197021588536000,6.7505361328125,1.1249230442263185,6.365860727316141,3.5913568507701155,1.8713645935058596,0.6645576357841492,-1.7108417749404907
1783197021598473000,6.760472900390625,1.2300871538788078,6.398773401358723,3.674560034635663,1.7158197164535522,0.634088397026062,-1.6698455810546875
1783197021608409900,6.770409912109375,1.4035235663771628,6.545608807179331,3.7582793513298034,1.5707426071166992,0.6108517646789551,-1.6015266180038452
1783197021618347000,6.780346923828125,1.6242510146215556,6.717869746157526,3.888264744636416,1.4292222261428833,0.6028710603713989,-1.5033565759658811
1783197021628284000,6.790283935546875,1.9014505839332936,6.798765822124481,4.094685727369785,1.2757691144943235,0.6006183624267578,-1.3755323886871338
1783197021638219800,6.8002197265625,2.2108676846303044,6.872741158917546,4.326700001043081,1.097626805305481,0.5963578224182129,-1.216902256011963
1783197021648157000,6.810156982421875,2.5270947576031086,6.9620245394796125,4.695897762833535,0.8886909484863281,0.5674064755439758,-1.0300447940826416
1783197021658093800,6.82009375,2.7776547417923805,7.059578904780745,5.097651055791974,0.6334336400032043,0.4934832453727722,-0.8106696605682373
1783197021668031000,6.830031005859375,3.013866759416461,7.088037522023916,5.492933399170637,0.3266840875148773,0.3881154358386993,-0.5676982998847961
1783197021677968100,6.839968017578125,3.2233973986029625,7.006938032439351,5.872648171061277,-0.0282644052058458,0.2764661312103271,-0.3065623044967651
1783197021687904800,6.84990478515625,3.405517468294501,6.88603143312335,6.205554430025815,-0.4080661535263061,0.1727488040924072,-0.022920873016119
1783197021697842000,6.859842041015625,3.550719719955325,6.798419785165787,6.477748738396167,-0.7907243371009827,0.0810159593820571,0.2753656804561615
1783197021707778800,6.86977880859375,3.659382339248061,6.699999742946028,6.610676030373573,-1.167040467262268,-0.0198803842067718,0.5857718586921692
1783197021717716000,6.879716064453125,3.702499304179847,6.607551176351309,6.609277269491553,-1.5569677352905271,-0.1524187177419662,0.892427921295166
1783197021727653000,6.889653076171875,3.625775545461476,6.561144229963421,6.589370792016386,-1.980748176574707,-0.2891838252544403,1.1566133499145508
1783197021737589800,6.89958984375,3.3243598187819123,6.467220330119132,6.540292580592632,-2.415346622467041,-0.3896616995334625,1.3676446676254272
1783197021747527000,6.90952685546875,2.887631658554077,6.402573378163575,6.4330409971416,-2.843466520309448,-0.4550321102142334,1.520582675933838
1783197021757463800,6.9194638671875,2.442448389191925,6.376594887298345,6.238994342812895,-3.2246711254119877,-0.4631520807743072,1.614500880241394
1783197021767401000,6.92940087890625,1.998574887254089,6.33607816799283,5.940332298755646,-3.51963472366333,-0.4282455742359161,1.6642427444458008
1783197021777338000,6.939338134765625,1.5872013869047163,6.294357333594561,5.491557434642314,-3.732211828231812,-0.3791843056678772,1.704554796218872
1783197021787274800,6.949274658203125,1.306461368507147,6.220474935781955,5.026967746281623,-3.9196839332580566,-0.3869845569133758,1.7710720300674438
1783197021797212000,6.9592119140625,1.0853200787648558,6.088562373805046,4.615746075493097,-4.149998664855957,-0.4604372084140777,1.884671330451965
1783197021807149000,6.969149169921875,0.956431979175657,5.874183710065484,4.420956493842602,-4.419712543487549,-0.6036637425422668,2.061357259750366
1783197021817086000,6.9790859375,0.8645625276431441,5.446026102045178,4.237745121783018,-4.700685977935791,-0.804868221282959,2.238209009170532
1783197021827023000,6.989023193359375,0.4502217019207775,4.989640178406238,3.704960433596373,-4.914017677307129,-0.9573920965194702,2.3220317363739014
1783197021836959700,6.998959716796875,-0.317408099450916,4.741280334609747,2.9653327378720045,-5.002245903015137,-1.024120807647705,2.2718095779418945
1783197021846897000,7.00889697265625,-1.301644469744712,4.662296814265847,1.9613766448467969,-5.013602256774902,-1.0063068866729736,2.1561241149902344
1783197021856834000,7.018833984375,-2.02529075248316,4.466720758412778,0.9419313062667846,-4.991485595703125,-0.9493389129638672,2.065056800842285
1783197021866771000,7.02877099609375,-2.2194363371416923,3.945722077348828,-0.0583411298096179,-4.954446315765381,-0.8836334347724915,2.01946234703064
1783197021876706800,7.038706787109375,-2.188969010424614,3.395132560141384,-0.9827046306818724,-4.8663177490234375,-0.8535063862800598,2.01722264289856
1783197021886644000,7.04864404296875,-2.087499225245416,2.9512051360592246,-1.9493074368685483,-4.703561305999756,-0.8688646554946899,2.060737133026123
1783197021896580900,7.058580810546875,-2.176786697460711,2.4377666611164805,-3.1952433172643184,-4.429861068725586,-0.8478861451148987,2.069603443145752
1783197021906518000,7.06851806640625,-2.6130413949579,2.0382243222057816,-4.461550954559445,-4.02262020111084,-0.8141685128211975,2.008831262588501
1783197021916455000,7.078454833984375,-3.0833202348709103,1.6494965150371192,-5.598709064850211,-3.5554850101470947,-0.7862995862960815,1.9018707275390625
1783197021926391800,7.088391845703125,-3.467462175554037,1.2101976275384425,-6.501166438862681,-3.0825560092926025,-0.8033058643341064,1.7920163869857788
1783197021936329000,7.098328857421875,-3.5749195107102394,0.6468265162996948,-7.035697093933821,-2.669255018234253,-0.9239451885223388,1.7554762363433838
1783197021946265300,7.108265380859375,-3.5392119452521205,-0.0396920319844037,-7.413838332897424,-2.383397340774536,-1.0748059749603271,1.7785838842391968
1783197021956202500,7.118202392578125,-3.747464819587767,-0.6348256243173033,-7.539413508546352,-2.234903573989868,-1.2041133642196655,1.82569682598114
1783197021966139400,7.128139404296875,-4.07126978046894,-1.313660047839582,-7.645580803892016,-2.1503822803497314,-1.1786144971847534,1.8041490316390991
1783197021976076300,7.138076171875,-4.636096205082535,-2.135262993069738,-7.973233380112052,-2.0344412326812744,-0.9521032571792604,1.6592280864715576
1783197021986013400,7.148013427734375,-5.350453265950083,-2.7446318853735923,-8.42648743546605,-1.8647111654281616,-0.561857283115387,1.4018419981002808
1783197021995950300,7.157950439453125,-6.067208620131016,-3.100682580821216,-8.827365406894684,-1.6519150733947754,-0.118829533457756,1.0785614252090454
1783197022005887500,7.167887451171875,-6.521579696816206,-3.365941244709492,-9.02944339198768,-1.4182618856430054,0.2533507943153381,0.762202262878418
1783197022015824400,7.177824462890625,-6.440693557721376,-3.682598379662633,-8.996661650848388,-1.1872515678405762,0.4933905303478241,0.4847586452960968
1783197022025761300,7.18776123046875,-5.9705918279409405,-3.90364410007596,-8.705684900596736,-0.9502683877944946,0.5799112915992737,0.2649450004100799
1783197022035698400,7.197698486328125,-5.337861495402455,-3.967824603563547,-8.252118126031755,-0.7000249624252319,0.5602864623069763,0.088547334074974
1783197022045634600,7.207634521484375,-4.719439381940663,-3.958268255189061,-7.849311232367158,-0.3825123608112335,0.4728628098964691,-0.0743229538202285
1783197022055571200,7.2175712890625,-4.158980504886806,-3.868364112380146,-7.498416896769404,0.0192007161676883,0.3311304450035095,-0.2563284337520599
1783197022065508400,7.22750830078125,-3.679399583621323,-3.6110175367906687,-7.19584615483582,0.4535236954689026,0.1471834927797317,-0.4583567380905151
1783197022075445500,7.237445556640625,-3.2781501485317945,-3.213612209908664,-6.714146926242113,0.838368833065033,-0.0418149158358573,-0.6508737206459045
1783197022085382400,7.24738232421875,-2.78833307993412,-2.84344355725944,-5.954573590075969,1.1284878253936768,-0.2302605807781219,-0.819187581539154
1783197022095319600,7.257319580078125,-2.202401323449612,-2.454167468558252,-5.064893280050158,1.330581545829773,-0.3936820030212402,-0.9553041458129884
1783197022105256200,7.267256103515625,-1.655741254645586,-2.018632609768212,-4.261238225573301,1.4487769603729248,-0.5172260999679565,-1.049022197723389
1783197022115193300,7.277193359375,-1.1897463756620883,-1.5638836396813391,-3.593869710373878,1.5147346258163452,-0.6022850871086121,-1.1046226024627686
1783197022125130500,7.287130615234375,-0.6982108127087354,-1.2306490255452691,-3.1770576722323893,1.5399696826934814,-0.6426024436950684,-1.137729525566101
1783197022135067400,7.2970673828125,-0.3545940668985247,-0.9524738891996444,-2.974583381298184,1.5495672225952148,-0.6207221746444702,-1.1508357524871826
1783197022145004500,7.307004638671875,-0.1902104371666908,-0.6483711153931916,-2.873125578817725,1.5512328147888184,-0.5534132719039917,-1.1380938291549685
1783197022154941400,7.31694140625,-0.1954179426819086,-0.3524567626088857,-2.952590160676837,1.53990375995636,-0.4855964481830597,-1.1302623748779297
1783197022164878300,7.32687841796875,-0.3565332182675599,-0.1307182376258075,-3.1990631678134203,1.5241312980651855,-0.4134849309921264,-1.1093013286590576
1783197022174815500,7.3368154296875,-0.5154869319051504,-0.0387184377118945,-3.609415654551983,1.550767183303833,-0.283811092376709,-1.0969586372375488
1783197022184752400,7.34675244140625,-0.7815563276544213,0.0495795850746333,-4.173238455080986,1.6556780338287354,-0.0982204973697662,-1.089026927947998
1783197022194688300,7.356688232421875,-1.0580167690366509,0.1504996274165809,-4.734406357187033,1.7885431051254272,0.0862276405096054,-1.0839192867279053
1783197022204625400,7.36662548828125,-1.320245271448791,0.1303930973246693,-5.160859499377012,1.9022212028503416,0.2402506470680236,-1.083032727241516
1783197022214562300,7.376562255859375,-1.5753642341166734,0.0696343849793076,-5.425082098215818,1.9877310991287231,0.3846975862979889,-1.076003909111023
1783197022224499500,7.38649951171875,-1.9044801608875392,0.12353329455778,-5.6396133221685885,2.1042847633361816,0.5692410469055176,-1.0736615657806396
1783197022234436600,7.3964365234375,-2.21507697288841,0.2062804052188992,-5.815479007640481,2.297396183013916,0.7830519080162048,-1.098223328590393
1783197022244373200,7.406373291015625,-2.430451661927998,0.254006325250864,-5.938938798570633,2.521352052688598,0.95852929353714,-1.1399322748184204
1783197022254310400,7.416310302734375,-2.6231498242571947,0.5248337291821837,-5.8617877543509005,2.747192859649658,1.0598678588867188,-1.1680299043655396
1783197022264247300,7.426247314453125,-2.7265184287950395,0.9165382140740752,-5.557987762883306,2.922847032546997,1.088651418685913,-1.1867015361785889
1783197022274184400,7.436184326171875,-2.797694490258396,1.2592775925278663,-5.120047011995315,3.0886383056640625,1.0847471952438354,-1.2110066413879397
1783197022284121600,7.44612158203125,-2.7593478084683416,1.50663585806638,-4.622102751043439,3.2869699001312256,1.0692983865737915,-1.2678016424179075
1783197022294058200,7.456058349609375,-2.715387086188793,1.7344941811040042,-4.228689708667993,3.495589256286621,1.0474505424499512,-1.348529577255249
1783197022303995400,7.465995361328125,-2.6605916661620137,2.167535761773586,-3.675432141295075,3.693558931350708,0.99758642911911,-1.4332256317138672
1783197022313932500,7.4759326171875,-2.4690397512584923,2.640309341111779,-2.9510043527901173,3.858774185180664,0.906503438949585,-1.5157252550125122
1783197022323868400,7.485868408203125,-2.132430546122789,3.089107586100697,-2.131523368149996,3.9561591148376474,0.7791446447372437,-1.5914809703826904
1783197022333805300,7.495805419921875,-1.7739932477995752,3.59492944855988,-1.2741145116537809,3.965754270553589,0.6623088121414185,-1.6474111080169678
1783197022343742500,7.505742431640625,-1.4034931712388992,4.067557481947541,-0.359332493597269,3.9053680896759033,0.5542812943458557,-1.6690855026245115
1783197022353679400,7.515679443359375,-0.9634279755428432,4.412008632755279,0.4569850585758686,3.791743278503418,0.4810076355934143,-1.6829341650009155
1783197022363616500,7.525616455078125,-0.6003625790275633,4.727589078387618,1.1439601915210484,3.656174421310425,0.4641222059726715,-1.6811894178390503
1783197022373553400,7.535553466796875,-0.2789797307267785,4.987383923912048,1.7221815197587012,3.499631404876709,0.485343337059021,-1.6722675561904907
1783197022383490300,7.545490234375,0.0337375805594027,5.275705775740742,2.210726084202528,3.339538097381592,0.5405837893486023,-1.6591155529022217
1783197022393427500,7.555427490234375,0.3523381046652794,5.534893887543678,2.6648615985661745,3.15969181060791,0.6016561985015869,-1.6431479454040527
1783197022403364400,7.5653642578125,0.6291048355177045,5.783284126478433,3.1186545831024644,2.9527230262756348,0.6694267988204956,-1.614078164100647
1783197022413301500,7.575301513671875,0.940501857985556,6.049096040335297,3.5849826395630835,2.730095148086548,0.7373661994934082,-1.5484999418258667
1783197022423238400,7.58523828125,1.3170420914933083,6.232673907619715,4.009683969649672,2.492016553878784,0.7992051243782043,-1.4496322870254517
1783197022433174300,7.59517431640625,1.6750857143238185,6.328792687159776,4.388994252392649,2.244590282440185,0.8494765162467957,-1.3185384273529053
1783197022443111400,7.605111328125,2.008171713769436,6.418702675187587,4.7261511545389885,1.9992083311080933,0.8861297965049744,-1.1628185510635376
1783197022453048600,7.615048583984375,2.314168338498473,6.477303917238116,4.9736476595044135,1.7538154125213623,0.9020813703536988,-0.9926827549934388
1783197022462985500,7.6249853515625,2.573492059379816,6.498100621551274,5.240291932532191,1.51336932182312,0.9001456499099731,-0.8104212880134583
1783197022472922400,7.63492236328125,2.7848224414646623,6.503951101145148,5.523568191409111,1.283177614212036,0.8743391036987305,-0.6366028785705566
1783197022482859300,7.644859375,2.944026914992928,6.537419070982932,5.7825768549919125,1.068113923072815,0.8359211087226868,-0.4764566719532013
1783197022492796400,7.65479638671875,3.053016866543889,6.573333849450946,6.047519584798812,0.8622303009033203,0.7641172409057617,-0.3218726813793182
1783197022502733600,7.664733642578125,3.1196248894393444,6.679782299825549,6.339198345839977,0.6348174810409546,0.6669436693191528,-0.1669292449951172
1783197022512670500,7.67467041015625,3.2135102108389137,6.805105546540021,6.657482205212116,0.3738338351249695,0.5614627599716187,0.0109741752967238
1783197022522607400,7.684607421875,3.3604175128519533,6.825145879527926,6.961146587601304,0.0663929209113121,0.437848836183548,0.2051255106925964
1783197022532544300,7.694544189453125,3.482632564418018,6.826738701677322,7.288284200036525,-0.2930339574813843,0.2899794578552246,0.4133966863155365
1783197022542480400,7.70448046875,3.587476794466376,6.808724321559071,7.595618210849166,-0.7162111401557922,0.1133423000574112,0.6398676037788391
1783197022552417500,7.71441748046875,3.667489657858014,6.720971219304204,7.87222682853043,-1.2219126224517822,-0.0698709264397621,0.8661771416664124
1783197022562354400,7.7243544921875,3.660343877756596,6.640407151770591,8.071005772078037,-1.7741801738739014,-0.211030051112175,1.0720118284225464
1783197022572291300,7.734291259765625,3.5481115832835437,6.5556695979446165,8.154750807735324,-2.306720972061157,-0.2842043936252594,1.236414909362793
1783197022582228500,7.744228515625,3.260125247019529,6.496392648589611,7.9349302452027795,-2.768468379974365,-0.3035447597503662,1.352871656417847
1783197022592165400,7.754165283203125,2.89320215216279,6.559604599305987,7.415536953508854,-3.1584386825561523,-0.2890683710575104,1.432024598121643
1783197022602102500,7.7641025390625,2.443985389500856,6.639536798676848,6.720001497489213,-3.5065910816192627,-0.2290913760662078,1.4758132696151731
1783197022612039400,7.774039306640625,2.01214558583647,6.786559251502156,6.144613346850871,-3.813791751861572,-0.1673462688922882,1.5152552127838137
1783197022621976300,7.783976318359375,1.798808393973857,6.842173002174496,5.716973040702939,-4.130866527557373,-0.1841873973608017,1.5937514305114746
1783197022631913500,7.79391357421875,1.68360146760419,6.644727353057265,5.253620785182714,-4.476206302642822,-0.2852602303028106,1.7363795042037964
1783197022641849600,7.803849609375,1.7002802152045071,6.293456585362553,4.781816927659511,-4.835824966430664,-0.459050565958023,1.9247863292694087
1783197022651786200,7.8137861328125,1.6227615067161618,5.882091706711053,4.100294799423217,-5.134305000305176,-0.6291871666908264,2.0939512252807617
1783197022661723400,7.823723388671875,1.2522425793245433,5.581695970728993,3.1661434795081616,-5.293473720550537,-0.7180017828941345,2.191025257110596
1783197022671660500,7.83366064453125,0.6291416603967547,5.302465187850594,2.0276298629552123,-5.255239009857178,-0.7232285141944885,2.194568634033203
1783197022681597400,7.843597412109375,-0.1173397006146609,4.895436000315844,0.751571231496334,-4.988180160522461,-0.7036870121955872,2.1112239360809326
1783197022691534600,7.85353466796875,-0.8355566517807543,4.40300845695883,-0.7651070048958063,-4.563592433929443,-0.7388417720794678,2.0032918453216557
1783197022701471200,7.86347119140625,-1.5465522733911872,3.8861362081751225,-2.204503848686814,-4.125156402587891,-0.8997383117675781,1.9359571933746336
1783197022711408400,7.873408447265625,-2.066104555039108,3.158898330685496,-3.319665815746784,-3.6866493225097656,-1.147663116455078,1.894603610038757
1783197022721345500,7.883345458984375,-2.5537054088920352,2.2084049477785825,-4.242395577937365,-3.213740348815918,-1.4466760158538818,1.8090325593948364
1783197022731281400,7.893281494140625,-3.217538443441689,1.412848151822388,-5.059943548688292,-2.74316143989563,-1.7602171897888184,1.6607586145401
1783197022741218300,7.90321826171875,-3.976978508616984,0.757934629048407,-5.734281318378448,-2.3169898986816406,-2.038273811340332,1.4905965328216553
1783197022751155500,7.913155517578125,-4.473228532871604,-0.0534000201456248,-6.211655669510364,-2.0090131759643555,-2.2215538024902344,1.3474249839782717
1783197022761092400,7.92309228515625,-4.768766307428479,-0.8176825569160282,-6.418327412134409,-1.8437212705612185,-2.274631977081299,1.2752540111541748
1783197022771029500,7.933029541015625,-4.916009709528089,-1.4621993349686264,-6.359675901201367,-1.7719321250915527,-2.166133165359497,1.2873923778533936
1783197022780966400,7.94296630859375,-4.883359485813975,-2.287861054070294,-6.32997809755206,-1.7528295516967771,-1.8809497356414795,1.324735403060913
1783197022790903300,7.9529033203125,-4.936140058887005,-3.008573913705349,-6.478326246023178,-1.816694736480713,-1.4460941553115845,1.3169602155685425
1783197022800840400,7.96284033203125,-5.422310295414924,-3.3690444714218377,-6.590934972593188,-1.9823862314224243,-0.90886789560318,1.2359812259674072
1783197022810777300,7.97277734375,-6.147275259536505,-3.5296085428655144,-6.519400014689564,-2.17546820640564,-0.2984985411167145,1.0879970788955688
1783197022820713500,7.98271337890625,-6.762503253132104,-3.8608711262762543,-6.46200288773179,-2.329698085784912,0.2922796905040741,0.8867454528808594
1783197022830650400,7.992650390625,-7.166593172344565,-4.206198475396633,-6.574341565188766,-2.3916337490081787,0.7210544943809509,0.647964596748352
