time,seconds_elapsed,ax,ay,az,gx,gy,gz
1783196983946985500,0.1039853515625,0.0334074718222022,-0.0507546202033758,0.1609194607526063,-0.0245038568973541,-0.028371550142765,-0.0342051461338996
1783196983956923400,0.11392333984375,0.0494102198570966,-0.0772770086869597,0.1045885017216205,-0.0348289310932159,0.0029794482979923,-0.0353505723178386
1783196983966860500,0.123860595703125,-0.0051360477142035,-0.0565662290915846,0.1639952149361372,-0.0474425107240676,0.0520536378026008,-0.0273986961692571
1783196983976797700,0.133797607421875,-0.0694486531488597,0.0009130231916904,0.1727308945775032,-0.0662343055009841,0.0786905735731124,-0.0309377703815698
1783196983986734300,0.143734375,-0.0797765704177319,-0.0041366614133119,0.1066647234737873,-0.0912258550524711,0.1028931885957717,-0.0452158898115158
1783196983996671500,0.15367138671875,-0.0644688189096748,-0.056543140476942,0.0674836366862058,-0.104028470814228,0.1430299580097198,-0.0677701979875564
1783196984006608400,0.1636083984375,-0.0868172827094793,-0.0813952576607465,0.0525812511086463,-0.1031779795885086,0.2232419699430465,-0.0988410115242004
1783196984016545500,0.173545654296875,-0.2134295463211834,-0.0575049712464213,0.0250087690502405,-0.0948569327592849,0.3129473626613617,-0.1173491850495338
1783196984026482700,0.183482666015625,-0.2780943261943757,-0.0302227043062448,0.0793289727807045,-0.0819710791110992,0.3670426309108734,-0.1271976381540298
1783196984036419300,0.19341943359375,-0.1907495124794542,-0.0248532862275838,0.1276239248722791,-0.0603243708610534,0.3668029606342315,-0.1174214407801628
1783196984046356500,0.2033564453125,-0.0398451767195016,0.0145727152317762,0.1671323439180851,-0.00823565851897,0.3498512506484985,-0.0977580472826957
1783196984056293400,0.21329345703125,0.0559786384619772,0.0500283517554402,0.2084878521353006,0.0575572028756141,0.3439662158489227,-0.0804789289832115
1783196984066231600,0.2232314453125,0.0592360328227281,0.094503453297913,0.295347804942727,0.1240681111812591,0.3807994723320007,-0.055722925812006
1783196984076168400,0.23316845703125,0.0041516397867351,0.1092459721386432,0.4001636856794357,0.2154060155153274,0.4851727485656738,-0.0299259480088949
1783196984086105600,0.243105712890625,-0.1129747834034264,0.0467608743920922,0.3449392265856266,0.3556944727897644,0.7400020956993103,-0.0525839067995548
1783196984096042500,0.25304248046875,-0.4902426005333661,-0.0154287475392222,0.1296019469469785,0.4945634007453918,0.9480567574501038,-0.170562744140625
1783196984105979400,0.2629794921875,-1.1177081444114445,0.1391787535876035,0.0765951639026403,0.5884109139442444,0.9411441087722778,-0.2834967374801636
1783196984115916500,0.27291650390625,-1.425590875148028,-0.0022758359774947,-0.2302735674858093,0.6285202503204346,0.7631773352622986,-0.2294896990060806
1783196984125853400,0.282853515625,-1.2828557442530988,-1.0938523447886108,-0.3589811959415674,0.5792776346206665,0.5100439190864563,-0.0410439521074295
1783196984135790600,0.29279052734375,-0.8396227321758866,-1.77272571208179,-0.0122048170566558,0.4530693590641022,0.1857689172029495,0.2386750429868698
1783196984145727500,0.3027275390625,-0.6936989613074809,-2.0647329744249583,-0.0078232409715652,0.3134084045886993,-0.2359023690223693,0.5441402792930603
1783196984155665400,0.31266552734375,-0.5565845198385417,-2.563202136033773,-0.3024859862595796,0.2357458472251892,-0.7065537571907043,0.81075519323349
1783196984165602600,0.3226025390625,-0.392302158524096,-3.068262950992584,-0.8031997119247913,0.2565688490867615,-1.1029727458953855,1.03085458278656
1783196984175539500,0.33253955078125,-0.2040450473822653,-3.5145351846352217,-1.1377929010629653,0.1732840687036514,-1.4304001331329346,0.9667815566062928
1783196984185476600,0.3424765625,-0.1998345170151442,-3.4462983914941545,-1.5486130053132772,0.0859152451157569,-1.7192155122756958,0.8179782629013062
1783196984195413500,0.35241357421875,-0.4095695196673273,-2.926179708135128,-2.1994693616509435,0.127971351146698,-1.7382663488388062,0.70210862159729
1783196984205350400,0.362350341796875,-0.9591049977771936,-2.925744531588256,-3.065567136037349,0.2777153849601745,-1.4199867248535156,0.7441884279251099
1783196984215287600,0.37228759765625,-1.741875377396494,-3.3442107666775582,-4.161411239165068,0.5433409214019775,-1.343326449394226,0.7329757213592529
1783196984225224400,0.382224365234375,-2.345275862815231,-3.53634018920809,-5.537464614814519,0.9951601028442384,-0.8518246412277222,0.489742636680603
1783196984235161600,0.39216162109375,-3.164228293536603,-3.711672498455644,-7.154620995000005,1.556968092918396,0.0514476969838142,-0.1627387553453445
1783196984245098500,0.402098388671875,-2.427749563362449,-2.3328397212207315,-7.837912470996379,2.03372573852539,0.641690731048584,-0.8111224174499512
1783196984255036700,0.41203662109375,-2.3376443450234827,-0.464285736978054,-8.093301190516351,2.4335169792175293,0.5577214956283569,-0.8954911231994629
1783196984264973300,0.421973388671875,-2.070875130441785,-1.9133827215284107,-8.80159792843163,2.7324514389038086,0.2848415076732635,-0.8080430030822754
1783196984274910500,0.431910400390625,-1.1056871594890951,-1.8499287787497043,-7.513069106978177,2.918444871902466,-0.0684848576784133,-0.753978967666626
1783196984284847600,0.44184765625,-0.0688197075955569,-0.4446504776597023,-6.213726630565524,3.03954553604126,-0.5058317184448242,-0.6763851046562195
1783196984294784500,0.451784423828125,0.6593687486171722,0.0668535220891237,-5.1432233049213885,3.0687506198883057,-0.8921003341674805,-0.6085383892059326
1783196984304721700,0.4617216796875,0.9002418899200856,0.2054132669955491,-3.869003579327464,2.931949615478516,-1.1564408540725708,-0.5961293578147888
1783196984314658300,0.471658203125,1.0875623047336935,0.8304033606708049,-2.212720472890138,2.596099376678467,-1.3951226472854614,-0.5789344310760498
1783196984324595500,0.481595458984375,1.3298231010027228,1.445073720383644,-0.5296089807599783,2.158560514450073,-1.6309638023376465,-0.563476026058197
1783196984334532600,0.49153271484375,1.3420555367186664,2.0605361072570085,0.6759376061022281,1.7455486059188845,-1.61716890335083,-0.5705251097679138
1783196984344470500,0.501470458984375,1.1854478016853331,2.523306763496995,1.928429484012723,1.4163849353790283,-0.9794963598251344,-0.5070953965187073
1783196984354407400,0.511407470703125,0.8544362704262137,2.5947294931977987,2.820422162634134,1.2344720363616943,-0.4538689851760864,-0.4733658730983734
1783196984364344600,0.521344482421875,-0.056553515740484,3.542966621610522,2.4118057059079407,1.2346900701522827,-0.2330113649368286,-0.5571812987327576
1783196984374281500,0.531281494140625,-0.9430904131740332,4.986399589049816,1.589686189457774,1.2976951599121094,0.1113209798932075,-0.7519500255584717
1783196984384218400,0.54121826171875,-1.0739750934079288,5.846666757586598,1.881354429104924,1.313400387763977,0.4535843729972839,-0.9408840537071228
1783196984394155500,0.551155517578125,-0.4196072218179703,5.63459286365807,2.237632795828581,1.3203853368759155,0.6747124791145325,-1.0756964683532717
1783196984404092700,0.5610927734375,-0.142177789273113,5.0106087321549655,2.5745535511314865,1.3270988464355469,0.7389703392982483,-1.1769381761550903
1783196984414029600,0.571029541015625,0.1467152865722775,5.049366040572524,2.933663926410675,1.3426756858825684,0.7183244228363037,-1.271787405014038
1783196984423966500,0.580966552734375,0.4273396427009254,5.508210463279485,3.278874955675006,1.3467493057250977,0.8983358144760132,-1.395219087600708
1783196984433903400,0.5909033203125,0.9778875857889652,5.548730689716339,3.8328637599319215,1.382129192352295,0.8247891664505005,-1.3786276578903198
1783196984443841500,0.600841552734375,1.5514289395168424,5.170992770856619,3.891868322086334,1.3431878089904783,0.4675661623477936,-1.238925218582153
1783196984453778400,0.6107783203125,1.5436979068733752,5.699349705728888,3.931378494697809,1.2057774066925049,0.2622694671154022,-1.1320022344589231
1783196984463715600,0.620715576171875,1.7238389315769076,6.680736824071407,4.6895337807595725,1.040233135223389,0.173539713025093,-0.9745590686798096
1783196984473652500,0.630652587890625,2.177237217707187,6.669194270315766,5.514309364676476,0.840416669845581,0.0316539481282234,-0.7736379504203796
1783196984483589400,0.64058935546875,2.60811738255918,6.175578978478908,5.762673884648084,0.6195760369300842,-0.1876950412988662,-0.5652158260345459
1783196984493526500,0.650526611328125,2.87703252312839,6.009975159302353,5.870779454579949,0.4017121195793152,-0.3203388452529907,-0.3407504856586456
1783196984503463400,0.66046337890625,2.9073586878091096,6.255642110753059,6.06968173224628,0.1208882331848144,-0.4323448538780212,-0.0972259193658828
1783196984513400600,0.670400634765625,2.912543981492519,6.489752479922771,6.454788718569279,-0.2016562670469284,-0.4724696278572082,0.119124487042427
1783196984523338500,0.68033837890625,2.841426372218132,6.439966412490606,6.533516802847385,-0.596947193145752,-0.4648219048976898,0.3305034339427948
1783196984533275600,0.690275634765625,2.704560864008963,6.193389944979548,7.002305111941695,-1.0650180578231812,-0.3732213973999023,0.5241671204566956
1783196984543212300,0.70021240234375,2.295298218333721,6.051191551309824,7.183170797657966,-1.638813614845276,-0.2707201838493347,0.6909170746803284
1783196984553149400,0.7101494140625,1.977260296546668,5.909898582047224,7.489899828314781,-2.251159191131592,-0.2215420007705688,0.8325189352035522
1783196984563086600,0.720086669921875,1.5477052428185938,5.525457950678468,7.3236740778476,-2.833226442337036,-0.2191578298807144,0.9319007992744446
1783196984573023500,0.7300234375,1.088531442026794,5.144196533867716,7.0212629103899,-3.358405590057373,-0.2850108742713928,0.9857084155082704
1783196984582960600,0.739960693359375,0.580568402820453,4.898053781598806,6.5367591457694765,-3.804953813552856,-0.4177073538303375,1.021019697189331
1783196984592897500,0.7498974609375,0.0114176852669566,4.682496721729636,5.915203118196129,-4.163294792175293,-0.6830103993415833,1.0367927551269531
1783196984602834400,0.75983447265625,-0.4337850925132632,4.497227832618355,5.016448105832934,-4.48804235458374,-1.0852103233337402,1.0422708988189695
1783196984612772400,0.7697724609375,-0.699045217706263,4.190453209254145,3.8069127415955055,-4.670140743255615,-1.3631339073181152,1.0412938594818115
1783196984622709500,0.77970947265625,-0.8954415039010345,3.8135260222554206,2.361108368849754,-4.484003067016602,-1.2701292037963867,1.152549386024475
1783196984632646700,0.789646728515625,-0.4892331312298774,3.02489025773406,-0.5941717615634202,-4.326303958892822,-1.0039010047912598,1.2425261735916138
1783196984642583600,0.79958349609375,-1.0107245642468332,2.766271470251679,-1.1848954284995794,-4.112652778625488,-0.7414075136184692,1.2306456565856934
1783196984652520400,0.8095205078125,-1.3987800251118838,2.708708923599124,-2.93686067662537,-3.8686792850494394,-0.4342403709888458,1.2198777198791504
1783196984662457300,0.819457275390625,-1.6619478542007504,2.196056338337064,-4.209899083480239,-3.5710670948028564,-0.2075080126523971,1.206830382347107
1783196984672394500,0.82939453125,-1.8269396789588035,1.5420359650105238,-5.188301633054018,-3.233968496322632,-0.1324707865715026,1.1625629663467407
1783196984682331600,0.83933154296875,-1.7686099473260342,1.030785063239932,-6.003326222807169,-2.8691599369049072,-0.2098263651132583,1.1345958709716797
1783196984692268500,0.8492685546875,-1.4770926604568957,0.431657432834804,-6.612705490374565,-2.510303735733032,-0.4040072858333587,1.1424801349639893
1783196984702206700,0.859206787109375,-1.0666124556854366,-0.2883759201034903,-7.046494966802,-2.181532621383667,-0.6549674868583679,1.1797758340835571
1783196984712143400,0.869143310546875,-0.787170368143916,-0.9201724789232016,-7.161540565130114,-1.8940051794052124,-0.922436773777008,1.2104634046554563
1783196984722080500,0.87908056640625,-0.8177829485505819,-1.471120600309968,-7.154353283974528,-1.6295392513275146,-1.1620762348175049,1.177976369857788
1783196984732017400,0.889017333984375,-1.1561185390874742,-1.920521779628098,-7.202268296837806,-1.366891384124756,-1.2756789922714231,1.093341588973999
1783196984741954600,0.89895458984375,-1.5435525070533156,-2.2633678333267566,-7.201396774700283,-1.135467767715454,-1.2449283599853516,0.9761714935302734
1783196984751891700,0.9088916015625,-1.8492524869233369,-2.500501349709928,-7.099840188020467,-0.9417288899421692,-1.091732382774353,0.853533148765564
1783196984761828400,0.918828369140625,-2.086796922194958,-2.7087656222224235,-6.983555403286219,-0.7700091600418091,-0.8297036290168762,0.7277165651321411
1783196984771765500,0.928765625,-2.206794882233441,-2.9566137171044944,-6.807282306057214,-0.629625678062439,-0.4814734756946563,0.606838583946228
1783196984781702400,0.938702392578125,-2.239978189910948,-3.1020018467262385,-6.5920818045407525,-0.5034227967262268,-0.1384985297918319,0.5160021185874939
1783196984791640600,0.948640625,-2.1042238578140733,-3.09488383141458,-6.395064609968662,-0.3764975666999817,0.1346991807222366,0.4697251915931701
1783196984801577500,0.958577392578125,-1.7893606205403805,-3.277154123231768,-6.232012228840589,-0.2581262290477752,0.3303112089633941,0.4577213227748871
1783196984811514600,0.9685146484375,-1.5021677727416156,-3.5432755414292214,-5.993725450769066,-0.174516275525093,0.4279847741127014,0.442664086818695
1783196984821451500,0.978451416015625,-1.3889917676776646,-3.6862533950388423,-5.649522721764445,-0.0828082263469696,0.451299786567688,0.3895114362239837
1783196984831388400,0.988388427734375,-1.410721953448653,-3.7748102148920295,-5.375149900311231,0.06217772513628,0.4217232763767242,0.303495317697525
1783196984841325600,0.99832568359375,-1.5085560124740005,-3.789256088873744,-5.212918772438168,0.255340039730072,0.3462255001068115,0.2026668190956115
1783196984851262500,1.008262451171875,-1.5661860714048146,-3.609125439433753,-5.076830386081338,0.4640676975250244,0.2260623276233673,0.080001100897789
1783196984861199600,1.01819970703125,-1.5152081638395785,-3.4069267505705354,-4.932261171627045,0.6901681423187256,0.1353843808174133,-0.0216778516769409
1783196984871137500,1.028137451171875,-1.315543377368152,-3.249349001461267,-4.652594919940829,0.7572894096374512,-0.1161927208304405,-0.0544957183301448
1783196984881074400,1.038074462890625,-0.7291659229427576,-3.102429716749489,-3.798563430923224,0.7892608046531677,-0.2737095654010772,0.0250691026449203
1783196984891011600,1.048011474609375,-0.1533645153284072,-3.225326905360818,-3.6445074261993167,0.8200230002403259,-0.3296697437763214,0.0901194736361503
1783196984900948500,1.057948486328125,-0.1340425597429275,-2.958945667183399,-3.4496412721812724,0.8785630464553833,-0.3006647229194641,0.0974069759249687
1783196984910886400,1.067886474609375,-0.3042740387201309,-2.5811750150978563,-3.618139643755555,0.9634404182434082,-0.1929952353239059,0.0879796519875526
1783196984920823300,1.0778232421875,-0.4516527576372027,-2.4532599983245134,-3.89016034912467,1.1025019884109497,-0.0198457762598991,0.0531059280037879
1783196984930760400,1.087760498046875,-0.6958312240958213,-2.2172730216279626,-4.371952516698837,1.2536810636520386,0.1138933822512626,0.0175308901816606
1783196984940697300,1.097697265625,-0.9216875596612693,-1.91294579141587,-4.886008539018035,1.3030691146850586,0.1759351789951324,0.021084101870656
1783196984950634500,1.107634521484375,-0.9350964918106792,-1.6650225854709744,-5.034152104827761,1.3493199348449707,0.2377668470144271,0.04317182675004
1783196984960572400,1.117572509765625,-0.8138780500665307,-1.555868383269012,-5.139700976014137,1.5009665489196775,0.2960878014564514,0.0801772102713584
1783196984970509300,1.12750927734375,-0.6000616963848471,-1.3703902353212236,-5.499558954790234,1.717769980430603,0.29558926820755,0.1673424839973449
1783196984980446500,1.137446533203125,-0.3584194704055786,-1.0605483333408832,-5.6575482073098415,1.8099055290222168,0.1466970890760421,0.2865654826164245
1783196984990383400,1.14738330078125,-0.187063663573563,-1.0610112746775149,-5.403417378896474,1.8961730003356931,-0.008158010430634,0.3636839687824249
1783196985000320500,1.157320556640625,-0.1662891710922122,-0.7008493445187807,-5.201300815358758,2.102663040161133,-0.1161481291055679,0.3614676892757416
1783196985010257400,1.16725732421875,-0.4937964936226606,-0.3367521207377314,-5.52213435921371,2.405406951904297,-0.0576994642615318,0.2820620834827423
1783196985020194300,1.1771943359375,-0.9778928464859724,0.0548147092491388,-5.612281078606844,2.7023794651031494,0.0736329182982444,0.1605602800846099
1783196985030131500,1.18713134765625,-1.2964546460166573,0.6482736463680863,-5.168767496022582,2.9290201663970947,0.1832028180360794,0.035374391824007
1783196985040069400,1.1970693359375,-1.3590864587575195,1.1681509221866726,-4.359747699642181,3.073447227478028,0.2178221195936203,-0.0801784470677375
1783196985050006300,1.20700634765625,-1.2221072610408068,1.6341642136096954,-3.2163211766064164,3.1321358680725098,0.1790989488363266,-0.1884980052709579
1783196985059943400,1.216943359375,-1.0176295213297009,2.0209008469611405,-1.9640256980508568,3.1080193519592285,0.1204152777791023,-0.2717787325382232
1783196985069880600,1.226880615234375,-0.6969622739523649,2.3078730377465484,-0.7494798121750355,3.046107053756714,0.0638476088643074,-0.3297208547592163
1783196985079817200,1.236817138671875,-0.3794517370402813,2.6043641675055027,0.2866138788670301,2.9634478092193604,0.0125149739906191,-0.3649663627147674
1783196985089754400,1.24675439453125,-0.0596001899600028,2.937041293889284,1.1020984873473645,2.8709876537323,-0.031126245856285,-0.3807493150234222
1783196985099691300,1.256691162109375,0.2728548181056976,3.286637990891933,1.8193237971276044,2.758711099624634,-0.0792012140154838,-0.393992930650711
1783196985109628400,1.26662841796875,0.5777616017714142,3.5199434734195467,2.413807108858228,2.5906126499176025,-0.1273208111524582,-0.418393075466156
1783196985119565600,1.276565673828125,0.7959592392772435,3.6345062566667794,2.957120205321908,2.3473317623138428,-0.1281003504991531,-0.4426734149456024
1783196985129503500,1.28650341796875,0.908571472978592,3.778783794698119,3.51258901900351,2.087639570236206,-0.0507695972919464,-0.4646868407726288
1783196985139440400,1.2964404296875,0.9131149616271256,3.970842490079999,3.933594417181611,1.837008357048035,0.0811083987355232,-0.4897229373455047
1783196985149377300,1.306377197265625,0.8239151676952838,4.230145168173313,4.124055029717088,1.5970665216445925,0.2266323119401931,-0.5126239657402039
1783196985159314400,1.316314453125,0.8370870762184262,4.476039498639106,4.304744774344563,1.3732322454452517,0.3419215381145477,-0.5302759408950806
1783196985169251300,1.326251220703125,0.9545300910770892,4.613520216137171,4.48638378252089,1.1799296140670776,0.3958998024463653,-0.5288165211677551
1783196985179188500,1.3361884765625,1.167853692805767,4.6645033843994135,4.609879813808202,1.0087143182754517,0.3925845921039581,-0.5127825736999512
1783196985189125400,1.34612548828125,1.3416972248002883,4.756241756898165,4.72342669801116,0.8379423022270203,0.3558326959609985,-0.4916131198406219
1783196985199062300,1.356062255859375,1.4290490527778863,4.892590840017795,4.909222241345048,0.6813164949417114,0.3282214403152466,-0.4686378240585327
1783196985209000400,1.36600048828125,1.523368966202438,5.0645168479532,5.17630549031198,0.5434017777442932,0.2998273372650146,-0.4467445015907287
1783196985218937300,1.375937255859375,1.6151152297466993,5.257365232408047,5.381801174893975,0.4016781151294708,0.2616485953330993,-0.4159609079360962
1783196985228874500,1.38587451171875,1.769049069395661,5.4611856772542,5.602704271966219,0.2419465184211731,0.2252498269081115,-0.3758651614189148
1783196985238811400,1.395811279296875,1.9611054266899823,5.587734081849455,5.880048218184709,0.0598562285304069,0.216509073972702,-0.3195449411869049
1783196985248748300,1.405748291015625,2.1373571888700127,5.696330650168657,6.20366174814701,-0.1444668173789978,0.2071957290172577,-0.2432498782873153
1783196985258685400,1.415685546875,2.283892881091684,5.773867478835583,6.507053158813714,-0.3697072267532348,0.1692356020212173,-0.1670522093772888
1783196985268622300,1.425622314453125,2.384098053162545,5.720078605502843,6.763595724543928,-0.6252695322036743,0.0824764817953109,-0.1026391312479972
1783196985278559500,1.4355595703125,2.2596941132500765,5.617319657295942,6.974113621202111,-0.9418255686759948,0.0317805781960487,-0.0206121038645505
1783196985288497400,1.445497314453125,2.2764299978651104,5.689146876144409,7.202572832742333,-1.3193931579589844,0.0342099145054817,0.1016008928418159
1783196985298434600,1.4554345703125,2.4242248963676394,5.58337939377129,7.359875856563448,-1.7244094610214231,0.0497503317892551,0.2166061848402023
1783196985308371200,1.46537109375,2.2867830495752397,5.379195960831642,7.301266431206464,-2.1272048950195312,0.0591350421309471,0.3047847747802734
1783196985318308400,1.475308349609375,1.965917503146827,5.420340456646681,7.167763385167717,-2.553884267807007,0.0408104881644248,0.3764539062976837
1783196985328245500,1.48524560546875,1.747719281119108,5.529046915081143,6.937804874980449,-2.9943597316741943,0.0467826277017593,0.4441056549549103
1783196985338182400,1.495182373046875,1.5825430397048592,5.429359044882655,6.677794340878725,-3.3696653842926025,0.0076275453902781,0.5296408534049988
1783196985348119600,1.50511962890625,1.428852068901062,5.042610136571526,6.079128190505505,-3.657305002212525,-0.1121944636106491,0.6171882748603821
1783196985358056200,1.51505615234375,1.0713719251722096,4.631708783778548,5.029749485954642,-3.826251745223999,-0.2604445815086365,0.6811069846153259
1783196985367994400,1.524994384765625,0.6152835231751204,4.403018686091899,3.7569992483913897,-3.852022171020508,-0.405243843793869,0.7295005917549133
1783196985377931300,1.53493115234375,0.1423456931859254,4.271159900128841,2.303672663447261,-3.769392251968384,-0.5544492602348328,0.7403330206871033
1783196985387868400,1.544868408203125,-0.4096750258684158,4.042770246693491,0.7158405774235725,-3.63448429107666,-0.6317800283432007,0.7107911109924316
1783196985397805600,1.5548056640625,-0.8246078261345624,3.642546355259418,-0.3880453778624534,-3.525449752807617,-0.6799574494361877,0.6835570335388184
1783196985407742500,1.564742431640625,-1.1419307315200566,2.936604948298633,-1.1499801824629303,-3.436830997467041,-0.6527628898620605,0.6794677376747131
1783196985417679400,1.574679443359375,-1.3705503943189978,2.202672541606426,-1.9147072481304408,-3.286193370819092,-0.6082974672317505,0.6918685436248779
1783196985427616300,1.5846162109375,-1.5210343857750297,1.629724185335636,-2.860298245948553,-3.060097932815552,-0.6465545892715454,0.7111804485321045
1783196985437553400,1.594553466796875,-1.5885089623719453,0.9972884518295526,-4.04639077527821,-2.78596568107605,-0.7417028546333313,0.7420375347137451
1783196985447491300,1.6044912109375,-1.5267548092484473,0.296039878860116,-5.124680517014861,-2.49651837348938,-0.8681029081344604,0.7830142974853516
1783196985457428500,1.614428466796875,-1.5648758655890822,-0.3366717489778995,-5.921589604362845,-2.222969055175781,-0.9900376200675964,0.825767457485199
1783196985467365400,1.624365478515625,-1.7108397492721676,-0.9536471707627177,-6.500841444692015,-1.990278244018555,-1.065364122390747,0.8702046871185303
1783196985477302300,1.63430224609375,-1.9021406120240687,-1.595086002674699,-6.95158731661737,-1.7930753231048584,-1.058983564376831,0.90008944272995
1783196985487239400,1.644239501953125,-2.1699337628260253,-2.2238997462913392,-7.240659694552421,-1.59935462474823,-0.9828363060951232,0.8809754252433777
1783196985497176300,1.65417626953125,-2.547127784067392,-2.7207462751343843,-7.509293095570802,-1.4074487686157229,-0.8476701974868774,0.8100110292434692
1783196985507113500,1.664113525390625,-2.949734771245718,-3.1556168247967955,-7.8098302858501665,-1.2008413076400757,-0.6694291234016418,0.686077356338501
1783196985517050400,1.67405029296875,-3.267343507835269,-3.5350822981014844,-8.045638691109419,-0.9716795682907104,-0.4989036321640014,0.5278385877609253
1783196985526988300,1.68398828125,-3.393275241836905,-3.8234868597775695,-8.20477536009848,-0.736664891242981,-0.3595582246780395,0.3940187096595764
1783196985536925400,1.693925537109375,-3.25657164619118,-4.066003822764754,-8.205871338641643,-0.5132363438606262,-0.2525098919868469,0.2997373342514038
1783196985546862300,1.7038623046875,-2.9903461830973623,-4.276836776721478,-8.060345846375823,-0.2904256880283355,-0.1638244986534118,0.2385802567005157
1783196985556799500,1.713799560546875,-2.782567063753307,-4.387770848077535,-7.831173518130183,-0.0760688483715057,-0.0995955765247345,0.1776543259620666
1783196985566736400,1.723736328125,-2.724928529255092,-4.386487238007784,-7.589502942839265,0.1342550963163375,-0.0591517463326454,0.1173771396279335
1783196985576673300,1.73367333984375,-2.7120176097556947,-4.407788676972687,-7.331843940299749,0.3332058787345886,-0.0558065026998519,0.0487526394426822
1783196985586610400,1.7436103515625,-2.713193960058689,-4.44697590124011,-7.066148346298933,0.5174505710601807,-0.0668349266052246,-0.0379367135465145
1783196985596548400,1.75354833984375,-2.763437708130479,-4.383879685857892,-6.809319949364662,0.698585033416748,-0.0554852522909641,-0.1571021080017089
1783196985606485200,1.7634853515625,-2.8219842973843217,-4.232980099338293,-6.531178130766749,0.8816674947738647,-0.0122775947675108,-0.289653480052948
1783196985616422400,1.77342236328125,-2.836445076674223,-4.048351553957164,-6.290003814560174,1.0659714937210083,0.0275530442595481,-0.398368775844574
1783196985626359600,1.783359619140625,-2.798052217654884,-3.720755968621373,-6.110650871494412,1.2056995630264282,0.0208727717399597,-0.4731045365333557
1783196985636296200,1.793296142578125,-2.695337985372543,-3.300003083899617,-5.972628302204608,1.3079277276992798,-0.0299387369304895,-0.5232452154159546
1783196985646233300,1.8032333984375,-2.494617552368343,-2.994670476037264,-5.93834667789638,1.4020707607269287,-0.051601693034172,-0.5564817190170288
1783196985656170500,1.81317041015625,-2.368815289965272,-2.691545315091312,-6.0088505391865965,1.538742184638977,-0.0221334211528301,-0.6047720313072205
1783196985666108400,1.8231083984375,-2.328895659770071,-2.3308345188781616,-6.1649190527766935,1.69524347782135,0.0419227927923202,-0.673478901386261
1783196985676045300,1.83304541015625,-2.3501930070817467,-1.8765034819424151,-6.369030589523911,1.8611505031585691,0.1650412082672119,-0.7565073370933533
1783196985685982500,1.842982421875,-2.3696382967859506,-1.3121075577005743,-6.437108100450039,2.064047574996948,0.3327428698539734,-0.8382741212844849
1783196985695919400,1.85291943359375,-2.321555818401277,-0.7835390259042382,-6.341603653416037,2.290062665939331,0.4929704368114471,-0.9199234843254088
1783196985705856300,1.862856201171875,-2.2490002852782607,-0.247344529274106,-6.087862116581201,2.5050694942474365,0.5939985513687134,-0.9812635183334352
1783196985715793400,1.87279345703125,-2.085124605068564,0.3335942412286997,-5.623977361619472,2.701365232467652,0.6606619358062744,-1.016982913017273
1783196985725730300,1.882730224609375,-1.8346552217721936,0.8589487794145941,-4.95707295680046,2.8765974044799805,0.6880291104316711,-1.0410076379776
1783196985735667500,1.89266748046875,-1.5702452836677432,1.4133604852586985,-4.186653816971183,3.016021490097046,0.6566978096961975,-1.0624743700027466
1783196985745605400,1.90260546875,-1.3192483693659305,1.9028297633320093,-3.245644301724434,3.093260765075684,0.580449104309082,-1.095166563987732
1783196985755542300,1.912542236328125,-1.071628530281782,2.263786058738828,-2.259488653805852,3.125222682952881,0.4945223331451416,-1.1384423971176147
1783196985765479400,1.9224794921875,-0.8874415911883116,2.6179689144879577,-1.28407534917593,3.1300506591796875,0.43236044049263,-1.1921099424362185
1783196985775416300,1.932416259765625,-0.762660488526523,3.0727123316168785,-0.3578817102670669,3.109724521636963,0.3813506364822387,-1.2490639686584473
1783196985785353500,1.942353515625,-0.5614747760981321,3.5220278784781693,0.4667535883963107,3.067228078842163,0.3347964584827423,-1.3013197183609009
1783196985795290400,1.952290283203125,-0.2788987744450569,3.911037132936716,1.2595423809438944,2.9713737964630127,0.2873895466327667,-1.3602008819580078
1783196985805227300,1.962227294921875,-0.0176101832315325,4.265723262032866,2.1055945616453884,2.8208978176116943,0.2370944172143936,-1.4184879064559937
1783196985815164400,1.972164306640625,0.2144254254907369,4.621617597874999,3.0482915915876627,2.5770528316497803,0.1603019386529922,-1.4801454544067385
1783196985825102300,1.982102294921875,0.5085141702830791,4.874692195233703,3.992321331438422,2.2643654346466064,0.0979597270488739,-1.52100932598114
1783196985835039500,1.99203955078125,0.855690946662426,5.002434193527698,4.909363111120462,1.904902100563049,0.0723350271582603,-1.5054200887680054
1783196985844976400,2.001976318359375,1.2631225775182249,5.0428328394114965,5.531959587657451,1.526328206062317,0.0978947132825851,-1.4333720207214355
1783196985854913500,2.01191357421875,1.6264530547104774,5.078087108144164,5.876236550942063,1.1685246229171753,0.1778420507907867,-1.3245044946670532
1783196985864850200,2.02185009765625,1.9241925770953296,5.124064430943132,5.977412613871693,0.8682829737663269,0.2860899567604065,-1.1933475732803345
1783196985874787300,2.031787353515625,2.124135303725302,5.183256040102243,5.837279920560121,0.6465933322906494,0.4067180454730987,-1.048235297203064
1783196985884724500,2.041724365234375,2.2338195211507377,5.360673631191253,5.615732680365443,0.5302848219871521,0.5660326480865479,-0.8540002107620239
1783196985894662400,2.051662353515625,2.6667823374956843,5.5874576029956335,5.345867691725492,0.4862430095672607,0.6477333307266235,-0.6342646479606628
1783196985904598800,2.061598876953125,2.8426562062740324,5.149856459325552,5.228707877722382,0.4601437747478485,0.598607063293457,-0.5133864283561707
1783196985914535400,2.071535400390625,2.5239511988803742,5.413172464713454,5.254819055056571,0.3989500701427459,0.4911143779754638,-0.4274508357048034
1783196985924472600,2.08147265625,2.4066437931001183,5.967505552363395,5.55018205756843,0.2765093743801117,0.3706747889518738,-0.3375068306922912
1783196985934409700,2.09140966796875,2.4693524704694747,6.107473410502076,6.058796765616536,0.0806330740451812,0.2566032111644745,-0.2487242966890335
1783196985944346600,2.1013466796875,2.620533212018013,6.130519939568639,6.520122483745217,-0.1700721085071563,0.1332961618900299,-0.1508829593658447
1783196985954283800,2.11128369140625,2.763972545659542,6.131593706279992,6.875775412046909,-0.482977956533432,0.0261908061802387,-0.0284770559519529
1783196985964221700,2.1212216796875,2.925347641225159,6.128026369187236,7.087330250537395,-0.8740602135658264,-0.0400097891688346,0.1326140910387039
1783196985974158600,2.13115869140625,3.0788293531924484,6.091465694031119,7.2213447532296176,-1.328690528869629,-0.0583241730928421,0.3134430646896362
1783196985984095500,2.141095458984375,3.127814917896688,6.086168172144889,7.257676880326866,-1.816817283630371,-0.0285670794546604,0.4911730885505676
1783196985994032600,2.15103271484375,3.017895284280181,6.113208739283681,7.144010753658414,-2.329766273498535,0.0498138144612312,0.6333487629890442
1783196986003969800,2.1609697265625,2.715226050408184,6.124565999600291,6.852320886701345,-2.8133792877197266,0.1530057191848755,0.7288638353347778
1783196986013906700,2.17090673828125,2.359327330651879,6.106171095731854,6.358799702888727,-3.210480213165283,0.2342529296875,0.7908316850662231
1783196986023843600,2.180843505859375,1.9819347180984916,5.982586801639199,5.627434808596968,-3.470942258834839,0.2721326649188995,0.8301428556442261
1783196986033780500,2.190780517578125,1.589506302846223,5.752917045265436,4.644283018669486,-3.519917249679565,0.2963426411151886,0.8778305053710938
1783196986043718700,2.20071875,1.3049116548471151,5.465760145562887,3.39211028971076,-3.353651285171509,0.3397939801216125,0.9713250398635864
1783196986053655600,2.210655517578125,1.2843198254562913,4.964974523705243,1.811543810775876,-3.1602020263671875,0.2505423724651336,1.0099191665649414
1783196986063592700,2.2205927734375,0.7195056758023798,4.73504407056868,1.4421563716322183,-2.930023670196533,0.090101845562458,1.016505479812622
1783196986073529600,2.230529541015625,0.533266626484692,4.37899542094767,0.7240893503308296,-2.783443689346313,-0.1423664540052414,1.014411687850952
1783196986083466500,2.240466552734375,0.1602769250653684,3.800981013458967,0.6634042877435684,-2.746431350708008,-0.3902374804019928,1.0135895013809204
1783196986093403600,2.250403564453125,-0.2472247022867202,3.322032544878125,0.7103373038321733,-2.755006790161133,-0.6415079832077026,1.0066124200820925
1783196986103340500,2.260340576171875,-0.509027380502224,2.814152580845356,0.597557312348485,-2.754739999771118,-0.9175222516059875,1.0040695667266846
1783196986113278700,2.27027880859375,-0.7264934888631105,2.223983917443454,0.1790858165621757,-2.740478038787842,-1.183103322982788,1.0101447105407717
1783196986123215600,2.280215576171875,-0.9367129870966076,1.6947832252234218,-0.4234779257714748,-2.712315797805786,-1.3690953254699707,1.026251196861267
1783196986133152800,2.29015283203125,-1.1035919407755137,1.1925871520459652,-1.0296201111137866,-2.669308662414551,-1.4470149278640747,1.0446032285690308
1783196986143089400,2.30008935546875,-1.3296119424700736,0.6888169614195824,-1.661022994440794,-2.6084227561950684,-1.4170376062393188,1.058735489845276
1783196986153026600,2.310026611328125,-1.6392200356945394,0.2387894668966531,-2.2728367956787348,-2.5548994541168213,-1.3313729763031006,1.0545545816421509
1783196986162963700,2.319963623046875,-1.996440067182481,-0.2300657699540257,-2.8861481419980524,-2.5215392112731934,-1.18760085105896,1.0251556634902954
1783196986172900600,2.329900634765625,-2.3260811868712303,-0.640560587772727,-3.4825101070821285,-2.4564030170440674,-1.0181595087051392,0.992193341255188
1783196986182838800,2.3398388671875,-2.529869775274396,-1.0277125239267946,-4.159174858415127,-2.317002534866333,-0.8526243567466736,0.9681612253189088
1783196986192775700,2.349775634765625,-2.6003756823912263,-1.5173707487009465,-4.930801620468497,-2.0844480991363525,-0.7685370445251465,0.9463843703269958
1783196986202712600,2.359712646484375,-2.633129074218869,-1.9764805443458255,-5.728118119573593,-1.8352817296981807,-0.8065534234046936,0.9394721388816832
1783196986212649500,2.3696494140625,-2.583155959782004,-2.4553578473865985,-6.358640128412842,-1.606282114982605,-0.9179025888442992,0.9596956968307496
1783196986222586600,2.379586669921875,-2.528869658321142,-2.930056257307529,-6.727581577354669,-1.421566605567932,-1.0541383028030396,0.9819331169128418
1783196986232523800,2.389523681640625,-2.6984537793055177,-3.317785408827662,-7.06132370262146,-1.2615128755569458,-1.1234121322631836,0.9628777503967284
1783196986242460700,2.399460693359375,-3.101838765119016,-3.650721478408575,-7.415466810882091,-1.0897496938705444,-1.0947805643081665,0.9077370166778564
1783196986252398800,2.40939892578125,-3.5511312233656644,-4.1113688588842745,-7.934673055571317,-0.8841938972473145,-0.9562875032424928,0.8026087284088135
1783196986262335500,2.41933544921875,-4.0594162610679865,-4.443315332905948,-8.504082131800056,-0.6172551512718201,-0.7334970831871033,0.6598939299583435
1783196986272272600,2.429272705078125,-4.5234664357244965,-4.590184933257103,-8.896091737118363,-0.3272839784622192,-0.5303819179534912,0.4832834303379059
1783196986282209500,2.43920947265625,-4.828158407595754,-4.716477901786566,-9.132265468558668,-0.040739819407463,-0.3837783336639404,0.2820030450820923
1783196986292146700,2.449146728515625,-4.970997437256575,-4.760927576626837,-9.225989461916685,0.2595192492008209,-0.2517763674259186,0.0645404756069183
1783196986302083800,2.459083740234375,-5.0736190228194,-4.669236258140206,-9.223830238056182,0.555884599685669,-0.154867947101593,-0.1579834073781967
1783196986312020500,2.4690205078125,-4.980208333194256,-4.490290726831555,-9.090193921026588,0.8207446336746216,-0.1028926372528076,-0.3487312793731689
1783196986321958700,2.478958740234375,-4.597168508534133,-4.290813864147663,-8.764977632042765,1.0754845142364502,-0.0841069668531417,-0.4939355850219726
1783196986331895600,2.4888955078125,-4.073236988888681,-4.017550465241074,-8.36481160827577,1.3096303939819336,-0.1078186333179473,-0.6068000197410583
1783196986341832700,2.498832763671875,-3.633946576957405,-3.670818510019779,-7.984502377623319,1.5110477209091189,-0.1563227772712707,-0.6930246353149414
1783196986351769600,2.50876953125,-3.293699307580292,-3.3204636881262064,-7.630006802663207,1.683057188987732,-0.1705400049686432,-0.7647578120231628
1783196986361706800,2.518706787109375,-3.074888214351237,-2.943367282040417,-7.294910924699902,1.852150082588196,-0.1414247304201126,-0.841849684715271
1783196986371643600,2.5286435546875,-2.9325273235961795,-2.5054908285602924,-7.0182882784932845,2.006740093231201,-0.0621093213558197,-0.9288920164108276
1783196986381580500,2.53858056640625,-2.874135340382159,-2.0082611456185577,-6.759559600895643,2.145637035369873,0.0766618773341178,-1.0352455377578735
1783196986391518700,2.548518798828125,-2.826315896847844,-1.4371709844350813,-6.3766258669584985,2.2805440425872803,0.2239736765623092,-1.1402530670166016
1783196986401455600,2.55845556640625,-2.655164964938164,-0.9028764762073754,-5.951854394245148,2.419377088546753,0.3542723059654236,-1.2305216789245603
1783196986411392800,2.568392822265625,-2.4163719909101724,-0.3647390288159251,-5.467340692752599,2.547422170639038,0.4674195647239685,-1.2984638214111328
1783196986421329700,2.57832958984375,-2.2052339165270327,0.2340446104571223,-4.89869792472124,2.6721386909484863,0.5218399167060852,-1.3544669151306152
1783196986431266600,2.5882666015625,-1.9449375512212517,0.7917316847100854,-4.2618437902510165,2.797694683074951,0.525761067867279,-1.397679090499878
1783196986441203700,2.59820361328125,-1.584195483087003,1.269253919880092,-3.5905811902225016,2.9338858127593994,0.4615730345249176,-1.4339814186096191
1783196986451140600,2.608140625,-1.2185229728132485,1.7245944261193271,-2.8818758715063333,3.061972618103028,0.3555774688720703,-1.4488730430603027
1783196986461078500,2.61807861328125,-0.8337403961390256,2.2353210117548703,-2.069476369559765,3.1134533882141118,0.1930690109729766,-1.444778323173523
1783196986471015700,2.628015625,-0.4407067084699869,2.7104496297866105,-1.161307632163167,3.0742483139038086,0.0406427010893821,-1.4400893449783323
1783196986480952800,2.637952880859375,-0.0945896702766418,3.045580579063296,-0.2736258024781942,2.981482982635498,-0.0303760822862386,-1.4540749788284302
1783196986490889500,2.647889404296875,0.0869175282135605,3.3310189844101665,0.4908949269622564,2.8598103523254395,-0.0139417815953493,-1.4745744466781616
1783196986500826600,2.65782666015625,0.1674205132097005,3.6618075205683702,1.094113333812356,2.7344777584075928,0.091807022690773,-1.5004733800888062
1783196986510763500,2.667763427734375,0.2617190915852785,3.9950241606563326,1.5435925468027591,2.5973458290100098,0.223972201347351,-1.5166258811950684
1783196986520700700,2.67770068359375,0.4344888568684458,4.3465263990193606,1.898192166659236,2.446702480316162,0.3468813598155975,-1.5041415691375732
1783196986530638600,2.687638671875,0.7491533566996454,4.597169385316968,2.262380868116021,2.2777674198150635,0.4442663490772247,-1.4634109735488892
1783196986540575700,2.69757568359375,1.118235383155942,4.792707739508152,2.7091689423263072,2.090076446533203,0.4787231087684631,-1.3940761089324951
1783196986550512600,2.7075126953125,1.461134920607507,4.955733232629298,3.115691641643643,1.888461232185364,0.4710249900817871,-1.3004941940307615
1783196986560449500,2.717449462890625,1.7569050426155328,5.07203146136701,3.4538241108238696,1.6851423978805542,0.4459592998027801,-1.2030049562454224
1783196986570386700,2.72738671875,2.0162030445337296,5.098151991051435,3.71981138124764,1.4909368753433228,0.4093779027462005,-1.1057788133621216
1783196986580323600,2.737323486328125,2.197879754371941,5.149551923421025,3.882564487168193,1.3182108402252195,0.3715684711933136,-1.0005488395690918
1783196986590260700,2.7472607421875,2.2985031518548724,5.219900886410475,3.974721961861849,1.1788266897201538,0.3310434222221374,-0.9069822430610656
1783196986600198700,2.75719873046875,2.445896776080132,5.317418426832557,4.00366456322968,1.0862510204315186,0.2896240651607513,-0.806023895740509
1783196986610135600,2.767135498046875,2.592674314233661,5.3345209528028965,4.008160121083259,0.9998981952667236,0.2785259187221527,-0.6885474920272827
1783196986620072700,2.77707275390625,2.688145151259005,5.367570404967665,4.1789807981252665,0.8903152346611023,0.2870091497898102,-0.5663169026374817
1783196986630009600,2.787009521484375,2.754544792100787,5.547957367256283,4.567141326799988,0.7705851793289185,0.2766173779964447,-0.4295441508293152
1783196986639946800,2.79694677734375,2.8662109771236777,5.671234202834963,4.949038118904829,0.6254319548606873,0.2449609190225601,-0.2870176434516907
1783196986649883600,2.806883544921875,3.0145944891691205,5.624492325404286,5.297077065071464,0.4405098855495453,0.1758657544851303,-0.1407466977834701
1783196986659820500,2.816820556640625,3.119012310498953,5.611577314251661,5.660456203711033,0.2110167443752288,0.0949530452489852,-0.0048690121620893
1783196986669758500,2.826758544921875,3.169976481799781,5.619305278155207,6.026880701395869,-0.0422514975070953,0.0164561718702316,0.0846868231892585
1783196986679695600,2.836695556640625,2.937773699817061,5.6096495610594745,6.287310922214388,-0.3173933029174804,-0.0610711127519607,0.2065179198980331
1783196986689632800,2.8466328125,2.999182692764699,5.622038502511382,6.4886757906019685,-0.6418808102607727,-0.1252788752317428,0.3686111569404602
1783196986699569700,2.856569580078125,3.3368566045224664,5.5664837885499,6.749970519295334,-0.9964492321014404,-0.2014948278665542,0.5804196000099182
1783196986709506800,2.8665068359375,3.508507302647829,5.3130701684951775,6.783091867652535,-1.3765002489089966,-0.282220184803009,0.7981529831886292
1783196986719443500,2.876443359375,3.392806455281377,5.070376679897308,6.677661069887876,-1.7363958358764648,-0.3327328562736511,0.9735498428344728
1783196986729380600,2.886380615234375,3.047231561140716,5.118634807109832,6.476005694121122,-2.012303113937378,-0.322033017873764,1.1042581796646118
1783196986739318500,2.896318603515625,2.699497735400498,5.238514401465654,5.929891568762064,-2.192673921585083,-0.3052380681037903,1.2088525295257568
1783196986749255700,2.906255615234375,2.3860116316989064,5.130851899126172,5.162928122344613,-2.271433115005493,-0.2602987587451935,1.2516567707061768
1783196986759192800,2.91619287109375,2.061195447948575,5.141107920202613,4.7962353291124105,-2.3054332733154297,-0.2698219418525696,1.2459114789962769
1783196986769129500,2.92612939453125,1.8132810098320244,5.149903805598616,4.438996008402109,-2.359616994857788,-0.3331284821033478,1.2203489542007446
1783196986779066600,2.936066650390625,1.4718535907596348,5.077209156265854,4.374343795749545,-2.5269010066986084,-0.5091341137886047,1.201716661453247
1783196986789003500,2.94600341796875,1.2000757542356848,4.950478965362906,4.364969233682752,-2.7346622943878174,-0.6949272155761719,1.2252908945083618
1783196986798941700,2.955941650390625,1.0374591341763737,4.575478947034478,4.116488978376984,-2.8988115787506104,-0.8953878879547119,1.2851999998092651
1783196986808878600,2.965878662109375,0.7460802328646182,4.177289776298403,3.3967397030770776,-3.028360366821289,-1.0977083444595337,1.3386499881744385
1783196986818815700,2.975815673828125,0.2574982590198517,3.98846407148838,2.3047101898014546,-3.127652645111084,-1.2254478931427002,1.370136022567749
1783196986828752600,2.985752685546875,-0.2483481533586978,3.831035959982872,1.1591565916091202,-3.1970932483673096,-1.1919480562210083,1.3626309633255005
1783196986838689500,2.995689453125,-0.8028677034914493,3.610488836741448,-0.021053893944621,-3.217372179031372,-1.025718331336975,1.3386989831924438
1783196986848626700,3.005626708984375,-1.2217834359139204,3.299455386888981,-1.079549386408925,-3.179229497909546,-0.8266214728355408,1.3504469394683838
1783196986858563600,3.0155634765625,-1.3900325089022516,2.722026085811853,-2.1760323719620702,-3.0442652702331543,-0.6545916199684143,1.408435344696045
1783196986868501800,3.025501708984375,-1.4026917917281387,1.9253513917416332,-3.177611214461922,-2.8066341876983643,-0.5850279927253723,1.4774062633514404
1783196986878438700,3.035438720703125,-1.5272446385920049,1.194888414725661,-4.1907115679293865,-2.515368700027466,-0.5919615030288696,1.5131924152374268
1783196986888375600,3.04537548828125,-1.843767333510518,0.59736149751544,-5.022077636152505,-2.2127130031585693,-0.6351560950279236,1.4891830682754517
1783196986898312400,3.0553125,-2.2732518062204123,0.1990188897833228,-5.59546613740623,-1.9362210035324097,-0.7196052074432373,1.408920407295227
1783196986908250400,3.06525048828125,-2.6878330165699125,-0.2254644136384129,-6.014060967311263,-1.718379259109497,-0.7765994668006897,1.3465474843978882
1783196986918187300,3.075187255859375,-2.962591622470319,-0.74878130851686,-6.3475879885226485,-1.5439800024032593,-0.7757992148399353,1.3252960443496704
1783196986928124200,3.085124267578125,-3.078132895360887,-1.3791244536578655,-6.661085198140144,-1.3608901500701904,-0.7375712990760803,1.330491065979004
1783196986938062000,3.09506201171875,-3.153417853447795,-2.0103730232059958,-7.067637708073854,-1.1409969329833984,-0.6748397350311279,1.3497508764266968
1783196986947999200,3.104999267578125,-3.284583396449685,-2.630911398169398,-7.52046915410161,-0.8933137655258179,-0.5560898184776306,1.3375974893569946
1783196986957936400,3.114936279296875,-3.5826170794755217,-3.104019031767547,-7.715682514122128,-0.6750869154930115,-0.4028651118278503,1.2654649019241333
1783196986967873300,3.124873291015625,-3.996534565219283,-3.4678006137281656,-7.604944257599115,-0.4828676283359527,-0.2345685213804245,1.112959623336792
1783196986977810400,3.134810546875,-4.452630566000938,-3.8034506184428927,-7.28042354966402,-0.3144804835319519,-0.0922550410032272,0.912812113761902
1783196986987747000,3.1447470703125,-4.761275659412146,-4.072525333487987,-6.844449714934825,-0.1648035496473312,-0.0081775737926363,0.6991733312606812
1783196986997684200,3.154684326171875,-4.769195931017398,-4.290097824832797,-6.367302742817998,-0.0358730070292949,0.0172071456909179,0.5205764174461365
1783196987007622100,3.1646220703125,-4.4990649849176405,-4.504356077063084,-5.863785650169849,0.1030000448226928,-0.0010945163667201,0.3731773495674133
1783196987017559300,3.174559326171875,-4.169118744802475,-4.627056866319477,-5.476749741610885,0.2570982575416565,-0.0327730812132358,0.2370496243238449
1783196987027496400,3.184496337890625,-3.934830096456409,-4.586474388301372,-5.188395741078257,0.4346188008785248,-0.0665641576051712,0.1020902916789054
1783196987037433300,3.194433349609375,-3.7496044619649647,-4.488021320594847,-4.928592712247371,0.5937719941139221,-0.0905352756381034,-0.0293803829699754
1783196987047370200,3.204370361328125,-3.5831601003110407,-4.341563808175922,-4.543387526246905,0.7127160429954529,-0.1239976063370704,-0.1414584219455719
1783196987057307100,3.21430712890625,-3.388933997762203,-4.171713437470793,-4.162833965444564,0.7983742356300354,-0.1558596640825271,-0.2507327198982239
1783196987067245300,3.224245361328125,-3.273080005660653,-3.941436362853646,-3.827911690482497,0.8449385166168213,-0.1911757588386535,-0.3616222739219665
1783196987077182200,3.23418212890625,-3.2323160335958003,-3.689115798732638,-3.618728257298469,0.8696944713592529,-0.2091065496206283,-0.4782477021217346
1783196987087119400,3.244119384765625,-3.283587955671549,-3.5333681876599785,-3.6055583946019407,0.8998671770095825,-0.2237091362476349,-0.598914384841919
1783196987097056500,3.254056396484375,-3.4068531008124348,-3.4295436560481787,-3.8885938304603096,0.9602269530296326,-0.262476772069931,-0.7048298716545105
1783196987106993200,3.2639931640625,-3.4080472790330645,-3.3718832019791005,-4.4522500422507525,1.041678786277771,-0.3695961236953735,-0.7958100438117981
1783196987116930300,3.273930419921875,-3.468674473953247,-3.3234716377705333,-5.216953142520785,1.1188292503356934,-0.5828397274017334,-0.9181023836135864
1783196987126867200,3.2838671875,-3.99391064645648,-3.180527101908624,-6.19105478003025,1.212446689605713,-0.8763294816017151,-1.1581844091415403
1783196987136805400,3.293805419921875,-5.1814171342372894,-3.098323158213496,-7.418240951770543,1.350444793701172,-1.1953601837158203,-1.5354915857315063
1783196987146742300,3.3037421875,-6.52962680967152,-3.108403530462086,-8.918446776789427,1.5547611713409424,-1.34450364112854,-1.9699735641479488
1783196987156679400,3.313679443359375,-7.501243644627928,-2.9941666181683537,-10.388130037772656,1.857910394668579,-1.164988398551941,-2.3547167778015137
1783196987166616300,3.3236162109375,-7.641402056902646,-2.803051048855483,-11.370036796075103,2.24657940864563,-0.667492151260376,-2.6311349868774414
1783196987176553200,3.33355322265625,-7.201334815379977,-2.426856267784536,-11.731662953567504,2.6243906021118164,0.0112184733152389,-2.7884514331817627
1783196987186490400,3.343490478515625,-6.4521005023986095,-1.7239990905746816,-11.221307539331912,2.9265952110290527,0.7015145421028137,-2.825278043746948
1783196987196428300,3.35342822265625,-5.5115054131716485,-0.8868813269570469,-9.979642760384085,3.1212949752807617,1.2837092876434326,-2.7767651081085205
1783196987206365400,3.363365478515625,-4.758954230727255,-0.0102186116755008,-8.45951759840846,3.2609829902648926,1.7135734558105469,-2.6979355812072754
1783196987216302300,3.37330224609375,-4.3257270643576975,0.9990326651483774,-6.902090002998709,3.4018561840057373,1.930941462516785,-2.643733263015747
1783196987226239200,3.3832392578125,-4.171979687191546,1.9650959576308729,-5.474862904950976,3.5810587406158447,1.9097065925598145,-2.660081386566162
1783196987236176100,3.393176025390625,-4.210121201798319,2.828930463260412,-4.224896161603928,3.78177547454834,1.6944535970687866,-2.75286865234375
1783196987246113300,3.40311328125,-4.201531652629376,3.6719752788394686,-3.088511958295107,3.964069366455078,1.3953343629837036,-2.865065097808838
1783196987256050400,3.413050537109375,-3.9742315479964017,4.485854790210723,-1.9637030419677493,4.089264392852783,1.0932462215423584,-2.956815242767334
1783196987265988400,3.42298828125,-3.5932238136857744,5.245201331883669,-0.8993360271215438,4.133906841278076,0.8512282967567444,-3.013456106185913
1783196987275925500,3.432925537109375,-3.1257828275471926,5.996793606168032,0.1549959159225225,4.092210292816162,0.6872939467430115,-3.05247163772583
1783196987285862100,3.442862060546875,-2.685339738449454,6.60909665222764,1.1311328586518763,3.95870041847229,0.5921605825424194,-3.1027073860168457
1783196987295799300,3.45279931640625,-2.401928893407434,7.111364621597528,2.0614701732367275,3.7605605125427246,0.5613682866096497,-3.162217855453491
1783196987305736200,3.462736083984375,-2.1572446693837644,7.538478273522854,2.881326420930028,3.500441074371338,0.5735892653465271,-3.209969282150269
1783196987315673300,3.47267333984375,-1.8384065371297296,7.883541418749093,3.5032203021556136,3.2133939266204834,0.6277494430541992,-3.2584714889526367
1783196987325610500,3.482610595703125,-1.6102812337189911,8.241804821810126,4.0604567100316284,2.9285638332366943,0.691011905670166,-3.317089796066284
1783196987335548400,3.49254833984375,-1.3774604659684002,8.650759716710448,4.53377447924912,2.612497329711914,0.7045626044273376,-3.35025691986084
1783196987345485300,3.5024853515625,-0.9779001530095934,8.99536985747218,4.84726233651638,2.2754461765289307,0.7403959035873413,-3.3218626976013184
1783196987355422200,3.512422119140625,-0.3493569699626416,9.222748288038373,5.150823843052983,1.941750407218933,0.7899969816207886,-3.238242626190185
1783196987365359400,3.522359375,0.2993453501462936,9.336260685449838,5.30329345536828,1.6549861431121826,0.8716961741447449,-3.1180312633514404
1783196987375296300,3.532296142578125,0.8046772371314466,9.698764210298656,5.2329591054260725,1.4596956968307495,0.9250701665878296,-2.8544681072235107
1783196987385233400,3.5422333984375,1.8361109735384584,9.179601804751158,4.885750472603738,1.306208610534668,0.8803536295890808,-2.544912815093994
1783196987395171300,3.55217138671875,2.316637066699564,8.816038541716336,4.626322706826031,1.2025818824768066,0.7981796860694885,-2.281264543533325
1783196987405108200,3.562108154296875,2.514679220405221,9.308566038316489,4.5802293564319605,1.116611123085022,0.7007985711097717,-1.9832161664962769
1783196987415045400,3.57204541015625,2.755160001389682,9.400939201587438,4.655042313092947,1.02051043510437,0.5764161348342896,-1.6496200561523438
1783196987424982300,3.581982177734375,3.039745881560445,9.22989523718357,4.774085748885572,0.9060197472572328,0.419408768415451,-1.3185701370239258
1783196987434919400,3.59191943359375,3.287095671531558,9.148167971089482,4.969744222325087,0.7593221664428711,0.2420659512281417,-0.9945565462112428
1783196987444856300,3.601856201171875,3.4215240157216784,9.061053166738152,5.225739091044664,0.5706626176834106,0.0692225620150566,-0.692369282245636
1783196987454793200,3.611793212890625,3.4526287635594604,9.046189359605313,5.543890848469734,0.3440348207950592,-0.086176611483097,-0.4112287163734436
1783196987464731100,3.621731201171875,3.4432810894995924,9.070601331806182,5.870947212362289,0.0865952596068382,-0.1915265768766403,-0.1496441513299942
1783196987474668300,3.631668212890625,3.466994558042288,8.96778685401976,6.147511990901828,-0.1978396624326706,-0.2745961546897888,0.1033694595098495
1783196987484605400,3.64160546875,3.5773230647206304,8.846690285089611,6.416483830094337,-0.500141441822052,-0.3254936039447784,0.3562609851360321
1783196987494542300,3.651542236328125,3.725168524366617,8.75797389076054,6.615819823002815,-0.8282945156097412,-0.3343821763992309,0.6324816346168518
1783196987504479500,3.6614794921875,3.856780642092228,8.651652866157889,6.7997863973438735,-1.178795576095581,-0.3122040927410126,0.909986972808838
1783196987514416000,3.671416015625,3.951913917726278,8.581129131123424,6.960842051696777,-1.5411133766174316,-0.2682549953460693,1.1788314580917358
1783196987524354300,3.681354248046875,3.929003874520957,8.597954009196162,7.049640279090404,-1.931472659111023,-0.2288345545530319,1.43333899974823
1783196987534291200,3.691291259765625,3.7864983145982025,8.703569515877962,7.123646011021733,-2.368871688842773,-0.2129994034767151,1.6718699932098389
1783196987544228400,3.701228271484375,3.4879090435162183,8.79421366339922,7.16999684330821,-2.852811336517334,-0.1961266547441482,1.8729363679885864
1783196987554165200,3.711165283203125,3.0258816068589685,8.881523698061704,7.297144382840394,-3.346116542816162,-0.2161906510591507,2.012725591659546
1783196987564102400,3.721102294921875,2.4706501090645787,8.991145517775417,7.358543731176852,-3.824228286743164,-0.2744045257568359,2.0875375270843506
1783196987574039300,3.731039306640625,1.85595622234568,9.118815035355093,7.2155749376565215,-4.253928661346436,-0.3772901892662048,2.1030261516571045
1783196987583976200,3.74097607421875,1.2489315550804136,9.163376061615349,6.905142376306652,-4.642481803894043,-0.4864615201950073,2.095357656478882
1783196987593914400,3.750914306640625,0.7341533559665083,9.188350928395986,6.49654403975904,-4.967660427093506,-0.5859375,2.0749852657318115
1783196987603851300,3.760851318359375,0.3235202621882781,9.287962226226924,6.116441145333647,-5.244946002960205,-0.7241784930229187,2.052614212036133
1783196987613788400,3.770788330078125,-0.0204192858355119,9.472618536397814,5.553360687604546,-5.4859771728515625,-0.8735930323600769,2.0542967319488525
1783196987623725300,3.780725341796875,-0.4009364966828376,9.667727267000078,4.725799856883287,-5.490133285522461,-0.9177149534225464,2.133845329284668
1783196987633662200,3.790662109375,-0.266810423374921,9.747457806318998,2.6340906127274035,-5.428153991699219,-0.8598633408546448,2.166203498840332
1783196987643599400,3.800599365234375,-0.96929979018569,10.057657727956771,1.764748741853237,-5.426452159881592,-0.8912602663040161,2.198104858398437
1783196987653537300,3.810537353515625,-1.1978287059612571,10.29774191083908,0.6241910522520542,-5.452773094177246,-0.9471176862716676,2.254363775253296
1783196987663474400,3.820474365234375,-1.326979109748453,10.202875177186726,-0.3870522751718759,-5.427268981933594,-1.149138569831848,2.372506618499756
1783196987673411300,3.830411376953125,-1.4828748971201478,9.656909520387648,-1.621014809179306,-5.29903507232666,-1.52633798122406,2.557551622390747
1783196987683348500,3.840348388671875,-1.833441608198732,8.517486972296238,-3.582019113582372,-5.009026050567627,-2.010073184967041,2.725511074066162
1783196987693285000,3.85028515625,-2.6441023036539555,7.003155006769299,-5.722144890382886,-4.4932541847229,-2.5783016681671143,2.8120131492614746
1783196987703222300,3.86022216796875,-3.934044791297614,5.5008507481664415,-8.183651908048986,-3.826657772064209,-3.0926661491394043,2.7776854038238525
1783196987713159400,3.870159423828125,-5.792908863914013,3.9729800866305824,-10.634405476510524,-3.012157678604126,-3.2789292335510254,2.558760643005371
1783196987723097300,3.880097412109375,-7.714525160780549,2.5459727688133715,-12.43500177681446,-2.153029680252075,-3.148705244064331,2.228562593460083
1783196987733034500,3.890034423828125,-8.923033520057796,0.6773454270735383,-13.61545776156187,-1.3819551467895508,-2.893413782119751,2.0332069396972656
1783196987742971100,3.89997119140625,-8.839864822983742,-1.777385812847316,-14.329713115620612,-0.7401977181434631,-2.513296604156494,2.102611541748047
1783196987752908300,3.909908203125,-8.13006586381197,-4.473806332759559,-14.548740481948853,-0.4000212252140045,-2.1611154079437256,2.3676931858062744
1783196987762845200,3.91984521484375,-7.494278481790423,-7.79372963039875,-14.37430979771614,-0.5607042908668518,-1.748490810394287,2.537282705307007
1783196987772782300,3.9297822265625,-7.7891586692214,-10.76731289474368,-13.488826939380168,-0.9224257469177246,-1.1323343515396118,2.4029805660247803
1783196987782720300,3.93972021484375,-9.365747476696969,-11.864575047975778,-12.225670459592342,-1.055503487586975,-0.3828498423099518,1.9731947183609009
1783196987792657400,3.949657470703125,-11.494091045767068,-11.2448287001729,-11.702179669451713,-0.8956325650215149,0.1178798228502273,1.4110852479934692
1783196987802594300,3.95959423828125,-12.36217151840329,-10.5836818359673,-11.994047815585136,-0.6030308604240417,0.2027044594287872,0.9202083349227904
1783196987812531200,3.96953125,-11.391881548136473,-10.636398696154355,-12.273320684039591,-0.2920015752315521,0.0817170441150665,0.4952546060085296
1783196987822468400,3.97946826171875,-10.03902901533246,-10.413300719386338,-12.032974635350705,0.0251201894134283,0.033144287765026,0.1075638085603714
1783196987832405200,3.9894052734375,-8.95646583406031,-9.30957083144486,-11.24173657937646,0.3632105886936188,0.1074028089642524,-0.2209075540304184
1783196987842342400,3.99934228515625,-7.935724025928974,-8.03666394201517,-10.39306223347783,0.7217527031898499,0.2307695746421814,-0.5089495182037354
1783196987852280300,4.0092802734375,-6.810102624174952,-6.818126356154679,-9.60554582837522,1.0785337686538696,0.3116359114646911,-0.7527582049369812
1783196987862217200,4.01921728515625,-5.644114140719175,-5.580856012773514,-8.70215380386114,1.400244116783142,0.3488536477088928,-0.934381365776062
1783196987872154000,4.029154052734375,-4.5230040789097545,-4.4055265772596,-7.676458172714709,1.6165322065353394,0.3242023587226867,-1.048458456993103
1783196987882091300,4.03909130859375,-3.478303595302999,-3.374674586263299,-6.579805091291665,1.7002540826797483,0.3035148382186889,-1.096122980117798
1783196987892028400,4.0490283203125,-2.594177120012045,-2.487911624988913,-5.50999150147736,1.650467872619629,0.3074661791324615,-1.1138972043991089
1783196987901965300,4.05896533203125,-2.070578485582769,-1.8012933426573872,-4.590812125244736,1.5180755853652954,0.3580400645732879,-1.1502327919006348
1783196987911902500,4.06890234375,-2.017863671222329,-1.3234081193938851,-3.9572728144109246,1.334886074066162,0.4167422354221344,-1.219090223312378
1783196987921839400,4.07883935546875,-2.216332233646512,-1.0235293930232523,-3.737549282512069,1.1693967580795288,0.5275737047195435,-1.3092703819274902
1783196987931776500,4.088776611328125,-2.471454411184788,-0.772067783819139,-3.852749779140949,1.0756021738052368,0.6687856912612915,-1.3956297636032104
1783196987941713400,4.09871337890625,-2.648358792054653,-0.6413374173641204,-4.225747225475312,1.083261489868164,0.8417491912841797,-1.4736378192901611
1783196987951650300,4.108650390625,-2.759498030593991,-0.5585799314394593,-4.687260575130582,1.1700698137283323,1.0299582481384275,-1.5324190855026243
1783196987961587500,4.11858740234375,-3.0096330673694607,-0.402872944638133,-5.157251245751977,1.28706157207489,1.206404447555542,-1.5720311403274536
1783196987971525400,4.128525390625,-3.332058848851919,-0.2985793342098593,-5.414525632888078,1.4215339422225952,1.384551763534546,-1.6131922006607056
1783196987981462500,4.138462646484375,-3.59122796369344,-0.1248395548507571,-5.470523414441943,1.56055748462677,1.5307811498641968,-1.6736494302749634
1783196987991399400,4.1483994140625,-3.936725408683717,0.2748261181786656,-5.3619098949879405,1.7022749185562134,1.6493782997131348,-1.7500985860824585
1783196988001336300,4.15833642578125,-4.196389905826747,0.8371151332691311,-5.089184256219864,1.873018503189087,1.6921201944351196,-1.8419665098190308
1783196988011273500,4.1682734375,-4.191280015467108,1.3682994005218148,-4.685270862618088,2.0565903186798096,1.6525075435638428,-1.934056282043457
1783196988021210400,4.17821044921875,-4.009882707092165,1.9161355273678895,-4.155504645469785,2.2259950637817383,1.5767067670822144,-2.009642601013184
1783196988031147500,4.1881474609375,-3.657603054615855,2.517003279438615,-3.3917338576138016,2.373481035232544,1.4867409467697144,-2.051757574081421
1783196988041085400,4.19808544921875,-3.232329769860208,3.010701573383808,-2.6338386837929484,2.496943712234497,1.4275636672973633,-2.064042091369629
1783196988051022600,4.208022705078125,-2.8557036116346715,3.452614735034108,-1.922584849637747,2.60208511352539,1.4111769199371338,-2.05826473236084
1783196988060959200,4.217959228515625,-2.4872312415093183,4.022235408186912,-1.1320575722813606,2.694394588470459,1.409778118133545,-2.039105176925659
1783196988070896400,4.227896484375,-2.0524086226418614,4.550929612189531,-0.3756143508344888,2.7824549674987797,1.3605797290802002,-1.992284893989563
1783196988080833500,4.23783349609375,-1.5813625977486372,4.970177937567234,0.3126613433152437,2.8508260250091557,1.2747209072113037,-1.9405514001846316
1783196988090770400,4.2477705078125,-1.1628805805683136,5.433295215287805,0.9624965399116278,2.8751821517944336,1.152753472328186,-1.8965182304382324
1783196988100708600,4.25770849609375,-0.8000605371162295,5.857677980944514,1.5747393802165983,2.8784139156341557,1.0593972206115725,-1.868764877319336
1783196988110645500,4.2676455078125,-0.4615312506381422,6.208372410055994,2.217974155634641,2.8860342502593994,0.9773229956626892,-1.8599170446395876
1783196988120582400,4.27758251953125,-0.1502058321017771,6.529596999055147,2.7769144448190928,2.8724613189697266,0.8842843174934387,-1.85560154914856
1783196988130519300,4.287519287109375,0.1692818135695531,6.8547817238569255,3.2790234242349863,2.8283486366271973,0.7870818972587585,-1.8469724655151367
1783196988140456400,4.29745654296875,0.5726199280340224,7.164440962746739,3.8229578674674034,2.733916759490967,0.6465150117874146,-1.8351794481277464
1783196988150393600,4.3073935546875,0.9764598910734056,7.411491477510332,4.36894456705451,2.563527107238769,0.4940048456192016,-1.8104407787323
1783196988160331500,4.31733154296875,1.3228335343763231,7.515511239433288,4.911782447221875,2.341498851776123,0.3860629200935364,-1.772972822189331
1783196988170268400,4.327268310546875,1.683811164832115,7.492578692135214,5.371577302521467,2.146841287612915,0.3236418962478637,-1.7289984226226809
1783196988180205300,4.337205322265625,1.798594897353649,7.344900405749678,5.38846764704585,1.9348334074020384,0.2794234156608581,-1.6151951551437378
1783196988190142500,4.347142578125,2.2242831926509736,7.445650352221727,5.384967529970407,1.6892566680908203,0.3409869074821472,-1.419450759887695
1783196988200079400,4.357079345703125,2.950536150756478,7.472678059878945,5.755549147334695,1.3940284252166748,0.418461799621582,-1.119192600250244
1783196988210016500,4.3670166015625,3.652125499987602,7.195933248597383,6.02100333379507,1.0491997003555298,0.4448601007461548,-0.7351415157318115
1783196988219954400,4.376954345703125,4.149989389179646,6.867283478033542,6.109104226574301,0.685045063495636,0.4560529589653015,-0.3314811587333679
1783196988229891600,4.3868916015625,4.277394995126128,6.700116062802076,6.222496212476492,0.3338542878627777,0.4528947174549103,0.0329918898642063
1783196988239828200,4.396828125,4.121174213583768,6.661792469626665,6.357187591516971,0.0268237479031085,0.4034446179866791,0.316956490278244
1783196988249765400,4.406765380859375,3.781870947058499,6.640341100797057,6.355461498376727,-0.2200515568256378,0.3027624785900116,0.5296895503997803
1783196988259702500,4.41670263671875,3.3951106405705214,6.52634588830471,6.211646317160129,-0.4060274362564087,0.162718653678894,0.6768301725387573
1783196988269639400,4.426639404296875,2.9488901371151206,6.486523581004143,6.049286009949445,-0.5524743795394897,0.0276239588856697,0.7666322588920593
1783196988279576600,4.43657666015625,2.537868372812867,6.51108986698389,6.008548341369629,-0.6841297745704651,-0.1076367124915123,0.8308623433113098
1783196988289514500,4.446514404296875,2.276929910211265,6.451101554489135,6.037724751493334,-0.8202481865882874,-0.2530724704265594,0.8861138224601746
1783196988299451400,4.456451416015625,2.122011151178181,6.263592777496576,6.090113694900274,-0.9872784614562988,-0.4010709226131439,0.9533138275146484
1783196988309388300,4.46638818359375,1.975844292268902,6.143318046343326,6.228014683637023,-1.2457621097564695,-0.5565643906593323,1.0244930982589722
1783196988319325400,4.476325439453125,1.8076523562952875,6.093845867165923,6.419721496841311,-1.6319317817687988,-0.6628729701042175,1.0998225212097168
1783196988329262600,4.4862626953125,1.6341281193830073,6.07236585676372,6.701261725705861,-2.107126474380493,-0.6910507678985596,1.177909255027771
1783196988339199500,4.496199462890625,1.4684030119143423,6.053094170060754,7.0075359983325,-2.5996384620666504,-0.6563640832901001,1.234533429145813
1783196988349137400,4.506137451171875,1.2226586113132536,6.000440438237786,7.068143319508433,-3.064824104309082,-0.6108735203742981,1.2829196453094482
1783196988359074300,4.51607421875,0.9726458126779643,5.960041207832098,6.876850347802042,-3.5151524543762207,-0.5953266620635986,1.330600023269653
1783196988369011500,4.526011474609375,0.7280963940151035,5.957434824725985,6.55545858554244,-3.941536903381348,-0.597683310508728,1.354539394378662
1783196988378948400,4.5359482421875,0.483480266791582,5.928309852528572,6.333813730192184,-4.3684282302856445,-0.696679413318634,1.3741872310638428
1783196988388885500,4.545885498046875,0.2200135278213769,5.8097162063300605,5.951528815552592,-4.790090560913086,-0.8068759441375732,1.4087685346603394
1783196988398822400,4.555822509765625,-0.112987131428346,5.628001210308074,5.417110973206162,-5.183206558227539,-0.8866095542907715,1.4221842288970947
1783196988408759300,4.56575927734375,-0.5415878801062702,5.519262603169679,4.793486907187104,-5.473632335662842,-0.9501890540122986,1.399593949317932
1783196988418697500,4.575697509765625,-1.0894178694725036,5.429562458500266,3.658497957628965,-5.5818634033203125,-1.0267821550369265,1.3907499313354492
1783196988428634400,4.58563427734375,-1.5947532635889947,5.313499207562208,1.9672358922690152,-5.330945014953613,-0.92965829372406,1.4899438619613647
1783196988438571500,4.595571533203125,-1.4351087912082672,4.919024088913202,-0.5356330633550882,-4.9967451095581055,-0.9756650328636168,1.5698859691619873
1783196988448508400,4.60550830078125,-1.5405933649867771,4.350023008963466,-2.2249638683915136,-4.6546950340271,-1.0744293928146362,1.6489685773849487
1783196988458445300,4.6154453125,-1.7812644078463316,4.034429996110498,-3.241068664371967,-4.335680961608887,-1.132564902305603,1.74730122089386
1783196988468382500,4.625382568359375,-1.584168302819133,3.510213229782879,-4.703728310328722,-3.9835150241851807,-1.217875838279724,1.8101118803024288
1783196988478320400,4.6353203125,-1.8806399972252548,3.144937025350332,-5.7257543130517,-3.5076279640197754,-1.3883451223373413,1.839988112449646
1783196988488257500,4.645257568359375,-2.091331204623729,2.9576375071942804,-7.142169509705901,-2.913568019866944,-1.6411906480789185,1.884152889251709
1783196988498194400,4.6551943359375,-2.107126593518257,2.7755589385569093,-8.58913591196835,-2.2392046451568604,-1.9365500211715696,1.9947333335876465
1783196988508131600,4.665131591796875,-1.9104405305966732,2.085647606029361,-9.892787483751771,-1.5370962619781494,-2.2422666549682617,2.149249792098999
1783196988518068200,4.675068115234375,-1.7913544247061013,1.1027297709882258,-10.92908517293334,-0.9051468372344972,-2.4620840549468994,2.340545892715454
1783196988528005400,4.68500537109375,-2.0537325647220013,-0.0073500705018639,-11.424681409454346,-0.381777673959732,-2.570791482925415,2.5470900535583496
1783196988537943300,4.694943359375,-2.594183842013776,-1.236159167268872,-11.516666450190543,0.0005078967660665,-2.4955499172210693,2.724595546722412
1783196988547880400,4.70488037109375,-3.32775764452666,-2.600644854721427,-11.258824492299556,0.2284148335456848,-2.219118118286133,2.799002885818481
1783196988557817300,4.7148173828125,-4.427189835274219,-3.828481599324941,-10.622658924615385,0.3460783064365387,-1.8228676319122317,2.695433616638184
1783196988567754500,4.72475439453125,-5.786489644521475,-4.683850766687095,-9.941534271264077,0.4414184093475342,-1.3939369916915894,2.4229352474212646
1783196988577691400,4.73469140625,-7.030873034778237,-5.158914795050024,-9.400649278730151,0.5826067924499512,-0.9827666282653807,2.0570759773254395
1783196988587628300,4.744628173828125,-7.839118339654803,-5.499165571558475,-8.953097234410047,0.7398422360420227,-0.6961351037025452,1.638796091079712
1783196988597566500,4.75456640625,-8.277276532685756,-5.877102227860689,-8.468084935745596,0.8989096879959106,-0.563112199306488,1.1880650520324707
1783196988607503400,4.76450341796875,-8.32624310042858,-6.294986279147863,-7.9235916895866385,1.0674781799316406,-0.5401698350906372,0.7406347990036011
1783196988617440500,4.7744404296875,-7.996182294023036,-6.615750849419832,-7.396783737722039,1.2589102983474731,-0.5901497602462769,0.3142274022102356
1783196988627377400,4.78437744140625,-7.5556392516821616,-6.625559126728772,-7.02644761955142,1.478906512260437,-0.6073201894760132,-0.0813029110431671
1783196988637314300,4.794314208984375,-7.100554473769664,-6.356992361205816,-6.599855361151695,1.686967849731445,-0.6227089166641235,-0.4451522827148437
1783196988647251500,4.80425146484375,-6.594434505146742,-5.889536762019992,-6.266530584514141,1.8041791915893557,-0.6564024090766907,-0.7662389874458313
1783196988657189400,4.814189453125,-6.016897067520022,-5.331390838083625,-5.936785419929027,1.8053051233291624,-0.6448612213134766,-1.0161837339401243
1783196988667126500,4.82412646484375,-5.453884414330124,-4.750662787722051,-5.662054286557436,1.7430378198623655,-0.5407412648200989,-1.2136090993881226
1783196988677063400,4.8340634765625,-5.013897836828232,-4.13263055036068,-5.534134593608975,1.702349066734314,-0.3294557631015777,-1.3928388357162476
1783196988687000600,4.84400048828125,-4.689330367141962,-3.5890643559187647,-5.624544347852468,1.7321616411209106,-0.070551224052906,-1.576399326324463
1783196988696937200,4.853937255859375,-4.445737591616809,-3.003580635462701,-5.888150276097655,1.8281991481781008,0.1710390299558639,-1.7477662563323977
1783196988706874400,4.863874267578125,-4.279081925299764,-2.252993738828599,-6.174861770120263,1.9550695419311523,0.3647051453590393,-1.9073705673217771
1783196988716811500,4.8738115234375,-4.104501311202347,-1.4186843106299638,-6.35068069384098,2.1250970363616943,0.5175857543945312,-2.053395748138428
1783196988726749400,4.88374951171875,-3.7745682228297,-0.6733356069102883,-6.326104470989108,2.346735000610352,0.6347512602806091,-2.172818660736084
1783196988736686600,4.8936865234375,-3.377141853159666,-0.0400108156099915,-6.0559162417441605,2.5508229732513428,0.7050808668136597,-2.26663589477539
1783196988746623500,4.90362353515625,-3.052625529138744,0.5397746932044625,-5.533381144893169,2.713655948638916,0.7742850184440613,-2.3552396297454834
1783196988756560400,4.913560302734375,-2.731825595292449,1.1749138404503463,-4.7411622611880295,2.866292715072632,0.8520834445953369,-2.470787048339844
1783196988766497300,4.923497314453125,-2.393316109493375,1.856044046759605,-3.8088510161817073,2.986647367477417,0.91984623670578,-2.6009669303894043
1783196988776434400,4.933434326171875,-2.017084503543377,2.557030169400573,-2.781855992874503,3.0581343173980717,0.9787872433662416,-2.7222065925598145
1783196988786372400,4.943372314453125,-1.5211936679899691,3.304040961113572,-1.6581904013633728,3.079015254974365,1.01992666721344,-2.8145294189453125
1783196988796309500,4.9533095703125,-0.8801564026162028,4.077581447833777,-0.5276297896414995,3.068118095397949,1.029208064079285,-2.86155104637146
1783196988806246400,4.963246337890625,-0.1313461602658033,4.762139582765102,0.5039595757186413,3.0620110034942627,0.994873821735382,-2.831627130508423
1783196988816183300,4.973183349609375,0.6988172541692853,5.397432459267973,1.3229226739645004,3.0656185150146484,0.923451840877533,-2.7142083644866943
1783196988826120400,4.983120361328125,1.606583255983889,6.105719844833016,2.000335028794408,3.0703659057617188,0.795014500617981,-2.5366616249084477
1783196988836057300,4.993057373046875,2.497697690466046,6.704236942124366,2.5520658249914643,3.036275625228882,0.5460824966430664,-2.356285333633423
1783196988845995500,5.00299560546875,3.050629386885464,7.240307227852941,2.994204027569294,3.0184977054595947,0.4133217632770538,-2.093352794647217
1783196988855932400,5.012932373046875,3.825949450498819,7.585361605250835,3.499435522919893,2.942870855331421,0.2588140666484833,-1.7504730224609375
1783196988865869600,5.02286962890625,4.65746106467247,7.584199575734138,4.024236811137199,2.7782788276672363,0.0810310319066047,-1.4236416816711426
1783196988875806200,5.03280615234375,4.762464576935768,7.952067257964611,4.416510035827756,2.594207763671875,0.0459048449993133,-1.0984052419662476
1783196988885743400,5.042743408203125,5.003216283816099,8.197040381932258,4.995166248351335,2.3954594135284424,0.1082603633403778,-0.7284747958183289
1783196988895680500,5.052680419921875,5.407502017861605,8.123063291573525,5.363686257010698,2.1753525733947754,0.1902193278074264,-0.3362640738487243
1783196988905618400,5.062618408203125,5.690901026335358,8.165206735298037,5.667872032925486,1.9144567251205444,0.2801500260829925,0.0351850911974906
1783196988915555000,5.07255517578125,5.706076968157291,8.421048459282517,6.128546009147167,1.5608975887298584,0.3669829070568084,0.387642502784729
1783196988925492000,5.082491943359375,5.586752669596672,8.672505684572458,6.674414635312557,1.0812764167785645,0.4139392375946045,0.7176787257194519
1783196988935429000,5.09242919921875,5.352804212990403,8.805855585876106,7.208339725705981,0.4897376894950866,0.4756082892417907,1.0115182399749756
1783196988945366000,5.102365966796875,5.086460968735814,8.798710974818468,7.728824904289842,-0.1777194589376449,0.5322292447090149,1.2729572057724
1783196988955303000,5.112302978515625,4.825619244506955,8.576827634537219,8.140648048102856,-0.8978187441825867,0.5261146426200867,1.4894533157348633
1783196988965240800,5.12224072265625,4.344662358713149,8.27240337369144,8.232561777168511,-1.5962153673171997,0.4587734639644623,1.6201082468032837
1783196988975178000,5.132177978515625,3.59688818141222,7.970489049839973,7.97840289170444,-2.190647602081299,0.4066479504108429,1.668425679206848
1783196988985115100,5.142115234375,2.8235429250031707,7.57824738933146,7.414471954625845,-2.659080266952514,0.3691951334476471,1.6638586521148682
1783196988995052000,5.152052001953125,2.206337493854761,7.134240470272302,6.616974253734946,-3.013817548751831,0.3621779978275299,1.6123040914535522
1783196989004989000,5.161989013671875,1.5295888636305928,6.773979755914211,5.805626306667923,-3.2570548057556152,0.3931960761547088,1.525762915611267
1783196989014926000,5.171926025390625,0.9738038236066698,6.464750140613317,4.9338732829988,-3.3583240509033203,0.4306659698486328,1.4351954460144043
1783196989024864000,5.181864013671875,0.5917185231924057,6.186721719262003,4.04792046906352,-3.321892261505127,0.4490601420402527,1.3567698001861572
1783196989034801000,5.19180078125,0.3981158132389187,5.911517707681655,3.361208955490589,-3.175312042236328,0.4013132750988006,1.306490421295166
1783196989044738000,5.201738037109375,0.3798211548745632,5.538780373588204,2.9571640444636342,-3.0322673320770264,0.1702174842357635,1.3289576768875122
1783196989054675200,5.21167529296875,0.4329711457818746,4.908310387197137,2.7349481112271548,-3.020174980163574,-0.2278011292219162,1.4139324426651
1783196989064611800,5.22161181640625,0.4417594323933124,4.074426783195138,2.581770058381557,-3.1622350215911865,-0.6473427414894104,1.5030250549316406
1783196989074549000,5.231549072265625,0.2543412562936544,3.3977637854278084,2.717467399594188,-3.3770265579223637,-1.0468957424163818,1.569496512413025
1783196989084487000,5.24148681640625,-0.0001712649136781,2.948680878278613,2.4735920077353715,-3.577677011489868,-1.3246480226516724,1.642419695854187
1783196989094424000,5.251424072265625,-0.2175403426408767,2.556200732839107,1.7229378910839557,-3.600573778152466,-1.2770991325378418,1.7293354272842407
1783196989104361000,5.26136083984375,-0.3701496556878089,2.2112954085230827,0.4044552453935146,-3.606998682022095,-1.1510162353515625,1.7785043716430664
1783196989114298000,5.271298095703125,-0.9171724203243852,1.8957272378504275,-0.5954734918117522,-3.5955467224121094,-0.9843050837516784,1.7971725463867188
1783196989124235000,5.281235107421875,-1.5608298050686715,1.6662474510908123,-1.3274737613976002,-3.5508830547332764,-0.8081992864608765,1.8770915269851685
1783196989134172000,5.291171875,-1.8052467564582824,0.8659159880787134,-2.3676690425395965,-3.49192476272583,-0.7286204695701599,2.038501262664795
1783196989144110000,5.301110107421875,-2.193185166814924,-0.2751519891321659,-3.3047651837348937,-3.374537706375122,-0.7470476627349854,2.2814180850982666
1783196989154047000,5.311046875,-2.53740572373718,-1.6093591504380107,-4.543690308585763,-3.2117159366607666,-0.7823683023452759,2.55299973487854
1783196989163984100,5.320984130859375,-3.076966774190962,-2.790658600272238,-5.870888760173321,-3.0496983528137207,-0.7876096963882446,2.753337860107422
1783196989173921000,5.330921142578125,-4.001699692897498,-3.601990472987294,-6.961523019698261,-2.8860578536987305,-0.8353804349899292,2.792104005813598
1783196989183858000,5.34085791015625,-5.213900184690952,-4.013732952779531,-7.730823384630679,-2.7176876068115234,-0.910932183265686,2.6340463161468506
1783196989193795000,5.350795166015625,-6.496124353042244,-4.212549305728078,-8.184519923055172,-2.580030918121338,-0.9742138385772704,2.369114637374878
1783196989203733000,5.36073291015625,-7.501643457600474,-4.227618864566088,-8.3042744297266,-2.409354448318481,-0.9318584203720092,2.046367883682251
1783196989213670000,5.370669921875,-8.143107716214656,-4.325107178893685,-8.553746034157276,-2.113706111907959,-0.7815684676170349,1.6769198179244995
1783196989223607000,5.38060693359375,-8.539413557422161,-4.5219332348078485,-9.249158740580082,-1.6758447885513306,-0.5790801048278809,1.244853973388672
1783196989233544200,5.390544189453125,-8.764958927342295,-4.50230235940367,-9.997935957443714,-1.1541321277618408,-0.3566297590732574,0.7626861929893494
1783196989243480800,5.400480712890625,-8.849796434411406,-4.247074091142416,-10.401989051777123,-0.6245009899139404,-0.1651609688997268,0.2600776553153991
1783196989253418000,5.41041796875,-8.655202667593956,-4.068287842048704,-10.375242499148843,-0.1523370742797851,-0.0311491377651691,-0.20491723716259
1783196989263356000,5.42035595703125,-8.005611801147461,-3.87111837952435,-9.840400293910502,0.2518460750579834,0.0227891933172941,-0.5978051424026489
1783196989273293000,5.43029296875,-6.967135014361142,-3.676144673478603,-8.979684212562441,0.6032100319862366,-0.0316054262220859,-0.9041112065315248
1783196989283230000,5.44022998046875,-5.79571164637506,-3.410331298317015,-8.100871918031572,0.9140491485595704,-0.1665259599685669,-1.1064802408218384
1783196989293167000,5.4501669921875,-4.643725384786725,-3.1442014045521613,-7.339371997717023,1.144405722618103,-0.3522539734840393,-1.2405775785446167
1783196989303104000,5.46010400390625,-3.816621065661311,-2.8455592342391607,-6.742823570150136,1.2981114387512207,-0.5259397625923157,-1.3317583799362185
1783196989313041000,5.470041015625,-3.333036169451475,-2.45711696601361,-6.296386793595552,1.3912646770477295,-0.6157922148704529,-1.4280959367752075
1783196989322979000,5.47997900390625,-3.326531025341153,-2.083284530159831,-6.107491530680656,1.42008638381958,-0.5817348957061768,-1.570380926132202
1783196989332916000,5.489916015625,-3.727615332996845,-1.6532592285715042,-6.08743541560173,1.4042160511016846,-0.3802823424339294,-1.7395755052566528
1783196989342853000,5.49985302734375,-4.097605414208769,-1.3093491989031434,-6.077727676057815,1.3979003429412842,-0.0348226726055145,-1.902979850769043
1783196989352790000,5.5097900390625,-4.220390666878223,-1.1296912815414368,-6.176845052891969,1.435286521911621,0.4057124257087707,-2.029210329055786
1783196989362727000,5.519726806640625,-4.233735886141657,-0.9867598974220454,-6.321427126827835,1.4986531734466553,0.8488800525665283,-2.1087806224823
1783196989372664000,5.5296640625,-4.34227575583756,-0.8099775354966521,-6.424761244574189,1.588679313659668,1.253525733947754,-2.1931815147399902
1783196989382602000,5.53960205078125,-4.737541440342366,-0.5107116803273558,-6.513471793684363,1.7334452867507937,1.5849244594573977,-2.3179636001586914
1783196989392539100,5.5495390625,-5.128343715697526,-0.0284814135968685,-6.523088347813487,1.9865206480026243,1.8486244678497317,-2.463979005813598
1783196989402476000,5.55947607421875,-5.228875635504722,0.4544678150579333,-6.4279539031356565,2.332921266555786,1.9868084192276,-2.6023600101470947
1783196989412413200,5.5694130859375,-5.078062558224797,0.975347545917332,-6.117732354187965,2.690051555633545,1.985550165176392,-2.725620746612549
1783196989422349800,5.579349853515625,-4.719195636312663,1.6190034693568944,-5.4448377690434455,3.017494440078736,1.8930481672286987,-2.822285890579224
1783196989432288000,5.5892880859375,-4.271930592240393,2.28199362334162,-4.5145179901152845,3.296046733856201,1.749486804008484,-2.919844388961792
1783196989442225000,5.599224853515625,-3.8651600556418297,2.993731149360537,-3.380688731986284,3.51108717918396,1.6036465167999268,-3.0133798122406006
1783196989452162000,5.609162109375,-3.469389344224333,3.7071126431941983,-2.1443208904027937,3.657504320144653,1.4440007209777832,-3.095773935317993
1783196989462099200,5.61909912109375,-2.996847527815401,4.374421537160873,-0.9040946198254824,3.7259464263916016,1.2505396604537964,-3.150317907333374
1783196989472036000,5.6290361328125,-2.4610472911998627,4.8944087030947205,0.2029389858365058,3.7051169872283936,1.055910587310791,-3.1705667972564697
1783196989481973000,5.638972900390625,-1.8630904581397767,5.367795445895195,1.2689905927687883,3.646527767181397,0.8602636456489563,-3.16350531578064
1783196989491911000,5.648910888671875,-1.2293442265570165,5.8246215145170686,2.249429032084345,3.5560741424560547,0.6479750871658325,-3.1175336837768555
1783196989501848000,5.65884814453125,-0.502277906242013,6.075157533308864,2.9635271497547624,3.4158477783203125,0.433945894241333,-3.0313425064086914
1783196989511785000,5.668784912109375,0.2243161203861236,6.233509189400077,3.5174972493112087,3.228477954864502,0.2379961311817169,-2.922928094863892
1783196989521722000,5.67872216796875,0.8797359852470457,6.411630544844269,4.0440789912045,2.97969651222229,0.0271358303725719,-2.8440542221069336
1783196989531659000,5.688658935546875,1.231564240694046,6.684599344718456,4.54082205967307,2.689483165740967,-0.0509757511317729,-2.751171112060547
1783196989541596000,5.698595947265625,1.60504274854362,6.845385534480214,5.110349209323525,2.373987436294556,-0.1022085770964622,-2.541965246200561
1783196989551533800,5.708533935546875,2.5304227329820392,6.346073492306471,5.347794275873899,2.04317569732666,-0.1466456800699234,-2.338481903076172
1783196989561471000,5.718470947265625,2.766368500885368,6.307572204476594,5.269413982120156,1.7469356060028076,-0.1366617530584335,-2.142949342727661
1783196989571408100,5.728408203125,2.989681289447844,6.582814794501662,5.300661937820911,1.465184450149536,-0.1091597899794578,-1.9130836725234983
1783196989581345000,5.738344970703125,3.289675751152634,6.705968880483508,5.1310009522080415,1.2227139472961426,-0.0375820100307464,-1.6600210666656494
1783196989591282000,5.748281982421875,3.6328473835438486,6.742747582304477,4.975878195035457,1.001987099647522,0.0322279334068298,-1.3797775506973269
1783196989601218800,5.75821875,3.9273321419164535,6.796644007664918,4.808574001681804,0.8079460263252258,0.1031183525919914,-1.078187346458435
1783196989611157000,5.768156982421875,4.167232784925401,6.874047565340995,4.6905473417162895,0.6474469900131226,0.1484144330024719,-0.7586490511894226
1783196989621094000,5.778093994140625,4.37705714636147,6.916316681271791,4.623510279753804,0.5273855328559875,0.1447608470916748,-0.4256976842880249
1783196989631031000,5.788031005859375,4.548856313046813,6.905925635638833,4.5351042665481565,0.4291791319847107,0.1026514843106269,-0.0909143462777137
1783196989640968200,5.79796826171875,4.63388671233952,6.888918971258401,4.523189956870675,0.3372766375541687,0.0055595589801669,0.2339404225349426
1783196989650904800,5.80790478515625,4.620399454256892,6.907969124165177,4.578112802669406,0.2471902966499328,-0.1149384155869484,0.5289064645767212
1783196989660842000,5.817842041015625,4.512336262162029,6.93981855289042,4.763726559695601,0.1233383789658546,-0.2367790937423706,0.7757639288902283
1783196989670780000,5.82777978515625,4.273713091742992,7.014860057610273,5.082796601009369,-0.056666936725378,-0.3463792502880096,0.9977407455444336
1783196989680717000,5.837717041015625,3.988773575828969,7.139751342648268,5.384703910598159,-0.3344846963882446,-0.4212098121643066,1.2044377326965332
1783196989690654000,5.847654052734375,3.716111649946868,7.209619828644395,5.617876706656813,-0.700998067855835,-0.437701553106308,1.39490807056427
1783196989700591000,5.857591064453125,3.504989649915695,7.17479050732553,5.837828202092648,-1.1377462148666382,-0.3805322647094726,1.565554976463318
1783196989710528000,5.867528076171875,3.2674946067437527,7.0749085758596655,6.0238248209565874,-1.601398229598999,-0.2532391548156738,1.6939632892608645
1783196989720465000,5.87746484375,3.001473726311326,6.946338310047984,6.045312430143356,-2.0336544513702397,-0.0878014639019966,1.786766767501831
1783196989730403000,5.887403076171875,2.6854344309955835,6.892911255764961,5.867502040344476,-2.424882650375366,0.0849420353770256,1.8190261125564573
1783196989740340000,5.897340087890625,2.286312655584514,6.941583224475384,5.670579538318514,-2.8000576496124268,0.223373681306839,1.8086298704147337
1783196989750277000,5.907277099609375,1.8867878523305055,7.051566278716922,5.516169897851348,-3.1764795780181885,0.34635791182518,1.7783938646316528
1783196989760214000,5.917214111328125,1.5965217345662417,7.100375610071421,5.39464078272283,-3.534468650817871,0.4417891204357147,1.766794204711914
1783196989770151000,5.92715087890625,1.4839894342333078,7.030152903810143,5.275025976783037,-3.8452467918396,0.4905535280704498,1.7826838493347168
1783196989780088000,5.937088134765625,1.3841152476824818,6.924093160492181,5.122617154744267,-4.090596675872803,0.4531435966491699,1.8256409168243408
1783196989790026000,5.94702587890625,1.301278559041768,6.728771079400182,4.817866146162152,-4.265623092651367,0.3391384482383728,1.905417799949646
1783196989799963000,5.956962890625,1.2491365761332214,6.431069404807687,4.242538785800337,-4.323075771331787,0.2231447398662567,2.0454471111297607
1783196989809900000,5.966900146484375,1.1786153253167866,6.140555595892668,3.5087639077574013,-4.315958023071289,0.0208460744470357,2.227879047393799
1783196989819837200,5.976837158203125,0.7391917885251342,5.546578480118513,2.77764743526876,-4.285749912261963,-0.2395042777061462,2.428014278411865
1783196989829773800,5.98677392578125,0.2074436037793755,4.760564296272396,2.064210996377468,-4.294551372528076,-0.512122392654419,2.567716360092163
1783196989839712000,5.9967119140625,-0.6376683734625578,4.107911119645833,1.14377080642879,-4.279952526092529,-0.6806986331939697,2.5837106704711914
1783196989849649000,6.00664892578125,-1.800487871493399,3.6782290785372256,0.3442541669309139,-4.1645708084106445,-0.748712956905365,2.4487106800079346
1783196989859586000,6.0165859375,-3.0394664800971745,3.377226024311781,-0.8409919747024774,-3.951349258422852,-0.7577240467071533,2.1498849391937256
1783196989869523000,6.02652294921875,-4.204271891248226,3.455163834995031,-2.135920141804218,-3.679037570953369,-0.7886005640029907,1.799611210823059
1783196989879460000,6.036460205078125,-4.737098372749984,3.4214012661248443,-3.104033937075734,-3.4563326835632324,-0.9159217476844788,1.5887503623962402
1783196989889397000,6.04639697265625,-4.56810812600553,2.5248382108479737,-4.065058066347241,-3.2896735668182373,-1.061705231666565,1.5456582307815552
1783196989899335000,6.0563349609375,-3.9937601320698857,1.2428342611186205,-4.910948919007182,-3.098115921020508,-1.182685136795044,1.6122039556503296
1783196989909273000,6.066273193359375,-3.512760868439078,0.3791176827803253,-5.9099622949332,-2.8148791790008545,-1.234129548072815,1.7150521278381348
1783196989919210200,6.076210205078125,-3.4549390863284466,-0.1052118943169713,-7.017653487721085,-2.423213481903076,-1.2531192302703855,1.7619695663452148
1783196989929147100,6.086147216796875,-3.7111502281472086,-0.47574894188717,-7.982207544684409,-1.955060601234436,-1.2998788356781006,1.7619585990905762
1783196989939084000,6.096083984375,-4.002238329818844,-1.0157098053134976,-8.684546250978112,-1.498075246810913,-1.398089051246643,1.76878821849823
1783196989949021200,6.106021240234375,-4.158914746174216,-1.7769662722609936,-9.019367403653265,-1.1790168285369873,-1.5164542198181152,1.8042669296264648
1783196989958959000,6.115958984375,-4.244354310789704,-2.6603648716688157,-8.959591272604465,-1.0564310550689695,-1.5612019300460815,1.8680051565170288
1783196989968896300,6.125896240234375,-4.406116652107238,-3.4927374865859746,-8.691717750042676,-1.054654240608215,-1.4601699113845823,1.8907994031906128
1783196989978833200,6.135833251953125,-4.920734984484315,-4.223729455912113,-8.53022019714117,-1.0274686813354492,-1.2079286575317385,1.76078200340271
1783196989988770300,6.145770263671875,-5.76176846024096,-4.507048092626035,-8.600973649278282,-0.890001118183136,-0.8607562184333801,1.506665587425232
1783196989998707000,6.15570703125,-6.433153809866309,-4.474072874741256,-8.812424442872404,-0.6492425799369812,-0.5516119599342346,1.1882013082504272
1783196990008644000,6.16564404296875,-6.61950289542973,-4.331566730296611,-8.950586128371953,-0.3577104210853576,-0.3592921495437622,0.8513978719711304
1783196990018582000,6.17558203125,-6.346673211765289,-4.178447714161873,-8.770089860489964,-0.0916025638580322,-0.3154972493648529,0.5250653028488159
1783196990028519200,6.185519287109375,-5.761218425142765,-4.016053212420642,-8.274380226722359,0.1325738877058029,-0.3708901107311249,0.2692803144454956
1783196990038456300,6.195456298828125,-4.916877724534273,-3.734481711634993,-7.685730443450808,0.3650201857089996,-0.4741832315921783,0.101327545940876
1783196990048393200,6.205393310546875,-3.9429946982115514,-3.550686402207613,-7.246754504296183,0.6052393317222595,-0.5722450613975525,0.0039261551573872
1783196990058330000,6.215330078125,-3.163475137081742,-3.3971798480600115,-6.962174177083373,0.838180422782898,-0.6359060406684875,-0.0771330073475837
1783196990068268000,6.22526806640625,-2.699878259150684,-3.109402770632505,-6.662746993872523,1.062199592590332,-0.6296772360801697,-0.1839780956506729
1783196990078205200,6.235205078125,-2.5367802853152157,-2.750266676390171,-6.338928881248831,1.2782304286956787,-0.5799360275268555,-0.3251991271972656
1783196990088142000,6.24514208984375,-2.526395669423044,-2.409954378952831,-5.953572304078937,1.4572842121124268,-0.5279402732849121,-0.4755383431911468
1783196990098079200,6.255079345703125,-2.5305402218818664,-2.1677805303148925,-5.6384659056991335,1.5936535596847534,-0.4982891678810119,-0.6139603853225708
1783196990108016000,6.26501611328125,-2.5130986732155085,-2.055881705579907,-5.328453615587949,1.7406247854232788,-0.4680569171905517,-0.7513682842254639
1783196990117953000,6.274953125,-2.523673550982773,-2.0054954802975056,-5.2227615365386,1.9183920621871948,-0.4258807003498077,-0.8765666484832764
1783196990127891000,6.284890869140625,-2.596670105871558,-1.8661976303748784,-5.307824669057131,2.075013399124145,-0.3741407990455627,-0.9805851578712464
1783196990137828000,6.294828125,-2.7000048081398007,-1.6473656404882668,-5.310684734663367,2.189636468887329,-0.2746807932853699,-1.0609519481658936
1783196990147765200,6.30476513671875,-2.820379492536187,-1.4555843007430431,-5.193695601052045,2.266185522079468,-0.1151142343878746,-1.1114953756332395
1783196990157702100,6.3147021484375,-3.025065322040021,-1.402579855786264,-5.065525732734799,2.286432266235352,0.0556681640446186,-1.1538931131362915
1783196990167639000,6.32463916015625,-3.41623380035907,-1.390880357903242,-4.95979565976262,2.266832113265991,0.2472614049911499,-1.2430905103683472
1783196990177576200,6.334576171875,-3.922768779523671,-1.2735726598620414,-4.844544894251227,2.2227976322174072,0.4030967950820923,-1.3861377239227295
1783196990187514000,6.34451416015625,-4.478466433525085,-1.050226261290908,-4.877057170799374,2.173915147781372,0.5577499270439148,-1.5482884645462036
1783196990197451000,6.354450927734375,-4.9052112521380185,-0.6968851170629262,-5.120557884126901,2.1815314292907715,0.7334306836128235,-1.7195569276809692
1783196990207388200,6.36438818359375,-5.179105934685468,-0.2780550170972943,-5.44113716095984,2.26727294921875,0.9171339869499208,-1.916526198387146
1783196990217325300,6.3743251953125,-5.412668022322654,0.1576847166150808,-5.826892966580391,2.4314634799957275,1.0878634452819824,-2.1334128379821777
1783196990227262000,6.384261962890625,-5.4018011758714914,0.6181453423470258,-6.033643619659543,2.6572859287261963,1.1970643997192385,-2.3423023223876958
1783196990237199000,6.39419921875,-5.136458048570156,1.1809972520172596,-5.94817658251524,2.9111945629119877,1.218206763267517,-2.487529754638672
1783196990247137000,6.404136962890625,-4.568504431846738,1.7409078475385904,-5.636838012236357,3.184739828109741,1.1486736536026,-2.570996046066284
1783196990257074200,6.41407421875,-3.847748609852791,2.314824464319646,-5.133287601840496,3.445243120193481,1.0169554948806765,-2.617901086807251
1783196990267011000,6.424010986328125,-3.151233787406981,2.982970685893297,-4.435485369932652,3.692352294921875,0.8425151705741882,-2.6390483379364014
1783196990276948200,6.4339482421875,-2.5536691685348747,3.722987673196197,-3.62982482085228,3.937668561935425,0.6791142225265503,-2.6439480781555176
1783196990286885000,6.443885009765625,-1.993363436216116,4.435764771395921,-2.7564462418079376,4.161035537719727,0.4807088077068329,-2.6313822269439697
1783196990296822000,6.453822021484375,-1.3898442928537726,5.050672446995973,-1.863549307823181,4.333848476409912,0.2465993762016296,-2.6095845699310303
1783196990306760200,6.46376025390625,-0.7872074852839112,5.694893310841918,-0.9717179572433232,4.407367706298828,-0.0010049436241388,-2.5772266387939453
1783196990316697000,6.473697021484375,-0.2201034711271524,6.293694485771655,0.0486556020975112,4.370202541351318,-0.2020230144262313,-2.549324989318848
1783196990326634200,6.48363427734375,0.3113270259715616,6.746227241113782,1.0679366900265217,4.236337661743164,-0.3146511316299438,-2.5048398971557617
1783196990336571100,6.493571044921875,0.8705645445369183,7.074175000888109,2.044813052946329,3.993686676025391,-0.3610000014305115,-2.436021327972412
1783196990346508000,6.503508056640625,1.402346339291334,7.294845458248258,2.8266543350219724,3.642003774642944,-0.3862568438053131,-2.361156463623047
1783196990356446000,6.513446044921875,1.79210743503049,7.550343483361601,3.4803748486191037,3.258068799972534,-0.2430450916290283,-2.2424240112304688
1783196990366383000,6.523383056640625,2.202970209378749,7.708817889049649,4.105429239702224,2.8775784969329834,-0.1056664809584617,-1.9625816345214844
1783196990376320000,6.533320068359375,3.3066391609132286,7.032333170458674,4.238694677592814,2.498811960220337,-0.0462774522602558,-1.7161675691604614
1783196990386257200,6.543257080078125,3.354855202549696,6.955738591077924,4.025529773557186,2.183135747909546,0.0443823486566543,-1.5030206441879272
1783196990396194300,6.5531943359375,3.33645854511559,7.245960139048099,3.9837642232343553,1.9214709997177124,0.1571323275566101,-1.2342435121536257
1783196990406131000,6.563130859375,3.61771031242758,7.25103086644113,3.7142908642604944,1.721369743347168,0.286162793636322,-0.9395924806594848
1783196990416069000,6.573069091796875,3.895703370204568,7.242225044173002,3.56386824760288,1.56498122215271,0.3569453656673431,-0.6573959589004517
1783196990426006000,6.583006103515625,4.018187594100833,7.295099140748381,3.5091906087368723,1.4406003952026367,0.3609924912452698,-0.4092179834842682
1783196990435943200,6.592943115234375,4.03545290941745,7.364429866605997,3.518567801152169,1.332087159156799,0.3108214735984802,-0.181432768702507
1783196990445880000,6.602880126953125,4.0383468772932885,7.427159586763381,3.674248192207515,1.2308945655822754,0.2453620880842209,0.0199795141816139
1783196990455817200,6.612817138671875,4.066515863940119,7.504651407244801,3.91579426433593,1.123921036720276,0.1714063733816146,0.2044548094272613
1783196990465754000,6.622754150390625,4.093103134353458,7.556439462149143,4.177310234564542,0.9840312004089355,0.1226832717657089,0.36323082447052
1783196990475692000,6.632692138671875,4.143187015688419,7.606886039316654,4.499334741769731,0.7992315292358398,0.0841358751058578,0.5073251128196716
1783196990485629200,6.642629150390625,4.175995060312748,7.70672705425024,4.882497023765742,0.55312180519104,0.0422072000801563,0.6573702692985535
1783196990495566000,6.652566162109375,4.234049482135474,7.70713680409491,5.260438648504018,0.2248054891824722,0.0036270485725253,0.8129289746284485
1783196990505503200,6.662503173828125,4.29397203591764,7.590197939366102,5.598621971088647,-0.1698631346225738,0.0107872327789664,0.9728187918663024
1783196990515440000,6.672440185546875,4.296062578456104,7.518416897746921,6.012989538687467,-0.6053118109703064,0.0413142517209053,1.1337202787399292
1783196990525378300,6.68237841796875,4.265008684022725,7.458011821144819,6.334487683930993,-1.0684541463851929,0.0842153504490852,1.2936187982559204
1783196990535315000,6.69231494140625,4.196353373208642,7.35741151227653,6.459847755524516,-1.549477219581604,0.1356460452079773,1.4402271509170532
1783196990545252000,6.702252197265625,4.009441100804508,7.234915597942471,6.413019368854164,-2.0540459156036377,0.1974607557058334,1.5485578775405884
1783196990555189200,6.712189208984375,3.61057709954679,7.177011105984449,6.284308233267068,-2.5341567993164062,0.2985391616821289,1.6077479124069214
1783196990565126100,6.722126220703125,3.162895291367173,7.166889524942636,6.129474229907989,-2.9697506427764893,0.3954124748706817,1.6374616622924805
1783196990575063300,6.732063232421875,2.734320626978576,7.107054357182979,5.810889341762661,-3.32014536857605,0.4811942279338836,1.6557146310806274
1783196990585001200,6.742001220703125,2.3950704058147965,7.018536115774512,5.389827829483151,-3.5692944526672363,0.4876279830932617,1.6889322996139526
1783196990594938000,6.751938232421875,2.190324516686797,6.844024182999133,4.871043609598279,-3.761707067489624,0.4087787270545959,1.7660040855407717
1783196990604875000,6.761875,1.8915153192438183,6.482953905823827,4.387584385594725,-3.9655795097351074,0.2392773479223251,1.889890193939209
1783196990614812200,6.771812255859375,1.4316852465003729,6.03642769742012,3.902144216907024,-4.177470684051514,0.0740822553634643,2.025522470474243
1783196990624749000,6.7817490234375,0.8107894364014268,5.598180657061934,3.363580945318937,-4.309039115905762,-0.0673169568181037,2.122087955474853
1783196990634686200,6.791686279296875,0.0058005029723048,5.153601491072774,2.668649884933233,-4.2992024421691895,-0.152506411075592,2.127336263656616
1783196990644624100,6.8016240234375,-0.8615463946923613,4.816448680579662,1.5655471889793873,-4.113275527954102,-0.3051280975341797,2.068483352661133
1783196990654561000,6.81156103515625,-1.4457020814150572,4.450791660135984,-0.1311491763889789,-3.8494467735290527,-0.4261855483055115,1.9193023443222048
1783196990664498200,6.821498291015625,-2.1488687629655003,4.257784285727143,-1.000180666139722,-3.618779420852661,-0.5882996916770935,1.850518822669983
1783196990674435000,6.83143505859375,-2.233724390213192,3.761142339545488,-1.585903748309612,-3.438294649124145,-0.7680193781852722,1.924029231071472
1783196990684372200,6.841372314453125,-2.07703949829042,2.5881501148074864,-2.241720357403159,-3.31217098236084,-0.9512840509414672,2.023845911026001
1783196990694310100,6.85131005859375,-2.275354331457615,1.5736206053197384,-2.793113299947977,-3.1720192432403564,-1.0632033348083496,2.043873071670532
1783196990704247300,6.861247314453125,-2.805016211448609,1.1401757045462726,-3.465916115155816,-3.016447067260742,-1.0807737112045288,1.968136191368103
1783196990714184000,6.871183837890625,-3.456104330715537,1.0117565376430748,-4.118564615607261,-2.862614631652832,-1.0010823011398315,1.821587324142456
1783196990724121000,6.88112109375,-3.902540230487287,0.947342809921503,-4.630612805235385,-2.7437198162078857,-0.8597389459609985,1.6824579238891602
1783196990734058200,6.891058349609375,-3.979878613972664,0.7282856329768895,-4.93430232206583,-2.603416919708252,-0.7265515923500061,1.6438084840774536
1783196990743995100,6.9009951171875,-3.5989632341206077,0.0220116330608725,-5.205893988367915,-2.412278652191162,-0.6915761232376099,1.7019083499908447
1783196990753933300,6.910933349609375,-3.1034692889302966,-0.955998410063982,-5.654985078823566,-2.2382616996765137,-0.7277849912643433,1.794541835784912
1783196990763870200,6.9208701171875,-3.012485534191132,-1.6465359116658569,-5.974260871842503,-2.081470012664795,-0.7646790146827698,1.840659260749817
1783196990773807000,6.93080712890625,-3.311637115330994,-2.014642371088266,-6.143867496919632,-1.9172537326812744,-0.7519405484199524,1.8133972883224487
1783196990783744000,6.940743896484375,-3.8363159462124106,-2.1861273572579023,-6.429547894328833,-1.7462234497070312,-0.6638525724411011,1.6983715295791626
1783196990793681200,6.95068115234375,-4.415754833546281,-2.2411387581229207,-6.670391371145844,-1.5467489957809448,-0.5149136781692505,1.5306954383850098
1783196990803618300,6.960618408203125,-4.76663747870624,-2.374295182681084,-6.828600988417864,-1.323144555091858,-0.381989061832428,1.3704639673233032
1783196990813556200,6.97055615234375,-4.78711620311141,-2.7518232581824065,-6.877010506799817,-1.1058138608932495,-0.3151836395263672,1.264367699623108
1783196990823493000,6.9804931640625,-4.550431599539518,-3.35671281311512,-6.799901548156142,-0.9152432680130004,-0.3039710223674774,1.2302563190460205
1783196990833430000,6.990429931640625,-4.332611270913482,-4.048259491759539,-6.628587534639239,-0.761896014213562,-0.3345763385295868,1.1955689191818235
1783196990843367200,7.0003671875,-4.37092142008543,-4.582089012823999,-6.4389510979682205,-0.6334065198898315,-0.3438465297222137,1.1015545129776
1783196990853304000,7.010303955078125,-4.79522936694026,-4.835284313952923,-6.300276202249527,-0.4944809377193451,-0.3023813962936401,0.9092431664466858
1783196990863242200,7.0202421875,-5.3820554419159885,-4.916562082713842,-6.209558404970169,-0.3206053674221039,-0.2097580134868621,0.6391469240188599
1783196990873179100,7.03017919921875,-5.925139990320801,-4.90392062780559,-6.202782627224922,-0.0879673361778259,-0.0763826444745063,0.3156900107860565
1783196990883116300,7.0401162109375,-6.324630891305207,-4.8229415497303005,-6.227446528360248,0.1500771790742874,-0.0043242713436484,-0.0260848253965377
1783196990893053000,7.050052978515625,-6.316482656162977,-4.736408929181098,-6.129353233876824,0.3844465315341949,0.0330473333597183,-0.346838891506195
1783196990902990000,7.059989990234375,-5.98752659612894,-4.641183883610368,-5.905142911952733,0.5918106436729431,0.023578755557537,-0.592738926410675
1783196990912927000,7.069927001953125,-5.374620908001065,-4.497393836835027,-5.553096483710408,0.7624489665031433,-0.0289816558361053,-0.747556746006012
1783196990922865000,7.079864990234375,-4.6113060472190375,-4.395938372442126,-5.135068640038371,0.9132729768753052,-0.1135431826114654,-0.8615645170211792
1783196990932802000,7.089802001953125,-3.948641179665923,-4.179811988252401,-4.835759530249238,1.0600357055664062,-0.2106971591711044,-0.9385432004928588
1783196990942738700,7.09973876953125,-3.520260284283757,-3.850965233811736,-4.674209954899549,1.1952623128890991,-0.2750197947025299,-0.9949499368667604
1783196990952675800,7.10967578125,-3.3035119688034054,-3.451284363213181,-4.630709251347184,1.3206759691238403,-0.3234656155109405,-1.035902976989746
1783196990962613000,7.119613037109375,-3.2168641974419354,-3.115139852979779,-4.677212643846869,1.4180694818496704,-0.3477057814598083,-1.0403923988342283
1783196990972550000,7.1295498046875,-3.233807148936391,-2.9736025535672903,-4.85056254710555,1.493129849433899,-0.3257608115673065,-1.0638420581817627
1783196990982487800,7.13948779296875,-3.480646066775918,-2.906635926492512,-5.1288551723510025,1.5480722188949585,-0.2324572950601577,-1.1269596815109253
1783196990992425000,7.149425048828125,-4.021407725191116,-2.769868325699865,-5.445915627408027,1.5839163064956665,-0.0596825890243053,-1.2588216066360474
1783196991002361900,7.15936181640625,-4.686483161017298,-2.4839240166574714,-5.698085384881496,1.6244635581970217,0.1642192602157592,-1.4420534372329712
1783196991012298800,7.169298828125,-5.211669064638018,-2.118027634499967,-5.968325052052736,1.7057853937149048,0.3851015865802765,-1.6460294723510742
1783196991022236000,7.17923583984375,-5.440640901875495,-1.7778274191349743,-6.297651114442944,1.836731195449829,0.5594343543052673,-1.8373416662216189
1783196991032172800,7.1891728515625,-5.409743659308552,-1.3588622946128248,-6.580134177115559,1.99155855178833,0.6994289755821228,-1.9722453355789185
1783196991042111000,7.199111083984375,-5.174450802356004,-0.8740060632929205,-6.676658614847064,2.1815762519836426,0.7876961827278137,-2.082515239715576
1783196991052048000,7.2090478515625,-4.898882925899327,-0.3232145937725901,-6.621565088656545,2.4432616233825684,0.8373503088951111,-2.209113121032715
1783196991061984800,7.21898486328125,-4.639048625147343,0.3285509863644838,-6.475501836252212,2.782900810241699,0.8268114924430847,-2.343386650085449
1783196991071922000,7.228921875,-4.280476010006666,1.0133575430989266,-6.065375559484958,3.120349407196045,0.7606217861175537,-2.4636518955230717
1783196991081858800,7.23885888671875,-3.758287242375314,1.7887743450850246,-5.3425920310556885,3.388336420059204,0.6370711326599121,-2.553081750869751
1783196991091797000,7.248796875,-3.1489386622071263,2.6304852817118167,-4.348579824417829,3.5591726303100586,0.5063139200210571,-2.6259469985961914
1783196991101734000,7.25873388671875,-2.6029189371332526,3.470900917831063,-3.243099877938628,3.655531883239746,0.3938093185424804,-2.6707098484039307
1783196991111671000,7.268671142578125,-2.089162482282519,4.2344589397192,-2.220369526338577,3.694920778274536,0.2737420499324798,-2.6914048194885254
1783196991121607700,7.278607666015625,-1.61439597556144,4.958418526190519,-1.3844167148470878,3.672988414764404,0.1696829348802566,-2.7223949432373047
1783196991131544800,7.288544921875,-1.2708052409753203,5.618879161697626,-0.5854173772215843,3.6171562671661377,0.0835371389985084,-2.766568899154663
1783196991141482000,7.29848193359375,-0.9912053325235844,6.107227911308407,0.0934919381678104,3.539696216583252,0.0138923143967986,-2.8593125343322754
1783196991151420000,7.308419921875,-0.9053785221561788,6.536321338874101,0.6083551852166652,3.44254207611084,-0.0377133563160896,-2.994597911834717
1783196991161356800,7.318356689453125,-0.7872852266952395,7.06152770076096,1.077495961010456,3.3355729579925537,-0.0567734315991401,-3.125351428985596
1783196991171294000,7.3282939453125,-0.3897194485545158,7.539909183108806,1.5075217009902,3.198960304260254,-0.0254253670573234,-3.139051914215088
1783196991181230800,7.33823095703125,0.5191935313381254,8.007131558060646,1.8532272357732056,3.080549716949463,0.0892635956406593,-2.9908077716827397
1783196991191167700,7.348167724609375,1.829485856310278,8.07265996902585,2.178242449226975,2.9497265815734863,0.1432935297489166,-2.7228567600250244
1783196991201105000,7.35810498046875,2.5700010023936626,7.896411421716213,2.195613563005626,2.765988111495972,0.1682796031236648,-2.4331064224243164
1783196991211042800,7.368042724609375,3.077211396601796,8.15785286540389,2.451253334677219,2.516566753387451,0.2220640033483505,-2.119422674179077
1783196991220980000,7.37797998046875,3.5611508053377268,8.492493400815128,2.8790312957301736,2.2112414836883545,0.3091272711753845,-1.7776697874069214
1783196991230916900,7.387916748046875,3.9656612880498168,8.52216139384806,3.2695705362349745,1.8832718133926392,0.3845660984516144,-1.464871168136597
1783196991240853800,7.397853759765625,4.126300178295374,8.433361997410655,3.5595328487470743,1.5856244564056396,0.4230406582355499,-1.2159178256988523
1783196991250791000,7.407791015625,4.072254699853063,8.44827256629467,3.683438922140002,1.333730697631836,0.3948734700679779,-0.9947401285171508
1783196991260727800,7.417727783203125,3.979131887258589,8.428022974470258,3.5638270388096567,1.1486233472824097,0.3322885930538177,-0.7780337929725647
1783196991270666000,7.427666015625,3.91886271199584,8.250418336376548,3.368926398000121,1.0172117948532104,0.2628855407238006,-0.5842515230178833
1783196991280603000,7.437602783203125,3.9017803520306944,8.074481339234113,3.282442877289653,0.902986228466034,0.1948922574520111,-0.4133692383766174
1783196991290540000,7.4475400390625,3.919567645394802,8.008084328740834,3.3110482095271347,0.7648904323577881,0.1620634645223617,-0.2606582641601562
1783196991300476700,7.4574765625,3.9797614173337816,7.93043410282731,3.514142678186297,0.596322774887085,0.1955573707818985,-0.1224625706672668
1783196991310413800,7.467413818359375,4.08513727004081,7.922579882195591,3.819994341486692,0.3984448611736297,0.2654493749141693,0.0222717095166444
1783196991320351700,7.477351806640625,4.303527507509291,8.007950473228096,4.115151300032436,0.1778181940317154,0.3469094038009643,0.2070605456829071
1783196991330289000,7.487288818359375,4.661800847442448,8.010826320925354,4.430445622199773,-0.0851055681705474,0.408942699432373,0.4312403798103332
1783196991340226000,7.49722607421875,5.041257552918792,7.9267866862356655,4.785384557013213,-0.3918019235134125,0.457695722579956,0.6804579496383667
1783196991350163000,7.507162841796875,5.2854024093687535,7.916570997169614,5.1857174617797135,-0.7374520301818848,0.5050435066223145,0.9331085681915284
1783196991360099800,7.517099853515625,5.379764700630307,8.019440420013666,5.57504352710247,-1.1098428964614868,0.5387558937072754,1.177992343902588
1783196991370036700,7.52703662109375,5.333616112917661,8.18815974086225,5.91906330075562,-1.506636619567871,0.5260835289955139,1.395050048828125
1783196991379975000,7.536974853515625,5.14737925555706,8.386473989507556,6.205344002145528,-1.9324567317962649,0.460587590932846,1.5724456310272217
1783196991389911800,7.546911865234375,4.816963059842586,8.647442554986476,6.3923933449327945,-2.406582355499268,0.3893685340881347,1.7146559953689575
1783196991399849000,7.556848876953125,4.43463079892993,8.931673922631145,6.61021659616828,-2.9027905464172363,0.3436135947704315,1.8338351249694824
1783196991409786000,7.5667861328125,4.017940925863385,9.157319245794415,6.800560304325819,-3.3679962158203125,0.2800348997116089,1.9296029806137085
1783196991419722800,7.57672265625,3.5729561016827818,9.342396411725876,6.732942812126875,-3.845940828323364,0.1465377509593963,2.050999164581299
1783196991429660000,7.586659912109375,3.192789494371414,9.349214859569072,6.36300826049447,-4.325529098510742,0.0150939784944057,2.2436020374298096
1783196991439597800,7.596597900390625,2.921708700200915,9.233036457818748,6.013873335784673,-4.784053325653076,-0.101435974240303,2.5104048252105717
1783196991449535000,7.606534912109375,2.5964678612977266,8.936451220035552,5.617648743119836,-5.1813554763793945,-0.2068127393722534,2.8281056880950928
1783196991459472000,7.616471923828125,1.9960314863815904,8.403595220178365,4.962981304061413,-5.452516555786133,-0.302325576543808,3.127124786376953
1783196991469409000,7.626408935546875,0.984530969326198,7.84539025953114,3.969913684797287,-5.581378936767578,-0.4138672947883606,3.3374040126800537
1783196991479346000,7.636345947265625,-0.3393775008052587,7.31509505007267,2.5635166088104246,-5.457708835601807,-0.4579287767410278,3.412483930587769
1783196991489283800,7.646283935546875,-1.868124945175648,6.686857937300205,0.3976970033049583,-5.315559387207031,-0.4977222681045532,3.3556368350982666
1783196991499220700,7.656220703125,-3.655910571484268,6.041017363297939,-1.5238304462343453,-5.158594608306885,-0.3350773751735687,3.1817739009857178
1783196991509158000,7.666157958984375,-4.919675246298313,5.507976070001721,-2.1992507504642007,-4.925530910491943,-0.1783389002084732,2.995882987976074
1783196991519095000,7.676094970703125,-5.622680892068147,4.466347541186213,-4.050909129485488,-4.547173023223877,-0.1334210038185119,2.7816824913024902
1783196991529032000,7.686031982421875,-6.1684197543740265,3.181761319878697,-5.535217712670565,-4.017000675201416,-0.1729654818773269,2.532036066055298
1783196991538968800,7.69596875,-6.254436242094636,1.996346835941076,-6.903782778391242,-3.485875129699707,-0.3366866111755371,2.2968807220458984
1783196991548906800,7.70590673828125,-6.362402695816755,1.0636290559604764,-7.702396916091442,-3.093900680541992,-0.471859872341156,2.095619201660156
1783196991558844000,7.715843994140625,-6.110434013873339,0.3936015506848692,-7.771040828728675,-2.846167087554932,-0.6106023192405701,1.976025104522705
1783196991568780800,7.72578076171875,-5.736018517434597,-0.23038404212296,-7.533647784626483,-2.67159104347229,-0.8766036033630371,1.9507181644439695
1783196991578718000,7.735718017578125,-5.467180533754825,-1.0739397298336029,-7.838093088260292,-2.416254997253418,-1.0362764596939087,1.937773823738098
1783196991588655000,7.745655029296875,-5.407575667619705,-1.896410690069944,-8.43571878966987,-2.1033504009246826,-1.300859451293945,1.9108806848526
1783196991598591700,7.755591796875,-5.73543399554491,-2.410818302305788,-9.243295986026524,-1.7028623819351196,-1.1852563619613647,2.046414613723755
1783196991608530000,7.765530029296875,-5.710980522289872,-3.5420340169355278,-9.702815531516077,-1.4640265703201294,-1.1080299615859983,2.1652140617370605
1783196991618466800,7.775466796875,-6.106131932765245,-5.1825873470604416,-9.846983179432153,-1.39849853515625,-0.8541595935821533,2.1036136150360107
1783196991628404000,7.785404052734375,-7.177043254688382,-6.0451049248725175,-9.641647069326044,-1.429066777229309,-0.4894556701183319,1.8663995265960691
1783196991638340900,7.7953408203125,-8.040775468987226,-6.793207018953561,-9.39868236257136,-1.3373005390167236,0.0292042456567287,1.485465168952942
1783196991648278000,7.805278076171875,-8.64299609697163,-6.86432112109661,-9.067875706234574,-1.0994901657104492,0.3015345633029938,1.141579508781433
1783196991658216000,7.8152158203125,-8.556462891900539,-6.501724657267332,-9.032091860669851,-0.7582589387893677,0.243875578045845,0.8922134041786194
1783196991668152800,7.82515283203125,-7.869966482383012,-6.271766147080063,-9.087368926733731,-0.3756966590881347,-0.0599908269941806,0.6757333278656006
1783196991678090000,7.835090087890625,-7.092585102325677,-6.181349378573894,-8.927834198337793,0.016732046380639,-0.4386025667190552,0.4407123029232025
1783196991688027000,7.84502685546875,-6.437834661158919,-5.942815347743034,-8.551603761431574,0.4023119509220123,-0.7517911195755005,0.1753477454185485
1783196991697964000,7.854964111328125,-5.933491054558754,-5.438651773884892,-8.030402543532848,0.7469059228897095,-0.9470323324203492,-0.0901195332407951
1783196991707901000,7.86490087890625,-5.356610035014152,-4.752413138520717,-7.431710674196482,1.0429085493087769,-1.039412021636963,-0.3224646151065826
1783196991717838800,7.8748388671875,-4.69573088183403,-4.085623884513974,-6.816585556453466,1.2672070264816284,-1.080123782157898,-0.5178006291389465
1783196991727775700,7.884775634765625,-3.9961376748561857,-3.4455887819200752,-6.188762869700789,1.4477297067642212,-1.064341425895691,-0.6625381112098694
1783196991737713000,7.894712890625,-3.315396467864513,-2.893857401201129,-5.658985546636581,1.5951184034347534,-0.995166540145874,-0.7709966897964478
1783196991747649800,7.90464990234375,-2.8719103578090666,-2.4251908187903464,-5.204052744415402,1.6986019611358645,-0.9107584953308104,-0.8468461632728577
1783196991757587000,7.9145869140625,-2.7238252441883084,-2.062997090543061,-4.8940802017927165,1.7504552602767944,-0.8547007441520691,-0.9117504954338074
1783196991767523800,7.92452392578125,-2.7073388042896984,-1.9373660930536687,-4.715239884424209,1.7591257095336914,-0.8286041617393494,-0.9609255194664
1783196991777461800,7.934461669921875,-2.791403573420644,-2.0060925694078207,-4.808365911889076,1.759145736694336,-0.7853477597236633,-0.9728487133979796
1783196991787399000,7.94439892578125,-3.0960487835407253,-2.0848685844808816,-5.165789356994629,1.79738187789917,-0.675152599811554,-0.9912521839141846
1783196991797335800,7.954335693359375,-3.7011072652995582,-2.1539460662297905,-5.733300490647554,1.9236159324646,-0.4950795173645019,-1.0804097652435305
1783196991807273000,7.96427294921875,-4.512790143409371,-2.195712054944038,-6.36899493368864,2.0907182693481445,-0.2646439373493194,-1.2639398574829102
1783196991817209900,7.9742099609375,-5.442707186755538,-2.0478043437168,-6.867444221553206,2.241093397140503,-0.007004041224718,-1.5136821269989014
1783196991827148000,7.98414794921875,-6.371141882589459,-1.573015040642023,-7.045520568811893,2.3683602809906006,0.2434092611074447,-1.8515613079071045
1783196991837084700,7.994084716796875,-7.173043955919146,-0.9828741420298814,-7.02202629597783,2.492992401123047,0.4861792325973511,-2.2635936737060547
