time,seconds_elapsed,ax,ay,az,gx,gy,gz
1783203182291882800,0.0898828125,-0.4612203580580651,0.7666397674210369,0.7871382194399833,-1.6159695386886597,-0.4684353768825531,0.0198538992553949
1783203182301820000,0.09981982421875,0.0184000184349715,0.190654819933325,0.4503536577373743,-1.648762345314026,-0.6666557788848877,0.0759968012571334
1783203182311756800,0.1097568359375,0.3962343834064901,-0.5641800164688379,-0.3941016091614961,-1.695020079612732,-0.9624267220497132,0.1537996977567672
1783203182321694000,0.11969384765625,0.4134793865874409,-0.9922584948383272,-1.5329238532721996,-1.7125502824783323,-1.1307481527328491,0.2136353403329849
1783203182331630600,0.129630615234375,0.0472024806797504,-1.0637691950835286,-2.5094851588934657,-1.6667135953903198,-1.014628529548645,0.216380164027214
1783203182341567700,0.139567626953125,-0.4801430851928889,-1.0667094132538883,-3.471962409582734,-1.55694580078125,-0.7609211802482605,0.1636226773262024
1783203182351505000,0.1495048828125,-0.9611245209060608,-1.0513397754907607,-4.529750046038627,-1.3699997663497925,-0.3594809472560882,0.0470596700906753
1783203182361441800,0.15944189453125,-1.088017208894342,-1.0561319782033562,-5.171590152227878,-1.0897225141525269,0.0847034081816673,-0.088848628103733
1783203182371379000,0.16937890625,-0.8250964864343404,-1.1472250385358929,-6.243781577089429,-0.6962198615074158,0.2608613967895508,-0.1932829022407531
1783203182381315600,0.179315673828125,-0.3995461383029818,-1.3855661771431564,-8.04436910956502,-0.205617144703865,0.2123487442731857,-0.22955222427845
1783203182391252700,0.189252685546875,0.0199094000846147,-1.6313810126319526,-9.532204697832464,0.3711379766464233,0.1671594232320785,-0.212410494685173
1783203182401190000,0.19918994140625,-0.014229893143475,-1.6301844963237642,-10.497964038932324,1.0258114337921145,0.3605049252510071,-0.1990547478199005
1783203182411126800,0.209126708984375,-0.2124095556236803,-1.2267147548362611,-10.686320372664929,1.7079697847366333,0.6026812791824341,-0.2152194231748581
1783203182421062700,0.219062744140625,-0.2483504914462566,-0.8975249591115861,-11.013505331373214,2.387056350708008,0.7142860889434814,-0.2557364702224731
1783203182430999800,0.228999755859375,-0.2993798369377851,-0.8599994575113058,-11.258896973013876,3.074596881866455,0.765134334564209,-0.340316891670227
1783203182440936700,0.238936767578125,-0.4859590049300342,-0.6188141084540635,-11.065145502239464,3.780312776565552,0.7439941763877869,-0.4681962728500366
1783203182450873900,0.248873779296875,-0.7155912788376212,-0.0590429214034229,-10.601266592496632,4.482375621795654,0.6949033737182617,-0.6326382160186768
1783203182460811000,0.25881103515625,-0.9463330483570694,0.4870722999341785,-9.827318694019317,5.153298854827881,0.5787229537963867,-0.8023028373718262
1783203182470747600,0.26874755859375,-1.1789444842059165,0.9006297201938926,-8.843392412587999,5.720517635345459,0.7115140557289124,-0.9723094701766968
1783203182480684800,0.278684814453125,-1.2547203676149248,1.3414742296993731,-6.313662922567128,6.025650024414063,0.9047327637672424,-0.9930269718170166
1783203182490621700,0.28862158203125,-1.1053485751844945,1.632870666667819,-4.8493695379287,6.187066555023193,0.6037501692771912,-0.9791557192802428
1783203182500558800,0.298558837890625,-1.3050690373659133,2.400031096962094,-4.610507005795836,6.2328081130981445,0.2495513558387756,-0.997229278087616
1783203182510496000,0.30849609375,-1.3626539419807493,3.225447609131038,-3.0333716703534126,6.193416595458984,0.1409821957349777,-1.0194345712661743
1783203182520432600,0.3184326171875,-1.342513509619236,4.291229751472175,-1.5581395430713891,6.193580627441406,0.2464308589696884,-0.99682879447937
1783203182530369800,0.328369873046875,-1.2828399621620774,5.426805268746614,-0.5497498515129089,6.208775520324707,0.5864357352256775,-0.921112895011902
1783203182540306700,0.338306640625,-0.9755718561924992,6.2734694438666105,0.7800549831807613,6.1344313621521,1.0567686557769775,-0.7853319048881531
1783203182550243800,0.348243896484375,-0.6912642084412276,6.653940002560615,2.4614532416522503,5.789348125457764,1.5622663497924805,-0.6675480008125305
1783203182560181000,0.358180908203125,-0.9163442989371716,7.1593696508318185,4.596459191220998,5.163058757781982,2.146334171295166,-0.6775639057159424
1783203182570117600,0.36811767578125,-1.131319905656576,7.788518617752194,6.654522770884633,4.448295593261719,2.462681770324707,-0.6071890592575073
1783203182580054800,0.3780546875,0.1715644811466336,6.464458464190363,6.697405634799599,3.592411518096924,2.389009475708008,-0.4230676889419555
1783203182589991700,0.38799169921875,-0.534085541652143,6.20672113571763,8.02677967686057,2.7062768936157227,2.1321394443511963,-0.3460534214973449
1783203182599927800,0.397927734375,-0.6432844597786664,6.67793462613225,8.549937874045968,1.908545732498169,1.7389291524887085,-0.3986306190490722
1783203182609864700,0.40786474609375,-0.4157567569348961,6.788183053311705,8.627674609199167,1.2635068893432615,1.2707301378250122,-0.4245311021804809
1783203182619801900,0.4178017578125,-0.5366227319795638,6.582927022704482,8.386120938286185,0.7158985733985901,0.8072420954704285,-0.4444827139377594
1783203182629738800,0.42773876953125,-0.661008332517743,6.641161769530177,8.39942874814868,0.2196357697248459,0.4785490930080414,-0.4690962135791778
1783203182639676000,0.437676025390625,-0.5641176918223499,7.062281733998656,8.660631706905365,-0.2462728023529052,0.2770532369613647,-0.4614092707633972
1783203182649612800,0.44761279296875,-0.2314697915330529,7.2663196209877725,8.77992502580583,-0.7118090391159058,0.1641198843717575,-0.3867218792438507
1783203182659549700,0.4575498046875,0.2799890538997948,7.198061492797732,8.912554211619495,-1.1906145811080933,0.0808646604418754,-0.2797507047653198
1783203182669486800,0.46748681640625,0.6289972834900022,7.29510147883594,9.043087886458634,-1.697136163711548,0.008805769495666,-0.167789950966835
1783203182679423700,0.477423828125,0.7546527578335255,7.423378899180888,9.24261326445937,-2.228997707366944,-0.0558219589293003,-0.0567587651312351
1783203182689361000,0.48736083984375,0.7820235067747533,7.526089916592836,9.409584280335904,-2.7717010974884038,-0.1391322463750839,0.0605149269104003
1783203182699297800,0.4972978515625,0.6622868280209601,7.70517807124257,9.440943879717588,-3.320469856262207,-0.316227912902832,0.1713442504405975
1783203182709234700,0.507234619140625,0.4809833354093134,7.74557437903881,9.28601635285616,-3.879540681838989,-0.6431818008422852,0.2877030968666076
1783203182719171800,0.517171875,0.2384872690796852,7.576147202181816,8.983670067328214,-4.432178020477295,-1.1121480464935305,0.4244718551635742
1783203182729108700,0.527108642578125,-0.1071918160878121,7.326091660383343,8.397219255405664,-4.92909574508667,-1.689164638519287,0.5767987966537476
1783203182739046000,0.5370458984375,-0.6348240899473429,7.040162841171026,7.368668234828114,-5.366081237792969,-2.203421115875244,0.7666062712669373
1783203182748982800,0.546982666015625,-1.338604957873374,6.55756637147665,6.127061908069253,-5.742630958557129,-2.554926872253418,0.9996236562728882
1783203182758919700,0.556919677734375,-2.511219435340166,5.741472691187262,4.450300077226758,-6.017577171325684,-2.685976266860962,1.1947300434112549
1783203182768856800,0.56685693359375,-4.260264704366028,4.969651867866516,2.398608370682597,-6.169018745422363,-2.735476493835449,1.2523918151855469
1783203182778793700,0.576793701171875,-6.298761706033349,3.8935733724385497,-0.0120826519817113,-6.174861907958984,-2.9233384132385254,1.0599254369735718
1783203182788731000,0.58673095703125,-8.524272686913609,2.500316056270897,-2.642505974373221,-6.0053324699401855,-3.2362635135650635,0.504051685333252
1783203182798668000,0.59666796875,-10.22433648288846,1.5349617888405918,-5.370615764012933,-5.762858867645264,-3.6401796340942383,-0.3260787725448608
1783203182808604700,0.606604736328125,-9.966614936506748,0.8306962061375379,-8.334616961020231,-5.518558025360107,-3.7428503036499023,-1.1037920713424685
1783203182818541800,0.616541748046875,-7.543740139573812,0.3421292837314307,-11.476153238016366,-5.174370765686035,-3.293147563934326,-1.5346187353134155
1783203182828478700,0.626478759765625,-3.501272967480123,-0.4720784366808831,-14.006276111268996,-5.564689159393311,-1.6916043758392334,-1.6519395112991333
1783203182838416000,0.636415771484375,0.2452693304352462,-1.0887298872083424,-15.02806713619232,-4.846343994140625,0.2001828253269195,-1.6862328052520752
1783203182848353000,0.64635302734375,3.6366254407778382,-1.1267673569187522,-18.72085548595786,-3.355911493301392,1.7156062126159668,-1.4691883325576782
1783203182858289700,0.65628955078125,6.7581123246967785,-2.053575328333676,-19.69827077805996,-1.984109878540039,2.557525396347046,-1.0016883611679075
1783203182868226800,0.666226806640625,8.344531621313095,-2.735419235870242,-17.864157992601395,-0.8984051942825317,2.543674945831299,-0.3841969072818756
1783203182878163000,0.676162841796875,8.286212703335284,-3.03180982786417,-15.97506390915513,0.1175377666950225,1.8271713256835935,0.2487797886133194
1783203182888099800,0.686099853515625,7.075882389327884,-3.055090165686607,-14.22304020884037,0.8851022124290466,0.9888074398040771,0.7750758528709412
1783203182898036700,0.69603662109375,5.399730214816332,-2.9035709859639405,-11.677683526098727,1.3520870208740234,0.5245851278305054,1.1102343797683716
1783203182907974000,0.705973876953125,3.639323886081576,-2.517113169553876,-9.37439547805488,1.815234899520874,0.475712388753891,1.2162973880767822
1783203182917910800,0.715910888671875,2.013943575169146,-2.038640209530294,-7.936564568406343,2.411877155303955,0.6617882251739502,1.1572226285934448
1783203182927848000,0.725847900390625,0.63325106847696,-1.5191440419837832,-6.558553628948331,2.903228998184204,0.9092715978622437,1.0361928939819336
1783203182937784300,0.735784423828125,-0.4667049269489943,-1.1424474488705396,-4.643035648956895,3.040445566177368,1.1096537113189695,0.924074649810791
1783203182947721200,0.74572119140625,-1.30671622005105,-0.6927241979911923,-2.417002690029144,2.9556734561920166,1.2498948574066162,0.8147813677787781
1783203182957658400,0.755658447265625,-2.0711311510294674,0.0300084770336747,-0.7325058810204267,2.9198594093322754,1.2929595708847046,0.6948089003562927
1783203182967595300,0.76559521484375,-2.7264322118163107,0.8043680250518024,0.3271399505227804,3.019935607910156,1.2411036491394043,0.5795197486877441
1783203182977532400,0.775532470703125,-3.015469810698926,1.273968965703249,1.298616500225663,3.0175671577453613,1.0872259140014648,0.5056015849113464
1783203182987469300,0.78546923828125,-3.05852569309324,1.528450799511373,2.515779290601611,2.858006477355957,0.8750419020652771,0.4530300796031952
1783203182997406200,0.79540625,-2.9726100353986022,1.8008111120983956,3.577389700216054,2.6633195877075195,0.6006571650505066,0.4333610236644745
1783203183007343400,0.80534326171875,-2.7977953202843664,2.040427677468956,4.191791764381527,2.4896161556243896,0.3092894256114959,0.4134226441383362
1783203183017280300,0.8152802734375,-2.67993934071064,2.2595587964326143,4.707570957231521,2.3341548442840576,0.0278279427438974,0.388146311044693
1783203183027217400,0.825217529296875,-2.495899993394315,2.351013383553922,5.05526620452702,2.104643583297729,-0.2604297399520874,0.3705550134181976
1783203183037154300,0.835154296875,-2.2320685858301816,2.2832702191486955,5.42339867517352,1.7961857318878174,-0.5167903900146484,0.3197285830974579
1783203183047091200,0.84509130859375,-2.021288969495892,2.336856847907603,5.666646290522814,1.4410436153411863,-0.7383900880813599,0.2489285767078399
1783203183057028400,0.8550283203125,-1.7157617158442735,2.2767343876391646,5.758107599645853,1.0375916957855225,-0.8835038542747498,0.1735158562660217
1783203183066965200,0.86496533203125,-1.3594544152870771,2.2271876819208263,5.794321653321385,0.6159931421279907,-0.9477964043617249,0.0865012481808662
1783203183076902400,0.87490234375,-0.9909394481290132,2.294307161469757,5.690370280459523,0.198257178068161,-0.9098449945449828,0.008847203105688
1783203183086839300,0.88483935546875,-0.5957653143651783,2.2643033606112004,5.496753834241629,-0.217045247554779,-0.8288445472717285,-0.0310886390507221
1783203183096776200,0.894776123046875,-0.2044886994965374,2.17580908460021,5.249117044022679,-0.6408221125602722,-0.7824333906173706,-0.0536818318068981
1783203183106713300,0.90471337890625,0.0252108674935996,2.116514599588513,4.888540103322267,-1.071845769882202,-0.7923510670661926,-0.0742420703172683
1783203183116650200,0.914650146484375,0.1792667991522699,1.962555040976405,4.426179196926952,-1.4900339841842651,-0.8397452235221863,-0.1159604862332344
1783203183126587400,0.92458740234375,0.219080265559256,1.8653458358511328,3.820692845144868,-1.8569589853286743,-0.8214401602745056,-0.1737709194421768
1783203183136524300,0.934524169921875,0.2246650799542665,1.6595441540598868,3.119298726224899,-2.1559293270111084,-0.7635749578475952,-0.2271119058132171
1783203183146461200,0.944461181640625,0.1252939475547522,1.394498548400402,2.327072243735194,-2.4019229412078857,-0.6917851567268372,-0.2968880236148834
1783203183156398300,0.9543984375,-0.0203957953620702,1.224546178625524,1.6393354787677523,-2.5757861137390137,-0.6017634272575378,-0.3815483152866363
1783203183166335200,0.964335205078125,-0.0021284633960574,1.0674293250262736,0.9733534494906664,-2.691281795501709,-0.5021910071372986,-0.4618827998638153
1783203183176272400,0.9742724609375,0.1955018946383148,0.9921996042579412,0.315685659572482,-2.7271547317504883,-0.4094797074794769,-0.5012784600257874
1783203183186209300,0.984209228515625,0.5832423712700605,0.908804404951632,-0.2005745947927236,-2.830784559249878,-0.2449302077293396,-0.4793097674846649
1783203183196146200,0.994146240234375,0.9874007526088504,0.8042373844094574,-0.6092302144855261,-2.7308802604675293,-0.0688566416501998,-0.3869816958904266
1783203183206083300,1.004083251953125,1.395224670717865,0.8000997000828385,-1.4586451496183872,-2.51029896736145,0.0562938414514064,-0.23225998878479
1783203183216020200,1.014020263671875,1.6721129821233451,0.6802984316602348,-1.970468882840872,-2.338989734649658,0.1491476148366928,-0.0367464162409305
1783203183225957400,1.023957275390625,1.7645289616227149,0.4227683161973953,-2.055301713734865,-2.2373034954071045,0.1608157157897949,0.1556246131658554
1783203183235894300,1.033894287109375,1.540060573284328,0.1365821612231433,-2.2940198689609765,-2.1414740085601807,0.0531979128718376,0.2990893721580505
1783203183245831200,1.0438310546875,0.9894067586690188,-0.2315914451513439,-2.7834721958994866,-2.025568962097168,-0.120393618941307,0.3747345507144928
1783203183255768300,1.053768310546875,0.4271894936405122,-0.659068523561582,-3.4044244123607874,-1.848158359527588,-0.3135201930999756,0.3909518718719482
1783203183265705500,1.06370556640625,-0.0619809476166963,-1.017136038724333,-4.244515054309368,-1.5579839944839478,-0.5183902382850647,0.3932680785655975
1783203183275642400,1.073642333984375,-0.3537095391489565,-1.393059601638466,-5.216298478004336,-1.1434786319732666,-0.6902163028717041,0.3966926336288452
1783203183285580300,1.083580322265625,-0.527123301424086,-1.6988123346090316,-6.064461951771378,-0.6210123896598816,-0.7968752384185791,0.3852047026157379
1783203183295517200,1.09351708984375,-0.7473800634168088,-1.8937818028710784,-6.721165865093469,-0.0669659674167633,-0.8202540278434753,0.3475217521190643
1783203183305454300,1.103454345703125,-1.044558152526617,-2.034213040737808,-7.143725506976247,0.434705376625061,-0.752042829990387,0.2729891240596771
1783203183315391200,1.11339111328125,-1.2845533419512212,-2.2138810411021117,-7.375797648316621,0.8746913075447083,-0.6268993020057678,0.1912090331315994
1783203183325328400,1.123328369140625,-1.3634002303034067,-2.414449498414993,-7.604732076153159,1.30480694770813,-0.5080958008766174,0.15530925989151
1783203183335265300,1.133265380859375,-1.123611084844917,-2.6624866861283776,-7.878294750267266,1.7875497341156006,-0.442230761051178,0.1690157502889633
1783203183345202200,1.1432021484375,-0.9822593711324036,-2.7134374134257437,-8.14968709460497,2.342490673065185,-0.4720478355884552,0.1861446499824524
1783203183355139300,1.153139404296875,-1.336867904947698,-2.7143188724353906,-8.419077451470494,2.913323163986206,-0.5490075349807739,0.1540466248989105
1783203183365076200,1.163076171875,-1.8143876558996737,-2.8031548014909027,-8.690959040629863,3.442298173904419,-0.6684955954551697,0.0246282406151294
1783203183375013400,1.173013427734375,-2.3206937947444617,-2.819219508846104,-9.08738938499987,3.896564483642578,-0.7208224534988403,-0.189460352063179
1783203183384950300,1.1829501953125,-2.752191506972909,-2.7524200550317763,-9.409876541280743,4.295584678649902,-0.653313934803009,-0.462657481431961
1783203183394887200,1.19288720703125,-3.129588065049052,-2.518843062086403,-9.74978537248373,4.674524307250977,-0.3553320467472076,-0.7809686660766602
1783203183404824300,1.20282421875,-3.422456035874784,-2.1112653007581828,-9.764231830987333,5.014963150024414,0.1347074061632156,-1.1147594451904297
1783203183414761200,1.21276123046875,-3.64108855766654,-1.4559589792743324,-9.44401612676978,5.286920070648193,0.7343116998672485,-1.3968424797058103
1783203183424698400,1.222698486328125,-3.680947105324268,-0.8100503084719181,-8.811859794726967,5.504601955413818,1.283995270729065,-1.6005079746246338
1783203183434635500,1.232635498046875,-3.656542147386074,0.1073690723508596,-8.067890854927898,5.721149921417236,1.6875985860824585,-1.7251694202423096
1783203183444572200,1.242572265625,-3.415611576807499,1.2820137404710057,-7.352944011473655,5.99685001373291,1.928838849067688,-1.786832332611084
1783203183454509300,1.25250927734375,-3.2407287648931145,2.6267700605809687,-6.695019031924009,6.3277459144592285,2.05823826789856,-1.7697266340255735
1783203183464446200,1.2624462890625,-3.117857002983987,4.17334308449924,-5.8562675296247,6.678857326507568,2.118520975112915,-1.6823419332504272
1783203183474383400,1.27238330078125,-2.8562247128993272,5.7029445153504605,-4.828456513759494,6.997276782989502,2.189140558242798,-1.515504002571106
1783203183484320500,1.282320556640625,-2.321375347267836,7.039132913601399,-3.448578611385822,7.203868865966797,2.322960615158081,-1.2880162000656128
1783203183494257200,1.292257080078125,-1.8289551104344424,8.271099889877439,-1.830250264811516,7.238614559173584,2.556652069091797,-1.0786399841308594
1783203183504194300,1.3021943359375,-1.5570757132321595,9.285914061525464,0.0867062235504388,6.995134353637695,2.8610339164733887,-0.9439436197280884
1783203183514131200,1.312131103515625,-1.457758722172677,10.010769720053672,2.254389284840226,6.397510528564453,3.1162052154541016,-0.8564913272857666
1783203183524068400,1.322068359375,-1.315204062411189,10.179233604836464,4.499969824802875,5.474154472351074,3.225088357925415,-0.7602137327194214
1783203183534005500,1.332005615234375,-1.0602806223154069,10.02599067006111,6.368198814874887,4.384370803833008,3.115588426589966,-0.6342526078224182
1783203183543942100,1.341942138671875,-0.9625471010550856,9.844890591067076,7.601871426025032,3.3378584384918213,2.885749340057373,-0.5194218754768372
1783203183553879300,1.35187939453125,-0.6415274600435048,9.67124959590733,8.220623502093552,2.4295897483825684,2.48325777053833,-0.3939131796360016
1783203183563816200,1.361816162109375,-1.0069428537510334,9.3844317189008,8.17350285447836,1.6701366901397705,1.910329341888428,-0.3162848055362701
1783203183573753300,1.37175341796875,-0.9937645154871046,9.038744888818265,8.159803999471665,1.0196340084075928,1.3151216506958008,-0.344727098941803
1783203183583691300,1.381691162109375,-1.1510555566094816,8.96183992831409,8.309924418312312,0.441419780254364,0.7118623852729797,-0.4647257030010223
1783203183593628400,1.39162841796875,-0.9867350552417338,8.907985004007816,8.456319094628094,-0.092565581202507,0.2178555577993393,-0.6140558123588562
1783203183603565300,1.4015654296875,-0.5967312367878854,9.044712272790074,8.736288713175059,-0.6079641580581665,-0.1536282300949096,-0.7473113536834717
1783203183613502200,1.411502197265625,-0.2138173765949904,9.31930312090814,8.94410144252777,-1.136475920677185,-0.4599322378635406,-0.8148983716964722
1783203183623439400,1.421439453125,0.1454147253677249,9.399543363314866,9.015389732193947,-1.6718971729278564,-0.70865797996521,-0.8266869187355042
1783203183633376300,1.431376220703125,0.3308979878820479,9.429632212108372,9.026613721519707,-2.1821303367614746,-0.9460402131080629,-0.7960065007209778
1783203183643313400,1.4413134765625,0.4986896724916994,9.540845100405813,8.886848692476748,-2.677299976348877,-1.213716983795166,-0.7068183422088623
1783203183653250300,1.451250244140625,0.7195730419501661,9.60849240322113,8.67639918487966,-3.163982629776001,-1.5247845649719238,-0.5633077621459961
1783203183663187200,1.461187255859375,0.9591257483042775,9.658820322445036,8.442306935888528,-3.659722328186035,-1.8063383102416992,-0.344716727733612
1783203183673124400,1.471124267578125,1.2152395672284066,9.56869464583993,8.22372614428401,-4.140068531036377,-2.0343286991119385,-0.048248317092657
1783203183683061200,1.481061279296875,1.4204275010354817,9.416820076808332,7.797253712871671,-4.589844703674316,-2.2015438079833984,0.3104432225227356
1783203183692998400,1.490998291015625,1.4725160001911222,9.3911648265481,7.225255204671621,-5.011266231536865,-2.303291082382202,0.7509721517562866
1783203183702935300,1.500935302734375,1.399647601726651,9.01338891376555,6.41757805507183,-5.36536169052124,-2.404193162918091,1.2604429721832275
1783203183712872200,1.5108720703125,0.953489934374392,8.359691781044006,5.37795092920661,-5.621140956878662,-2.530791521072388,1.7488938570022583
1783203183722809300,1.520809326171875,0.2426912601081654,7.677101731315255,4.131442217358947,-5.805725574493408,-2.616035223007202,2.188115119934082
1783203183732746200,1.530746337890625,-0.5624095727302134,6.767072460743784,3.030931875985861,-6.02044677734375,-2.735020875930786,2.564273834228516
1783203183742683400,1.540683349609375,-1.4898556959182023,5.817741691875457,1.764881428322196,-6.201876163482666,-3.076314210891724,2.8363873958587646
1783203183752620300,1.550620361328125,-2.827512120895088,5.059344998273253,-0.1226508126348257,-6.436241149902344,-3.5309765338897705,2.980641365051269
1783203183762557200,1.56055712890625,-4.4689121309772135,4.264937664613128,-2.0134785880059,-6.77213716506958,-4.028409481048584,2.954214572906494
1783203183772494300,1.570494384765625,-6.547790827393532,3.115162649333477,-4.229689825621247,-6.973455905914307,-4.195274829864502,2.675006151199341
1783203183782432300,1.580432373046875,-8.109109585022926,2.0666458223089577,-6.824944219475984,-6.900336742401123,-4.085975170135498,2.0930793285369877
1783203183792369400,1.590369384765625,-9.127167268636825,1.44298317784518,-9.640860302862524,-6.641642093658447,-3.3678526878356934,1.3799870014190674
1783203183802306300,1.600306396484375,-7.894143476784229,-0.1181184299021959,-12.48330900386572,-6.24605655670166,-2.031204462051392,0.6906505823135376
1783203183812243200,1.6102431640625,-5.764852982252836,-1.5557960486851632,-14.798202734029292,-5.746640205383301,-0.3425888121128082,0.0494761355221271
1783203183822180400,1.620180419921875,-3.28135712787956,-2.553519530931115,-16.442352919602392,-5.098206996917725,1.3407586812973022,-0.488879919052124
1783203183832117200,1.6301171875,-0.8235209076806902,-3.0761458131968973,-17.32197185434103,-3.9469614028930655,2.51734471321106,-0.8290873169898987
1783203183842054400,1.640054443359375,1.2982232631243764,-3.2805797137662767,-17.107897726505993,-3.755156755447388,3.478754758834839,-0.8711875081062317
1783203183851991300,1.6499912109375,2.281173685260862,-3.2801097581669687,-14.456243400037287,-2.8660690784454346,3.6897475719451904,-0.8093444108963013
1783203183861928200,1.65992822265625,2.534097622102499,-2.2696698560804127,-14.808078815877437,-1.577866792678833,3.1675519943237305,-0.5167255401611328
1783203183871865300,1.669865234375,2.615120539319515,-2.145729442026466,-13.56635324665308,-0.5673834681510925,2.2652204036712646,-0.1123652458190918
1783203183881802200,1.67980224609375,2.257970358197391,-2.1376114558920265,-11.018010826098918,0.0868896022439003,1.257607340812683,0.3114387392997741
1783203183891739400,1.689739501953125,1.7911780452258883,-2.2260949182480574,-9.177254364842176,0.7185178995132446,0.3740709722042084,0.6648172736167908
1783203183901676500,1.699676513671875,1.1616935627408325,-2.008040196344256,-8.025435861036181,1.330114483833313,-0.1692507266998291,0.8778166174888611
1783203183911613200,1.70961328125,0.4565655910547822,-1.7186593369819223,-6.691746878385543,1.883709192276001,-0.3240051567554474,0.9672492742538452
1783203183921551000,1.719551025390625,-0.1539590471554547,-1.4272329432666302,-5.462320234242081,2.510650873184204,-0.2327386885881424,0.8692653775215149
1783203183931488300,1.72948828125,-0.7144394784539938,-1.1124152256350963,-4.31142761310935,2.911119222640991,-0.0289229825139045,0.7695784568786621
1783203183941425400,1.73942529296875,-0.9714715812668204,-0.7346286453280597,-2.572949038544297,3.0886154174804688,0.2376385629177093,0.6008787751197815
1783203183951362300,1.7493623046875,-1.5136840230122208,0.0705865711376071,-0.7668050409853457,3.0601954460144043,0.4859905838966369,0.3836476802825928
1783203183961299500,1.759299560546875,-1.86508075517416,0.5481054453067481,0.8909697653144597,2.908890724182129,0.6361411213874817,0.2007661908864975
1783203183971236400,1.769236328125,-2.000651255136728,0.93846611437425,2.1445839252531527,2.5823590755462646,0.7889677286148071,0.1093918085098266
1783203183981173500,1.779173583984375,-2.020088946056366,1.5976250196330248,3.2934891719609496,2.1733365058898926,1.099657416343689,0.1221111044287681
1783203183991110400,1.7891103515625,-1.923279115512222,1.7758596261933446,4.172704786595702,1.8017220497131348,1.3191498517990112,0.1021451130509376
1783203184001047300,1.79904736328125,-2.108573139064759,2.068213802278042,4.954763510814309,1.308928370475769,1.1952950954437256,0.1052235290408134
1783203184010984400,1.808984375,-2.037225374296308,1.8014011869460342,5.408972674936056,0.7255429625511169,0.9262473583221436,0.0604408755898475
1783203184020921300,1.81892138671875,-1.7712462871789931,1.4726961790636182,5.818662898373604,0.2755922675132751,0.6796990036964417,-0.0666332766413688
1783203184030858500,1.8288583984375,-1.965908150796592,1.65976218072474,5.819085507699847,0.0292914099991321,0.3699621558189392,-0.211488202214241
1783203184040795400,1.83879541015625,-1.867372373242676,1.60199359010607,5.565404761141538,-0.3064658343791961,0.0910133868455886,-0.2348387688398361
1783203184050733300,1.8487333984375,-1.414487443462014,1.4577233585983511,5.727305634146928,-0.6967281103134155,-0.1053899452090263,-0.2370960563421249
1783203184060670500,1.85867041015625,-1.1785511009741574,1.5322244728311896,5.543216310209036,-1.0374212265014648,-0.2206868082284927,-0.2509400546550751
1783203184070607400,1.868607421875,-1.0048159247249364,1.4580492295518517,5.068444835051894,-1.2465044260025024,-0.2666660249233246,-0.2862362563610077
1783203184080544500,1.87854443359375,-0.8838689933985471,1.4222734211631118,4.470265006890893,-1.3928875923156738,-0.291973352432251,-0.3186838030815124
1783203184090481400,1.8884814453125,-0.70830594413504,1.332181208436191,3.985823786112666,-1.5424293279647827,-0.2788175940513611,-0.3113952875137329
1783203184100418300,1.898418212890625,-0.5640652309827506,1.2164189862713215,3.6321126395285126,-1.721371054649353,-0.2562795877456665,-0.2971191704273224
1783203184110355500,1.90835546875,-0.5035547943100332,1.0764740706168114,3.2407635439455507,-1.905837893486023,-0.27345672249794,-0.2910386621952057
1783203184120292400,1.918292236328125,-0.4822166765965521,0.8838266155615448,2.7936177423387765,-2.1024210453033447,-0.323597103357315,-0.3073605895042419
1783203184130229500,1.9282294921875,-0.5349534470604732,0.7323005677066743,2.398060089150071,-2.349266767501831,-0.3677120804786682,-0.3691834807395935
1783203184140166400,1.93816650390625,-0.5828471979400143,0.513850270614028,2.0386556993603704,-2.628441095352173,-0.3771576583385467,-0.4725779294967651
1783203184150103300,1.948103271484375,-0.5991839637022465,0.4053068937867879,1.4727905793488023,-2.6820592880249023,-0.4344225525856018,-0.5782133340835571
1783203184160040400,1.95804052734375,-0.5092592164967209,0.3375380834836513,0.3910299466311931,-2.6491212844848637,-0.519847571849823,-0.6563940048217773
1783203184169978400,1.967978271484375,-0.3346493763048201,0.1578162705728784,-0.1965799721986055,-2.8695592880249023,-0.4714219868183136,-0.660464882850647
1783203184179915500,1.97791552734375,-0.1300178342714905,0.1186099580124951,-0.4970838447302579,-2.726496696472168,-0.2990813255310058,-0.7364392280578613
1783203184189852400,1.987852294921875,-0.4794139672007411,0.2955761520721949,-2.050035756030679,-2.3968214988708496,-0.3146727979183197,-0.795710563659668
1783203184199789600,1.99778955078125,-0.3117012661114335,0.0105984778385609,-3.354071358695626,-2.0965073108673096,-0.3458741009235382,-0.8115342259407043
1783203184209726200,2.007726318359375,-0.0582950256455689,-0.196378458277136,-4.001003235065937,-1.8218626976013184,-0.3731664419174194,-0.8165188431739807
1783203184219663400,2.017663330078125,0.1233782501265406,-0.2306175586178898,-4.927801269608736,-1.5336062908172607,-0.3973122835159302,-0.77291339635849
1783203184229600500,2.0276005859375,0.4749351412862539,-0.3162953889686614,-5.866156470954418,-1.2710760831832886,-0.3776903748512268,-0.7129203677177429
1783203184239537400,2.037537353515625,0.7961074155762791,-0.2983931639879942,-6.781570941695571,-0.9498161673545836,-0.3200046420097351,-0.6483796238899231
1783203184249474600,2.047474609375,1.23422381529212,-0.4009779246717691,-7.870841511651873,-0.5185968279838562,-0.2879183292388916,-0.552528977394104
1783203184259411500,2.057411376953125,1.891402214258164,-0.5938757742915303,-8.977527911311387,0.0072271204553544,-0.2778757214546203,-0.4043447375297546
1783203184269348400,2.067348388671875,2.374429330454767,-0.830189571789652,-9.757549576744436,0.5754863023757935,-0.2195146977901458,-0.2059435099363327
1783203184279286300,2.077286376953125,2.498350309155881,-1.0347922530546785,-10.063893407475948,1.1081000566482544,-0.1532752811908722,0.0017718037124723
1783203184289223400,2.087223388671875,2.195051837469637,-1.0142067072741687,-10.085380432140829,1.5772161483764648,-0.1039756536483764,0.177004337310791
1783203184299160600,2.09716064453125,1.5874224823094905,-0.9142783063180744,-9.890585005271436,2.0028767585754395,0.0325933508574962,0.2913766801357269
1783203184309097500,2.107097412109375,0.8273929268084466,-0.9071088530801236,-9.624933834934234,2.399598360061645,0.1221253648400306,0.3134175539016723
1783203184319034400,2.117034423828125,0.10551504198201,-1.070582528360188,-9.619505380144714,2.790244579315185,0.1741587370634079,0.2165828943252563
1783203184328971300,2.12697119140625,-0.5301835657775402,-1.0872840723142028,-9.541348373752832,3.1730294227600098,0.2244663834571838,0.0288532022386789
1783203184338908400,2.136908447265625,-0.9872025266230106,-0.9677885088399052,-9.315567441511154,3.497421741485596,0.3014567196369171,-0.1891156584024429
1783203184348845600,2.146845458984375,-1.2391758847415446,-0.5706074191678315,-9.029921530893445,3.774965524673462,0.4809969365596771,-0.4055246412754059
1783203184358782500,2.156782470703125,-1.2722688837870957,-0.0062716276153922,-8.532067870834469,4.010215759277344,0.7378393411636353,-0.5475704669952393
1783203184368719400,2.16671923828125,-0.9783728120226411,0.4987830498635768,-8.007530201989411,4.1845784187316895,0.9776886701583862,-0.5871410369873047
1783203184378657300,2.1766572265625,-0.649481341657415,0.979000369336456,-7.4475956410706035,4.304226875305176,1.2044230699539185,-0.5418857336044312
1783203184388594400,2.186594482421875,-0.4610362336628139,1.3891089643165468,-6.77709525758624,4.3858747482299805,1.362247347831726,-0.467074304819107
1783203184398531300,2.19653125,-0.5338772691963241,1.9081258239135144,-6.046795946699381,4.47506856918335,1.491728663444519,-0.3730990886688232
1783203184408468500,2.206468505859375,-0.6705887924201787,2.3181050934255123,-5.189473599442839,4.5717058181762695,1.550670504570007,-0.268468290567398
1783203184418405600,2.216405517578125,-0.9414696070391684,2.8450670668080447,-4.267105656301975,4.638456344604492,1.5808674097061155,-0.170159101486206
1783203184428342300,2.22634228515625,-1.2967146121270954,3.331075683033466,-3.184021666026115,4.665489196777344,1.617451310157776,-0.0915460586547851
1783203184438279400,2.236279541015625,-1.701965245682001,3.778217100726068,-2.070505128085613,4.652273654937744,1.662513017654419,-0.0362886153161525
1783203184448216300,2.24621630859375,-2.0192299911394715,4.142228399789333,-0.9729670805215836,4.598321914672852,1.6901636123657229,-0.0070383166894316
1783203184458153500,2.256153564453125,-2.3208998387105764,4.5060675571560855,0.0920277108341455,4.4868574142456055,1.6854156255722046,-0.0030772015452384
1783203184468090600,2.266090576171875,-2.594827108353376,4.882909403958917,1.1239362251460552,4.296288013458252,1.6734449863433838,0.0082220584154129
1783203184478028500,2.276028564453125,-2.850514518558979,5.134954658269882,2.078803000831604,4.052524566650391,1.6638551950454712,0.0258314125239849
1783203184487965400,2.28596533203125,-3.187411600725353,5.5406070044934745,2.8993296951323746,3.794945955276489,1.685312032699585,0.0481588207185268
1783203184497902300,2.29590234375,-3.3938568411171435,6.058929452085494,3.626834406864643,3.5541789531707764,1.726193904876709,0.1013687998056411
1783203184507839500,2.305839599609375,-3.3117765238016843,6.385012002509832,4.264788027009367,3.343475580215454,1.7405729293823242,0.2064800411462783
1783203184517776400,2.3157763671875,-3.057440235944092,6.596810002106428,4.828439562624693,3.1651556491851807,1.7098153829574585,0.3313957154750824
1783203184527713500,2.325713623046875,-2.866407084217667,6.917244317510724,5.324004234963655,3.0073516368865967,1.665524125099182,0.4331537783145904
1783203184537650400,2.335650390625,-2.718035554870963,7.257034490770101,5.899248008695245,2.889054775238037,1.6456494331359863,0.5076969861984253
1783203184547587300,2.34558740234375,-2.52561036426425,7.499824425479769,6.524645514127612,2.7733280658721924,1.629536747932434,0.5553680658340454
1783203184557524500,2.3555244140625,-2.287360264941305,7.689360908907651,7.2231199462085955,2.597752809524536,1.636884689331055,0.5629962086677551
1783203184567462400,2.36546240234375,-2.0049242562808094,7.836901248127222,8.026762725725769,2.3210487365722656,1.599427342414856,0.5193339586257935
1783203184577399600,2.375399658203125,-1.6421382612287998,7.931054280552267,8.729279711195826,1.925623059272766,1.5082390308380127,0.4342341423034668
1783203184587336400,2.38533642578125,-1.355154087744653,8.00905989577472,9.416811308979987,1.4124550819396973,1.336809754371643,0.3039866685867309
1783203184597273300,2.3952734375,-1.148299828160554,8.154183236980439,9.94512557375431,0.7893403172492981,1.101370334625244,0.1185098737478256
1783203184607210500,2.40521044921875,-0.9124043291397392,8.33213800368607,10.497080241835116,0.0731310695409774,0.8771728277206421,-0.0711085200309753
1783203184617147400,2.4151474609375,-0.5788510044433176,8.324760752916335,10.888041214883328,-0.6527611017227173,0.6640558242797852,-0.2580282092094421
1783203184627084500,2.42508447265625,-0.2636924374848604,8.295597786796092,10.917800393331053,-1.3376905918121338,0.5301816463470459,-0.4200437664985657
1783203184637021400,2.435021484375,-0.0783257870875299,8.267922428885102,10.83616606621742,-1.950393319129944,0.4437183141708374,-0.5488175749778748
1783203184646958300,2.444958251953125,0.0021070552818477,8.301173541101813,10.5704821626544,-2.536518812179565,0.3181191086769104,-0.6299118995666504
1783203184656896300,2.454896240234375,0.0382264164112508,8.261374614676832,10.279953740692138,-3.144700050354004,0.1308925896883011,-0.6503172516822815
1783203184666833400,2.46483349609375,0.1381862354189157,7.926039082738757,9.88667572287321,-3.745966672897339,-0.1375926584005355,-0.6149619221687317
1783203184676770600,2.4747705078125,0.2193288334928453,7.545705886688828,9.271873261213305,-4.246532917022705,-0.4848288297653198,-0.5320929884910583
1783203184686707500,2.48470751953125,0.2421044366635382,7.27850164169073,8.39830763516426,-4.630457401275635,-0.8775503039360046,-0.3994688987731933
1783203184696644400,2.494644287109375,0.313942030775547,6.835429957655072,7.339910342377424,-4.813245296478272,-1.2830084562301636,-0.2210942506790161
1783203184706581200,2.504581298828125,0.2598499367125332,6.449325776988268,6.361429466870427,-4.982776641845703,-1.5087486505508425,-0.0575023889541626
1783203184716518400,2.514518310546875,-0.0493754408046603,6.090832656824588,5.9638604738593095,-5.0498456954956055,-1.6717007160186768,0.2077764272689819
1783203184726455600,2.52445556640625,-0.0721595195427537,5.7994192687213415,5.072078807640075,-5.102707862854004,-1.9069186449050903,0.555880069732666
1783203184736392400,2.534392333984375,-0.4978944304607808,5.663062586817145,3.8777918659389017,-5.189131736755371,-2.357177495956421,0.9619778394699096
1783203184746330600,2.54433056640625,-1.7833511509925126,5.256265746733546,2.162776000025868,-5.295487403869629,-2.928066730499268,1.3349757194519043
1783203184756267300,2.554267333984375,-3.8364462945938103,4.379354025126993,0.2649316238909959,-5.34104061126709,-3.5345230102539062,1.539038896560669
1783203184766204400,2.564204345703125,-5.9489703632414335,2.933692567983269,-1.9757681582927704,-5.204291820526123,-3.9961843490600586,1.515703201293945
1783203184776141300,2.574141357421875,-7.508927184867859,1.3118112051025033,-4.382284525620937,-4.808587074279785,-4.2680344581604,1.173625349998474
1783203184786078500,2.584078369140625,-8.047477596974373,0.2303276357606053,-7.331921097189188,-4.307991027832031,-4.376834392547607,0.5505902767181396
1783203184796015600,2.594015625,-7.288046299627423,-0.4924561849296093,-10.149036034971475,-3.9443492889404297,-4.195375919342041,-0.1192185208201408
1783203184805952300,2.6039521484375,-5.402659838527441,-1.2850664060398935,-11.900571074986455,-4.095134258270264,-3.376253366470337,-0.5414717793464661
1783203184815889400,2.613889404296875,-3.1276123810619114,-2.178218191568553,-13.415410990035532,-3.5437605381011963,-2.2498183250427246,-0.8367102146148682
1783203184825827300,2.623827392578125,-1.598890801785141,-1.984746706779301,-16.57345650328398,-2.9254612922668457,-0.8901076912879944,-1.0070849657058716
1783203184835764500,2.633764404296875,-0.694771632040292,-2.7298516648709774,-16.787901217997074,-2.554094791412353,0.3991794288158417,-1.1576942205429075
1783203184845701400,2.643701416015625,-0.1685848808139562,-3.3732425076335666,-16.226276219773293,-2.291351556777954,1.2664793729782104,-1.3560272455215454
1783203184855638500,2.653638427734375,0.8966652004770934,-3.766469379787147,-15.728628311419486,-2.2723617553710938,1.7997876405715942,-1.4806967973709106
1783203184865575400,2.663575439453125,2.339896507864445,-4.14147027489841,-14.403849195933342,-2.23284912109375,2.065477132797241,-1.4587191343307495
1783203184875512300,2.67351220703125,3.4296348414629696,-3.9290111810445785,-13.304497961467504,-2.149711847305298,2.2370941638946533,-1.3057316541671753
1783203184885449500,2.683449462890625,4.010743707835674,-3.505554590322077,-11.997026539134978,-1.718679428100586,2.3209986686706543,-1.0231750011444092
1783203184895387400,2.693387451171875,4.256897566020489,-3.123130851733684,-11.362616875207424,-0.8592252135276794,2.211474895477295,-0.6478723883628845
1783203184905324500,2.703324462890625,4.154061168663204,-2.88078164652884,-10.549205565869809,0.0359284989535808,1.952773928642273,-0.2088276445865631
1783203184915261400,2.713261474609375,3.674008245971799,-2.620613583777845,-8.76937148308754,0.7760462164878845,1.5961837768554688,0.2496144771575927
1783203184925198300,2.7231982421875,2.8454075508087877,-2.131609877389669,-6.897092340841889,1.3915523290634155,1.1908714771270752,0.6519688367843628
1783203184935135500,2.733135498046875,1.867811641442776,-1.4285259056866169,-5.178922394812107,1.8643440008163448,0.8006807565689087,0.952180564403534
1783203184945072600,2.74307275390625,0.974528923010826,-0.8229092055231332,-3.588786708021164,2.202878952026367,0.4836346507072449,1.155633568763733
1783203184955009500,2.753009521484375,0.276466907655634,-0.3164947839982807,-2.108942703029513,2.421111583709717,0.2673386335372925,1.2422151565551758
1783203184964946400,2.762946533203125,-0.2888730194380506,0.175400113786757,-0.86107322422266,2.517708301544189,0.1547364294528961,1.235182285308838
1783203184974884600,2.772884521484375,-0.6866241275504231,0.6199034380607307,0.2974374706983566,2.4739487171173096,0.1657232195138931,1.1553688049316406
1783203184984821500,2.782821533203125,-0.9932103887356816,0.9748416422218084,1.402920924308896,2.279444932937622,0.2546783983707428,1.0277376174926758
1783203184994758700,2.792758544921875,-1.3032134726271032,1.351082892782986,2.3913772503852844,1.9693374633789065,0.3985571563243866,0.8740544319152832
1783203185004695600,2.802695556640625,-1.5013178779140115,1.701816630991548,3.200756527727842,1.5982248783111572,0.5809041261672974,0.7111281156539917
1783203185014632400,2.812632568359375,-1.6414932413235306,1.971342304674536,3.768444186991453,1.221969485282898,0.7242582440376282,0.5563377141952515
1783203185024569600,2.822569580078125,-1.7658178323894738,2.2170883127108216,4.1214270193010565,0.914331555366516,0.794654130935669,0.4340474903583526
1783203185034506500,2.832506591796875,-1.806739040842652,2.4236240078650413,4.288329646116495,0.6822988390922546,0.7228899598121643,0.3555194139480591
1783203185044443600,2.842443603515625,-1.8771984784692528,2.596198104445636,4.451968302699923,0.2857890129089355,0.5926041603088379,0.3003251552581787
1783203185054381600,2.852381591796875,-1.969236126175523,2.6027602394402027,5.050462603637576,-0.1513542532920837,0.4481341242790222,0.2548461556434631
1783203185064318700,2.862318603515625,-2.0719164561882613,2.4816017111897466,5.037034382265806,-0.4476191997528076,0.2137727588415146,0.1784254014492035
1783203185074255400,2.87225537109375,-2.480922496753931,2.3466421827323733,4.53683211325407,-0.6339304447174072,-0.0490680262446403,0.0486318878829479
1783203185084192500,2.882192626953125,-2.425842999088764,2.363893177262693,4.352138978204131,-0.8515729904174805,-0.2651302814483642,-0.0267776474356651
1783203185094129700,2.892129638671875,-2.206931075833738,2.2732214110821483,4.482778451505303,-1.1354374885559082,-0.4634374976158142,-0.1207142397761344
1783203185104066600,2.902066650390625,-2.2344990278474985,2.12215289773643,4.335954736122488,-1.3997199535369873,-0.5776836276054382,-0.2038535922765731
1783203185114003700,2.912003662109375,-2.156486690623313,1.8368087465442715,4.152946193158626,-1.6314618587493896,-0.6511178016662598,-0.3066616654396057
1783203185123941600,2.921941650390625,-2.106353855580091,1.7859448207475244,3.937604821866751,-1.853687405586243,-0.6745078563690186,-0.4320811331272125
1783203185133878500,2.93187841796875,-2.0295492867104707,1.7100135275810957,3.83764105733633,-2.025852680206299,-0.6786865592002869,-0.5720050930976868
1783203185143815400,2.9418154296875,-1.894733258377016,1.5218549083776771,3.564580487525463,-2.155045747756958,-0.758253276348114,-0.7110971808433533
1783203185153752600,2.951752685546875,-1.6805916182637213,1.3425791222013532,3.262199130684137,-2.242612838745117,-0.8952108025550842,-0.8338760733604431
1783203185163689700,2.961689697265625,-1.4605641349822285,1.2497092614546417,3.039690936502814,-2.28527569770813,-1.0993825197219849,-0.9816202521324158
1783203185173626600,2.971626708984375,-1.345958827767521,1.1821510982275008,2.758834013727307,-2.450380325317383,-1.3659518957138062,-1.2024564743041992
1783203185183563500,2.9815634765625,-1.2983461588516831,1.0645040852293373,2.928645221465826,-2.757481813430786,-1.5494580268859863,-1.4346883296966553
1783203185193501400,2.99150146484375,-1.0711878007769584,0.8257346382074058,2.79314486413002,-2.8780977725982666,-1.877835035324097,-1.6452747583389282
1783203185203438600,3.0014384765625,-0.6766195239517837,0.9236005536757408,1.573790701189637,-2.960391044616699,-2.240253210067749,-1.7861770391464231
1783203185213375500,3.01137548828125,-0.1366764884430915,0.8853864122241735,0.7647796726375817,-3.090704202651977,-2.3952999114990234,-1.7856053113937378
1783203185223312600,3.021312744140625,0.4389528505399823,0.6164177879020571,0.1782382598221301,-3.204848051071167,-2.385308027267456,-1.6507776975631714
1783203185233249800,3.031249755859375,0.9244530788518488,0.4647521854460239,-0.7647872714221478,-3.2488038539886475,-2.2180302143096924,-1.422805666923523
1783203185243186400,3.0411865234375,1.26804089082852,0.4023507473949342,-1.9006401443332432,-3.272378921508789,-1.940443754196167,-1.1402182579040527
1783203185253123600,3.05112353515625,1.3336698395587503,0.3001476064398884,-3.1008231583356856,-3.2784364223480225,-1.5475850105285645,-0.8664062023162842
1783203185263061500,3.0610615234375,1.0059564730621873,0.1558607160583138,-4.33466528083384,-3.242170572280884,-1.0842998027801514,-0.6447781920433044
1783203185272998700,3.07099853515625,0.5250887268565595,0.0230007902286946,-5.697002265819907,-3.05547833442688,-0.2794024050235748,-0.53867506980896
1783203185282935600,3.080935546875,0.0138248194739222,-0.157417590111494,-6.862133840185403,-2.6576099395751958,0.0898970663547515,-0.5499945282936096
1783203185292872700,3.090872802734375,-0.5692065393939614,-0.0358592488884925,-8.936565201804042,-2.168334722518921,0.2461349964141845,-0.6344684958457947
1783203185302809600,3.1008095703125,-0.1382344584748149,-0.3039624885529279,-10.1160152243793,-1.5883201360702517,0.1391901820898056,-0.7034132480621338
1783203185312746500,3.11074658203125,0.4772659223213791,-0.6230626327440142,-11.553402481913563,-0.967467963695526,-0.0768851488828659,-0.6061815023422241
1783203185322683600,3.12068359375,1.7038630421273409,-1.72135354450196,-12.171164962422846,-0.4326471388339996,-0.5730165839195251,-0.38106369972229
1783203185332621600,3.13062158203125,1.6663918279975651,-0.5926286237746476,-13.983973094046116,0.232641115784645,-1.0316579341888428,-0.3525638878345489
1783203185342558700,3.140558837890625,0.7665931518003344,1.35189654725343,-14.493690210378167,1.0736639499664309,-0.7590908408164978,-0.3386275768280029
1783203185352495400,3.150495361328125,0.2171295698828995,1.690690987473726,-14.083124373149872,1.9992692470550537,-0.0566202774643898,-0.1885905712842941
1783203185362432500,3.1604326171875,0.006979629754275,1.4226052834659817,-13.621721498131752,2.975872755050659,0.9916987419128418,0.0033756669145077
1783203185372369400,3.170369384765625,-0.0830111684247851,1.5964830099910496,-12.482020717620848,3.849320411682129,1.875148892402649,0.1106910109519958
1783203185382306600,3.180306640625,-0.0524856817796826,1.702543337830901,-11.435588587915896,4.511022090911865,2.353722333908081,0.206654280424118
1783203185392243700,3.19024365234375,0.1798122311405837,1.4262695050619545,-9.865905322045087,4.93505859375,2.542089462280273,0.2655552923679352
1783203185402181600,3.200181640625,-0.0002668342426419,1.670423421601206,-7.930232442775368,5.187224388122559,2.475416660308838,0.2819046974182129
1783203185412118500,3.210118408203125,-0.4148628037698567,2.261452355094254,-6.25731910405457,5.340356826782227,2.244110345840454,0.2986978590488434
1783203185422055400,3.220055419921875,-0.7656508294489234,2.709851663893461,-4.899965752699971,5.487229824066162,1.970237135887146,0.3385195732116699
1783203185431992600,3.22999267578125,-1.2832162481285632,3.201488056872785,-3.9959260779321193,5.683028697967529,1.7392544746398926,0.3660582900047302
1783203185441929500,3.239929443359375,-1.9835273941174147,3.606621055397391,-3.3320611869394776,5.841491222381592,1.6356841325759888,0.3350508511066437
1783203185451866600,3.24986669921875,-2.5532033045887945,3.958085884359479,-2.4194413153529166,5.8815226554870605,1.710993766784668,0.2447449713945388
1783203185461804500,3.259804443359375,-2.7689082484960554,4.192598989111185,-1.3288140700906514,5.90104866027832,1.853294014930725,0.1292575299739837
1783203185471741400,3.269741455078125,-2.8857418992847204,4.558601461991668,-0.5592255358666182,5.9370646476745605,1.9400430917739868,0.0423765741288661
1783203185481678600,3.2796787109375,-2.799742654959857,5.0624575773358345,0.1022685343414545,6.018136978149414,1.9223941564559937,0.0251376647502183
1783203185491615500,3.289615478515625,-2.544487498691678,5.509738403499126,0.7201929274141788,6.070495128631592,1.868271350860596,0.0694042667746543
1783203185501552600,3.299552734375,-2.2901811675809323,5.770006711754203,1.5469897880256176,6.09821367263794,1.808628797531128,0.1374160796403885
1783203185511489500,3.309489501953125,-2.079130917611718,6.186145380678773,2.395743044379353,6.097776412963867,1.7919667959213257,0.2228710651397705
1783203185521426400,3.319426513671875,-1.9831980160325764,6.802935801285505,3.313199834603071,6.0314555168151855,1.7847011089324951,0.331991970539093
1783203185531364400,3.3293642578125,-1.8062281687110664,7.297443073526025,4.193451222026348,5.855661392211914,1.8909298181533811,0.464689165353775
1783203185541301500,3.339301513671875,-1.5480419274270534,7.518259076836705,5.345487752497196,5.486386775970459,2.142925262451172,0.5929909348487854
1783203185551238700,3.34923876953125,-1.3657391946449875,7.599317649888992,6.533254352518916,4.90885591506958,2.398642301559448,0.7072914838790894
1783203185561175600,3.359175537109375,-1.2106024089470504,7.571404976090788,7.464978153026103,4.190939426422119,2.586834669113159,0.7972738146781921
1783203185571112700,3.36911279296875,-1.0684117601923644,7.451293326544762,8.08722333190739,3.408046007156372,2.603335380554199,0.8768805861473083
1783203185581049300,3.37904931640625,-1.1783821010828015,7.284417587736248,8.369252805593609,2.620281934738159,2.4979352951049805,0.9363455176353456
1783203185590986500,3.388986572265625,-1.304733814062178,7.128872221237421,8.503845400434733,1.9179787635803225,2.3882956504821777,0.9716325402259828
1783203185600924400,3.39892431640625,-1.354828216791153,6.894391849711537,8.69730636382997,1.3921493291854858,2.3559439182281494,0.9571963548660278
1783203185610861600,3.408861572265625,-1.5996259841918945,6.901366949421167,8.89490574220419,0.9978192448616028,2.250160455703736,0.8785329461097717
1783203185620798500,3.418798583984375,-1.776626811173558,6.99024817892313,9.022157911154627,0.645433783531189,1.9571694135665891,0.7631339430809021
1783203185630735600,3.428735595703125,-1.7469801531895994,6.89487057313919,9.281534823527933,0.2489016503095626,1.473917841911316,0.6458204388618469
1783203185640672500,3.438672607421875,-1.665903459958732,6.89028324534893,9.601766894358397,-0.2508251070976257,0.905361831188202,0.551673948764801
1783203185650609400,3.448609375,-1.5303623322211206,6.907659327563643,9.91442648410797,-0.8772209286689758,0.282692402601242,0.5064407587051392
1783203185660547600,3.458547607421875,-1.4222580774635076,7.050164010703563,10.027494060361384,-1.634835720062256,-0.307309627532959,0.5024926662445068
1783203185670484500,3.468484375,-1.2318176309332252,7.297475222229957,10.021695603215694,-2.3910250663757324,-0.6995997428894043,0.5036529302597046
1783203185680421600,3.478421630859375,-1.0427942115940152,7.4226301266402,9.854274505484105,-3.094573736190796,-0.9622079133987428,0.4636884033679962
1783203185690358500,3.488358642578125,-1.034939406440407,7.837156099671125,9.542145077088474,-3.770850419998169,-1.087489366531372,0.4358334541320801
1783203185700295400,3.49829541015625,-0.8126159211762249,8.228383030179142,9.4153143484205,-4.465066432952881,-1.2553569078445437,0.5000079274177551
1783203185710232600,3.508232666015625,-0.5357319206196814,8.513426883250474,9.332923649981618,-5.264772891998291,-1.6095190048217771,0.7158041000366211
1783203185720170500,3.51817041015625,-0.3493167110174894,8.937153230825066,9.260050136950612,-6.158397197723389,-2.251861810684204,1.0581122636795044
1783203185730107600,3.528107666015625,-0.3320309374347329,9.31316973271966,8.492039227306842,-7.019671440124512,-3.2203285694122314,1.496567964553833
1783203185740044500,3.53804443359375,-0.8024844032622873,9.16186331896484,6.220126560735702,-7.574089050292969,-4.232064723968506,1.9291138648986816
1783203185749981700,3.547981689453125,-2.477184187008441,8.39110924809277,2.8682617721736428,-7.636357307434082,-4.824366569519043,2.2029342651367188
1783203185759918300,3.55791845703125,-4.643732399049401,7.721361144280433,-0.4990314716666936,-7.48302412033081,-4.904135704040527,2.269484043121338
1783203185769855500,3.56785546875,-6.033226855552196,6.889861220544576,-3.212737472900748,-7.347075939178467,-4.563793659210205,2.1699411869049072
1783203185779792600,3.577792724609375,-6.443984415960312,5.366410713538527,-5.652243086639047,-7.256804466247559,-3.7471866607666016,1.833452224731445
1783203185789730600,3.58773046875,-7.070801140540838,3.753234635160863,-8.049152836710213,-7.194101810455322,-2.631329298019409,1.249454140663147
1783203185799667700,3.597667724609375,-8.181262967085837,2.0626827638968823,-10.52919153636694,-7.125858306884766,-1.2958247661590576,0.4632482528686523
1783203185809604600,3.6076044921875,-7.914946026316285,-0.0169156981613486,-12.99329032409191,-7.130282402038574,-0.0679151564836502,-0.3949854671955108
1783203185819541500,3.61754150390625,-6.058605042436718,-1.4813047251939773,-14.3259335970819,-7.290609359741211,1.206681489944458,-1.261446237564087
1783203185829478400,3.627478515625,-3.841668413156271,-1.8903797393426296,-17.092344768065214,-6.162801265716553,2.1807119846343994,-2.0283005237579346
1783203185839415600,3.63741552734375,-1.0302131085708737,-1.9246517190396784,-21.03641206394434,-4.451853752136231,2.8479268550872803,-2.3213589191436768
1783203185849353500,3.647353515625,2.240872654532641,-2.0623285436317325,-21.1201132604599,-3.2620253562927246,3.1719298362731934,-1.99801504611969
1783203185859290600,3.65729052734375,5.157105699801445,-2.184962697392702,-19.05625765339136,-2.1595401763916016,2.931849241256714,-1.3209487199783323
1783203185869227500,3.6672275390625,6.873540200340748,-1.9498165554344653,-18.13123072017431,-0.8212082982063293,2.158488750457764,-0.5156778693199158
1783203185879164400,3.677164306640625,7.495662629625201,-2.151649918116629,-16.87914391593337,0.3042754828929901,1.3139938116073608,0.2906215786933899
1783203185889101600,3.6871015625,6.879212985280156,-2.4544085838377474,-14.389010523241758,1.2077953815460205,0.7799820303916931,0.938931941986084
1783203185899038500,3.69703857421875,4.930286656683683,-2.3566759393602608,-12.069392687165736,2.0356733798980717,0.5989832282066345,1.284873366355896
1783203185908976600,3.7069765625,2.4107360308498142,-1.9061323120087383,-10.082510429662465,2.920052528381348,0.5302222371101379,1.3744879961013794
1783203185918913500,3.71691357421875,0.3919437004752457,-1.7501389094814657,-8.249377302891016,3.494426250457764,0.4654443562030792,1.3140757083892822
1783203185928850700,3.7268505859375,-1.1649746302381156,-1.4879498622968792,-5.487629447543621,3.727532148361206,0.4338756799697876,1.133184790611267
1783203185938787600,3.73678759765625,-2.385959170859307,-1.0873515845924615,-3.3786738850325344,3.96672797203064,0.3214167952537536,0.8767841458320618
1783203185948725000,3.74672509765625,-3.1013287697702645,-0.5032946820691228,-2.0338380699455736,4.050439357757568,0.251805692911148,0.6871879696846008
1783203185958662100,3.756662109375,-3.301474910017848,0.2930504147205501,-0.3241314163565635,4.077236652374268,0.2034714370965957,0.5160002708435059
1783203185968600000,3.76660009765625,-3.3296897816330198,1.0027879260286687,0.8108516879826784,3.979978322982788,0.1699363142251968,0.374303251504898
1783203185978537000,3.776536865234375,-3.172585787515342,1.282518913514167,1.980884478393197,3.753215789794922,0.2062887400388717,0.226192906498909
1783203185988473900,3.786473876953125,-3.1278587570384144,1.7102547889910638,2.899284102424979,3.49056077003479,0.2860311865806579,0.0667683035135269
1783203185998411000,3.796410888671875,-2.968968464025855,2.140297041714191,3.620466040876508,3.1447224617004395,0.4434612989425659,-0.0374848656356334
1783203186008348000,3.806347900390625,-2.7748160112351177,2.5369132640451197,4.412248871251941,2.754534721374512,0.6624013185501099,-0.0988326519727706
1783203186018285000,3.81628515625,-2.650400819276273,2.858238390809297,5.089666486778855,2.329597949981689,0.8172053098678589,-0.1254871785640716
1783203186028223000,3.826222900390625,-2.5324571614190936,2.937700050058961,5.610284351831674,1.877063274383545,0.8389226794242859,-0.1837442368268966
1783203186038160000,3.836159912109375,-2.58590555075109,2.841489500582218,5.951995264020562,1.44996178150177,0.7029837369918823,-0.3060877323150635
1783203186048096800,3.8460966796875,-2.8186569065272806,2.661215935540199,6.0188406028032295,1.0442932844161987,0.4803453087806701,-0.4738591909408569
1783203186058034000,3.856033935546875,-2.9255817422419783,2.421713936460018,5.943985560566187,0.6603922247886658,0.2170204818248748,-0.6575481295585632
1783203186067971000,3.86597119140625,-2.8270123546794057,2.2229101507321,5.715567265558242,0.2916117310523987,-0.0384229943156242,-0.8290148973464966
1783203186077908000,3.875907958984375,-2.385087210330367,2.107333806528151,5.32673745931983,-0.0119225764647126,-0.2758480608463287,-0.972819983959198
1783203186087846100,3.88584619140625,-1.8318594535738228,2.100199424603581,4.786982932120561,-0.2838177978992462,-0.4500708281993866,-1.0841455459594729
1783203186097782800,3.89578271484375,-1.1647487125277518,2.1163582399830223,4.317532944247127,-0.5994268655776978,-0.4979355633258819,-1.1096538305282593
1783203186107720000,3.905719970703125,-0.4482357888005673,2.0083812648668884,3.977265216603875,-0.9021279215812684,-0.4660594463348388,-1.086015701293945
1783203186117656800,3.91565673828125,0.0979104121971875,1.999493317273259,3.5457097828388213,-1.159569263458252,-0.3816444277763366,-1.0515421628952026
1783203186127594000,3.925593994140625,0.5512106447804719,1.9309104871734977,3.1156741059869524,-1.3771255016326904,-0.3060133755207062,-0.9914655089378356
1783203186137531100,3.93553125,0.9596608050290496,1.83847653362602,2.7198773833453656,-1.5530227422714231,-0.2704854607582092,-0.9197061061859132
1783203186147469000,3.945468994140625,1.269830258463323,1.7635919730335472,2.2958424082130198,-1.678725004196167,-0.2629104256629944,-0.8258023262023926
1783203186157406000,3.955406005859375,1.4294770689316094,1.6070269080981612,1.9076427165716885,-1.7651275396347046,-0.2898264527320862,-0.729163408279419
1783203186167342800,3.9653427734375,1.3823190119154751,1.450236217713356,1.5519593931317328,-1.8293538093566892,-0.3331620991230011,-0.6541481614112854
1783203186177280000,3.975280029296875,1.254135991855711,1.3020730704203247,1.2405191160440443,-1.8756201267242432,-0.3925250172615051,-0.604943573474884
1783203186187217000,3.985216796875,1.1571323192398997,1.1782929614946245,0.9944669646680354,-1.921246886253357,-0.4296984374523163,-0.5939441919326782
1783203186197155000,3.995155029296875,1.0376327371776104,1.1138865402966738,0.8634913912802934,-1.9823228120803835,-0.4492098093032837,-0.6013051271438599
1783203186207091700,4.005091796875,0.9849138311639428,1.077976291873306,0.8188876949220896,-2.204078435897827,-0.3867480754852295,-0.6228344440460205
1783203186217028900,4.01502880859375,0.8971804565228522,1.0464423588380216,0.906993263876438,-2.2718913555145264,-0.3712410032749176,-0.658747136592865
1783203186226966000,4.024966064453125,0.8232727050732821,0.9995363038215784,0.2282546288788318,-2.236100673675537,-0.4389071464538574,-0.6640039682388306
1783203186236903000,4.03490283203125,0.7114622162088752,0.8778653690695762,-0.263603590157628,-2.2237844467163086,-0.5070720911026001,-0.6467277407646179
1783203186246840000,4.044840087890625,0.5141078255716711,0.637365883384645,-0.5268979682356119,-2.2370047569274902,-0.5208485126495361,-0.586076557636261
1783203186256778000,4.054778076171875,0.3531827022632584,0.3214083480682224,-1.032310665372014,-2.211726665496826,-0.5504453182220459,-0.5244653820991516
1783203186266715000,4.06471484375,0.0941132849365472,0.1271916526685468,-1.7829747188955545,-2.152691602706909,-0.5742648839950562,-0.4937059581279754
1783203186276651800,4.07465185546875,-0.0893164791140705,0.0029659827992785,-2.581356801405549,-2.083860397338867,-0.5814160108566284,-0.4592078924179077
1783203186286589000,4.0845888671875,-0.0742595970945432,-0.3522242324946448,-3.467018523439765,-1.9649877548217771,-0.6202777028083801,-0.4297536015510559
1783203186296526000,4.094526123046875,-0.2647106015514582,-0.6036356458814814,-4.567954981270432,-1.7529559135437012,-0.6481474041938782,-0.4247828125953674
1783203186306463000,4.104462890625,-0.4197279255881905,-0.8784965065799653,-5.739464273974299,-1.4305251836776731,-0.6592793464660645,-0.4198513329029083
1783203186316401000,4.11440087890625,-0.1143678451970219,-1.310613081359118,-7.150604745095968,-0.9967101812362672,-0.7129263281822205,-0.3803361356258392
1783203186326337800,4.124337890625,0.4096507682099938,-1.62953494637385,-8.740617097768187,-0.4861957430839538,-0.7197745442390442,-0.3191240727901459
1783203186336275000,4.13427490234375,0.6768138774801046,-1.726336009089649,-10.13502270718813,0.0779230445623397,-0.6130440831184387,-0.2384997904300689
1783203186346211800,4.1442119140625,0.942326223868504,-1.77475809469223,-11.368767214530706,0.6962131857872009,-0.3623912930488586,-0.1564230173826217
1783203186356149000,4.15414892578125,1.0852153032161296,-1.6363118931628762,-12.21586685845852,1.3071730136871338,0.0092432284727692,-0.0756285712122917
1783203186366086000,4.1640859375,0.9921324573058634,-1.3746432165905833,-12.571542583113908,1.8634326457977293,0.4209394752979278,-0.0197822954505682
1783203186376024000,4.174024169921875,0.7066622685812414,-1.2322555839590728,-12.522542113101482,2.3675708770751958,0.8469957113265991,0.0050753853283822
1783203186385960700,4.183960693359375,0.5642468711599707,-1.2567081804312763,-12.034218497931956,2.831758499145508,1.196485996246338,0.0047161364927887
1783203186395897900,4.19389794921875,0.4176975157391279,-1.210130553651601,-11.380291648107766,3.284564733505249,1.4302178621292114,-0.0447632633149623
1783203186405835000,4.2038349609375,0.1139380754776299,-1.0614924823231997,-10.667748943185806,3.7378666400909424,1.5700558423995972,-0.1317919790744781
1783203186415772000,4.21377197265625,-0.5459804890420288,-0.5256193266019225,-10.000082321822642,4.227554798126221,1.675350785255432,-0.2427520453929901
1783203186425710000,4.2237099609375,-1.3673216415308416,0.1469995103411376,-9.19977423968613,4.757782459259033,1.7380136251449585,-0.3423580825328827
1783203186435647000,4.23364697265625,-1.6324010033294558,0.8775779304303228,-8.349541558429598,5.341135025024414,1.7805060148239136,-0.3708509802818298
1783203186445584000,4.243583984375,-1.3244919691078365,1.6686457444041969,-7.310323597887158,5.954190254211426,1.7346398830413818,-0.2960018515586853
1783203186455520800,4.253520751953125,-0.9090205319203436,2.7619568219229578,-6.156543438619375,6.508696556091309,1.6344150304794312,-0.1434277594089508
1783203186465458000,4.2634580078125,-0.7501710093095898,3.9762700680866834,-4.689768174037337,6.871429443359375,1.602110505104065,0.0158549547195434
1783203186475395000,4.27339501953125,-0.8425326282732188,5.148220967078209,-2.915280712980032,7.057528018951416,1.6650644540786743,0.1475775688886642
1783203186485333000,4.2833330078125,-1.1473164431463927,6.177324945363402,-1.22883393894732,7.028660774230957,1.9070593118667605,0.2023722827434539
1783203186495270000,4.293269775390625,-1.7053059344120325,7.123679328769445,0.7254243983268738,6.7536234855651855,2.27907395362854,0.1763252317905426
1783203186505206800,4.303206787109375,-2.222217638423294,7.9559087358236305,2.7885306483328343,6.205263614654541,2.613023042678833,0.1337827742099762
1783203186515144000,4.31314404296875,-2.551200732594728,8.464866558220981,4.736066983875632,5.484341621398926,2.799037218093872,0.1011451929807663
1783203186525080800,4.323080810546875,-2.8135195436388254,8.774211324334145,6.284682911798358,4.696923732757568,2.8103272914886475,0.1044384017586708
1783203186535018000,4.33301806640625,-2.830516271147132,8.761661054840683,7.453492297893762,3.910266876220703,2.6637942790985107,0.1197616979479789
1783203186544956000,4.342955810546875,-2.8586405418694016,8.69891029189527,8.304335220003127,3.1804423332214355,2.387356996536255,0.1363076716661453
1783203186554893000,4.35289306640625,-2.9387679715514183,8.62347014324665,8.956625993058084,2.5089001655578613,1.9526838064193728,0.1369681358337402
1783203186564830000,4.362829833984375,-2.8636785360366104,8.51147867179215,9.377725499260425,1.8649537563323972,1.4091498851776123,0.1449654251337051
1783203186574766800,4.372766845703125,-2.5531471904873846,8.2880141997993,9.653428108012676,1.2489161491394043,0.88913893699646,0.129603773355484
1783203186584704000,4.3827041015625,-2.335221940182149,8.170545173716544,9.779387899065018,0.6548327207565308,0.5178582072257996,0.072705753147602
1783203186594642000,4.392641845703125,-2.115668504153192,8.126594972831011,9.87673183648586,0.0807273536920547,0.3579612374305725,-0.0007559459190815
1783203186604579000,4.4025791015625,-1.678761626357585,8.163245664358138,9.944356342947485,-0.4597615897655487,0.398477703332901,-0.0476252697408199
1783203186614516000,4.412515869140625,-1.2445192915961143,8.214443352153896,10.092745407950876,-0.9669246673583984,0.5083684921264648,-0.0398198142647743
1783203186624452900,4.422452880859375,-0.7457189983367919,8.264206623232365,10.158189647763969,-1.4410275220870972,0.5316943526268005,0.0447563678026199
1783203186634389800,4.4323896484375,-0.33358883440122,8.260927455431222,10.2598812590003,-1.8805729150772093,0.4118204712867737,0.1806755810976028
1783203186644327000,4.442326904296875,-0.1602104357004165,8.237872158536314,10.273285514974594,-2.2597544193267822,0.1241076365113258,0.3594191670417785
1783203186654264800,4.452264892578125,-0.253747089792788,8.294156355816126,10.239100336778163,-2.613583564758301,-0.3065193891525268,0.5830591917037964
1783203186664202000,4.462201904296875,-0.5132078810572623,8.401349487078189,10.324528210955858,-3.003395795822144,-0.826374888420105,0.8695574402809143
1783203186674139100,4.47213916015625,-0.7365804369829595,8.398295944726467,10.424112036257982,-3.460418939590454,-1.3904906511306765,1.2369722127914429
1783203186684075800,4.48207568359375,-1.0520156289257108,8.26296685230434,10.33135191949606,-3.97041392326355,-1.9767959117889404,1.6372665166854858
1783203186694013000,4.492012939453125,-1.5823203368648886,8.101924641954898,9.835546424138546,-4.51027774810791,-2.587131261825561,2.0284290313720703
1783203186703950800,4.501950927734375,-2.207757151394337,7.736714780756831,8.790586705073714,-5.066650867462158,-3.23886775970459,2.3373138904571533
1783203186713888000,4.511887939453125,-3.3620100427404043,7.2631883372247215,7.106313183426857,-5.600300312042236,-3.791294574737549,2.473515748977661
1783203186723825000,4.521824951171875,-5.066102071318031,6.576698357447982,5.1070899152666325,-6.096682548522949,-4.130549907684326,2.4183967113494877
1783203186733762000,4.531761962890625,-6.823245598864555,5.976854395467043,2.69420635099411,-6.514981746673584,-4.356852054595947,2.238230466842652
1783203186743699000,4.541698974609375,-8.062247296082973,5.33313329783678,-0.1545990255594253,-6.90484619140625,-4.415043354034424,1.9731510877609253
1783203186753635800,4.5516357421875,-8.187423243281245,4.472771729014814,-3.302860226896405,-7.172695159912109,-4.306779384613037,1.660764455795288
1783203186763573800,4.56157373046875,-7.891606067261099,3.2137717843845484,-7.349554369035363,-7.187436580657959,-3.8148694038391113,1.2679731845855713
1783203186773511000,4.571510986328125,-8.076023307979106,1.2803884773567318,-11.391221038401126,-6.837509632110596,-2.763679265975952,0.6763051152229309
1783203186783448000,4.581447998046875,-8.105048911455274,-0.5828695924349129,-14.83485225651264,-6.410553932189941,-1.2543171644210815,-0.0866037011146545
1783203186793385000,4.591385009765625,-6.513452504462004,-2.277011743275821,-17.27178480489254,-6.656803131103516,0.4020664691925049,-0.8900882005691528
1783203186803321900,4.60132177734375,-3.940705125969648,-3.5431858173191544,-17.011923908394575,-6.460738658905029,2.0506367683410645,-1.775136113166809
1783203186813259800,4.611259765625,-0.9962702146977186,-3.2798619208857414,-20.340739829802512,-4.857900619506836,3.0751307010650635,-2.3909802436828613
1783203186823197000,4.621197021484375,2.715593422415852,-3.078856533460319,-23.21760459514856,-2.8385396003723145,3.391921043395996,-2.395418882369995
1783203186833133800,4.6311337890625,5.907937511107325,-2.940530597309768,-21.753388951921465,-1.4267882108688354,3.169511556625366,-1.781813621520996
1783203186843071000,4.641071044921875,8.147870400571822,-2.6198402613177896,-18.4669847697854,-0.2658916413784027,2.4377400875091557,-0.8120183348655701
1783203186853008100,4.651008056640625,9.081066027197242,-2.195601872567832,-16.175004297697544,0.8790369629859924,1.4728628396987915,0.209101527929306
1783203186862946000,4.660946044921875,8.572171333163976,-2.0460446405678985,-13.727164570856091,1.582457423210144,0.8185378313064575,1.0447288751602173
1783203186872883000,4.670883056640625,6.772855135798454,-1.7825439262628555,-10.483491276943685,2.0950729846954346,0.5952107310295105,1.4977644681930542
1783203186882819800,4.68081982421875,4.380063926962018,-1.386992848945409,-8.419243455687164,2.486217975616455,0.7764464616775513,1.5586447715759275
1783203186892757000,4.690757080078125,1.6802656011797488,-1.1169321916028856,-6.518934150743484,2.8937196731567383,1.1063551902770996,1.3266602754592896
1783203186902694000,4.70069384765625,-0.6774683228008449,-0.6185477126028388,-5.105988091504574,3.348727226257324,1.32860267162323,1.0156036615371704
1783203186912631000,4.710631103515625,-2.334607315415144,0.0442474302664399,-3.680964640980959,3.8634324073791504,1.2752844095230105,0.7759091258049011
1783203186922569000,4.72056884765625,-3.229699421356618,0.6501948967542499,-2.0299615207731723,3.781651258468628,1.1612176895141602,0.6115068793296814
1783203186932505900,4.730505859375,-3.665391516534984,1.153301874231547,0.7955337073415517,3.421386957168579,1.026496648788452,0.4422619044780731
1783203186942443000,4.740443115234375,-3.833272925254702,1.767899168708175,2.085709126958251,3.2114663124084477,0.8743911981582642,0.250930517911911
1783203186952380000,4.7503798828125,-3.561122456026077,2.2645317625395958,2.6057927390038964,2.9222090244293213,0.7822580933570862,0.1388622969388961
1783203186962317000,4.760317138671875,-2.9319100684806703,2.523569213825464,3.658249535825848,2.489247560501098,0.8325598835945129,0.0502516999840736
1783203186972255000,4.7702548828125,-2.3855688563674686,2.66985838394016,4.276261607182025,2.0941383838653564,1.0108238458633425,-0.0295427348464727
1783203186982192000,4.780192138671875,-1.9992910726994275,2.691417597058415,4.359426797124743,1.7907170057296753,1.2586190700531006,-0.0641038417816162
1783203186992128800,4.790128662109375,-1.8419750432662665,2.7251930254101757,4.518359467974305,1.555004000663757,1.428732991218567,-0.0189222507178783
1783203187002066000,4.80006591796875,-1.842502428141236,2.7429437861561774,4.8700902543962,1.234845757484436,1.4441879987716677,0.0649551525712013
1783203187012003000,4.810003173828125,-1.9971815331995488,2.651905963142216,5.438621378746628,0.9613707661628724,1.261513590812683,0.1227308362722396
1783203187021941000,4.81994091796875,-2.176885920051485,2.488285426737368,5.546830993574857,0.7228506803512573,0.861994206905365,0.1556902676820755
1783203187031878000,4.8298779296875,-2.2195520724758504,2.226501745483279,5.646627584844827,0.4786721169948578,0.3362742364406585,0.1453284472227096
1783203187041815000,4.83981494140625,-2.2746017595246437,1.9179136429563164,5.568965668493509,0.2301784753799438,-0.1856075674295425,0.0708329379558563
1783203187051752000,4.849751953125,-2.300151649714261,1.5581611703813074,5.288087118408083,0.016769515350461,-0.6001280546188354,-0.0572073236107826
1783203187061688800,4.859688720703125,-2.173477280651778,1.2729904760599136,4.735322887510061,-0.1109603866934776,-0.891319990158081,-0.1982843577861786
1783203187071627000,4.869626953125,-1.8694936031803489,1.1930889640882612,4.06502416407764,-0.2385928928852081,-1.0826599597930908,-0.2869012951850891
1783203187081564000,4.87956396484375,-1.3214610769793391,1.0969710613310335,3.46628144133687,-0.3811565935611725,-1.109737515449524,-0.3517239391803741
1783203187091501000,4.8895009765625,-0.8641348037503659,1.1189517147317527,2.997221329563856,-0.5685821771621704,-0.9715977907180786,-0.4095177352428436
1783203187101438000,4.89943798828125,-0.4432240250531584,1.0322726714491843,2.5911224086165427,-0.7876158952713013,-0.7653670310974121,-0.4393215477466583
1783203187111374800,4.909374755859375,-0.058117623252049,0.9563958849489688,2.210675230798125,-1.0249840021133425,-0.5534667372703552,-0.4517398774623871
1783203187121312000,4.91931201171875,0.144608669681847,0.9378142263367772,1.8481641071647408,-1.249033808708191,-0.4243598580360412,-0.4474758803844452
1783203187131250000,4.92925,0.2842434234086424,0.7645552162319421,1.4068775529801845,-1.500740885734558,-0.3664089441299438,-0.4455565214157104
1783203187141187000,4.93918701171875,0.2808779655635356,0.6061059449851512,1.0582874026715754,-1.619126558303833,-0.3660933375358581,-0.4404821693897247
1783203187151124000,4.9491240234375,0.2904137095414102,0.5124149771139025,0.3563759818792343,-1.6929889917373655,-0.3957638740539551,-0.440121054649353
1783203187161061000,4.95906103515625,0.3158115509744733,0.3673080025210976,0.1039192241579294,-1.7762973308563232,-0.4312489628791809,-0.4163116216659546
1783203187170997800,4.968997802734375,0.3557625992212444,0.3497302602544426,-0.1306172614693641,-1.7725974321365356,-0.5031226277351379,-0.3562906086444855
1783203187180936000,4.97893603515625,0.4024356491994112,0.463790500807017,-0.453692446771264,-1.743275761604309,-0.6456052660942078,-0.2413992285728454
1783203187190872800,4.988872802734375,0.5543423669349402,0.5465754592604934,-0.5516746820956469,-1.7527997493743896,-0.8429662585258484,-0.0912976041436195
1783203187200810000,4.99881005859375,0.7207374095544219,0.6172527774214744,-0.7884153997689485,-1.7399299144744873,-1.0653129816055298,0.0511134155094623
1783203187210747000,5.008746826171875,0.9585059359055011,0.3558296000428497,-1.5090075556337832,-1.6461639404296875,-1.1204683780670166,0.1695505827665329
1783203187220684000,5.01868408203125,0.8558174956515431,-0.037955490515381,-2.2273393653512,-1.5456677675247192,-1.0053908824920654,0.1937936693429947
1783203187230622000,5.0286220703125,0.2666912539746612,-0.2617041132118552,-2.9262697245061395,-1.4695974588394165,-0.7891532182693481,0.1399149894714355
1783203187240558800,5.038558837890625,-0.3544859303489327,-0.7145140049949288,-3.6866660674929617,-1.3905980587005615,-0.6200381517410278,0.0464061722159385
1783203187250496000,5.04849609375,-0.8817369498059153,-1.1332401331294328,-4.6677989188134665,-1.2850724458694458,-0.5487053394317627,-0.0692599788308143
1783203187260433000,5.058432861328125,-1.0594896180681883,-1.5677540513738988,-5.946213758009672,-1.0517752170562744,-0.6016726493835449,-0.1668807864189148
1783203187270370000,5.0683701171875,-0.9367097722262144,-2.067989638133347,-7.622973250764608,-0.6769750118255615,-0.6962697505950928,-0.2467079758644104
1783203187280308000,5.078307861328125,-0.502824141947925,-2.9092478625565765,-9.224874194151162,-0.1978874057531356,-0.5449341535568237,-0.3062284886837005
1783203187290245000,5.0882451171875,0.0314659458329901,-3.6740111685812473,-10.273264472186565,0.3853640258312225,-0.2125546485185623,-0.4106046855449676
1783203187300181800,5.098181640625,0.209714160793554,-3.761876499038935,-11.273877100002766,1.0628653764724731,0.1293918341398239,-0.5903991460800171
1783203187310119000,5.108118896484375,0.3211019490001723,-3.4363074510946867,-12.098359253931044,1.779492735862732,0.419935792684555,-0.7963027954101562
1783203187320056000,5.11805615234375,0.54051133691594,-2.965553102624416,-12.579978403025866,2.527473211288452,0.6433231830596924,-0.9371185898780824
1783203187329994000,5.127993896484375,1.007188791336119,-2.4247680633336306,-12.716269033956529,3.326154947280884,0.9061025977134703,-0.9665529131889344
1783203187339931100,5.13793115234375,1.5639198800384997,-1.7827898638479411,-12.32604923466444,4.131834506988525,1.2674429416656494,-0.9011428356170654
1783203187349868000,5.147867919921875,1.612220969609916,-0.6403313090614974,-11.308568474155663,4.840829372406006,1.6699304580688477,-0.7632845640182495
1783203187359805000,5.157804931640625,1.3262997491821646,0.5867690840914845,-9.826286428362131,5.372064113616943,2.0489752292633057,-0.5902445316314697
1783203187369741800,5.167741943359375,0.8442638359799981,1.4588497322797775,-8.051682062926888,5.750388145446777,2.2596421241760254,-0.4061224162578583
1783203187379680000,5.177679931640625,0.1030015247911214,2.279334633265436,-6.594753069576621,6.044673442840576,2.2828032970428467,-0.2242990732192993
1783203187389617000,5.187616943359375,-0.3422736606381833,3.000646043315529,-5.256012648755312,6.253776550292969,2.26314377784729,-0.054672222584486
1783203187399554000,5.197553955078125,-0.4354889738216996,3.889261354458332,-3.834510358095169,6.384390354156494,2.358630895614624,0.1223649010062217
1783203187409491000,5.207490966796875,-0.5643820418469607,5.282558710375428,-2.377921556484699,6.471861362457275,2.555924415588379,0.3317391574382782
1783203187419427800,5.217427734375,-0.784153066149354,6.622197541341185,-0.9101549427777528,6.452333927154541,2.8145592212677,0.601922333240509
1783203187429365000,5.227364990234375,-1.015412868193537,7.549614000043272,0.8586836987376213,6.247888088226318,2.971608877182007,0.8689095377922058
1783203187439303000,5.237302978515625,-1.4686889892488717,8.421291035866737,2.8510031788587566,5.757986068725586,2.962515115737915,1.0742783546447754
1783203187449240000,5.247239990234375,-1.8307319108486173,8.75875715009272,4.951995799666643,5.023514747619629,2.713374137878418,1.1924407482147217
1783203187459177000,5.257177001953125,-1.931849521589279,8.729937298321724,6.676674396938085,4.14651346206665,2.2538113594055176,1.2190793752670288
1783203187469114000,5.267114013671875,-2.146531844450533,8.643528596413136,7.810583734565973,3.2454445362091064,1.6709133386611938,1.155107855796814
1783203187479050800,5.27705078125,-2.381011923715472,8.551847507059573,8.55752438365221,2.4111788272857666,1.1013292074203491,1.0173993110656738
1783203187488989000,5.286989013671875,-2.5906620976284143,8.438599898064137,8.895825779658555,1.656008005142212,0.6534315347671509,0.8302488327026367
1783203187498925800,5.29692578125,-2.790177831017971,8.389034779906272,9.079419429033994,0.9421801567077636,0.4070261418819427,0.6274540424346924
1783203187508863000,5.306863037109375,-2.795350849741697,8.465361648261547,9.284047683131694,0.2452253103256225,0.3234881162643432,0.4487788677215576
1783203187518800100,5.316800048828125,-2.543072078935802,8.519697634083032,9.402251453229784,-0.4238885939121246,0.3388120234012604,0.2920497953891754
1783203187528737000,5.326737060546875,-2.303227842289209,8.421464054346083,9.36031493025422,-1.0289007425308228,0.3564232587814331,0.1352031677961349
1783203187538675000,5.336675048828125,-2.198832378921657,8.285349364504217,9.1977810200423,-1.5291484594345093,0.3473882973194122,-0.0029215705581009
1783203187548611800,5.34661181640625,-2.096501446868479,8.084077435097099,9.02226312509477,-1.924824953079224,0.2810359001159668,-0.0915896520018577
1783203187558549000,5.356549072265625,-2.020216371828317,7.988015354180336,8.869206068280338,-2.2503767013549805,0.1255534440279007,-0.1165008023381233
1783203187568486000,5.36648583984375,-1.960252609252929,7.965988815811276,8.857597463551164,-2.5568511486053467,-0.1186235398054122,-0.0739418864250183
1783203187578423000,5.376423095703125,-1.953125095460564,8.021547621425986,8.906853369629383,-2.8830342292785645,-0.4559228718280792,0.0433688983321189
1783203187588361000,5.38636083984375,-1.906020960588753,8.04990570090413,9.067665862876176,-3.276292324066162,-0.8821188807487488,0.2446415573358535
1783203187598298000,5.396298095703125,-1.7426003306701778,7.912301649287342,9.19809666186273,-3.763814687728882,-1.4060758352279663,0.5277156233787537
1783203187608235000,5.406235107421875,-1.6912056589975952,7.697630724602937,9.099862497603892,-4.363213539123535,-1.9530670642852783,0.8607058525085449
1783203187618172000,5.416171875,-1.8643660310335457,7.505535204342007,8.723010129407047,-5.018343448638916,-2.461758852005005,1.1861076354980469
1783203187628109000,5.426109130859375,-2.232059525740892,7.289568394628167,7.839356240063905,-5.706707954406738,-2.9005157947540283,1.478227138519287
1783203187638047000,5.436046875,-2.746775619404018,7.095702942085266,6.528870438346266,-6.395209789276123,-3.2567639350891118,1.7170121669769287
1783203187647984000,5.445984130859375,-3.345127297000587,6.745431122300029,4.605714510822295,-7.018169403076172,-3.534412384033203,1.8741918802261357
1783203187657921000,5.455921142578125,-4.10506391352117,6.292134396848082,2.282494850862026,-7.509577751159668,-3.82656192779541,1.9371989965438845
1783203187667858000,5.46585791015625,-4.995480721127986,5.777673885381222,-0.4680167401999235,-7.854752063751221,-4.137214183807373,1.863089084625244
1783203187677794800,5.475794921875,-6.302627149289847,4.891620241419971,-3.6198090382725,-7.905690193176269,-4.33405351638794,1.5886657238006592
1783203187687733000,5.48573291015625,-7.646456417682766,3.639650341556966,-7.05902886968255,-7.788990974426269,-3.821120977401733,1.116785764694214
1783203187697670000,5.495669921875,-8.355739244025946,2.2574102400965987,-9.831164848053454,-7.449126720428467,-2.456510543823242,0.5609923601150513
1783203187707607000,5.50560693359375,-7.79578071770966,1.1314138675503431,-13.058778987568616,-7.924003601074219,-0.323930412530899,0.028727937489748
1783203187717544200,5.515544189453125,-5.244515103185177,-0.6975366397742182,-13.330659992206096,-8.061948776245117,2.154864549636841,-0.6143025159835815
1783203187727480800,5.525480712890625,-1.9349359432972968,-1.4037179199054837,-17.415794631898404,-6.783746719360352,4.044879913330078,-1.2924550771713257
1783203187737419000,5.5354189453125,2.023859404505789,-2.2289652129873634,-21.77580653543472,-4.822117328643799,5.206021308898926,-1.724823236465454
1783203187747356000,5.54535595703125,5.344346765768528,-2.9439693395867943,-21.438270863103867,-3.3185794353485107,5.824240684509277,-1.7402892112731934
1783203187757293000,5.55529296875,7.309825585237145,-2.782034856572747,-18.36594431593418,-2.021582841873169,5.626657962799072,-1.3820115327835083
1783203187767230000,5.56522998046875,8.030634014201164,-1.967524207691103,-16.340777043700218,-0.7779771089553833,4.678157329559326,-0.7396079301834106
1783203187777167000,5.5751669921875,7.890944973003863,-1.401593913488835,-14.14248841626644,-0.0534601099789142,3.2877821922302246,0.0274142865091562
1783203187787105000,5.58510498046875,7.695082209163904,-1.3367745275758207,-11.10081185890436,0.3559542894363403,1.8302547931671145,0.778562068939209
1783203187797042000,5.5950419921875,7.227825931942463,-1.4286720361590384,-9.296842282775044,0.9410743117332458,0.6190797686576843,1.43720805644989
1783203187806978800,5.604978759765625,6.295611133047938,-1.233928193346411,-8.81621915898025,1.970465421676636,-0.1097587049007415,1.994608759880066
1783203187816916000,5.614916015625,5.18505169134736,-0.9967464539073408,-8.655369256332516,2.871236801147461,-0.3008191585540771,2.4467039108276367
1783203187826854000,5.62485400390625,3.7465468279600143,-0.6051702715702355,-6.830700591045618,3.3641722202301025,-0.1692264974117279,2.717951774597168
1783203187836791000,5.634791015625,1.981449711060524,0.0157231273759156,-4.870165657719969,3.826163291931152,-0.0977404564619064,2.767771482467652
1783203187846728000,5.64472802734375,0.2332499529480934,0.7864526483286172,-3.68803092610538,4.173264980316162,-0.1392199844121933,2.717617511749268
1783203187856664800,5.654664794921875,-1.067716471404582,1.4405235097333788,-1.7944407002836464,4.267202377319336,-0.1785732209682464,2.5765316486358643
1783203187866602000,5.66460205078125,-2.264510865882039,2.173293740778416,0.22363281429708,4.070494174957275,-0.1691533625125885,2.2913818359375
1783203187876540000,5.674539794921875,-3.222979465451836,2.612302559289336,2.052955442869663,3.718257427215576,-0.1077672764658927,1.956012845039368
1783203187886477000,5.68447705078125,-3.842712076990306,2.900305846688151,3.3947271942108865,3.317779541015625,-0.051667783409357,1.579468846321106
1783203187896414000,5.6944140625,-4.16468865340054,3.1252851071581245,4.377812933164835,2.840481996536255,-0.0238158535212278,1.2232435941696167
1783203187906350800,5.704350830078125,-4.143972028586268,3.2478868199542164,5.375268558254838,2.246701002120972,-0.0333158820867538,0.9316077828407288
1783203187916288000,5.7142880859375,-3.905486513072252,3.270891847966612,6.160565533742308,1.5981987714767456,-0.0440682917833328,0.7156457304954529
1783203187926226000,5.724225830078125,-3.5563916281118986,3.258039088395238,6.547229101857543,0.9840322732925416,-0.0235113501548767,0.5332362055778503
1783203187936163000,5.7341630859375,-3.270218771010637,3.194287039452791,6.530087997442483,0.4987345337867737,0.0183088593184947,0.3450448215007782
1783203187946099200,5.74409912109375,-3.06119286647588,2.995814677636325,6.191557468855381,0.1493991464376449,0.0958486571907997,0.1430736035108566
1783203187956036400,5.754036376953125,-2.89493701313138,2.6668361135095355,5.911596618136763,-0.1861596852540969,0.1775889247655868,-0.0411152765154838
1783203187965973200,5.76397314453125,-2.718757439404726,2.3536697432816025,5.83761894325614,-0.5032534599304199,0.2106150537729263,-0.2036754339933395
1783203187975911200,5.7739111328125,-2.5696827302247285,2.106031053366512,5.618607359018921,-0.7551900148391724,0.1581273674964904,-0.3244340419769287
1783203187985848000,5.78384814453125,-2.376997865768522,1.8762211578696968,5.314006572562456,-0.9580057263374328,0.0318179056048393,-0.421915054321289
1783203187995785200,5.79378515625,-2.172841028574854,1.5958144630797206,5.014101834967732,-1.144646406173706,-0.1564160883426666,-0.5040494799613953
1783203188005722400,5.803722412109375,-1.9383076116874811,1.29405313783288,4.681970652028918,-1.2942781448364258,-0.3933039903640747,-0.6003406047821045
1783203188015659300,5.8136591796875,-1.839799014401436,1.225519699832797,4.259493427732586,-1.4417963027954102,-0.6408103108406067,-0.7191568613052368
1783203188025597400,5.823597412109375,-1.7443126875460149,1.1672272314704957,3.865889831221104,-1.6343556642532349,-0.8601327538490295,-0.8192224502563477
1783203188035534000,5.8335341796875,-1.4782196186602117,0.8601432498961686,3.4358021319210525,-1.8830516338348389,-1.037042498588562,-0.9131980538368224
1783203188045471200,5.84347119140625,-1.2618413055360316,0.68319824475497,2.846812741431594,-2.0343949794769287,-1.1954115629196167,-0.9933122992515564
1783203188055408000,5.853408203125,-1.0316317431971431,0.5402843962922692,1.7996026130914686,-2.080763578414917,-1.317611575126648,-1.0451326370239258
1783203188065345300,5.86334521484375,-0.7695082355294376,0.3991593309424817,0.971964625480771,-2.162860155105591,-1.3570101261138916,-1.0645692348480225
1783203188075283200,5.873283203125,-0.5584395000554621,0.1551084363862872,0.3628250118881463,-2.248274564743042,-1.3279961347579956,-1.0815633535385132
1783203188085220000,5.88322021484375,-0.491674240771681,-0.0061846799843013,-0.4361667269527912,-2.2478718757629395,-1.265779972076416,-1.1336971521377563
1783203188095157200,5.8931572265625,-0.4727554591596126,-0.1582922905867919,-1.3402140005052088,-2.1804463863372803,-1.1139124631881714,-1.1952319145202637
1783203188105094100,5.90309423828125,-0.3500989839689806,-0.4216273294687271,-2.016741389194131,-2.106025695800781,-0.9841479063034058,-1.2560909986495972
1783203188115031300,5.91303125,-0.1964221878210082,-0.5984107873726636,-2.614927062574029,-2.0382156372070312,-0.9092046618461608,-1.3115230798721311
1783203188124969200,5.92296923828125,-0.1515218831364065,-0.6230166016452015,-3.2016590295255183,-1.966421365737915,-0.831793487071991,-1.350538730621338
1783203188134906400,5.93290625,-0.1496331467803567,-0.5183019527932629,-3.964824837225675,-1.876925230026245,-0.7583819031715393,-1.364267110824585
1783203188144843000,5.942843017578125,-0.053446526168473,-0.4537593745276331,-4.894760000750423,-1.7261021137237549,-0.6556970477104187,-1.341177225112915
1783203188154780200,5.9527802734375,0.4082835349773988,-0.6286022197578102,-5.880082120454311,-1.493505358695984,-0.5999427437782288,-1.2779879570007324
1783203188164717300,5.96271728515625,0.8744326181419193,-0.8256449140973389,-6.92573742056787,-1.1543503999710083,-0.5718660950660706,-1.202804446220398
1783203188174655200,5.9726552734375,1.278356240876764,-1.0482868176609277,-7.949118929553031,-0.7147011756896973,-0.5457894206047058,-1.0996569395065308
1783203188184592100,5.982592041015625,1.818456512773782,-1.4243527116551995,-9.008095483532548,-0.1719628274440765,-0.4847806692123413,-0.9605462551116944
1783203188194529300,5.992529296875,2.3952900399148462,-1.9536425434634088,-10.010374583256244,0.4745679497718811,-0.3586043119430542,-0.825416088104248
1783203188204466200,6.002466064453125,2.7113199828803536,-2.168090765307844,-10.874206750798225,1.196875810623169,-0.1003583744168281,-0.7210683822631836
1783203188214403000,6.012403076171875,2.7837597806692123,-2.201007531003654,-11.332846006321908,1.947687149047852,0.2386982589960098,-0.6352223753929138
1783203188224341200,6.02234130859375,2.464676879873872,-1.799103285267204,-11.361743599504232,2.688323974609375,0.5552767515182495,-0.5674497485160828
1783203188234278100,6.032278076171875,2.0666684725321827,-0.9726444244384764,-10.94691659770012,3.334552526473999,0.652231752872467,-0.4621342420578003
1783203188244215300,6.04221533203125,1.8884312356233597,-0.3154119571976364,-10.34468486379981,3.8905105590820312,0.5115084648132324,-0.3423652350902557
1783203188254152200,6.052152099609375,1.562215121947229,0.0519741885935887,-9.884562091720104,4.4022216796875,0.2589702308177948,-0.3231222629547119
1783203188264089000,6.062089111328125,1.047805536950007,0.3611535715445876,-9.6830002394557,4.894842147827148,0.082201063632965,-0.4407397210597992
1783203188274027000,6.072027099609375,0.4408222976736724,0.7893484428353608,-9.722738375604152,5.386570453643799,0.0155975092202425,-0.6689662337303162
1783203188283964200,6.081964111328125,-0.0081366908349096,1.4911568416446446,-9.940620079028603,5.87025785446167,0.2508611679077148,-0.908599615097046
1783203188293901300,6.0919013671875,0.0170068835761398,2.413140753903985,-9.698118313610554,6.311742782592773,0.7786638140678406,-1.0519771575927734
1783203188303838200,6.101838134765625,-0.0342930955503135,3.68134545699209,-9.045256462669371,6.735941410064697,1.452942132949829,-1.0137312412261963
1783203188313775400,6.111775390625,-0.0073775795632973,4.998566412183642,-7.933993841135502,7.024134159088135,2.028298854827881,-0.7741667032241821
1783203188323713300,6.12171337890625,0.2708272578008472,6.195949566334486,-6.101724637717008,7.049551010131836,2.3987066745758057,-0.3822362422943115
1783203188333650200,6.131650146484375,0.4546509165398776,7.189414660483599,-3.8606115985572336,6.984025001525879,2.5629053115844727,0.1176835298538208
1783203188343587000,6.141587158203125,0.6917500922620297,7.861185794556141,-1.8954548506498337,6.910831451416016,2.537982940673828,0.6190752387046814
1783203188353524200,6.151524169921875,0.5073123932778835,8.482539577555656,0.2099456497281789,6.721201419830322,2.473346948623657,0.9918103218078612
1783203188363461400,6.16146142578125,-0.1875565616570413,8.92176043138206,2.5654133823424576,6.24812126159668,2.343347549438477,1.206303358078003
1783203188373399300,6.1713994140625,-1.1139042220838369,8.873908546882868,4.856107321751117,5.435328006744385,2.0611608028411865,1.2448537349700928
1783203188383336200,6.181336181640625,-2.1046338999196887,8.522643624407053,6.514829638034105,4.512146949768066,1.653667688369751,1.1177376508712769
1783203188393273000,6.191273193359375,-3.001976999658346,8.225284479641914,7.407419113504886,3.616506338119507,1.3783117532730105,0.8833554983139038
1783203188403210200,6.201210205078125,-3.7335795020982623,7.965451640194654,8.02348121983707,2.8414242267608643,1.3373980522155762,0.5731302499771118
1783203188413147100,6.211147216796875,-4.318893126684427,8.062287628093362,8.301199844586849,2.2226366996765137,1.4760020971298218,0.2776831686496734
1783203188423084300,6.221084228515625,-4.5862271355420345,8.15403067676723,8.642611481568217,1.6754522323608398,1.5590553283691406,0.0719904452562332
1783203188433022200,6.231022216796875,-4.362701288750768,8.102972105181216,8.978172638955712,1.1174051761627195,1.4360721111297607,-0.0358200706541538
1783203188442959400,6.24095947265625,-3.799702079564333,7.92319772183299,9.387681076085569,0.5461441278457642,1.142626166343689,-0.0882824808359146
1783203188452896000,6.25089599609375,-3.3277105905145405,7.775010901403426,9.879576120001078,-0.0040024500340223,0.7955263257026672,-0.1069071516394615
1783203188462833200,6.260833251953125,-2.9606188610926267,7.586978977319598,10.25594742668271,-0.5173296332359314,0.4595826864242553,-0.0926017165184021
1783203188472770300,6.270770263671875,-2.483402623131871,7.433214064496755,10.608221233940125,-1.052072525024414,0.178718164563179,-0.0429948344826698
1783203188482708200,6.280708251953125,-1.9292286715663969,7.402947521048784,11.0384094710052,-1.6545861959457395,-0.0974593535065651,0.05864018201828
1783203188492645400,6.290645263671875,-1.586537954559922,7.270202015379071,11.192764166414737,-2.290778875350952,-0.3931764960289001,0.1952355951070785
1783203188502582300,6.300582275390625,-1.4764274745464323,6.982644133660197,11.0893271728158,-2.921996593475342,-0.7133113741874695,0.3322209119796753
1783203188512519200,6.310519287109375,-1.6277305273003877,6.825155231878161,10.694968958544733,-3.53739333152771,-1.151282787322998,0.4625997841358185
1783203188522456000,6.3204560546875,-2.078309956617653,6.579212970617413,9.870659823095798,-4.111157417297363,-1.6468080282211304,0.556881308555603
1783203188532393200,6.330393310546875,-2.7740137549415227,6.16990677806139,8.866171230629085,-4.5992960929870605,-2.075190544128418,0.5912891626358032
1783203188542331100,6.3403310546875,-3.2744612308859824,5.8540083525210616,7.764656096127629,-5.041820049285889,-2.363671064376831,0.5835058093070984
1783203188552268300,6.350268310546875,-3.51657224342078,5.701265183961391,6.7138149178087705,-5.493144989013672,-2.6200685501098637,0.5410366058349609
1783203188562205400,6.360205322265625,-3.895534443378448,5.591309602248669,5.437628860577941,-5.963969230651856,-2.901973247528076,0.4494989812374115
1783203188572142000,6.37014208984375,-4.465260038210452,5.256939700472355,3.903315598773956,-6.390792369842529,-3.1703176498413086,0.2963146269321441
1783203188582079200,6.380079345703125,-5.174317531365156,4.721696513217688,1.8793547797203063,-6.685883045196533,-3.2062103748321533,0.0921114087104797
1783203188592016100,6.39001611328125,-5.414632600393891,4.187397036553919,-0.2241279043376445,-6.807568073272705,-2.9776978492736816,-0.0892833620309829
1783203188601954300,6.399954345703125,-4.627697210049629,3.900720906105637,-2.4060931734800337,-6.824245452880859,-2.764159202575684,-0.1569713354110717
1783203188611891200,6.40989111328125,-3.4305133778631687,3.460034363640845,-5.05105121718049,-6.699640274047852,-2.7136600017547607,-0.1665020734071731
1783203188621828400,6.419828369140625,-1.9612049415417012,2.4259464594632387,-7.977204037308691,-6.102942943572998,-2.699597120285034,-0.1485190838575363
1783203188631765200,6.42976513671875,0.0157611943639814,1.1019155319958924,-11.178052919495103,-6.3754472732543945,-2.14182186126709,-0.1276153177022934
1783203188641702100,6.4397021484375,1.532676600512862,-0.5931801201775669,-11.955108136337994,-5.709237098693848,-1.3887864351272583,-0.2422955632209777
1783203188651639300,6.449639404296875,2.2509612100876866,-1.310272743488848,-17.138242595887185,-4.05009651184082,-0.6298421621322632,-0.3830590546131134
1783203188661577200,6.4595771484375,2.835533222526312,-2.287899047993124,-19.96467948876619,-2.3495564460754395,0.1972940862178802,-0.4798164963722229
1783203188671514400,6.469514404296875,3.0674077954679726,-3.0331194491580127,-19.33057143813372,-1.1242512464523315,0.7932145595550537,-0.4073797464370727
1783203188681451300,6.479451171875,3.3467461303740738,-3.3166093507856127,-17.443276513063907,-0.3128145337104797,1.049480438232422,-0.2683009505271911
1783203188691388200,6.48938818359375,3.4431010567575693,-3.0825352219730613,-15.484039802855252,0.3860939443111419,1.0118021965026855,-0.0930325165390968
1783203188701325000,6.499324951171875,3.603968495061993,-2.878508148638904,-13.649967933928966,0.9380252957344056,0.9030259251594543,0.1128359586000442
1783203188711262200,6.50926220703125,3.5514667389303445,-2.5226994452536107,-11.444659198600052,1.2738217115402222,0.8799798488616943,0.3431152999401092
1783203188721200000,6.5192001953125,3.134804338392615,-2.2600132622018454,-9.301319135928154,1.6703429222106934,0.9459271430969238,0.5530365705490112
1783203188731137300,6.52913720703125,2.3147364937752486,-1.9079013675078749,-7.983826670318842,2.2374255657196045,0.9913150668144226,0.7254649996757507
1783203188741074400,6.539074462890625,1.339877169766277,-1.6962595813862975,-6.568700928953289,2.688445568084717,1.046717882156372,0.8286523818969727
1783203188751011000,6.549010986328125,0.0518264141533523,-1.2882839067816734,-4.493456497386098,2.899187564849853,1.0895512104034424,0.8535228967666626
1783203188760948200,6.5589482421875,-1.20726267006509,-0.7050647702567279,-2.3477356770575044,2.930114984512329,1.1248053312301636,0.8083780407905579
1783203188770885000,6.568885009765625,-2.3371209056712687,0.1062288162745535,-0.5308955134391784,2.900062561035156,1.090246319770813,0.6967954635620117
1783203188780823300,6.5788232421875,-3.1055189149364826,0.6935875368222594,0.9069178605526684,2.7883200645446777,1.0151190757751465,0.5661093592643738
1783203188790760200,6.58876025390625,-3.4813904554024337,1.065839717747271,2.264897819373012,2.5624701976776123,0.8926587700843811,0.4051175713539123
1783203188800697300,6.598697265625,-3.634278877651691,1.3761866466403008,3.297248232233524,2.364849328994751,0.7191860675811768,0.2355714291334152
1783203188810634200,6.60863427734375,-3.558054008366167,1.619552627672255,3.8682045379042624,2.1638755798339844,0.4959443509578705,0.0857568085193634
1783203188820571100,6.618571044921875,-3.289887640337646,1.844497109089792,4.433330237725377,1.8332302570343015,0.3223690986633301,-0.0558477267622947
1783203188830508300,6.62850830078125,-3.020515111389756,1.9994611685693264,5.0204982580065725,1.4635131359100342,0.3263359367847442,-0.2266673594713211
1783203188840445200,6.638445068359375,-2.949111670911312,2.2233619861528275,5.364266687247157,1.1377928256988523,0.4183675944805145,-0.4017238616943359
1783203188850383400,6.64838330078125,-2.743138724206388,2.4154218505784866,5.496944972899556,0.7697148323059082,0.4736686646938324,-0.5067262053489685
1783203188860320300,6.6583203125,-2.344300149650872,2.456440381926298,5.7189896412223575,0.3324314951896667,0.4647095203399658,-0.5591171979904175
1783203188870257200,6.668257080078125,-1.879611823221296,2.395547521807253,5.773576386934519,-0.077354572713375,0.3945554494857788,-0.5691030025482178
1783203188880194300,6.6781943359375,-1.3832355422385036,2.237852283798158,5.468303400304913,-0.371684730052948,0.2203543335199356,-0.5541698932647705
1783203188890131200,6.688131103515625,-0.969834189323336,2.088032016947865,4.863679218310118,-0.585326611995697,-0.0145869143307209,-0.5380746722221375
1783203188900068400,6.698068359375,-0.643743163331598,1.8365528720870608,4.356193222030997,-0.7712645530700684,-0.2008039206266403,-0.5126350522041321
1783203188910005200,6.708005126953125,-0.3616182664468884,1.5814491069883108,3.901239377021789,-0.9129228591918944,-0.3617297112941742,-0.5017616748809814
1783203188919943400,6.717943359375,-0.1584128847591578,1.5161124192029236,3.3792724354475734,-1.0444846153259275,-0.4958004653453827,-0.4986518919467926
1783203188929880000,6.727880126953125,0.0672209671620279,1.4134277052760122,2.957970684671402,-1.1953355073928833,-0.5967897772789001,-0.5077544450759888
1783203188939817200,6.737817138671875,0.2864979243371635,1.3563751539722084,2.505986210861802,-1.3651103973388672,-0.660459578037262,-0.5169570446014404
1783203188949755100,6.747755126953125,0.5256561514809728,1.3116440318420528,1.9719944849729536,-1.5265789031982422,-0.6543595790863037,-0.5175693035125732
1783203188959692300,6.7576923828125,0.7164661619760095,1.2434896562874316,1.3861603436440229,-1.6431124210357666,-0.5695477724075317,-0.527463436126709
1783203188969629200,6.767629150390625,0.7923999393604695,1.226025019006431,0.8520078742355108,-1.7416373491287231,-0.4174160063266754,-0.5412306189537048
1783203188979566300,6.77756640625,0.8450261986546218,1.1771344391092655,0.5184375984042883,-1.8426297903060915,-0.2201881408691406,-0.5577200651168823
1783203188989504300,6.787504150390625,0.8444011255588382,1.2210410931140183,0.4144295269191265,-1.951581358909607,-0.0424774922430515,-0.5545996427536011
1783203188999441400,6.79744140625,0.8641004630893468,1.243372313518077,0.4202186317145824,-2.0755774974823,0.0655661523342132,-0.532863199710846
1783203189009378300,6.80737841796875,0.8739832669392228,1.2640997519873085,0.5071276843607425,-2.2180328369140625,0.0815586820244789,-0.4719745516777038
1783203189019315200,6.817315185546875,0.9516616960339248,1.2144300044111906,0.580410362714529,-2.3487863540649414,0.0106924949213862,-0.3747606575489044
1783203189029252400,6.82725244140625,0.9681688864596188,1.1652059547759592,0.5563473500818014,-2.441652774810791,-0.1231428235769271,-0.2631169855594635
1783203189039189200,6.837189208984375,0.9160005270007996,1.105663194091618,0.4221428777754306,-2.4956016540527344,-0.251982569694519,-0.141584426164627
1783203189049126400,6.84712646484375,0.7530147083029151,0.9911851665183902,0.2156289560616016,-2.5163490772247314,-0.3686954975128174,-0.0240275971591472
1783203189059063300,6.857063232421875,0.3290376008376479,0.9161864780269564,-0.114854459670186,-2.5113799571990967,-0.4603542983531952,0.0417255833745002
1783203189069001200,6.867001220703125,-0.2005602374738082,0.8366036766156554,-0.5300707530528307,-2.511752128601074,-0.548027515411377,0.0644819661974906
1783203189078938400,6.8769384765625,-0.629762495708838,0.6447020714916288,-1.0457809723198412,-2.5387678146362305,-0.603686511516571,0.0567518696188926
1783203189088875300,6.886875244140625,-1.0174963234040886,0.3813260430121794,-1.6932944479703902,-2.574704170227051,-0.641521692276001,0.0020410676952451
1783203189098812400,6.8968125,-1.3165706745892762,-0.0083449632907286,-2.6540941208362576,-2.543309211730957,-0.6974680423736572,-0.1117555424571037
1783203189108749300,6.906749267578125,-1.3092906005837022,-0.5933025409808382,-4.035675319996476,-2.396843433380127,-0.6961608529090881,-0.2481074333190918
1783203189118686200,6.916686279296875,-1.0356671361930667,-1.2830698253951969,-5.735907458275556,-2.135883092880249,-0.6704527735710144,-0.3898861408233642
1783203189128623400,6.926623291015625,-0.6936656435597688,-1.93824053780064,-7.891742845383286,-1.7066339254379272,-0.5423403978347778,-0.5157048106193542
1783203189138560300,6.936560302734375,0.0144089395048096,-2.8843533675357698,-10.245191054868698,-1.0651042461395264,-0.1502131223678589,-0.5924426913261414
1783203189148498200,6.946498291015625,0.8482831546239554,-3.558297461733222,-12.16435177527666,-0.2278680801391601,0.3943919837474823,-0.6082043051719666
1783203189158435300,6.956435302734375,1.2832285230882463,-3.6422643234476446,-13.441405847513677,0.7556362748146057,0.9451866745948792,-0.5786152482032776
1783203189168372500,6.96637255859375,1.346538235090673,-3.222881558035314,-13.847981738322972,1.8034040927886963,1.348973035812378,-0.5121569037437439
1783203189178309000,6.97630908203125,1.2418021415919065,-2.5778695438116785,-13.505371246945858,2.7957327365875244,1.5018600225448608,-0.434637039899826
1783203189188246300,6.986246337890625,1.2630746467232703,-1.958717362509668,-12.5092278734982,3.639605045318604,1.4175931215286257,-0.33161261677742
1783203189198183400,6.996183349609375,1.3062544477581977,-1.4160780736543237,-11.339916383099556,4.3414082527160645,1.2318975925445557,-0.2106640636920929
1783203189208120300,7.006120361328125,1.1130013549599795,-0.9002626404471695,-10.193721564394234,4.968555450439453,1.1135395765304563,-0.1044071614742279
1783203189218057500,7.016057373046875,0.7783720715951175,-0.1863188365556299,-9.194976484015584,5.549337387084961,1.0443620681762695,-0.0018352469196543
1783203189227994000,7.025994140625,0.102967768651992,0.7054740817099809,-8.116568084335327,6.0279622077941895,1.0809111595153809,0.0808914899826049
1783203189237932300,7.035932373046875,-0.8388025018341839,1.649354037826508,-6.727733553045987,6.380541324615479,1.1846040487289429,0.1275799125432968
1783203189247869200,7.045869140625,-1.5169222742810844,2.5408634629756213,-5.433941111975908,6.696304798126221,1.2703609466552734,0.1273418217897415
1783203189257806300,7.055806396484375,-2.030106043810397,3.506203701880574,-4.444285346981883,6.946866989135742,1.329712986946106,0.1016087532043457
1783203189267743200,7.0657431640625,-2.42317377987951,4.493404474937916,-3.293798968562484,7.101161479949951,1.4421615600585938,0.1030919402837753
1783203189277680400,7.075680419921875,-2.6933435966849326,5.703526114630699,-1.7933201718211174,7.18204927444458,1.5146390199661257,0.17867511510849
1783203189287617300,7.0856171875,-2.6172870697036386,6.998288277515768,-0.2969166616946458,7.174830436706543,1.3734278678894043,0.3860946595668793
1783203189297554200,7.09555419921875,-2.1096927907444534,7.783824906978011,1.0649825163960456,7.054885387420654,0.9705451130867004,0.6512650847434998
1783203189307491300,7.1054912109375,-1.5692713240690528,8.150643372416496,2.15335409168601,6.788126468658447,0.4569234549999237,0.8430810570716858
1783203189317428200,7.11542822265625,-1.2193866039052603,8.230760865226387,3.294349003660679,6.405502796173096,0.0471671149134635,0.9089125394821168
1783203189327366400,7.125366455078125,-1.0056097785163671,8.47861568211019,4.260360858216882,5.936263561248779,-0.1825675964355468,0.8955575227737427
1783203189337303300,7.13530322265625,-0.7345208010394125,8.5471362606287,5.192020361316204,5.316703796386719,-0.1165030896663665,0.8454139232635498
1783203189347240200,7.145240234375,-0.6370829747900366,8.729348100256919,6.417696128493547,4.488943099975586,0.2181273698806762,0.7560814023017883
1783203189357177300,7.15517724609375,-0.5546075206771492,8.810591966748238,7.716390370130538,3.468740224838257,0.7077463269233704,0.587098240852356
1783203189367114200,7.1651142578125,-0.687187606652081,8.759953666400909,9.032666445687411,2.3178646564483643,1.2034939527511597,0.3536613881587982
1783203189377051400,7.175051513671875,-0.8423606327071785,8.563021812024711,10.101367105823757,1.164590835571289,1.4993597269058228,0.1028619334101677
1783203189386988300,7.18498828125,-0.9753019532099364,8.274684178104996,10.594732806813717,0.097881831228733,1.4965530633926392,-0.169761061668396
1783203189396925200,7.19492529296875,-1.0951362471193071,8.051288679695128,10.743362694835662,-0.8189103007316589,1.2632148265838623,-0.443746268749237
1783203189406862300,7.2048623046875,-1.1123778892993927,7.935028444880246,10.768877075320482,-1.5987470149993896,0.9470615386962892,-0.6533552408218384
1783203189416799200,7.21479931640625,-0.982204718335718,7.980271023663878,10.721538985562324,-2.3001551628112797,0.4696555733680725,-0.7670572996139526
1783203189426737400,7.2247373046875,-0.7759099923305213,8.189621045586467,10.324269852280617,-2.969023466110229,-0.057011030614376,-0.7924309968948364
1783203189436674300,7.23467431640625,-0.3705449386157095,8.129979354572296,10.01785880153179,-3.604645013809204,-0.4613116383552551,-0.7368646860122681
1783203189446611500,7.244611572265625,-0.0819271725803613,8.18228704943657,9.668254505744576,-4.208028793334961,-0.716037392616272,-0.5896845459938049
1783203189456548000,7.254548095703125,0.182102826295793,8.223988594612479,9.154448074272274,-4.793049812316895,-0.9221556782722472,-0.3370110094547272
1783203189466485200,7.2644853515625,0.3822095113158226,8.10231510257721,8.619882347887755,-5.337859630584717,-1.187493920326233,-0.0108307404443621
1783203189476422400,7.27442236328125,0.4700814176447689,7.800590748339891,7.89749687886536,-5.843742847442627,-1.5927990674972534,0.3553712368011474
1783203189486359300,7.284359375,0.096023867798224,7.323358436027169,6.948517407652735,-6.301471710205078,-2.135613918304444,0.6819206476211548
1783203189496296400,7.29429638671875,-1.0776986439757048,6.799424578294158,5.726252325701713,-6.694371700286865,-2.66273832321167,0.8506492376327515
1783203189506233000,7.304233154296875,-2.534996324507892,6.336176367670297,4.367460465976595,-7.036201477050781,-3.063819169998169,0.8707160353660583
1783203189516170200,7.314170166015625,-3.593434826087952,5.816948495671153,2.724299875962734,-7.338008880615234,-3.3254518508911133,0.7980071902275085
1783203189526107400,7.324107421875,-4.281137396524846,5.270309469655156,0.9086293406456708,-7.586148738861084,-3.388652801513672,0.6877069473266602
1783203189536044300,7.334044189453125,-4.470148102512956,5.036462719857693,-1.3161620937883851,-7.6464104652404785,-3.394102096557617,0.6081122159957886
1783203189545982500,7.343982421875,-3.845895675462484,4.734465686158836,-4.52942972804308,-7.487486362457275,-3.3114471435546875,0.6403366327285767
1783203189555919400,7.35391943359375,-2.474095281082392,3.3573996263355013,-8.386929332059621,-7.0138773918151855,-2.941621780395508,0.7082062363624573
1783203189565856300,7.363856201171875,-1.464816823990643,1.2574442396208645,-12.375761652338504,-6.102981090545654,-2.134406089782715,0.6149778366088867
1783203189575793200,7.373793212890625,-0.8534522278249264,-0.2604340202108025,-16.198908904898165,-4.950738430023193,-1.0864484310150146,0.3912927806377411
1783203189585730300,7.383730224609375,0.0030038579910993,-1.4356766542240975,-17.66343317568302,-4.359375476837158,0.425994873046875,0.1395968943834304
1783203189595667500,7.39366748046875,0.5770058149680495,-2.2351380564033985,-18.22238690887093,-2.984255075454712,1.4170001745224,-0.155654177069664
1783203189605604400,7.403604248046875,1.3743635228663682,-1.7496446962237358,-20.303134029507635,-1.3226412534713743,1.8128608465194704,-0.3074568510055542
1783203189615541200,7.413541259765625,2.399786036159843,-1.531375162525475,-19.359224701166152,-0.0090878373011946,1.578999400138855,-0.1878721117973327
1783203189625478100,7.42347802734375,3.756347214223444,-1.7575623374804854,-16.945605223834512,0.748053252696991,1.0280717611312866,0.1478445529937744
1783203189635415300,7.433415283203125,4.716806695349514,-1.9172867432296277,-14.424201079088448,1.3604050874710083,0.4555576741695404,0.5799240469932556
1783203189645352400,7.4433525390625,4.881737437570095,-1.8613916913978756,-12.73258303989768,1.9499177932739256,0.1523204445838928,1.0235579013824463
1783203189655289300,7.453289306640625,4.233226475314796,-1.6295196026742458,-10.829392626559734,2.3593344688415527,0.2447981834411621,1.4091309309005735
1783203189665227500,7.4632275390625,3.052684858110547,-1.5612847092293205,-8.62677269192338,2.811414957046509,0.5233953595161438,1.6671689748764038
1783203189675164200,7.4731640625,1.3961997993603348,-1.2983292077168822,-7.308347913900017,3.468700170516968,0.7399481534957886,1.710942268371582
1783203189685101300,7.483101318359375,-0.4146884701162576,-1.035445821592584,-5.898886189645529,3.8438830375671382,0.9504103064537048,1.6303017139434814
1783203189695038200,7.4930380859375,-2.04201377761662,-0.6403548360675573,-3.20917188937366,3.775819778442383,1.185306429862976,1.429526686668396
1783203189704975400,7.502975341796875,-3.428132035684585,0.0255192027904093,-0.6245037714630365,3.47868013381958,1.426061987876892,1.1607136726379397
1783203189714912500,7.51291259765625,-4.265948302960395,0.5264236287221312,1.1135825889140367,3.3619484901428223,1.5556100606918335,0.8779215216636658
1783203189724849200,7.52284912109375,-4.68511947144866,1.1343060818605124,1.9457213950753207,3.297996282577514,1.530527949333191,0.6178169846534729
1783203189734786300,7.532786376953125,-4.6795361183583735,1.5987787197127938,3.2908547318041323,2.9353604316711426,1.4321060180664062,0.4081492722034454
1783203189744723200,7.54272314453125,-4.392823747552932,1.8059256786331528,4.925633862441778,2.396064519882202,1.2404085397720337,0.2363899499177932
1783203189754660400,7.552660400390625,-3.957735755747557,1.9746809475779528,5.694341522178053,1.865357041358948,1.0086145401000977,0.1062777638435363
1783203189764597500,7.562597412109375,-3.526992807409167,2.1730185770988464,6.011430618807673,1.3964208364486694,0.8227297067642212,-0.024000808596611
1783203189774534100,7.5725341796875,-3.2345214346855875,2.29729494510889,6.0282958288908,1.0397511720657349,0.6541169881820679,-0.1282694190740585
1783203189784471300,7.58247119140625,-2.8281723383694883,2.1101172997668383,5.766435283008217,0.7750112414360046,0.5204640626907349,-0.2177551686763763
1783203189794408400,7.592408447265625,-2.5909160723894837,1.974536278410256,5.596013249894976,0.5545092225074768,0.4290989935398102,-0.2842167615890503
1783203189804345300,7.602345458984375,-2.3928720189876853,1.8998150916859504,5.568164873504639,0.357233464717865,0.2970440089702606,-0.3155360519886017
1783203189814283300,7.612283203125,-2.106357216580957,1.788958469480276,5.451219579035043,0.1533661037683487,0.0945577621459961,-0.3299589157104492
1783203189824220400,7.622220458984375,-1.801576835773885,1.5824357799381017,5.378343143394589,-0.0403695330023765,-0.1374152898788452,-0.3729378283023834
1783203189834157300,7.6321572265625,-1.547714302907884,1.4888801288843154,5.190344537058472,-0.2455924600362777,-0.3846921622753143,-0.4212156236171722
1783203189844094200,7.64209423828125,-1.268214201568812,1.5058827016115188,5.005039407590031,-0.5169715881347656,-0.5365625619888306,-0.4641437828540802
1783203189854031400,7.65203125,-0.9481262153841554,1.3875585200041531,4.813402737012505,-0.7944177985191345,-0.6281297206878662,-0.4969552457332611
1783203189863968300,7.66196826171875,-0.635288200327754,1.2238999896764755,4.27722314569056,-1.0247907638549805,-0.7101881504058838,-0.5440447330474854
1783203189873905200,7.6719052734375,-0.4172692073244601,1.1886363685935737,3.616110183754563,-1.220515489578247,-0.807824432849884,-0.5883229970932007
1783203189883842300,7.68184228515625,-0.1993410344097763,1.1601266056850552,3.0109131703078744,-1.4109148979187012,-0.8713387846946716,-0.646316647529602
1783203189893779200,7.691779296875,-0.1494570595610886,1.21347591855675,2.452326516866684,-1.6262519359588623,-0.8794997930526733,-0.7019284963607788
1783203189903716400,7.70171630859375,-0.061325479382649,1.0323071582406758,1.8976152435541151,-1.8610920906066892,-0.7593410015106201,-0.7409892678260803
1783203189913653200,7.7116533203125,-0.0877079479388892,0.93447982121706,1.6097680234998464,-2.1993179321289062,-0.4781666398048401,-0.8193383812904358
1783203189923590100,7.721590087890625,-0.2742425644033588,0.9803959153480828,1.5505840131253004,-2.442950963973999,-0.1702112704515457,-0.9138271808624268
1783203189933527300,7.73152734375,-0.3161388101674616,0.968977864754945,1.04554131834507,-2.567112445831299,0.016974588856101,-0.9813031554222108
1783203189943464200,7.741464111328125,-0.239881134590879,1.0033334310822188,0.7542360667914152,-2.699922561645508,0.0646888986229896,-1.018664002418518
1783203189953399800,7.75139990234375,-0.1238957529283128,0.9962399656899272,0.769266462662816,-2.8386993408203125,0.0107950419187545,-1.0057551860809326
1783203189963337000,7.7613369140625,0.0099601799350231,0.937368820656836,0.6467898375511169,-2.913135766983032,-0.0959419161081314,-0.952936053276062
1783203189973275000,7.77127490234375,0.060505139443092,0.9643285045791417,0.337625688701868,-2.940113306045532,-0.2134957164525985,-0.892353892326355
1783203189983212000,7.7812119140625,0.0151542597130872,0.9978162750959396,0.0391565368682146,-2.941359281539917,-0.3408598899841308,-0.8323830366134644
1783203189993149000,7.79114892578125,-0.1124002166521735,0.9959431747004388,-0.3406704632252454,-2.9382975101470947,-0.5115176439285278,-0.7904720902442932
1783203190003085800,7.8010859375,-0.0408327447184361,0.971514762821421,-1.0370973151266574,-2.898404598236084,-0.71210116147995,-0.7367364764213562
1783203190013023000,7.81102294921875,0.4761890503374859,0.8481446229360997,-2.26012578266561,-2.7455053329467773,-0.9745740294456482,-0.6344231963157654
1783203190022959900,7.8209599609375,1.3360204943381249,0.4626711048556491,-4.203672756311297,-2.4269278049468994,-1.1876871585845947,-0.4529473483562469
1783203190032897000,7.83089697265625,1.9921305334202943,-0.0418473103221505,-6.271919291815161,-1.90384042263031,-1.2152230739593506,-0.2233932763338089
1783203190042834000,7.840833984375,2.2041677486002444,-0.5200462026447057,-8.226906527885793,-1.2023473978042605,-1.036657691001892,-0.0239691846072673
1783203190052770800,7.850770751953125,1.9843325730204584,-0.8740773018982261,-9.672837741881608,-0.468583196401596,-0.7458077669143677,0.0932887345552444
1783203190062708000,7.8607080078125,1.4050244724594056,-1.147814382731169,-10.788796412277222,0.1986827254295349,-0.4544243812561035,0.1157511547207832
1783203190072644900,7.870644775390625,0.830591576719284,-1.8761764419451357,-11.719255891937015,0.7964678406715393,-0.185368150472641,0.0076832734048366
1783203190082582000,7.88058203125,0.533695300225541,-2.6218074697375298,-12.562770078593491,1.4076842069625854,0.0243093632161617,-0.2067188322544098
1783203190092519000,7.890518798828125,0.3342533992571756,-2.92761178676486,-13.46338620865345,2.056092500686645,0.2031715214252472,-0.4423311054706573
1783203190102455800,7.900455810546875,0.2930438388492912,-2.9191362193644044,-13.886065677523613,2.7337779998779297,0.4854308664798736,-0.6044319272041321
1783203190112393000,7.91039306640625,0.3900883549321443,-2.322252860754728,-13.7027198654294,3.4133055210113525,0.7709131836891174,-0.6478963494300842
1783203190122329900,7.920329833984375,0.4492772241448983,-1.606471320042014,-13.184349487042429,4.063299655914307,1.0967609882354736,-0.6104758381843567
1783203190132267000,7.93026708984375,0.4500116393666714,-1.0145131428748368,-12.05010346480608,4.642467021942139,1.3711858987808228,-0.5323549509048462
1783203190142204000,7.940203857421875,0.2889407509120181,-0.2594299577347934,-10.77840945829749,5.155658721923828,1.5263714790344238,-0.4075186252593994
1783203190152140800,7.950140869140625,0.0403420933909714,0.387325393024832,-9.54888870612979,5.64539909362793,1.593600869178772,-0.2854813933372497
1783203190162078000,7.960077880859375,-0.6102316466130316,1.2118021401256325,-8.349941371402144,6.1419830322265625,1.7113726139068604,-0.1968833208084106
1783203190172014800,7.970014892578125,-1.4482292618051171,2.3475530139669774,-6.935057622098922,6.672316551208496,1.800635814666748,-0.0863592103123664
