time,seconds_elapsed,ax,ay,az,gx,gy,gz
1783202908359867100,0.1018671875,-0.2689788534551858,-0.8904926493220031,-0.7575327702492475,-0.1608349233865738,-0.3883759975433349,-0.0374558493494987
1783202908369804000,0.111803955078125,-0.2991317073956132,-1.1251409247606992,-1.1991641923487186,-0.121341586112976,-0.6388564109802246,0.0161567777395248
1783202908379741200,0.1217412109375,-0.4935784669578075,-1.2354064492054282,-1.705861084076762,-0.0617777667939662,-0.8370630741119385,0.0387274958193302
1783202908389678000,0.131677978515625,-0.8393211188808083,-1.1698889980256555,-2.005136876118183,0.0167189072817564,-0.9355510473251344,-0.0027294012252241
1783202908399616000,0.141615966796875,-1.3378081084072588,-1.1499138392284511,-2.255845913389325,0.1100175380706787,-0.9390916228294371,-0.0894892066717147
1783202908409553200,0.15155322265625,-1.781957943068445,-1.2770363904498516,-2.631648480272293,0.2342071235179901,-0.8756101131439209,-0.2010215818881988
1783202908419490000,0.161489990234375,-1.8221148891508576,-1.7395577481038866,-3.498540619906783,0.3685943186283111,-0.8963572382926941,-0.332009494304657
1783202908429427200,0.17142724609375,-1.6979305833384393,-2.1759264273695647,-4.9275189455360175,0.5014652609825134,-0.903773307800293,-0.4787605702877044
1783202908439364000,0.181364013671875,-1.7852905946224926,-2.0652397549033163,-6.057037939250469,0.6321861147880554,-0.6984499096870422,-0.6473817229270935
1783202908449302300,0.19130224609375,-1.8963465387925504,-1.63103629084751,-6.428969217658042,0.7591770887374878,-0.2337733507156372,-0.8275365829467773
1783202908459239000,0.201239013671875,-1.853672056931257,-1.3071464281618594,-6.542530130386353,0.8813689947128296,0.3079473376274109,-0.9841047525405884
1783202908469176000,0.211176025390625,-1.8553458353623744,-1.2230004104882477,-6.854407045325637,0.9962226152420044,0.8161482214927673,-1.0873714685440063
1783202908479113200,0.22111328125,-1.76314861318022,-1.5280226372271777,-7.270497198933363,1.1267895698547363,1.264714241027832,-1.1272563934326172
1783202908489050000,0.231050048828125,-1.6287231915995477,-2.0812451332867146,-7.473594005680083,1.243670105934143,2.3214683532714844,-1.1734278202056885
1783202908498988000,0.240988037109375,-1.3902531659156083,-1.765909017804265,-5.582198075032234,1.3274670839309692,3.030891180038452,-1.2056469917297363
1783202908508925000,0.250925048828125,-1.3313858202748,-1.5340233389467,-6.164131117269396,1.4239813089370728,2.831265687942505,-1.2485305070877075
1783202908518862000,0.260862060546875,-1.3759429010123014,-1.2493053568288683,-7.732415037736296,1.5552785396575928,2.90081787109375,-1.1920181512832642
1783202908528799000,0.270799072265625,-0.7135626956194638,-1.42252374266237,-5.859337438589334,1.7087339162826538,2.9497790336608887,-1.1297752857208252
1783202908538736000,0.280736083984375,-0.7222177112400532,-0.8719941389486193,-5.029634335142374,1.9002023935317995,2.785046339035034,-1.0809786319732666
1783202908548674000,0.290674072265625,-0.9133578304722904,-0.1229804829806089,-4.668627186331153,2.132208108901977,2.5637989044189453,-1.0119420289993286
1783202908558611200,0.300611083984375,-0.7873126261588186,0.293889422827959,-3.837378607007861,2.3951666355133057,2.331829071044922,-0.934304416179657
1783202908568547800,0.3105478515625,-0.73705053871274,0.7979211869999766,-3.1145220133423805,2.7679102420806885,2.1353392601013184,-0.8207959532737732
1783202908578485000,0.320485107421875,-0.8050058845639229,1.5005840106815098,-2.5885879217028616,3.178016185760498,1.978551268577576,-0.6429495215415955
1783202908588422100,0.330422119140625,-0.7311743401557207,1.9382675719380376,-1.976005474179983,3.445573329925537,1.8617918491363523,-0.4648506343364715
1783202908598359000,0.340359130859375,-0.7659364414572716,2.424257775723934,-0.858911662274599,3.4471004009246826,1.831275463104248,-0.3366732597351074
1783202908608297200,0.350297119140625,-0.8850812917977571,2.795266094067693,0.6538052692711352,3.50710678100586,1.7524363994598389,-0.2345578074455261
1783202908618234000,0.360234130859375,-0.9479749703451992,3.320374256277084,1.2729343619585036,3.6266608238220215,1.6069748401641846,-0.1647498607635498
1783202908628171000,0.3701708984375,-1.0155211508736013,3.911389599636197,1.9114304184168576,3.5460216999053955,1.4584143161773682,-0.1003351882100105
1783202908638108000,0.38010791015625,-1.1154575890056788,4.257561582887172,3.113737584966421,3.258175849914551,1.3597187995910645,-0.0423476845026016
1783202908648045000,0.390045166015625,-1.2314967284157872,4.557228420072794,4.300201285696029,2.892796277999878,1.270236611366272,-0.0044522336684167
1783202908657983000,0.39998291015625,-1.4180420672036709,4.910027127987146,5.078157835292816,2.5297250747680664,1.2006300687789917,0.0147523079067468
1783202908667919600,0.409919677734375,-1.5489878299750386,5.177992420485616,5.678333221185207,2.165446519851685,1.134929060935974,0.0150045100599527
1783202908677856800,0.419856689453125,-1.6649699785009024,5.388106412518024,6.215549169817566,1.7846158742904663,1.0370789766311646,0.0176331773400306
1783202908687793700,0.429793701171875,-1.6669268116571008,5.455432812815904,6.643097121506929,1.4275858402252195,0.91732919216156,0.0199557207524776
1783202908697730600,0.43973046875,-1.634615318378061,5.64360093050003,6.901886004859208,1.1457107067108154,0.8118711113929749,0.0184394791722297
1783202908707668500,0.44966845703125,-1.4828256511509417,5.880771271762251,7.051508995571732,0.8937991261482239,0.6680790781974792,0.0533745624125003
1783202908717605600,0.459605712890625,-1.2138924634683876,6.02294453099072,7.200429975494742,0.6010241508483887,0.5483831167221069,0.0902370288968086
1783202908727542500,0.46954248046875,-1.073676110461354,6.15618045052588,7.581201562961936,0.3143506050109863,0.4483287036418915,0.1094112545251846
1783202908737479700,0.479479736328125,-1.0596230351895093,6.307201617598533,7.825445788133144,0.0862199515104293,0.3341791033744812,0.1196406409144401
1783202908747416800,0.489416748046875,-1.10158893039003,6.5277803050220005,7.932319185921549,-0.1205297708511352,0.1983235478401184,0.1163673475384712
1783202908757354800,0.499354736328125,-1.2089477736078202,6.7440078114986415,8.152880922210215,-0.3495000898838043,0.0256085004657506,0.0985428094863891
1783202908767291600,0.509291748046875,-1.3479011940069496,6.9501686819911,8.449414137545228,-0.6121293306350708,-0.199158027768135,0.0641134604811668
1783202908777228500,0.519228515625,-1.4309924419306217,7.128299974307417,8.679132409235834,-0.924290418624878,-0.4726215004920959,0.0099911196157336
1783202908787165700,0.529165771484375,-1.458036223939806,7.273734281158447,8.787119321224093,-1.3165748119354248,-0.7183806896209717,-0.05200807005167
1783202908797102600,0.5391025390625,-1.3169874386966227,7.272154318490624,8.898416965195537,-1.7091273069381714,-0.9152889251708984,-0.0910124108195304
1783202908807040800,0.549040771484375,-1.1428123366601763,7.371669170209765,8.773182565808296,-2.032942771911621,-1.0252492427825928,-0.1157478541135788
1783202908816977700,0.558977783203125,-0.9821851368524134,7.558067940133809,8.521314421629905,-2.3160266876220703,-1.0736727714538574,-0.0948730409145355
1783202908826914600,0.56891455078125,-0.8001042301274836,7.640130721792579,8.353368423241376,-2.5871286392211914,-1.0866838693618774,-0.0300202723592519
1783202908836851700,0.578851806640625,-0.6053761694058776,7.722963318780064,8.25541249140203,-2.820520162582397,-1.1017810106277466,0.0689347460865974
1783202908846788600,0.58878857421875,-0.4524196503564715,7.733931872040033,8.123650736072658,-3.046149015426636,-1.1812268495559692,0.1836221814155578
1783202908856726500,0.5987265625,-0.4098914450980723,7.909543290489911,7.996757463562488,-3.303889036178589,-1.3462471961975098,0.3254830539226532
1783202908866663700,0.60866357421875,-0.5171798534281552,8.031977830025554,7.72987061395049,-3.6472463607788086,-1.6220362186431885,0.4920113086700439
1783202908876600600,0.6186005859375,-0.7889927612654865,8.181118590179086,7.227476387852429,-4.084593772888184,-2.0651865005493164,0.6745606660842896
1783202908886537500,0.628537353515625,-1.2702635353140532,7.913501672726869,6.193589851465821,-4.555232048034668,-2.690969944000244,0.8443840146064758
1783202908896475600,0.6384755859375,-2.1840290698044003,7.2479428372979156,4.436224790123105,-4.996996402740479,-3.404153347015381,0.9626286625862122
1783202908906412500,0.64841259765625,-3.180321934725344,6.448618505501747,2.0715245342612265,-5.329243183135986,-4.098323822021484,1.0312904119491575
1783202908916349700,0.658349609375,-4.002435605956614,5.274482955947518,-0.7905372142285109,-5.676008701324463,-4.5296831130981445,1.010894536972046
1783202908926286600,0.66828662109375,-4.843464697799086,4.046044153797626,-3.540073822778463,-6.495500087738037,-4.441457748413086,0.8602248430252075
1783202908936223500,0.678223388671875,-5.139796837604045,2.497505967286229,-5.751373322954773,-6.413606643676758,-4.202423095703125,0.708661675453186
1783202908946161400,0.688161376953125,-4.820287528090178,1.5528560497105122,-11.0229652336359,-5.889951705932617,-3.776052713394165,0.6587159633636475
1783202908956098600,0.6980986328125,-3.97787136580348,-0.1238508360743522,-15.559102934885024,-5.799065113067627,-2.8378260135650635,0.695098340511322
1783202908966035700,0.70803564453125,-3.2311364684224126,-2.392002981068194,-17.183710215598342,-6.105623245239258,-1.3750706911087036,0.6944469213485718
1783202908975972600,0.71797265625,-2.854633936576545,-4.0619975097328425,-18.4812108635366,-5.877298355102539,-0.1926050335168838,0.330839991569519
1783202908985909800,0.72790966796875,-2.1634803489029406,-5.312915854716301,-22.112135754585264,-4.859145641326904,0.1482867747545242,-0.0080142468214035
1783202908995847700,0.73784765625,-0.4433618991538882,-7.052483978083729,-26.38217103459835,-3.085143566131592,0.5083154439926147,-0.2141563594341278
1783202909005784600,0.74778466796875,1.0299173404946922,-7.574333430758118,-27.7827766677022,-1.0319443941116333,0.952424168586731,-0.1995265483856201
1783202909015721500,0.757721435546875,2.023168207371235,-7.3493737517714495,-26.89737798051834,0.6978467106819153,1.4510278701782229,0.1664943546056747
1783202909025658600,0.76765869140625,2.901364123569429,-6.87396456323266,-23.27659688234329,2.064657211303711,1.856961727142334,0.5626462697982788
1783202909035596500,0.777596435546875,2.7118039670050145,-5.223614353975654,-18.41214024991989,3.21902084350586,1.9546020030975344,0.8224682211875916
1783202909045533700,0.78753369140625,1.993624425239861,-3.3147213450819253,-13.59708974570036,4.065166473388672,1.709978461265564,0.9652677178382874
1783202909055470600,0.797470703125,1.3779156623899935,-1.810241788266599,-8.9613349014014,4.502877235412598,1.1924078464508057,1.054398536682129
1783202909065407500,0.807407470703125,0.8447244392290711,-0.5807374757770448,-4.847310851833224,4.594176769256592,0.5592629313468933,1.1323764324188232
1783202909075344600,0.8173447265625,0.4848797583259642,0.5414950872562825,-1.4886837295293809,4.512595653533936,-0.0125167779624462,1.1488293409347534
1783202909085282600,0.827282470703125,0.0848880682125687,1.694207617292553,0.920056159067154,4.342991828918457,-0.4275081157684326,1.1038999557495115
1783202909095219700,0.8372197265625,-0.349710971032083,2.810924266448617,2.6455250299334523,4.026144027709961,-0.6360085606575012,1.0562858581542969
1783202909105156600,0.847156494140625,-0.3787593708619475,3.428899220664799,4.0886745042562485,3.643446445465088,-0.7245799899101257,0.996143102645874
1783202909115093800,0.85709375,-0.3493202181488275,3.920719738039374,5.013404500353336,3.1347813606262207,-0.7607526779174805,0.949165940284729
1783202909125031700,0.86703173828125,-0.2498854459285736,4.233190819479525,5.845443937793374,2.526904582977295,-0.6698228120803833,0.8794901967048645
1783202909134968600,0.876968505859375,-0.1921498807966709,4.58982691359967,6.560353956368565,1.8867400884628296,-0.4651427567005157,0.7325072884559631
1783202909144905500,0.886905517578125,-0.4077431810230016,4.908163672202825,6.934374900531768,1.2703077793121338,-0.261442631483078,0.5432178378105164
1783202909154842600,0.896842529296875,-0.4995742002412676,4.725641743712127,6.909469591856002,0.8638849258422852,-0.1373699754476547,0.3214123845100403
1783202909164780500,0.906780517578125,-0.6645673401735722,4.549285644374788,6.346122592145204,0.5967714786529541,-0.121165707707405,0.1767787635326385
1783202909174717700,0.9167177734375,-0.5335619561694562,4.404977126683295,5.913757011041045,0.2429888099431991,-0.0850728005170822,0.0997847914695739
1783202909184654600,0.926654541015625,-0.4390478353470564,4.400045807760954,6.059108900305628,-0.1994285583496093,-0.0041393358260393,0.0369088910520076
1783202909194591500,0.936591552734375,-0.4993265090905129,4.377164990650117,6.036321898958087,-0.5603936314582825,0.1012230888009071,-0.0189804155379533
1783202909204528600,0.946528564453125,-0.5136578167818486,4.405345667734742,5.48089867798388,-0.8255272507667542,0.1474811285734176,-0.0001004671212285
1783202909214466600,0.956466552734375,-0.3203365541182458,4.149925091771781,4.771237081456184,-1.0206204652786257,0.1083400249481201,0.0991279929876327
1783202909224403700,0.96640380859375,-0.1400797940805554,3.8210847670719024,4.140808596119284,-1.1668349504470823,-0.0084318649023771,0.2490796893835067
1783202909234340600,0.976340576171875,-0.0625453035011887,3.508891041268408,3.6023458622962234,-1.3506476879119873,-0.1626936793327331,0.4035218954086303
1783202909244277800,0.98627783203125,-0.0268631647452712,3.1406568638131023,3.2387323303788897,-1.7386095523834229,-0.2192456424236297,0.5573586225509644
1783202909254215700,0.996215576171875,-0.0219023274675011,2.568658355613053,3.1394395969778297,-1.9153754711151123,-0.2808991372585296,0.6758695840835571
1783202909264152600,1.006152587890625,-0.187513160906732,2.2290689656227824,2.0265794771194456,-1.9113909006118772,-0.4054123163223266,0.7373193502426147
1783202909274089500,1.01608935546875,-0.4202151245832443,1.689762474451959,0.9573083236187696,-2.0783348083496094,-0.4903257489204407,0.7334946393966675
1783202909284026600,1.026026611328125,-0.5519570061683654,0.9220128460928796,0.7510942616343498,-2.3355190753936768,-0.5466811656951904,0.6984308958053589
1783202909293964500,1.035964599609375,-0.6072255966648459,0.2881286673441529,0.130712538537383,-2.540518522262573,-0.5995209217071533,0.6381326913833618
1783202909303901700,1.045901611328125,-0.6989148693248629,-0.2580918409988283,-0.934537688884139,-2.7218329906463623,-0.5660181045532227,0.5474387407302856
1783202909313838800,1.0558388671875,-0.773197956892848,-0.8274527672369033,-1.9515210212647915,-2.788902759552002,-0.494932472705841,0.4729267060756683
1783202909323775500,1.065775390625,-0.7481102773874998,-1.550123702137172,-3.363117419460416,-2.5803701877593994,-0.4584775269031524,0.4272564053535461
1783202909333713400,1.07571337890625,-0.7783364888250828,-2.37821425582096,-5.136162280493974,-2.0899031162261963,-0.4419791102409363,0.3922886848449707
1783202909343650600,1.085650634765625,-0.9022109980359672,-3.0321392059490084,-6.694611035645008,-1.4420089721679688,-0.4374362826347351,0.3757424652576446
1783202909353587700,1.095587646484375,-0.926807386893034,-3.657397302910685,-7.805894115445017,-0.7937254905700684,-0.4377838373184204,0.380016565322876
1783202909363524600,1.105524658203125,-0.8910106818467378,-4.243035337145626,-8.433271981039642,-0.2113089710474014,-0.4176559150218963,0.3722715675830841
1783202909373462800,1.115462890625,-1.0726593346342443,-4.55990260771811,-8.724909241026639,0.3143057525157928,-0.3546069860458374,0.2915486991405487
1783202909383399700,1.125399658203125,-1.6109560642406344,-4.452636995741725,-8.872975649946927,0.7962567210197449,-0.2204084396362304,0.1292601972818374
1783202909393336600,1.135336669921875,-2.2522607483789323,-4.164822508913279,-8.800133701097964,1.2367111444473269,-0.1027701720595359,-0.0811207070946693
1783202909403273500,1.1452734375,-2.687654152871668,-3.770888657534122,-8.741270593240857,1.6215193271636963,-0.0570532828569412,-0.2729556560516357
1783202909413211600,1.155211669921875,-2.8468612567484377,-3.4174083970963958,-8.654415901130438,1.8994632959365845,-0.0422538295388221,-0.4331011176109314
1783202909423148500,1.1651484375,-2.8304174869477747,-3.0214257964938875,-8.346319673773646,2.09564471244812,-0.081218272447586,-0.5654503703117371
1783202909433085700,1.175085693359375,-2.8162024991124865,-2.654794085799157,-8.272119880574941,2.3188729286193848,-0.1685240566730499,-0.7071818113327026
1783202909443022800,1.18502294921875,-2.86806245020926,-2.3995019585214554,-8.701131475076078,2.580569267272949,-0.2947336435317993,-0.903883695602417
1783202909452959500,1.19495947265625,-3.019196430006623,-2.03729011009559,-9.312395241215825,2.8420634269714355,-0.2404055446386337,-1.1102428436279297
1783202909462897700,1.204897705078125,-2.997326543504,-2.010334444761276,-9.420196275243162,3.0930747985839844,0.0862500667572021,-1.2975003719329834
1783202909472834600,1.21483447265625,-3.021893414005637,-1.6006969744242727,-9.140240100699662,3.308438301086426,0.5406860113143921,-1.4987949132919312
1783202909482771700,1.224771728515625,-3.1301220257952806,-0.6151295016571879,-8.892426200348138,3.410327911376953,1.0357823371887207,-1.7115471363067627
1783202909492709600,1.234709716796875,-3.176194917923212,0.1120244969412684,-8.375352876034379,3.4127767086029053,1.4828355312347412,-1.943471312522888
1783202909502646800,1.244646728515625,-3.265772312995791,0.331163506950438,-7.882132136473059,3.417566537857056,1.9293047189712524,-2.1651482582092285
1783202909512583700,1.254583740234375,-3.107219581374526,0.5213394573256374,-7.32467945549786,3.5097544193267822,2.37882661819458,-2.343146800994873
1783202909522520600,1.2645205078125,-2.7886262176617977,1.3094938680708408,-6.663758801263571,3.6737704277038574,2.7960283756256104,-2.3992745876312256
1783202909532457500,1.27445751953125,-2.2264267805509266,2.271072708615661,-5.808865142458677,3.8771896362304688,3.1329505443573,-2.3154475688934326
1783202909542395600,1.284395751953125,-1.7200095825470982,3.243819132123887,-4.811108488595486,4.065009593963623,3.408945322036743,-2.1167492866516118
1783202909552332500,1.29433251953125,-1.4297175996892153,4.181128331547975,-3.523418456053734,4.189845085144043,3.53264594078064,-1.849764943122864
1783202909562269700,1.304269775390625,-1.184439209164679,4.86440227188766,-2.196552012899518,4.243466377258301,3.502549171447754,-1.5530974864959717
1783202909572207600,1.31420751953125,-0.95593674300462,5.232810636866092,-0.8872662346214055,4.218683242797852,3.3615212440490723,-1.2775685787200928
1783202909582144800,1.324144775390625,-0.8743668594293296,5.701701821812987,0.414592608526349,4.128962516784668,3.135449171066284,-1.0216047763824463
1783202909592081700,1.33408154296875,-0.8468236034654081,6.168684542790055,1.6116098519742488,3.975290775299072,2.884073495864868,-0.7645896077156067
1783202909602018600,1.3440185546875,-0.8103343861103057,6.380671927478909,2.7164573457688093,3.870903491973877,2.6003191471099854,-0.4894773066043854
1783202909611956500,1.35395654296875,-0.806772090518847,6.765025465086102,3.569686286231875,3.777164697647095,2.267770290374756,-0.2160132974386215
1783202909621893600,1.3638935546875,-0.8169162487186491,7.10485246322453,4.388136174258589,3.5689547061920166,1.92093563079834,0.0361678227782249
1783202909631830800,1.373830810546875,-0.8937778084725141,7.429839035105704,5.533586896598338,3.034730195999145,1.682223916053772,0.2418908327817917
1783202909641767400,1.383767333984375,-0.945593628166616,7.4749524345517155,6.949779974934458,2.550637722015381,1.4704737663269043,0.3429932296276092
1783202909651705600,1.39370556640625,-1.3248229546278714,7.696920530506968,7.358482356378436,2.1990091800689697,1.2323849201202393,0.3755752742290497
1783202909661642500,1.403642578125,-1.5532091009318827,7.818334494823217,7.4008455803334705,1.8728432655334477,1.0190457105636597,0.3836377263069153
1783202909671580700,1.41358056640625,-1.609320864254236,7.718232198604941,7.757032761642336,1.4896959066390991,0.8403335809707642,0.3765356242656708
1783202909681517800,1.423517822265625,-1.602707583594322,7.706065375471114,8.091201003366708,1.0928192138671875,0.6850625276565552,0.3396889269351959
1783202909691455700,1.433455810546875,-1.5806844062261285,7.747075431251526,8.347697391867637,0.6676857471466064,0.5640861392021179,0.2815114557743072
1783202909701393000,1.443392822265625,-1.5726114282771944,7.794544453912973,8.660295022296905,0.2028903663158416,0.4773376286029815,0.2132735401391983
1783202909711330000,1.453330078125,-1.5486415007553993,7.850888856947422,8.945531183069944,-0.2727963924407959,0.4163064360618591,0.1309484988451004
1783202909721267000,1.463266845703125,-1.5719623167186974,7.934827369350194,9.122102386462688,-0.6862366795539856,0.3486546874046325,0.0312858186662197
1783202909731204900,1.473204833984375,-1.604914153727889,7.958366065847874,9.04518748908639,-1.000718593597412,0.2307180315256118,-0.048559620976448
1783202909741141800,1.483141845703125,-1.5558613690063356,7.9246257088094945,8.81608939512074,-1.2452961206436155,0.067919798195362,-0.1232983022928237
1783202909751079000,1.493078857421875,-1.5892935368783772,7.941801300016045,8.680724646863341,-1.5465614795684814,-0.093987837433815,-0.1681523472070694
1783202909761015800,1.503015869140625,-1.6523340765506027,7.9640037794739005,8.868490028965473,-1.9095700979232788,-0.2419978082180023,-0.2201758623123169
1783202909770954000,1.5129541015625,-1.814738807424903,8.160545173227787,9.040254124337434,-2.33771014213562,-0.4101333022117615,-0.30916827917099
1783202909780891000,1.522890869140625,-1.9870716425955293,8.286841648888588,9.044781246373056,-2.758410692214966,-0.5820741057395935,-0.3909888565540313
1783202909790828000,1.532828125,-1.8780111100263888,8.223329253920912,8.78570711633861,-3.138137102127075,-0.7573281526565552,-0.4325671195983886
1783202909800764700,1.5427646484375,-1.7111426777414978,8.123715618002414,8.379963000178337,-3.4823896884918213,-0.9024505019187928,-0.4464584589004516
1783202909810702800,1.552702880859375,-1.6872423083245751,8.193964627748727,7.929961224618554,-3.75548267364502,-1.016777515411377,-0.4157915413379669
1783202909820639700,1.5626396484375,-1.745285624231398,8.15278155348897,7.334353292772174,-3.9424681663513184,-1.1506751775741575,-0.3507784605026245
1783202909830577000,1.572576904296875,-1.895871907018125,8.040089240288735,6.612098756653071,-4.112123966217041,-1.3298296928405762,-0.245339885354042
1783202909840514800,1.582514892578125,-2.0766221496611834,7.815540480190515,5.91190173856318,-4.300184726715088,-1.6302721500396729,-0.1078126579523086
1783202909850452000,1.592451904296875,-2.2419904065161944,7.486196297621727,5.149068523818254,-4.56988525390625,-2.1311731338500977,0.034458864480257
1783202909860388900,1.602388916015625,-2.670059751731157,7.196395020890235,4.107698938199878,-4.903964042663574,-2.717665672302246,0.2019551694393158
1783202909870325800,1.61232568359375,-2.982213437785208,6.47794864488244,2.884181810361147,-5.261693477630615,-3.3278582096099854,0.3915043473243713
1783202909880263700,1.622263671875,-3.185913178861141,5.7874885924309485,1.1921411618441342,-5.597939968109131,-3.853740692138672,0.5879478454589844
1783202909890200800,1.632200927734375,-3.3122532014027235,5.064067350620031,-0.8934113132476806,-5.916398525238037,-4.183483123779297,0.7674281597137451
1783202909900138000,1.642137939453125,-3.228383078061044,4.084764929597079,-3.142020261120796,-6.645122051239014,-4.093803405761719,0.8359084129333496
1783202909910075000,1.652074951171875,-3.102800595888495,2.9068460621118546,-4.430203630137443,-7.022101879119873,-3.698452472686768,0.9038594961166382
1783202909920013000,1.662012939453125,-3.1835695383444427,1.9116437689065933,-7.7352599057734,-6.696887016296387,-3.260807752609253,0.90583473443985
1783202909929949700,1.67194970703125,-3.247631676149368,1.0265247754469513,-12.026615037190911,-6.324363708496094,-2.587224006652832,0.8620568513870239
1783202909939886800,1.681886962890625,-3.123063047194481,-0.5090588716190309,-13.873974257713556,-6.36320686340332,-1.6602845191955566,0.6864842772483826
1783202909949824800,1.69182470703125,-2.940187482960522,-1.4124535995468497,-14.891571922600267,-6.55571985244751,-0.6602278351783752,0.4131571352481842
1783202909959762000,1.701761962890625,-2.561467859587073,-2.3391738926783203,-16.291956606429814,-6.334345817565918,0.0865654125809669,-0.0893315523862838
1783202909969698800,1.71169873046875,-1.683796551784873,-3.505658342957497,-19.22140145384073,-5.480207443237305,0.2793943583965301,-0.5262517929077148
1783202909979636000,1.721635986328125,-0.0590545387759804,-5.121500133413076,-22.652837207245824,-4.079371929168701,0.4948377013206482,-0.7390080094337463
1783202909989574000,1.731573974609375,1.1922466680452226,-6.055235273742675,-23.8706955786705,-2.5571630001068115,0.9093984961509703,-0.8207629919052124
1783202909999510800,1.7415107421875,2.104431947606802,-6.089624450078606,-23.108289649426936,-1.2002973556518557,1.4493666887283323,-0.6597861051559448
1783202910009448000,1.751447998046875,3.1482372359395026,-5.770321769052743,-20.67778917992115,0.1493193954229354,1.861679553985596,-0.3440460860729217
1783202910019385900,1.7613857421875,3.540721180771291,-4.718488072565198,-17.821233043110368,1.4670509099960327,2.050652980804444,-0.002911927178502
1783202910029322800,1.77132275390625,3.266620454257726,-3.1254242233678697,-14.46170400353074,2.579073190689087,1.9912934303283687,0.3346418738365173
1783202910039260000,1.781260009765625,2.8517554585307834,-1.7891946163237094,-10.750110415530203,3.373619794845581,1.7376643419265747,0.6251866221427917
1783202910049197000,1.791197021484375,2.285715858735144,-0.6533734537251293,-7.165010287067294,3.7669644355773926,1.3371024131774902,0.8433290719985962
1783202910059135000,1.801135009765625,1.6920424020826816,0.2685984758354723,-3.9418700780957936,3.860398054122925,0.8475147485733032,0.9909853339195251
1783202910069072000,1.81107177734375,1.1227650624748318,0.954306511454284,-1.4002514128386974,3.827224016189575,0.3346956968307495,1.0750893354415894
1783202910079008800,1.8210087890625,0.4343304514363408,1.6611726320445537,0.3365221113741398,3.780865430831909,-0.1089840233325958,1.1186599731445312
1783202910088946000,1.83094580078125,-0.1905181879416108,2.3401485829293724,1.568483826953173,3.716703414916992,-0.4537258148193359,1.121549129486084
1783202910098883800,1.8408837890625,-0.7239482613597065,2.9069702730134126,2.6033120281040665,3.5810203552246094,-0.6688911318778992,1.0746527910232544
1783202910108821000,1.850821044921875,-1.1660704626508056,3.375918448844552,3.585861760485172,3.327570676803589,-0.7584471702575684,1.0004154443740845
1783202910118758000,1.8607578125,-1.391089324478805,3.5928228316694497,4.512893603783846,2.896675109863281,-0.7748138904571533,0.9114651083946228
1783202910128696000,1.870696044921875,-1.520169293378293,3.7352889363646495,5.375086771947145,2.288566827774048,-0.683242678642273,0.7852168083190918
1783202910138632700,1.8806328125,-1.5998928184345365,3.807416014942527,6.065948390936852,1.711451768875122,-0.5723020434379578,0.6272237300872803
1783202910148569900,1.89056982421875,-1.6371468826822937,3.722242407786846,6.098614396741986,1.2417709827423096,-0.4809417724609375,0.5170488357543945
1783202910158506800,1.9005068359375,-1.559665437464416,3.6692268569141615,5.881321891382337,0.819284200668335,-0.3862336277961731,0.3785657584667206
1783202910168445000,1.91044482421875,-1.6337027335777878,3.791505913627148,5.786401966238022,0.330051451921463,-0.2621059417724609,0.2647809982299804
1783202910178381800,1.9203818359375,-1.5560646364934745,3.5720261273562905,5.839354388746619,-0.1413203328847885,-0.1632864326238632,0.1937481313943863
1783202910188319000,1.930319091796875,-1.4845016215391456,3.3701807819753884,5.58121724730134,-0.4712526798248291,-0.1332026273012161,0.1318473368883133
1783202910198257000,1.9402568359375,-1.4868959693297743,3.250908505862951,4.991569685164094,-0.7213757038116455,-0.1661581844091415,0.0915318876504898
1783202910208193800,1.95019384765625,-1.413178406690061,2.983931347618997,4.581776585873961,-0.96636301279068,-0.2718486785888672,0.0730220973491668
1783202910218131000,1.960130859375,-1.20477984027341,2.629373521077633,4.248399786788225,-1.2101818323135376,-0.4037222862243652,0.0738034695386886
1783202910228067800,1.97006787109375,-0.9794517663657664,2.309750960447639,3.92740374584794,-1.44164776802063,-0.538102388381958,0.0743021219968795
1783202910238005800,1.980005859375,-0.8028802707120776,2.0845456361368297,3.571404780587554,-1.6607425212860107,-0.6571688652038574,0.0725494921207428
1783202910247943000,1.98994287109375,-0.6180830907657742,1.9179586511418223,3.161835553181171,-1.8949508666992188,-0.7511792778968811,0.0814790502190589
1783202910257880000,1.999880126953125,-0.4059698877401649,1.6863446288324893,2.7647581430792805,-2.1512224674224854,-0.8224249482154846,0.1098188161849975
1783202910267818000,2.00981787109375,-0.2339535711728036,1.403556884124875,2.1758476630449293,-2.401686668395996,-0.8239901661872864,0.1473975032567978
1783202910277755000,2.0197548828125,-0.1620657081782817,1.0670288544666022,1.394616037300229,-2.631222486495972,-0.786662220954895,0.1911279410123825
1783202910287691800,2.02969189453125,-0.1041824051387608,0.6031847237762064,0.4067179296284914,-2.7959203720092773,-0.7283459305763245,0.2230944335460662
1783202910297629000,2.03962890625,-0.0594371083527803,0.1812899755429476,-0.7467600318223238,-2.809822559356689,-0.686690628528595,0.2207481861114502
1783202910307566800,2.04956689453125,-0.0007246610127389,-0.2555692637186497,-2.1327689842969177,-2.599619150161743,-0.7477920055389404,0.1826711446046829
1783202910317504000,2.05950390625,0.1147952768288552,-0.82435122102499,-3.7905589881658552,-2.21094298362732,-0.8854694366455078,0.1290665119886398
1783202910327441000,2.06944091796875,0.2203846261560916,-1.5237233325980604,-5.3432034409523,-1.7255584001541138,-1.0364394187927246,0.0686264261603355
1783202910337379000,2.079379150390625,0.1456502876892685,-2.276773550605774,-6.711276339241862,-1.1980210542678833,-1.1346060037612915,-0.0110300574451684
1783202910347315700,2.089315673828125,-0.016897797178477,-2.88298237144351,-7.89580118086338,-0.6775031685829163,-1.1378690004348757,-0.0981728136539459
1783202910357252900,2.0992529296875,-0.2989700870931148,-3.3581957451492546,-8.872350211524964,-0.1706410646438598,-0.9190524816513062,-0.1906358897686004
1783202910367190800,2.109190673828125,-0.6382429584801197,-3.6351118213444944,-9.516519637444617,0.348060131072998,-0.5175122022628784,-0.2894641757011413
1783202910377128000,2.1191279296875,-1.0965008134707808,-3.640980421116948,-10.062436778926848,0.8940449357032776,-0.0899826809763908,-0.3933548629283905
1783202910387064800,2.12906494140625,-1.3591519252091646,-3.4471509166702625,-10.546078373759984,1.4536776542663574,0.2318052351474762,-0.4890680313110351
1783202910397002000,2.139001953125,-1.4761048184633254,-3.243984844079613,-10.858483111965656,1.9866070747375488,0.3377489745616913,-0.5783244371414185
1783202910406940000,2.14893994140625,-1.8760902249664064,-3.15333368229568,-11.098585999548437,2.488504409790039,0.2589206993579864,-0.7366728782653809
1783202910416876800,2.158876708984375,-2.558111827157437,-3.1532202850490805,-11.39529632501602,3.011477470397949,0.1322184205055236,-1.016198992729187
1783202910426814000,2.16881396484375,-3.1820632254347205,-2.8492002210900185,-11.63860940681696,3.529036045074463,0.1035299226641655,-1.356175422668457
1783202910436752000,2.178751953125,-3.408478948448598,-2.132294644783437,-11.49285536649227,3.997882127761841,0.2449767887592315,-1.6304274797439575
1783202910446688800,2.188688720703125,-3.117112906618416,-1.368281864865124,-10.849627605336904,4.337795257568359,0.4878622889518738,-1.7684153318405151
1783202910456626000,2.1986259765625,-2.5079092878788707,-0.5214907023645937,-9.929673153078555,4.534747123718262,0.6833963394165039,-1.7841458320617676
1783202910466563000,2.20856298828125,-1.9434388370960949,0.293708513303101,-9.169521140241622,4.607944965362549,0.882472038269043,-1.745087742805481
1783202910476501000,2.2185009765625,-1.5340359061673283,0.955108767747879,-8.277741227588058,4.606317043304443,1.1567180156707764,-1.6915714740753174
1783202910486438000,2.22843798828125,-1.3152448328129946,1.5526698794886469,-7.352659933835268,4.6092963218688965,1.5138599872589111,-1.6283637285232544
1783202910496374800,2.238374755859375,-1.3631725590273738,2.0991250733703373,-6.552510841652751,4.633876800537109,1.869442105293274,-1.58967387676239
1783202910506313000,2.24831298828125,-1.722023406587541,2.694661109024286,-5.893631337857246,4.6764984130859375,2.247469902038574,-1.5917799472808838
1783202910516249900,2.258249755859375,-2.1463849833257496,3.364493968510628,-5.054611540010571,4.729793548583984,2.556565523147583,-1.583333969116211
1783202910526187000,2.26818701171875,-2.185108827865124,4.152078178152442,-4.123828819745778,4.792629718780518,2.794715642929077,-1.5074917078018188
1783202910536123600,2.27812353515625,-1.9543661815628408,4.908738257220387,-3.068944503515959,4.874757289886475,2.941938638687134,-1.3684725761413574
1783202910546061800,2.288061767578125,-1.7669754779919982,5.6067959251940245,-2.0257500405579805,4.956830024719238,3.0240464210510254,-1.1877336502075195
1783202910555998700,2.297998779296875,-1.619220326977968,6.281687821635604,-0.9238070360332729,4.972827911376953,3.0914466381073,-1.0110398530960083
1783202910565935900,2.307935791015625,-1.4884003825433552,6.873717894995212,0.3008306202679872,4.920798778533936,3.1222474575042725,-0.8153641819953918
1783202910575873800,2.317873779296875,-1.4189463225670158,7.392483410179614,1.5411451536506413,4.732620716094971,3.1081385612487797,-0.5891899466514587
1783202910585811000,2.32781103515625,-1.379874249111861,7.786187544456124,2.895485294663906,4.462954044342041,2.9952504634857178,-0.3367828726768493
1783202910595747800,2.337747802734375,-1.3665904046468436,8.285939147090911,4.208002894470096,3.89841365814209,2.8658969402313232,-0.0853673964738845
1783202910605686000,2.34768603515625,-1.347652479942888,8.156627707523107,5.85074788942039,3.416889190673828,2.581295251846313,0.163435474038124
1783202910615622700,2.35762255859375,-1.2515090043529868,8.280480297163129,6.47535687482357,2.9123425483703613,2.210401058197021,0.3466910421848297
1783202910625559800,2.367559814453125,-1.3106374851480125,8.272100006830692,7.159644376119971,2.374746084213257,1.805591821670532,0.4493055939674377
1783202910635497700,2.377497802734375,-1.3542105232842263,8.007237356522678,7.81099932962954,1.8195720911026,1.4293981790542605,0.4780349731445312
1783202910645435000,2.387434814453125,-1.4616827637486158,7.785387918511033,8.19509626212716,1.3706793785095217,1.1180875301361084,0.4384298324584961
1783202910655372000,2.3973720703125,-1.671253150423616,7.811273470395803,8.166970822361112,1.0109771490097046,0.8903462290763855,0.357964813709259
1783202910665308700,2.40730859375,-1.7455308311641216,7.843390610146522,8.154954805874825,0.6497586965560913,0.7205348610877991,0.2660416066646576
1783202910675246600,2.41724658203125,-1.7226418307468294,7.819683571344614,8.39532189735174,0.2245003134012222,0.5838193893432617,0.1821914464235305
1783202910685183700,2.427183837890625,-1.6411830063305797,7.858136343857645,8.747935311827064,-0.2271095365285873,0.430938720703125,0.1249377205967903
1783202910695121000,2.437120849609375,-1.524308585140109,7.907982617044448,8.890274575272201,-0.6293067336082458,0.263342797756195,0.0721645280718803
1783202910705058800,2.447058837890625,-1.4632615573726593,7.913895640480518,8.822992598637938,-0.9505545496940612,0.0750128403306007,0.0128681557253003
1783202910714996000,2.456995849609375,-1.4958292173698544,7.961652832433581,8.638693431341647,-1.200610876083374,-0.1358495950698852,-0.0497512817382812
1783202910724932900,2.466932861328125,-1.5590223172552882,8.010783066305518,8.497782154873013,-1.4823681116104126,-0.3457742035388946,-0.0887249857187271
1783202910734870800,2.476870849609375,-1.5839963072530925,8.061438902309536,8.583681153693794,-1.8205170631408687,-0.5392451286315918,-0.1059859991073608
1783202910744807700,2.4868076171875,-1.5824883869081734,8.20470171034038,8.726039706361293,-2.219437837600708,-0.7439079284667969,-0.1351722329854965
1783202910754744800,2.496744873046875,-1.6563354211464525,8.368578851854801,8.705965471103786,-2.6406800746917725,-0.9603797793388368,-0.1694178283214569
1783202910764681700,2.506681640625,-1.652149075372517,8.27792301389575,8.46384422943592,-3.000457286834717,-1.22353994846344,-0.1800895780324936
1783202910774620000,2.516619873046875,-1.584048183570802,8.110395533180236,7.89117585915029,-3.31705379486084,-1.5021182298660278,-0.1732969135046005
1783202910784556800,2.526556884765625,-1.563082260170579,8.007537216252087,7.308478262281417,-3.662069797515869,-1.8103243112564087,-0.1508145481348037
1783202910794494000,2.536493896484375,-1.600668332851678,7.8724635598957535,6.80578008480072,-4.064809799194336,-2.164267539978028,-0.1044435799121856
1783202910804432000,2.546431884765625,-1.603624260047823,7.702227404743432,6.178854639148712,-4.498777866363525,-2.529413938522339,-0.0142107410356402
1783202910814368800,2.55636865234375,-1.697704519497603,7.4261553781569,5.242861490759253,-4.897345542907715,-2.875530481338501,0.1261439770460128
1783202910824305700,2.5663056640625,-1.9108317218713464,6.950331179076433,4.015714481985569,-5.207749843597412,-3.146462917327881,0.2933214008808136
1783202910834243800,2.576243896484375,-2.155793739923089,6.268863995897769,2.612354581737518,-5.390565395355225,-3.337122678756714,0.4688916206359863
1783202910844180700,2.5861806640625,-2.3962511400319637,5.572720637112855,1.1599603092074393,-5.501887321472168,-3.509578227996826,0.6223022937774658
1783202910854118000,2.596117919921875,-2.7462016189083456,4.853810442985594,-0.2569733583629131,-5.620578765869141,-3.710943937301636,0.7435091137886047
1783202910864055800,2.606055908203125,-3.22912863573134,3.866347219599783,-1.6810983987420796,-5.778632164001465,-3.786592721939087,0.81939697265625
1783202910873993000,2.615992919921875,-4.060364355573058,2.711795199176669,-3.198723560595512,-6.700364112854004,-3.398112535476685,0.7565556764602661
1783202910883929900,2.625929931640625,-5.178222137588262,1.079437158206105,-3.695612175014615,-6.886763572692871,-2.8576645851135254,0.5973943471908569
1783202910893866800,2.63586669921875,-6.313686303442716,0.0671770549550652,-7.328497552481293,-6.609746932983398,-2.1841464042663574,0.2497751265764236
1783202910903804700,2.6458046875,-6.586880144244432,-0.4851522916570305,-10.472831935763358,-6.35862922668457,-1.2693582773208618,-0.1034893691539764
1783202910913741800,2.655741943359375,-5.562336021220684,-1.6996103531189262,-11.582118873310089,-6.435860633850098,-0.1875992715358734,-0.3619627356529236
1783202910923679000,2.665678955078125,-3.981854297959804,-2.53585849429518,-12.378204953837391,-6.50829029083252,0.915582239627838,-0.5356782674789429
1783202910933617000,2.675616943359375,-2.263037286198139,-2.903440345321596,-13.448095116019248,-6.232778072357178,1.7715177536010742,-0.7290170788764954
1783202910943554000,2.685553955078125,-0.8301353573843836,-2.9487282245516777,-15.070428606581688,-5.473838806152344,2.212286233901977,-0.930505633354187
1783202910953490700,2.69549072265625,0.6200424081400037,-3.597872224013507,-16.842280458438395,-4.350583553314209,2.0810699462890625,-1.0651562213897705
1783202910963428600,2.7054287109375,2.002773361857235,-4.531701472367346,-18.546323094916342,-3.183217763900757,1.8776648044586184,-1.01617693901062
1783202910973365800,2.71536572265625,2.7750936591327187,-4.642435052715242,-18.297230260670183,-2.1615140438079834,1.8319295644760127,-0.8866234421730042
1783202910983303000,2.725302978515625,3.057522069008648,-4.132346472722292,-16.840826167976854,-1.0367766618728638,1.7646560668945312,-0.6706631183624268
1783202910993240800,2.73524072265625,3.5319477994680404,-3.574105271717906,-15.475805058473348,0.2324414551258087,1.640925645828247,-0.4649573862552643
1783202911003178000,2.745177978515625,3.757508366957307,-2.448940819951147,-13.540980320465565,1.3985720872879028,1.463308811187744,-0.2211082577705383
1783202911013115000,2.755114990234375,3.917882761047781,-1.468298382496089,-10.740262390732765,2.196006298065185,1.224013328552246,0.0720980465412139
1783202911023053000,2.765052978515625,3.9486552081912754,-0.63718395094648,-7.504770649710297,2.6079351902008057,0.9141483902931212,0.4143232405185699
1783202911032989700,2.77498974609375,3.670933660832047,0.0978483798116445,-4.5815357628554105,2.8057236671447754,0.4410991072654724,0.7701199650764465
1783202911042926800,2.7849267578125,3.2030636356264357,0.6261530730400234,-2.485159695932269,2.975826978683472,-0.0590840838849544,1.028270602226257
1783202911052864800,2.79486474609375,2.414689298520237,1.2301570042446257,-0.9780857387095688,3.1536078453063965,-0.4678420424461365,1.139030694961548
1783202911062802000,2.804802001953125,1.5685080846115946,1.892955873440951,0.2374853985607624,3.259270668029785,-0.6996557116508484,1.1570076942443848
1783202911072738800,2.81473876953125,0.9734208887036888,2.271400771526247,1.3577812213778495,3.234135150909424,-0.7725323438644409,1.1262710094451904
1783202911082677000,2.824677001953125,0.5075637742230669,2.591191089938581,2.3807214163362977,3.097306966781616,-0.7406485080718994,1.0708966255187988
1783202911092614000,2.83461376953125,0.1557227688923478,2.75715000616312,3.183028563335537,2.8790318965911865,-0.6766010522842407,0.987704575061798
1783202911102550800,2.84455078125,-0.2011942610610276,2.936177370536327,3.820236333549023,2.59158992767334,-0.5979182720184326,0.8834742307662964
1783202911112487700,2.85448779296875,-0.5070973622877151,3.117885060034692,4.415707487273216,2.1525228023529053,-0.4695392549037933,0.7674062252044678
1783202911122425900,2.86442578125,-0.7676913223005831,3.2636627734959123,5.143271820238232,1.6950278282165527,-0.331867516040802,0.6350038647651672
1783202911132362800,2.87436279296875,-0.9782522543828934,3.4205230219855904,5.468578710114955,1.3090020418167114,-0.2956040501594543,0.5255151987075806
1783202911142300000,2.8842998046875,-1.027145756889507,3.358613093778491,5.428922407031059,0.9708414077758788,-0.3177141845226288,0.4982734024524688
1783202911152237800,2.89423779296875,-0.8313252978213131,3.3559704703152176,5.371511836069822,0.6207448840141296,-0.3420576155185699,0.4620900750160217
1783202911162175000,2.904175048828125,-0.7992774239145218,3.3773440977334976,5.32149546701312,0.2158396542072296,-0.37557253241539,0.4401955902576446
1783202911172112000,2.91411181640625,-0.6299765037856996,3.093073274861276,5.260289010900259,-0.227000892162323,-0.3640490174293518,0.4297336339950561
1783202911182049800,2.9240498046875,-0.5093827698111534,2.9184570049285887,5.010892225271463,-0.5508120059967041,-0.3465617597103119,0.4192023575305938
1783202911191986700,2.933986572265625,-0.4835710868801921,2.8001415911495684,4.398530142500996,-0.7980065941810608,-0.371538758277893,0.4197128713130951
1783202911201923800,2.943923828125,-0.3613457331158221,2.520314595943689,3.827743932700157,-1.0637938976287842,-0.4128554761409759,0.4185560941696167
1783202911211861800,2.95386181640625,-0.2068243759024888,2.218155211289972,3.543783783212304,-1.350417137145996,-0.4384079873561859,0.4236967861652374
1783202911221799000,2.963798828125,-0.1015302831947803,1.9575600091680885,3.157410722476244,-1.575132966041565,-0.4820111393928528,0.4363055229187011
1783202911231736000,2.973736083984375,-0.04101604712978,1.7470812754765153,2.4523832154899834,-1.7443583011627195,-0.5258110761642456,0.4539055526256561
1783202911241674000,2.983674072265625,-0.0201401401005685,1.409892516887188,1.7339824321895836,-1.886224389076233,-0.5791224837303162,0.4630470871925354
1783202911251611000,2.99361083984375,0.0072375500380992,1.0284100046716629,1.0437661253660917,-1.9892653226852417,-0.6422767043113708,0.4544655978679657
1783202911261547800,3.0035478515625,0.028796617025882,0.6485789129249752,0.3141910371005535,-2.0315282344818115,-0.6779661178588867,0.4325353801250458
1783202911271485700,3.013485595703125,0.0133062024272978,0.4109959357412531,-0.513607694029808,-2.0202648639678955,-0.7063034772872925,0.4356164038181305
1783202911281422800,3.0234228515625,0.1006703053645789,-0.0102617201648652,-1.4494623107314109,-1.9530836343765257,-0.742164134979248,0.4497848153114319
1783202911291360000,3.033360107421875,0.1583078169494867,-0.518094410989806,-2.382154664009809,-1.802676558494568,-0.7974385619163513,0.4524040222167969
1783202911301298000,3.0432978515625,0.1028157929606735,-0.8917211682036519,-3.286526347211003,-1.556917667388916,-0.8708292841911316,0.4362342953681946
1783202911311234800,3.05323486328125,0.0543089516840875,-1.3045143260926009,-4.218818302994967,-1.2228251695632937,-0.9396451115608216,0.4189780652523041
1783202911321171700,3.063171630859375,-0.0605830635175108,-1.810297610107064,-5.075200739052892,-0.8494516015052795,-0.9679349064826964,0.3793213665485382
1783202911331110000,3.07310986328125,-0.2872638672083616,-2.169391911034286,-5.719762379160523,-0.4788767099380493,-0.9409807920455932,0.3289388716220855
1783202911341046800,3.083046875,-0.4949816117540002,-2.433889381291717,-6.153114048692584,-0.1237149834632873,-0.8257613182067871,0.2811803817749023
1783202911350984000,3.09298388671875,-0.7019596438482404,-2.583492352129519,-6.375659652274846,0.2240656167268753,-0.6099578738212585,0.2317643612623214
1783202911360920800,3.1029208984375,-0.9613225276961922,-2.5623098633691668,-6.392478100606799,0.5592599511146545,-0.3735788464546203,0.1891112029552459
1783202911370859000,3.11285888671875,-1.2455769839555024,-2.5116043430045245,-6.316295024636387,0.8570535778999329,-0.212789699435234,0.1277647614479065
1783202911380795600,3.122795654296875,-1.6949392925679685,-2.452887657880783,-6.175644444930553,1.1353651285171509,-0.1532084643840789,-0.0006273640319705
1783202911390732800,3.13273291015625,-2.2017001894429327,-2.367447362612933,-6.044803311577439,1.4037790298461914,-0.2700924575328827,-0.1749139428138733
1783202911400670700,3.142670654296875,-2.565459851832688,-2.2641423248305914,-6.25271190252006,1.6983485221862793,-0.5630046129226685,-0.3595675230026245
1783202911410607900,3.15260791015625,-2.710621479222178,-2.198624435259401,-6.762301008558273,2.036406993865967,-0.9098669290542604,-0.5124382972717285
1783202911420544800,3.162544677734375,-2.5690777500689026,-2.011692727502435,-7.31983084642291,2.365051031112671,-1.2735967636108398,-0.6246042251586914
1783202911430483000,3.17248291015625,-2.241891622316837,-1.688719249009341,-8.031672709599137,2.649588108062744,-1.5566414594650269,-0.693748414516449
1783202911440419800,3.182419921875,-1.8559078531593085,-1.6708204580947756,-8.729349853822589,2.920848608016968,-1.5688084363937378,-0.7909011244773865
1783202911450356700,3.192356689453125,-1.7622361745104194,-1.472061242160946,-9.245538211995363,3.226616144180298,-1.2495404481887815,-0.9177879691123962
1783202911460294700,3.202294677734375,-1.8628601565152405,-1.250444443861395,-9.597495792910456,3.541994094848633,-0.6401525735855103,-1.11678147315979
1783202911470231800,3.212231689453125,-2.205474739545584,-1.0209700639292598,-9.539378534984587,3.7934086322784415,0.1518526226282119,-1.417157530784607
1783202911480168700,3.222168701171875,-2.7751579565405846,-0.4335064217023551,-9.060898852959276,3.887605667114258,0.9378952383995056,-1.7265198230743408
1783202911490107000,3.23210693359375,-3.105480921013653,0.0775929427683353,-8.348779341885447,3.8465521335601807,1.624670147895813,-1.9480096101760864
1783202911500043800,3.242043701171875,-2.9603964505136013,0.279185774692893,-7.513384164276719,3.777939558029175,2.115267515182495,-2.060579538345337
1783202911509981000,3.25198095703125,-2.4757246358498928,0.710638040344417,-6.926159445372224,3.773537397384644,2.454530954360962,-2.044649839401245
1783202911519918800,3.2619189453125,-2.117112711612135,1.4097425870224831,-6.398246747136116,3.845341444015503,2.67565393447876,-1.952370285987854
1783202911529855700,3.271855712890625,-2.0146587377011773,2.417948446446657,-5.906619998767972,3.9794180393218994,2.822152614593506,-1.7761746644973757
1783202911539793000,3.28179296875,-1.861086863232404,3.0410289071083065,-5.278522586727142,4.204529285430908,2.9283266067504883,-1.559313178062439
1783202911549730800,3.291730712890625,-2.008185450033843,3.504443121948838,-4.525592341837287,4.634091377258301,2.974874258041382,-1.371400237083435
1783202911559667700,3.301667724609375,-2.2562501102760435,4.203183511489629,-3.796746152368188,5.137165069580078,2.829249143600464,-1.240669846534729
1783202911569604900,3.31160498046875,-2.402465630632639,4.954111184385418,-2.8965771815538406,5.244276523590088,2.6346259117126465,-1.18917977809906
1783202911579542800,3.321542724609375,-2.598473648162186,5.18831624610126,-0.97097795253098,5.072127819061279,2.51788330078125,-1.2063113451004028
1783202911589480000,3.33147998046875,-2.73594530557096,5.375501197966933,0.745094144436717,5.034447193145752,2.434495449066162,-1.2366820573806765
1783202911599416800,3.341416748046875,-2.639185305517912,6.171867264479398,1.3770745353907343,4.967854976654053,2.426518201828003,-1.240357756614685
1783202911609354800,3.351354736328125,-2.4699936909824607,6.801149502390623,2.6113842754006384,4.479998588562012,2.54709267616272,-1.1953139305114746
1783202911619292000,3.3612919921875,-2.3698830653272567,7.022161320534348,4.714087791779637,3.737393617630005,2.7270803451538086,-1.117504358291626
1783202911629228800,3.371228759765625,-2.373190436309576,7.220580783119797,6.2967287389010185,2.9768853187561035,2.881115436553955,-1.0671133995056152
1783202911639166700,3.381166748046875,-2.5600439642637967,7.431792507261037,7.235330023962259,2.268096923828125,2.955260753631592,-1.0415399074554443
1783202911649104000,3.391103759765625,-2.6764520831167697,7.422465291467309,7.856402067410945,1.6155599355697632,2.9009251594543457,-1.0114578008651731
1783202911659041000,3.401041015625,-2.640644856676459,7.171774958896637,8.25955090638101,1.0875365734100342,2.706083297729492,-0.9585779309272766
1783202911668979200,3.410979248046875,-2.545493168602884,6.927410906738042,8.351858018678426,0.7223508358001709,2.323439121246338,-0.9143673181533812
1783202911678916000,3.420916015625,-2.371182749748975,6.879071530982851,8.10712396416366,0.47333624958992,1.82270348072052,-0.8613234758377075
1783202911688853200,3.430853271484375,-2.1212588715061544,6.818682820993661,7.936951521897315,0.2911613881587982,1.3322618007659912,-0.801447331905365
1783202911698791200,3.440791259765625,-2.014568721330166,6.90805563340485,8.003750098928808,0.052744336426258,0.9356046319007874,-0.7566016912460327
1783202911708728300,3.450728271484375,-1.989782070598006,7.074454986873269,8.44722627211213,-0.2801856994628906,0.6562741994857788,-0.6915113925933838
1783202911718665200,3.460665283203125,-1.7788082468658684,7.336213825947046,8.895877217584848,-0.6714879274368286,0.4670177698135376,-0.6206741333007812
1783202911728603100,3.47060302734375,-1.670161409664154,7.606718281534314,9.075429482614991,-1.0284255743026731,0.3167329132556915,-0.5342012643814087
1783202911738540300,3.480540283203125,-1.6566311892226335,7.7385273831367485,8.96135243705809,-1.3273180723190308,0.1770853698253631,-0.4255344569683075
1783202911748477200,3.490477294921875,-1.7320356820359826,7.763660655349493,8.753766502198577,-1.5758812427520752,0.0253158025443553,-0.3141541182994842
1783202911758415000,3.5004150390625,-1.919413818386197,7.784644991189241,8.638921979400514,-1.8116226196289065,-0.1601180732250213,-0.220614954829216
1783202911768352300,3.510352294921875,-2.1371678037777544,7.828674102529883,8.610362239870428,-2.068591594696045,-0.4034084677696228,-0.1626555174589157
1783202911778289400,3.520289306640625,-2.323783723583817,7.883544341358542,8.669006152018904,-2.378490209579468,-0.7302159667015076,-0.1255175471305847
1783202911788227300,3.530227294921875,-2.407934125171601,7.845626990896463,8.726610784247518,-2.7358994483947754,-1.1418209075927734,-0.116158939898014
1783202911798164200,3.540164306640625,-2.5571552570849656,7.761962034738064,8.527854637053608,-3.1020750999450684,-1.5684291124343872,-0.135723203420639
1783202911808101000,3.55010107421875,-2.6823873183846474,7.59238346671164,8.130784825736283,-3.440513610839844,-1.9421701431274412,-0.1720535010099411
1783202911818039300,3.560039306640625,-2.658658944533765,7.487529007530212,7.5856883529871695,-3.7412614822387695,-2.2406790256500244,-0.1815241128206253
1783202911827976200,3.56997607421875,-2.499932609911262,7.436222014141082,6.9540680275172,-3.9639296531677246,-2.460235357284546,-0.1414139717817306
1783202911837913300,3.579913330078125,-2.2371992267169056,7.415331786325574,6.236779004850983,-4.178366661071777,-2.6258485317230225,-0.0566249638795852
1783202911847851300,3.589851318359375,-1.965222214359045,7.515961321288347,5.654218770626187,-4.435934543609619,-2.757364273071289,0.0913879349827766
1783202911857788200,3.5997880859375,-1.760985589927435,7.397057293966412,5.172890713432431,-4.722441673278809,-2.9269614219665527,0.303471028804779
1783202911867725000,3.60972509765625,-1.7006342893391846,7.320919226181506,4.47144515658617,-4.963648319244385,-3.2038464546203613,0.5393663644790649
1783202911877663200,3.619663330078125,-2.009592686483264,7.04819241836965,3.318241920423508,-5.1170196533203125,-3.529545307159424,0.7882404923439026
1783202911887600000,3.62960009765625,-2.37767298855111,6.365445716774463,2.0034633899480103,-5.183797836303711,-3.937957763671875,1.0068458318710327
1783202911897537300,3.639537353515625,-2.936453264868259,5.61137273159027,0.2622264565855264,-5.181089401245117,-4.336052417755127,1.1316527128219604
1783202911907475200,3.64947509765625,-3.485983336150646,4.682059791617095,-1.5283417861789463,-5.241626262664795,-4.646763324737549,1.1480876207351685
1783202911917412400,3.659412353515625,-3.850736101230978,3.7317847276359792,-3.1549282580107447,-6.206980228424072,-4.396660804748535,1.058943271636963
1783202911927349000,3.669348876953125,-4.19705626078099,1.99693603400588,-3.613022154611349,-6.254202365875244,-4.245569705963135,0.8740724921226501
1783202911937287200,3.679287109375,-4.793337269583344,1.4378209727764129,-8.66873610290587,-5.717560768127441,-4.271293640136719,0.6446709632873535
1783202911947224000,3.68922412109375,-5.23885693129301,-0.2558930157802999,-13.656626807296275,-4.99691915512085,-4.117326736450195,0.2739461362361908
1783202911957161200,3.6991611328125,-5.960072772014141,-2.3012182560324668,-16.665395951312778,-5.015911102294922,-3.2807958126068115,-0.2607062757015228
1783202911967099100,3.70909912109375,-6.258408068335056,-3.774004159206152,-17.392479222762585,-5.445669651031494,-2.066650152206421,-0.9085103273391724
1783202911977036300,3.719036376953125,-5.269937129211425,-4.504376827590168,-18.81158848080635,-5.674691200256348,-1.1051530838012695,-1.5393671989440918
1783202911986973200,3.72897314453125,-2.5148311960965395,-5.231152932786941,-22.31556106263399,-5.249769687652588,-0.1832969337701797,-1.813117504119873
1783202911996911400,3.738911376953125,0.3380316391542554,-5.249987397116422,-24.438320109570025,-3.930316686630249,0.8133333325386047,-1.7547203302383425
1783202912006848000,3.748847900390625,2.369436052212119,-4.410006937544048,-25.27332599560022,-2.206858396530152,1.6865726709365845,-1.3577018976211548
1783202912016785200,3.75878515625,3.821217453540861,-3.398962639823556,-24.443302574157716,-0.67205411195755,2.4666988849639893,-0.6260417699813843
1783202912026723000,3.76872314453125,4.46767791300714,-2.812573494960368,-20.945722323715685,0.8569931387901306,2.8749547004699707,0.1709800213575363
1783202912036660200,3.77866015625,4.104923336006701,-2.331703118406236,-17.49884817816019,2.445127248764038,2.785459280014038,0.6863475441932678
1783202912046597000,3.78859716796875,2.784292864632606,-1.302778442210704,-14.04823075442314,3.7867915630340576,2.2874114513397217,0.9543560743331908
1783202912056535300,3.798535400390625,1.525085999253392,-0.5175595003955066,-10.100210921525957,4.79949951171875,1.574090838432312,1.0991723537445068
1783202912066472200,3.80847216796875,0.6212632551718503,0.1477859114784747,-6.399539709556103,5.335698127746582,0.7687384486198425,1.1669763326644895
1783202912076409000,3.8184091796875,-0.1126273582052439,1.155862372369319,-3.05896496129334,5.378985404968262,0.1617267280817031,1.207963466644287
1783202912086347000,3.828346923828125,-0.4250716977689415,1.966386728093773,0.255876795297861,5.077609062194824,-0.2247519940137863,1.206532001495361
1783202912096284200,3.8382841796875,-0.5474360216125845,2.6265783374011518,2.6773341266483066,4.720176696777344,-0.436674565076828,1.133790373802185
1783202912106221300,3.84822119140625,-0.6523797665126622,3.277565334381163,4.139298776078224,4.364237785339356,-0.5248100161552429,0.9921792149543762
1783202912116159200,3.8581591796875,-0.8223768522121012,3.851529881957173,5.046251707944274,3.920775890350342,-0.4997932612895965,0.8447394967079163
1783202912126096100,3.86809619140625,-0.9364395769827067,4.12914212372303,5.920747892841696,3.336219787597656,-0.4055450558662414,0.7182526588439941
1783202912136033300,3.878033203125,-0.9435958784781396,4.235215311044454,6.691359340372681,2.6825973987579346,-0.2623389065265655,0.6016635298728943
1783202912145971200,3.88797119140625,-0.9515617427907884,4.415459357731044,7.180451017305255,2.0531246662139893,-0.0719116851687431,0.4721076488494873
1783202912155908000,3.897908203125,-1.0017727576367557,4.655738770924509,7.439238731613755,1.4846993684768677,0.0649546086788177,0.3627873957157135
1783202912165845200,3.90784521484375,-0.9744782157368956,4.693161031346023,7.400636321496963,0.9820993542671204,0.1077771708369255,0.276376336812973
1783202912175783200,3.917783203125,-1.0276653237842022,4.615369935657084,7.232527241501212,0.5178793668746948,0.0879111215472221,0.1915482133626938
1783202912185720300,3.92772021484375,-1.2366783688373864,4.531084509512782,7.045312479019165,0.0847445055842399,0.0148132052272558,0.1232495754957199
1783202912195658200,3.937658203125,-1.3487876214526593,4.345257401996851,6.7963289503663775,-0.3424313962459564,-0.129226729273796,0.0860032886266708
1783202912205595100,3.94759521484375,-1.2673358112990856,4.108519899193943,6.54188189561069,-0.775263786315918,-0.30193030834198,0.0617094039916992
1783202912215532300,3.9575322265625,-1.0226717532806098,3.8698622419834137,6.263991421425343,-1.1094540357589722,-0.5138236284255981,0.0624013021588325
1783202912225470200,3.96747021484375,-0.6956048679940402,3.7135523208528753,5.671671425208449,-1.4198734760284424,-0.6737853288650513,0.0991425365209579
1783202912235407000,3.977406982421875,-0.3182151780501008,3.595584113076329,5.322520133885741,-1.8878594636917116,-0.7114309668540955,0.1718307137489318
1783202912245344300,3.98734423828125,0.0458756159901618,3.371064871333539,5.305184968203306,-2.339685678482056,-0.6635468006134033,0.2808679640293121
1783202912255282200,3.9972822265625,0.3582942365907132,3.12451909122169,4.792711831161379,-2.4997451305389404,-0.7204843163490295,0.4467961490154266
1783202912265219300,4.00721923828125,0.6354463134989142,2.966093493111432,3.468157756602764,-2.6314663887023926,-0.9391743540763856,0.5821287035942078
1783202912275156200,4.01715625,0.4676267179690301,2.698482713139057,2.545857033479213,-2.977339744567871,-1.1353195905685425,0.6654177308082581
1783202912285094100,4.02709423828125,-0.0477853951342403,1.731307367761433,2.1179799959659573,-3.3020198345184326,-1.194766640663147,0.6644089221954346
1783202912295031300,4.03703125,-0.4940845167838036,0.8848598310668021,1.062320603710413,-3.3868532180786133,-1.2091281414031982,0.5324020385742188
1783202912304968200,4.04696826171875,-0.8087947554528713,0.6037018064528703,-0.6913707375556231,-3.3567891120910645,-1.177320122718811,0.3572188019752502
1783202912314906000,4.056906005859375,-0.8268480062767862,0.1963259243723004,-2.149294587162137,-3.336329936981201,-1.066243290901184,0.1882083415985107
1783202912324843300,4.06684326171875,-0.8733540291249752,-0.2731675373166799,-3.4238889912873502,-3.2604682445526123,-0.845386803150177,0.0654147788882255
1783202912334780200,4.0767802734375,-0.6497106934338808,-0.8421093613598495,-4.860488313314319,-3.013981819152832,-0.6458749175071716,0.0081962570548057
1783202912344718300,4.08671826171875,-0.1983972507536411,-1.326615975524485,-6.615990503394603,-2.5181314945220947,-0.5855982899665833,0.0356065779924392
1783202912354655200,4.0966552734375,0.3154062581092119,-1.9978413122825325,-8.503511053913831,-1.80463969707489,-0.6412268877029419,0.1149049624800682
1783202912364592400,4.10659228515625,0.5591916335970163,-2.629040928122401,-10.057150362956524,-1.001125693321228,-0.6834641098976135,0.1976552456617355
1783202912374530300,4.1165302734375,0.4264490505367517,-3.101841979989409,-10.987653097236157,-0.2407495379447937,-0.6449646949768066,0.2954485118389129
1783202912384467200,4.12646728515625,0.111172848547995,-3.525567743042111,-11.41722992440462,0.4855275154113769,-0.6141724586486816,0.3784496486186981
1783202912394404000,4.136404052734375,-0.2890267852276563,-3.736639766451716,-11.734475672900675,1.2041938304901123,-0.5210766792297363,0.3936003446578979
1783202912404342300,4.14634228515625,-0.8922080749377608,-3.486160446283221,-11.622331641232966,1.8736048936843872,-0.4110119640827179,0.3241173923015594
1783202912414279200,4.156279052734375,-1.6498466436490415,-2.897951392516493,-11.252982780534028,2.450496196746826,-0.3946752548217773,0.2375895082950592
1783202912424216300,4.16621630859375,-2.233503148677945,-2.368812659616768,-10.719801786506176,2.87984037399292,-0.3954443633556366,0.1534021943807602
1783202912434154200,4.176154296875,-2.550499598588049,-1.873804305986315,-9.906009368896484,3.135491132736206,-0.4137910008430481,0.0229050833731889
1783202912444091400,4.18609130859375,-2.8854838328704235,-1.4330135724946855,-9.19298677150309,3.2470738887786865,-0.3493283987045288,-0.1818645745515823
1783202912454028000,4.196028076171875,-3.302922770738601,-1.195488645641133,-8.562992001408338,3.258452653884888,-0.1503173112869262,-0.4901071488857269
1783202912463966200,4.20596630859375,-3.5952263856798408,-0.9801774502918124,-8.129921486905216,3.2771530151367188,0.1238441988825798,-0.827937662601471
1783202912473903000,4.215903076171875,-3.480786059768498,-1.0121361846104264,-8.035178671893476,3.363908529281616,0.4467876255512237,-1.1525371074676514
1783202912483841300,4.22584130859375,-3.188269971120357,-0.6546130785226821,-7.9661857996881,3.428046941757202,0.7693851590156555,-1.4199299812316897
1783202912493778200,4.235778076171875,-2.919737692388892,-0.0371253233015537,-7.758122310444712,3.434231996536255,1.1959434747695925,-1.6026899814605713
1783202912503715300,4.24571533203125,-2.6056068610429763,0.3557046584889292,-7.234383683022856,3.393716096878052,1.7378547191619873,-1.7317099571228027
1783202912513653200,4.2556533203125,-2.500331253840029,0.9372603918462992,-6.616464550647139,3.3853933811187744,2.362031936645508,-1.780332088470459
1783202912523590100,4.265590087890625,-2.4156539057686923,1.4980843028202653,-5.8544935056895016,3.4126296043396,2.90376353263855,-1.7572177648544312
1783202912533527000,4.275527099609375,-2.270649660898,2.2173273821637034,-4.93814438444674,3.4529778957366943,3.211554288864136,-1.6760984659194946
1783202912543465200,4.28546533203125,-2.191722693046928,2.915640193942189,-4.010510483601689,3.506375789642334,3.3026561737060547,-1.566380262374878
1783202912553402000,4.295402099609375,-2.080265912991017,3.311049378570914,-3.170470695057511,3.609405279159546,3.1573312282562256,-1.439815878868103
1783202912563339300,4.30533935546875,-1.9327724816530945,3.6513241204768416,-2.597386729708314,3.844665765762329,2.8830065727233887,-1.2870720624923706
1783202912573277200,4.315277099609375,-1.738560407629609,3.994539007487893,-2.062510622200369,4.147794723510742,2.553678274154663,-1.087583303451538
1783202912583214300,4.32521435546875,-1.4692073140345514,4.434158505243063,-1.2832201936513186,4.226755142211914,2.285187244415283,-0.8734244704246521
1783202912593151000,4.33515087890625,-1.2396018550686538,4.821041853588819,0.224492645996809,4.07722282409668,2.122058868408203,-0.6610248684883118
1783202912603089200,4.345089111328125,-1.098980939848721,5.090810396116972,1.694118039312959,4.052443981170654,1.935624957084656,-0.4527871906757355
1783202912613026000,4.355026123046875,-0.9675229897715152,5.589770556113123,2.180327438807488,4.069930076599121,1.703631043434143,-0.2598270773887634
1783202912622963200,4.364963134765625,-0.8913802458114921,6.022224400022625,2.8712510171175003,3.8284449577331534,1.4876282215118408,-0.0993207693099975
1783202912632901000,4.374901123046875,-0.8907662055663764,6.10793167566359,4.178827653390169,3.3738062381744385,1.2940601110458374,0.0179563406854867
1783202912642838300,4.38483837890625,-0.8456202190250158,5.961856148299574,5.161247621911764,2.9225964546203613,1.063692927360535,0.1202353090047836
1783202912652776200,4.394776123046875,-0.9162190651223064,5.867108072590828,5.486131902462244,2.6148648262023926,0.8675249218940735,0.1771661192178726
1783202912662713300,4.40471337890625,-0.962246072281897,5.980784136131406,5.620180307424068,2.386683225631714,0.7213287949562073,0.2055253237485885
1783202912672650000,4.41464990234375,-1.0267975279737265,6.0478603610605,5.916383852413296,2.1823394298553467,0.6105881929397583,0.2238214910030365
1783202912682588000,4.424587890625,-1.069556400182843,6.057805416491627,6.328295843553542,1.973979353904724,0.5334447026252747,0.2182703912258148
1783202912692524800,4.43452490234375,-1.1429347939960657,6.234394740062951,6.799180832666158,1.7303731441497805,0.4449920654296875,0.2142448276281356
1783202912702461700,4.444461669921875,-0.982662983497232,6.265176831817627,7.240304305243492,1.5447553396224976,0.2773045301437378,0.2045096457004547
1783202912712399600,4.454399658203125,-0.977668097819388,6.434752477234602,7.455761411869526,1.2352442741394043,0.10037112981081,0.1743430346250534
1783202912722336800,4.464336669921875,-0.9665865857042372,6.568549537783861,8.089840236407518,0.838063657283783,-0.054385956376791,0.1441624909639358
1783202912732274000,4.47427392578125,-0.830826554518938,6.5392410257130855,8.623038181570172,0.4196064472198486,-0.2273568511009216,0.1171677410602569
1783202912742211800,4.4842119140625,-0.7588142614271491,6.597549422296881,8.827005341410636,0.0320446118712425,-0.3881326913833618,0.0694934278726577
1783202912752149000,4.49414892578125,-0.682509970229864,6.660936145058274,9.019303106245395,-0.3582006394863128,-0.4945544004440307,0.0066889422014355
1783202912762086000,4.5040859375,-0.5995621128322556,6.690140027710795,9.250047798374297,-0.7322636842727661,-0.6193639636039734,-0.0612823851406574
1783202912772023800,4.51402392578125,-0.5339933333240449,6.907986075299978,9.236804870441556,-1.0840774774551392,-0.7098433375358582,-0.1171028390526771
1783202912781960700,4.523960693359375,-0.4481294058166444,7.093439673328399,9.262416281560062,-1.4269684553146362,-0.7612295746803284,-0.1614995896816253
1783202912791897900,4.53389794921875,-0.4312494365558028,7.251250062149762,9.304362156885862,-1.797255516052246,-0.8317219614982605,-0.1978029012680053
1783202912801835800,4.543835693359375,-0.4811282968379556,7.4051178508251905,9.294365663528442,-2.202025890350342,-0.9120255708694458,-0.2322128117084503
1783202912811773000,4.55377294921875,-0.5041724878169596,7.539623351904749,9.267615603768824,-2.636014938354492,-1.0409622192382812,-0.2453209012746811
1783202912821709800,4.563709716796875,-0.3935844534195959,7.556997096031904,9.050341803109646,-3.0552029609680176,-1.181039810180664,-0.2277123481035232
1783202912831648000,4.57364794921875,-0.1025800845086574,7.517440746191143,8.70317847073376,-3.3615591526031494,-1.2937533855438232,-0.1812337934970855
1783202912841585000,4.5835849609375,-0.0023654139570891,7.624415266266465,8.192686862897872,-3.584331512451172,-1.363488793373108,-0.1261766701936721
1783202912851521800,4.593521728515625,0.0792512313693761,7.560467987012863,7.7112974309057,-3.761094570159912,-1.411482334136963,-0.0655540525913238
1783202912861459700,4.603459716796875,0.0349612771354615,7.528164969301224,7.27639385575652,-3.881680727005005,-1.441138505935669,0.0056780478917062
1783202912871396900,4.61339697265625,-0.038530075532943,7.592536611446738,6.806964326149225,-3.986947774887085,-1.5067696571350098,0.0959205999970436
1783202912881334800,4.623334716796875,-0.0800968884132802,7.730245292481779,6.312305662739276,-4.163905143737793,-1.6510308980941772,0.2099403738975525
1783202912891272000,4.63327197265625,-0.2199690310925245,7.978060946398973,5.804108303320407,-4.5596113204956055,-1.8065065145492556,0.3776907324790954
1783202912901208800,4.643208740234375,-0.361513125571981,8.003716781181097,5.239997918021679,-4.992915153503418,-1.9091088771820068,0.6688503623008728
1783202912911146800,4.653146728515625,-0.608417144536972,7.536703665065765,4.033949226856231,-5.1999688148498535,-2.0168159008026123,0.9879593849182128
1783202912921084000,4.663083984375,-1.2525088290452957,6.7881053119003765,2.0438111824274063,-5.188080787658691,-2.276193141937256,1.2920087575912476
1783202912931020800,4.673020751953125,-2.138169966557622,5.846892967557907,-0.3230272545069456,-5.299927234649658,-2.645275592803955,1.4569004774093628
1783202912940958700,4.682958740234375,-3.1935759685739877,4.692608365899324,-2.045268980020285,-5.724270820617676,-2.718148946762085,1.4608701467514038
1783202912950895900,4.692895751953125,-4.358558197596669,3.4539877769529816,-3.3160540549904107,-5.48359489440918,-2.878626108169556,1.3518022298812866
1783202912960832800,4.702832763671875,-4.922036714732647,3.0733167272508144,-7.351509010234475,-5.4029927253723145,-2.9338219165802,1.3000996112823486
1783202912970771000,4.71277099609375,-4.97328057975769,1.7773726611047982,-9.599780104455352,-5.735661506652832,-2.91782808303833,1.3170140981674194
1783202912980707800,4.722707763671875,-4.834050680504739,0.1453644564852118,-11.906354334563016,-6.695737361907959,-2.509105443954468,1.413378119468689
1783202912990645000,4.73264501953125,-5.050073312059045,-1.774150484187901,-14.148350001776215,-7.633810520172119,-1.6488064527511597,1.2761292457580566
1783202913000583000,4.7425830078125,-5.546574972987175,-3.0164275498151776,-17.97571516429186,-7.707979679107666,-1.2259262800216677,0.8320625424385071
1783202913010519800,4.752519775390625,-5.045189047148823,-4.655720358484984,-25.239531278026103,-6.688425064086914,-1.1387897729873655,0.4678654074668884
1783202913020457700,4.762457763671875,-3.760489136333764,-6.078336163344979,-30.59351797879934,-4.835910320281982,-0.5516910552978516,0.0484564192593097
1783202913030395000,4.772394775390625,-2.844261303383112,-5.3125557892322535,-31.552776851963998,-2.9648330211639404,0.5405250787734985,-0.2283953726291656
1783202913040331800,4.782331787109375,-1.4257996955931185,-4.146837062628567,-29.594722045016287,-0.8189933896064758,1.7978761196136477,-0.140738233923912
1783202913050270000,4.79227001953125,0.4197898849084973,-3.58341290602833,-26.217667870140072,1.540900468826294,2.821289300918579,0.0606433264911174
1783202913060206800,4.802206787109375,0.9750687289759516,-1.7045944251418113,-22.22759285632372,3.484069347381592,3.28537917137146,0.2654787600040436
1783202913070144000,4.81214404296875,1.1662978416658938,-0.6317113647542894,-17.00322037745714,4.8928046226501465,3.2104532718658447,0.5180540084838867
1783202913080082000,4.82208203125,1.1093183555983006,-0.2929303685374558,-11.309465130734443,6.027885913848877,2.8875396251678467,0.7432578206062317
1783202913090018800,4.832018798828125,0.2010747993998229,1.1502023007810116,-7.075805232438444,6.601807117462158,2.333439350128174,0.805412769317627
1783202913099955700,4.841955810546875,-0.5527407038919627,2.454853404995799,-3.774737149655819,6.583730220794678,1.5991003513336182,0.9318767189979552
1783202913109894000,4.851893798828125,-0.5230231726288795,2.232303709760308,-0.3145814977228641,6.093592643737793,0.6490126252174377,1.0377922058105469
1783202913119830800,4.861830810546875,-0.5018915372729301,2.443405251525342,2.26767897452414,5.54793119430542,-0.244823545217514,1.0737712383270264
1783202913129768000,4.871767822265625,-0.6013667876340448,3.126481331205368,4.062694844347238,5.121155261993408,-0.901220440864563,0.9839428067207336
1783202913139705900,4.881705810546875,-0.7854549425281584,4.209842092595994,4.919966338199377,4.714651584625244,-1.2017725706100464,0.8731896877288818
1783202913149643000,4.89164306640625,-0.9071411479145288,4.938678637453913,5.815588897755742,4.157417297363281,-1.1685419082641602,0.7454792261123657
1783202913159581000,4.901580810546875,-0.9688953010380268,5.284481202870607,6.746662709921598,3.395698547363281,-0.902326226234436,0.593636691570282
1783202913169517800,4.911517822265625,-0.9631326458580792,5.232256510114669,7.39467361370027,2.656811237335205,-0.5282899737358093,0.3836258053779602
1783202913179454700,4.921454833984375,-0.9959794150575996,5.177328988140821,7.352105222561955,2.0522124767303467,-0.2121378779411316,0.2107714712619781
1783202913189393000,4.931392822265625,-0.893139364438504,5.044387667638064,6.87320000860095,1.5147172212600708,0.097061701118946,0.050376147031784
1783202913199329800,4.941329833984375,-0.91524715135023,4.931995798689127,6.648799717062711,1.0662074089050293,0.3753702938556671,-0.1148242652416229
1783202913209267000,4.951266845703125,-0.9282353738695382,4.724195928817987,6.2730392357558005,0.7152144312858582,0.5248440504074097,-0.2127419412136078
1783202913219204900,4.961204833984375,-0.6785504189491272,4.439191238713264,5.77219223909974,0.3939500749111175,0.6332901120185852,-0.2383871227502823
1783202913229141800,4.971141845703125,-0.5232791932165622,4.4647965123519295,5.700903364911675,0.0423006862401962,0.6448205709457397,-0.1975264698266983
1783202913239078700,4.98107861328125,-0.3921231486953794,4.4837674625426525,5.721569720843434,-0.3572171330451965,0.5243993401527405,-0.080689325928688
1783202913249016800,4.991016845703125,-0.1166638471797108,4.259109981372952,5.68992838191092,-0.7760412693023682,0.2532177567481994,0.0645167455077171
1783202913258953700,5.00095361328125,0.0508113188266754,3.949548942160606,5.459700991654396,-1.1605188846588137,-0.0743105635046958,0.2114739716053009
1783202913268891000,5.010890869140625,0.0450415032535791,3.57361368880868,4.963970899620652,-1.451210379600525,-0.3888795375823974,0.319784015417099
1783202913278828800,5.020828857421875,-0.1469583015479147,3.1771447659939525,4.2020869484245775,-1.61004376411438,-0.6502629518508911,0.3916363418102264
1783202913288766000,5.030765869140625,-0.3093327834144234,2.652303145766258,3.280705678233504,-1.7052277326583862,-0.8444416522979736,0.4171301126480102
1783202913298704000,5.040703857421875,-0.3817454009354114,2.168734470038861,2.51330033326745,-1.8682491779327397,-0.8884645104408264,0.4207333624362945
1783202913308640800,5.050640869140625,-0.2406504384629428,1.7749769981399175,2.1724095052897927,-2.269599676132202,-0.7225050926208496,0.3914109170436859
1783202913318577700,5.06057763671875,-0.0891910261034965,1.3657798189163208,2.1268331645071505,-2.577921867370605,-0.4726153314113617,0.335510641336441
1783202913328515800,5.070515869140625,0.0507987516060471,0.9686616384126244,1.3677923277825117,-2.6365041732788086,-0.286608338356018,0.294792115688324
1783202913338452700,5.08045263671875,0.2921408255949616,0.6725225369617343,0.0642155748009681,-2.6237425804138184,-0.1727771162986755,0.2688142955303192
1783202913348390000,5.090389892578125,0.4558573697201907,0.2686864463798701,-0.665368865814805,-2.671825647354126,-0.1656904816627502,0.3064439296722412
1783202913358327800,5.100327880859375,0.6613172523364425,-0.3928901144798845,-1.3014186981648206,-2.711765766143799,-0.1765196919441223,0.3787144124507904
1783202913368265000,5.110264892578125,0.6426543451815844,-0.8903022413164376,-1.971691702634096,-2.646050214767456,-0.2429285496473312,0.4365156590938568
1783202913378201600,5.12020166015625,0.3950802449353039,-1.2586056846156717,-2.965963436990976,-2.412848234176636,-0.3692939281463623,0.4591711759567261
1783202913388139800,5.130139892578125,0.0273110546432435,-1.731696951600909,-4.063741723051667,-2.0284624099731445,-0.5311750769615173,0.4299719035625458
1783202913398076700,5.14007666015625,-0.2527653852790594,-2.0869331157952544,-4.893581604620814,-1.6063722372055054,-0.7579869627952576,0.3669175803661346
1783202913408014800,5.150014892578125,-0.4176107873037457,-2.36838128246218,-5.520105483734607,-1.2092984914779663,-0.9726983904838562,0.3148255944252014
1783202913417951700,5.15995166015625,-0.5808659975275396,-2.8013573966801166,-5.947012799432874,-0.8601586222648621,-1.0758002996444702,0.2594030797481537
1783202913427889000,5.169888916015625,-0.84865213406682,-3.0985560901865363,-6.281380947643518,-0.516782283782959,-1.0392825603485107,0.1853040009737014
1783202913437826800,5.179826904296875,-1.1284466883078217,-3.1702456541299817,-6.630851972439885,-0.1470948159694671,-0.8982930183410645,0.100213348865509
1783202913447764000,5.189763916015625,-1.338443483701348,-3.14716960670799,-7.022367656761407,0.2384188622236251,-0.6489189863204956,-0.0103136310353875
1783202913457700600,5.19970068359375,-1.4628011002540589,-3.0072932262450456,-7.225455695679783,0.6159834861755371,-0.4246473014354706,-0.1262780576944351
1783202913467638800,5.209638671875,-1.478143630814552,-2.9563641262575984,-7.337756379213928,0.9736121296882628,-0.2915503084659576,-0.2334501147270202
1783202913477575700,5.21957568359375,-1.5725591135680674,-2.916167432686686,-7.484113061606884,1.3440964221954346,-0.3418925702571869,-0.3745648860931396
1783202913487512800,5.229512939453125,-1.933352911889553,-2.7064792648509144,-7.88856363082528,1.7228822708129885,-0.4748626053333282,-0.5511801242828369
1783202913497450800,5.23945068359375,-2.304798160345852,-2.52954478110373,-8.270961358189583,2.100203514099121,-0.7104669213294983,-0.7474694848060608
1783202913507388000,5.249387939453125,-2.6735627914160487,-2.4156220493257043,-8.852650070276855,2.409557580947876,-0.8846418261528015,-0.9423710703849792
1783202913517324800,5.25932470703125,-3.180577078530192,-2.3027517492100595,-9.139210757651924,2.6941730976104736,-0.9474711418151855,-1.1363087892532349
1783202913527263000,5.269262939453125,-3.631595045395195,-2.257623882847279,-9.474053537636994,2.985260009765625,-0.7984916567802429,-1.3264720439910889
1783202913537199600,5.27919970703125,-3.842442320138216,-2.1353137003436684,-9.770998840904236,3.2538161277771,-0.401354432106018,-1.5243356227874756
1783202913547137800,5.2891376953125,-3.870079099604488,-1.6751497194707392,-9.72766589513421,3.4864161014556885,0.2162478864192962,-1.695387363433838
1783202913557074700,5.29907470703125,-3.627569443140924,-1.0141234129048884,-9.406852809545397,3.6475307941436768,0.8861138820648193,-1.852295994758606
1783202913567011800,5.30901171875,-3.32698402980566,-0.2561681794598698,-8.903590568441151,3.6809957027435294,1.4940972328186035,-2.004135608673096
1783202913576949800,5.31894970703125,-2.995473316852748,0.5683952230110764,-8.009273830786347,3.602813243865967,2.010369062423706,-2.0924947261810303
1783202913586887000,5.328886962890625,-2.610695124092698,1.084346265296638,-7.04022947666645,3.483449697494507,2.417155742645264,-2.1039419174194336
1783202913596823800,5.33882373046875,-2.31092351135835,1.5005007163122297,-6.182216224536299,3.383295774459839,2.783876180648804,-2.053853988647461
1783202913606762000,5.348761962890625,-2.1185209709748625,1.8409908545345064,-5.283233248636126,3.344979286193848,3.046782255172729,-1.9684789180755613
1783202913616698600,5.35869873046875,-2.0694189402841032,2.3046371245652435,-4.497296806201338,3.4093692302703857,3.235914468765259,-1.8604480028152464
1783202913626635800,5.3686357421875,-2.031223649663478,2.889025451000035,-3.63720967040658,3.55892014503479,3.257643699645996,-1.7397154569625854
1783202913636573700,5.37857373046875,-2.226832292611897,3.6404905917733914,-2.7725077342927453,3.7911300659179688,3.1739468574523926,-1.5970875024795532
1783202913646510800,5.3885107421875,-2.1755467804022133,4.2070775963187215,-1.7277502598017451,4.024911403656006,2.962268114089966,-1.402307629585266
1783202913656448800,5.39844873046875,-1.7610623084254562,4.660381920555234,-0.6557756925612688,4.132228374481201,2.682731866836548,-1.1846693754196167
1783202913666386000,5.408385986328125,-1.3706722671329974,5.166099738118052,0.7299351537495851,3.934519052505493,2.493133544921875,-0.9751650094985962
1783202913676322800,5.41832275390625,-1.1223432568661869,5.503149672758579,2.347934999021888,3.858002185821533,2.327879905700684,-0.7705687284469604
1783202913686261000,5.428260986328125,-0.9850034091435372,6.096857908463478,2.862442272239923,3.898364782333374,2.1123054027557373,-0.5652948617935181
1783202913696198000,5.438197998046875,-0.7952790019281208,6.5688786236077545,3.2562066122710704,3.6919503211975098,1.9377540349960327,-0.3688621819019317
1783202913706134800,5.448134765625,-0.6761638160735368,6.699308253550529,4.503137933444976,3.2801737785339355,1.8213860988616943,-0.1923654079437255
1783202913716072700,5.45807275390625,-0.6335106692612171,6.829705150267482,5.512720634180307,2.8594229221343994,1.7567803859710691,-0.0680455863475799
1783202913726009900,5.468009765625,-0.8094868293702602,7.087435464477538,6.038583414149284,2.537170171737671,1.7074002027511597,0.0070058973506093
1783202913735947000,5.477947021484375,-1.0030722959280014,7.329612820246815,6.3720326939493415,2.2230417728424072,1.6276861429214478,0.0511568449437618
1783202913745885000,5.487885009765625,-1.0390769446365535,7.333325118768215,6.799222918242216,1.8671058416366575,1.4896122217178345,0.0902106687426567
1783202913755821800,5.49782177734375,-1.0016735350459811,7.272467037701606,7.272271807390451,1.5049052238464355,1.3089396953582764,0.1174063384532928
1783202913765760000,5.507760009765625,-0.923581556714326,7.3297004985302685,7.595740960445999,1.148465275764465,1.097918152809143,0.1409401148557663
1783202913775696600,5.517696533203125,-0.8125235667176545,7.513616803988814,7.890596597957611,0.8047168254852295,0.8871345520019531,0.1513059437274933
1783202913785633800,5.5276337890625,-0.7393057702936232,7.668159715446829,8.174125370290875,0.4259675145149231,0.6834730505943298,0.1580930203199386
1783202913795571700,5.53757177734375,-0.6717353321067988,7.73895291507244,8.477546007052064,0.0322433784604072,0.4866462647914886,0.1709872484207153
1783202913805508900,5.5475087890625,-0.6370552100002765,7.807738282006978,8.725594885203241,-0.3392508029937744,0.3061408102512359,0.1707282215356826
1783202913815446000,5.557446044921875,-0.6218634860873222,7.854867697450518,8.800333023062349,-0.6756812930107117,0.1285196989774704,0.1564107984304428
1783202913825384000,5.567384033203125,-0.6449022702388465,7.926792531454563,8.728214712312816,-0.962273120880127,-0.0158711224794387,0.148455336689949
1783202913835320800,5.57732080078125,-0.6409266446061432,7.990591926670074,8.672366568362712,-1.253280758857727,-0.1384500414133072,0.1524956226348877
1783202913845257700,5.5872578125,-0.6056827511370182,8.0702710280627,8.679656725370883,-1.5713422298431396,-0.2455459386110305,0.1607438623905182
1783202913855195600,5.597195556640625,-0.6957789093866944,8.21550192129612,8.722546603548526,-1.9320186376571653,-0.3708207607269287,0.1514622122049331
1783202913865132800,5.6071328125,-0.7674652584597468,8.329954229906201,8.727824251690507,-2.35463547706604,-0.5280757546424866,0.1491622030735016
1783202913875070700,5.61707080078125,-0.7083744793266058,8.24774765586257,8.7251325283885,-2.794421434402466,-0.6884401440620422,0.1518536061048507
1783202913885008000,5.6270078125,-0.6736627930380403,8.163779332843422,8.614605868789553,-3.196727752685547,-0.8235887885093689,0.1588868200778961
1783202913894945000,5.636945068359375,-0.7424768746104091,8.11922941249907,8.297343169158697,-3.502828598022461,-0.93205589056015,0.1798323094844818
1783202913904883000,5.646883056640625,-0.8365205283768474,8.04765003093183,7.85195502487421,-3.737696647644043,-1.0251102447509766,0.2047717273235321
1783202913914819800,5.65681982421875,-0.9706498165551573,7.973904995763301,7.460475580909848,-3.955336809158325,-1.148054599761963,0.2579523921012878
1783202913924756700,5.6667568359375,-0.9995281935803592,7.838510436889528,7.134100769540667,-4.158907413482666,-1.3154884576797483,0.361454963684082
1783202913934694700,5.676694580078125,-0.9454634259156882,7.676057190698385,6.781430656442046,-4.372910022735596,-1.5655174255371094,0.5017390847206116
1783202913944631800,5.6866318359375,-1.1810580422937869,7.790923340806365,6.262525440526009,-4.662092685699463,-1.954491138458252,0.6315538883209229
1783202913954569700,5.69656982421875,-1.724566515199095,7.852706135502457,5.4565889971137045,-5.0201416015625,-2.469271659851074,0.7680792808532715
1783202913964507000,5.7065068359375,-2.370156913832575,7.325830379098654,4.288546503737568,-5.374828338623047,-3.0625360012054443,0.9272447824478148
1783202913974444000,5.716444091796875,-3.1703260258898136,6.314533275660872,2.6087381448060274,-5.593571662902832,-3.613861560821533,1.0584349632263184
1783202913984382000,5.7263818359375,-3.9608109254091977,5.162552274769545,0.5920668982386589,-5.730179309844971,-3.934495687484741,1.1427682638168335
1783202913994318800,5.73631884765625,-4.571007354578375,4.113834372214972,-1.2729863844066858,-6.461293697357178,-3.7552273273468018,1.107595682144165
1783202914004255700,5.746255859375,-5.021135386866331,3.031041473840177,-2.0160650973677634,-6.924963474273682,-3.0064611434936523,0.9893428683280944
1783202914014193700,5.756193603515625,-5.554704503428936,2.963064500679076,-4.6039825724631545,-6.585359573364258,-2.3586766719818115,0.8011021018028259
1783202914024130800,5.766130859375,-5.475851915988326,3.283612505590916,-9.300462226837872,-6.31941556930542,-1.5511430501937866,0.7235485911369324
1783202914034068700,5.77606884765625,-4.712046641340852,2.2226681586697694,-11.256755284810064,-6.775086402893066,-0.7241495847702026,0.7117100358009338
1783202914044006000,5.786005859375,-3.6664667445510624,1.556396937187761,-12.422794621670246,-7.747726440429687,0.2718799412250519,0.8025376796722412
1783202914053943000,5.795943115234375,-2.240686484310776,0.8939583526711911,-13.578468047338724,-8.337647438049316,1.2692785263061523,0.7760400176048279
1783202914063881000,5.805880859375,-1.204904635696858,0.9379659097671508,-16.751955459868906,-7.935397624969482,1.7596791982650757,0.5356937050819397
1783202914073817900,5.81581787109375,-0.1556215004749596,0.2027653828352689,-21.45517991232872,-6.663316249847412,1.5103298425674438,0.2054058313369751
1783202914083754800,5.825754638671875,1.372229579577595,-1.9935317785203452,-26.096176164412498,-5.217859268188477,1.0980278253555298,0.1133938208222389
1783202914093692700,5.835692626953125,2.772823376113176,-4.301759328792989,-27.55652928699255,-3.8946802616119385,1.3706313371658323,0.3710695505142212
1783202914103629800,5.8456298828125,4.008357104960084,-6.582098170664906,-25.32532272481918,-2.363285779953003,1.0407087802886963,0.3524731695652008
1783202914113567000,5.85556689453125,2.7937890072524545,-3.700934246820211,-25.28784318125248,-0.2406519055366516,1.056568622589111,0.28289595246315
1783202914123505000,5.8655048828125,1.6693956859886645,-1.2978048915818332,-22.338380797207357,2.1341233253479004,1.262197971343994,0.5139901041984558
1783202914133442000,5.875442138671875,2.1776183259792625,-1.2433613537326451,-18.255994579440355,4.06417989730835,1.1524549722671509,0.8321936130523682
1783202914143380000,5.8853798828125,2.4154019768342376,-0.6608017040297388,-13.894066613149642,5.339883327484131,0.900893211364746,1.1722214221954346
1783202914153316900,5.89531689453125,2.126382498130202,-0.0119166477650403,-8.852997860801219,5.871266841888428,0.4020450711250305,1.4254230260849
1783202914163253800,5.905253662109375,1.7573992558732627,0.738520757395774,-5.133920054525136,5.846103668212891,-0.2209915965795517,1.57109797000885
1783202914173191700,5.915191650390625,1.2261959916591645,1.1372221154376865,-1.7990987552225588,5.668553829193115,-0.8842073678970337,1.6630263328552246
1783202914183128800,5.92512890625,0.7088863743714988,1.5436547983840108,0.4062818762987852,5.538415908813477,-1.4800903797149658,1.6340442895889282
1783202914193066000,5.93506591796875,0.0142789199169725,2.507897305180132,1.6447218479812145,5.479337215423584,-1.909448742866516,1.5429538488388062
1783202914203004000,5.94500390625,-0.4670341589033603,3.2440169927835463,2.6833547021120787,5.355111598968506,-2.1919941902160645,1.4201503992080688
1783202914212941000,5.954941162109375,-0.6689034696817397,3.671803137142956,3.675333941617608,5.066664695739746,-2.3359265327453613,1.314773678779602
1783202914222879000,5.96487890625,-0.532164510461688,3.8990865829020738,4.722227259093523,4.481203079223633,-2.332191467285156,1.200318455696106
1783202914232815900,5.97481591796875,-0.3903223828837275,4.204005349266529,5.829157404381037,3.824117183685303,-2.2095468044281006,1.0637667179107666
1783202914242752800,5.984752685546875,-0.3700400578334927,4.510179084128141,6.395526966783404,3.346440315246582,-2.131589412689209,0.944628655910492
1783202914252690700,5.994690673828125,-0.2069280554726719,4.633827675628662,6.158072547882795,2.921743392944336,-2.055976390838623,0.9009219408035278
1783202914262627800,6.0046279296875,0.105187198267132,4.726287932661175,6.219903857895732,2.4757747650146484,-1.939583778381348,0.7914937138557434
1783202914272565000,6.01456494140625,0.0381043974667787,4.795820903092623,6.443020539364218,1.9597203731536863,-1.8194483518600464,0.6718283295631409
1783202914282503000,6.0245029296875,0.1070446627020835,4.601518812698125,6.565294919902086,1.4146784543991089,-1.6795933246612549,0.5687395334243774
1783202914292440000,6.034440185546875,0.1702007915779948,4.53272993863225,6.483287667822838,0.9119964241981506,-1.4585579633712769,0.4510616064071655
1783202914302377000,6.044376953125,0.1424988379210233,4.49935520003587,6.24978286333084,0.4805920422077179,-1.2173528671264648,0.3488600254058838
1783202914312315000,6.05431494140625,0.1582180928394198,4.311575789408385,5.848508001539111,0.106239229440689,-1.0120264291763306,0.2884262502193451
1783202914322251800,6.064251708984375,0.2416355039775371,4.172660947453975,5.472101039022207,-0.3011848628520965,-0.7915335297584534,0.2509588301181793
1783202914332189700,6.074189697265625,0.2583788412466645,4.101739153012633,5.341614710456133,-0.6866965889930725,-0.5892179608345032,0.2099243253469467
1783202914342126800,6.084126953125,0.1909399204850196,3.934654447628557,5.011654441815614,-1.0602211952209473,-0.4512195885181427,0.1625893115997314
1783202914352064000,6.09406396484375,0.1384235513061285,3.606722762206197,4.581682477849721,-1.4175002574920654,-0.3577021658420563,0.1505046784877777
1783202914362002000,6.104001953125,0.2320540211617946,3.145005414411425,4.198237871780991,-2.096552610397339,-0.1611215621232986,0.1450305432081222
1783202914371938800,6.113938720703125,0.2790492888316512,2.673696646928787,4.486522898730636,-2.5985114574432373,0.0639011710882186,0.1537209749221801
1783202914381875700,6.123875732421875,0.2764496277272701,2.4082125037215647,3.672189798372984,-2.8108115196228027,0.1549575924873352,0.1747490465641021
1783202914391813600,6.133813720703125,0.2007768393665552,2.177396938313544,2.236550261288881,-3.0306358337402344,0.2011490613222122,0.1891580820083618
1783202914401750800,6.143750732421875,0.0177437464833259,1.56337861276865,1.573304378977418,-3.256588935852051,0.1961625218391418,0.232585147023201
1783202914411688000,6.15368798828125,-0.2152180371731519,0.6156581286411732,0.6637871495813131,-3.383688449859619,0.1204837411642074,0.2399360090494156
1783202914421625900,6.1636259765625,-0.7356698980093002,0.0748665865443646,-0.615929419863224,-3.370950698852539,-0.0561504513025283,0.196255087852478
1783202914431563000,6.17356298828125,-1.2687196668729186,-0.6214088741876185,-2.222114324179292,-3.2136359214782715,-0.3148296773433685,0.1173845008015632
1783202914441500000,6.1835,-1.8860382030069829,-1.6206066667698322,-3.960095470616221,-2.922481775283813,-0.5525233149528503,-0.0190166980028152
1783202914451437800,6.193437744140625,-2.5731892770409583,-2.6078537631869314,-5.616429430457949,-2.517749786376953,-0.7387227416038513,-0.2075759619474411
1783202914461374700,6.203374755859375,-3.0809441533893347,-3.5413919196397066,-7.22283294596076,-2.0615241527557373,-0.8350488543510437,-0.4342346787452698
1783202914471312600,6.213312744140625,-3.3200790727227925,-4.341300188803673,-8.58915286310315,-1.6498008966445925,-0.670500636100769,-0.5291492342948914
1783202914481249800,6.223249755859375,-2.438759763807058,-6.055911565569043,-8.93459185590446,-1.3190574645996094,-0.8900852203369141,-0.6867330074310303
1783202914491187000,6.23318701171875,-2.5160987318143246,-5.573129802435636,-10.322156221127509,-0.8634864687919617,-0.8920868635177612,-0.9236581921577454
1783202914501124900,6.243124755859375,-2.778444723126292,-4.509935630761087,-10.987332779240608,-0.3112782537937164,-0.7315822243690491,-1.0594395399093628
1783202914511062000,6.25306201171875,-2.6767086882263422,-4.05377679387629,-11.466869861364364,0.3181947469711303,-0.4285440742969513,-1.157176494598389
1783202914520999000,6.2629990234375,-3.059520549349487,-3.1916751033887265,-11.774842754602432,0.985826849937439,-0.0235351361334323,-1.2713193893432615
1783202914530936800,6.272936767578125,-3.731710201095044,-2.4502307136312127,-11.87135900902748,1.6775113344192505,0.5288494825363159,-1.4164084196090698
1783202914540873700,6.282873779296875,-4.078513175725937,-2.257310432983935,-11.48970362446308,2.31508207321167,0.9865882992744446,-1.5765045881271362
1783202914550811000,6.292810791015625,-3.713537415544689,-2.3352872605033217,-10.918656133377551,2.8260862827301025,1.051171064376831,-1.7970277070999146
1783202914560748800,6.302748779296875,-3.3050361096307634,-1.7569594031512736,-10.327183109378812,3.2230336666107178,0.948576033115387,-2.0300612449646
1783202914570686000,6.31268603515625,-2.9603450125873088,-0.8342313214611261,-9.397627300560474,3.522407293319702,0.9022631049156188,-2.1764700412750244
1783202914580622800,6.322622802734375,-2.605789816394448,-0.1727259261414408,-8.435286827993393,3.741513729095459,0.9829109907150269,-2.2433853149414062
1783202914590561000,6.33256103515625,-2.5835239163115618,0.586863192115724,-7.450526433825493,3.901960849761963,1.2004278898239136,-2.299104690551758
1783202914600498000,6.342497802734375,-2.53407657931447,1.207887889291346,-6.454346820020676,3.974353075027466,1.391303300857544,-2.331870555877685
1783202914610434800,6.352434814453125,-2.2694611817657946,1.777503594008088,-5.586435858732462,3.9579713344573975,1.557539463043213,-2.338404417037964
1783202914620372700,6.362372802734375,-2.010025817203521,2.439965047943592,-4.578499171638488,3.863645315170288,1.691658854484558,-2.294816493988037
1783202914630310000,6.372309814453125,-1.7020274972632523,3.153628865849972,-3.6212908012628553,3.711766242980957,1.7770299911499023,-2.1942546367645264
1783202914640246800,6.382246826171875,-1.4480742173738776,3.73763929888308,-2.82678994410038,3.5476152896881104,1.94601571559906,-2.040997266769409
1783202914650185000,6.39218505859375,-0.9914351957567036,3.972078461615741,-1.9559785851955411,3.447305917739868,2.123303174972534,-1.8500293493270876
1783202914660121900,6.402121826171875,-0.5743439022824168,4.225442981831729,-1.376939510834217,3.447728157043457,2.2932238578796387,-1.6510627269744873
1783202914670059500,6.4120595703125,-0.5101476167038083,4.689351117669045,-0.8246879056334495,3.634308099746704,2.396260023117065,-1.4630523920059204
1783202914679997400,6.42199755859375,-0.5998113748855889,5.268766916388273,-0.32734570222795,3.818347692489624,2.410172462463379,-1.2705477476119995
1783202914689934600,6.4319345703125,-0.5054495220154523,5.569383017122745,0.5722679727911949,3.688558340072632,2.4202866554260254,-1.0804736614227295
1783202914699871500,6.44187158203125,-0.3843835674192756,5.682338949695229,2.2724235387027263,3.3766884803771973,2.439751148223877,-0.8900653123855591
1783202914709809700,6.4518095703125,-0.3557347613662481,5.825920906677842,3.652587856802344,3.287929058074951,2.321463823318481,-0.6923877000808716
1783202914719746300,6.461746337890625,-0.2892128093190491,6.337647609266639,3.890599909585714,3.2760205268859863,2.086831569671631,-0.5083685517311096
1783202914729683500,6.471683349609375,-0.1272607723820023,6.641077013856172,4.504025822195411,3.014479160308838,1.8216183185577397,-0.3201088309288025
1783202914739621400,6.481621337890625,0.0569118367920164,6.532129732403159,5.818233274784684,2.5719423294067383,1.578460454940796,-0.1453003287315368
1783202914749558500,6.49155859375,0.1866989219143986,6.523612663948535,6.763086605978011,2.181528091430664,1.35646390914917,-0.0142128877341747
1783202914759495400,6.501495361328125,0.1461135121536906,6.705100280955434,7.127682134670018,1.8643295764923096,1.1846041679382324,0.0654020309448242
1783202914769433600,6.51143359375,0.0517626282021403,6.802313285472989,7.393360193014145,1.5632206201553345,1.0469053983688354,0.1148289665579795
1783202914779370500,6.52137060546875,-0.0104039051145315,6.912560543608665,7.77645934664607,1.2255529165267944,0.9399392008781432,0.1593489348888397
1783202914789307400,6.531307373046875,0.0535682163193821,6.918669966399669,8.20984959462285,0.8605726957321167,0.8404496312141418,0.1884431689977646
1783202914799245300,6.541245361328125,0.106573830319941,6.975200247395038,8.575805890274047,0.5174300074577332,0.7452805638313293,0.209701120853424
1783202914809182500,6.551182373046875,0.2000485250920057,7.064938970509171,8.833589395976066,0.1853215992450714,0.5810484886169434,0.2491398751735687
1783202914819119400,6.561119384765625,0.3402914007797837,7.097750522264838,8.953032937002181,-0.1398010998964309,0.382231205701828,0.2870869934558868
1783202914829057500,6.5710576171875,0.41474820094686,7.106308507251739,9.175583216759565,-0.5038389563560486,0.1926466226577758,0.3477939963340759
1783202914838994400,6.580994384765625,0.4383555787665769,7.15683048774302,9.469236492744088,-0.8522210717201233,0.0265841614454984,0.3877509236335754
1783202914848931600,6.590931640625,0.3102826314851641,7.412424958968162,9.602717911472917,-1.2107586860656738,-0.1122895702719688,0.4010496735572815
1783202914858868500,6.600868408203125,0.0933094212077558,7.613398782211542,9.716821260514855,-1.5466094017028809,-0.277205616235733,0.4088689684867859
1783202914868806400,6.610806396484375,0.0515804035030305,7.641296258440613,9.641383449953794,-1.915743470191956,-0.4849873185157776,0.4309170246124267
1783202914878743300,6.620743408203125,0.0489466939985752,7.683734301197528,9.58932242332697,-2.343846082687378,-0.6732021570205688,0.4625575542449951
1783202914888680400,6.630680419921875,0.0437777669280767,7.740462150591611,9.569602992856504,-2.77156138420105,-0.8018612861633301,0.5452444553375244
1783202914898618400,6.640618408203125,0.1327531044542789,7.811915859952569,9.317433819904922,-3.1255314350128174,-0.8660823106765747,0.6724403500556946
1783202914908555500,6.650555419921875,0.2025530552588403,7.875557434257865,8.890492017415166,-3.4058103561401367,-0.8977392911911011,0.8283247351646423
1783202914918492700,6.66049267578125,0.1516203020095825,7.844948360982537,8.43012725327313,-3.647680521011353,-0.972985863685608,0.9804389476776124
1783202914928430600,6.6704306640625,-0.098293200969696,7.882048549842834,7.9628616237014525,-3.9020936489105225,-1.0675435066223145,1.130782127380371
1783202914938367500,6.680367431640625,-0.3884257554821669,7.861358228513598,7.487409180542826,-4.192153453826904,-1.2092403173446655,1.3176826238632202
1783202914948304400,6.690304443359375,-0.7015258555408567,7.752180645436048,6.726658032768964,-4.519159317016602,-1.5270349979400637,1.5157893896102903
1783202914958242300,6.7002421875,-1.3715272765271365,7.469794613397121,5.511893535706401,-4.864895343780518,-2.0394296646118164,1.664778232574463
1783202914968179500,6.710179443359375,-2.398442074204981,6.955808149182796,3.9567613577574487,-5.1789374351501465,-2.706271886825561,1.7563906908035278
1783202914978116600,6.72011669921875,-3.428683824348449,6.282434256088734,1.8504601091474293,-5.541141986846924,-3.4613046646118164,1.784686803817749
1783202914988053500,6.730053466796875,-4.429858177700639,5.445432812327146,-0.5544903240382671,-6.601877689361572,-3.767704725265503,1.7937966585159302
1783202914997991700,6.73999169921875,-5.39803627038002,3.760908530789613,-2.224362979888916,-6.548550128936768,-3.9412548542022714,1.6825445890426636
1783202915007928300,6.74992822265625,-6.343046837961674,3.17420228280127,-7.980949069055915,-5.950323104858398,-3.879258871078491,1.6104573011398315
1783202915017865500,6.759865478515625,-6.31162820186913,1.2171473736111074,-12.739126177930832,-5.405114650726318,-3.263702392578125,1.5160233974456787
1783202915027803400,6.769803466796875,-5.853140922036767,-0.4736227435134351,-14.926355651211738,-5.443418025970459,-2.203230142593384,1.5098837614059448
1783202915037740500,6.779740478515625,-4.516311303272843,-1.916561789955944,-16.341230632686614,-5.358516693115234,-1.260416030883789,1.4423938989639282
1783202915047677400,6.789677490234375,-3.2756916494637727,-2.7574983812093734,-19.180711716055868,-4.835945129394531,-0.4401187300682068,1.2545925378799438
1783202915057615600,6.79961572265625,-2.455046004958451,-3.367378291775286,-21.487957561814785,-3.835026025772095,0.1836105287075042,1.0656960010528564
1783202915067552500,6.809552490234375,-1.6891016724556684,-4.542628816834092,-23.06826392850876,-2.435353755950928,0.5029892921447754,0.9927259683609008
1783202915077489400,6.819489501953125,-1.0392664758592844,-5.811027288928628,-24.11339374344349,-0.9485532641410828,0.773980975151062,1.0573301315307615
1783202915087426300,6.82942626953125,-0.7758607463613152,-6.318567061221599,-22.927272572541234,0.1812248677015304,1.0533242225646973,1.1747469902038574
1783202915097364500,6.839364501953125,-0.6882955678939819,-6.177554662466049,-19.61902363834381,1.1836566925048828,1.1000632047653198,1.2457106113433838
1783202915107301400,6.84930126953125,-0.5991521803244948,-5.801453989419341,-16.36216586868763,2.199708938598633,0.903933882713318,1.1268895864486694
1783202915117238500,6.859238525390625,-1.1205489207953214,-4.690924066074192,-13.13421036838889,3.094416856765747,0.6640729904174805,0.8926512598991394
1783202915127176400,6.869176513671875,-1.5635247432410715,-3.52486222512126,-9.566039162895082,3.793922185897827,0.3430255055427551,0.6785906553268433
1783202915137113600,6.879113525390625,-1.487748786766827,-2.4866490577071905,-6.37147564458847,4.17055082321167,0.0010735932737588,0.5228314995765686
1783202915147050500,6.889050537109375,-1.1812623326942324,-1.3069696102902293,-3.4045284572571517,4.197880744934082,-0.2962984144687652,0.4224793910980224
1783202915156987400,6.8989873046875,-0.8112427331268787,-0.1974642807524651,-0.7683809119999409,4.019443988800049,-0.5013665556907654,0.3542501032352447
1783202915166925300,6.90892529296875,-0.5122045492336154,0.7856224080495536,1.159550559362769,3.7840073108673096,-0.5964770913124084,0.2624426782131195
1783202915176862500,6.918862548828125,-0.4320288964956998,1.790121229649335,2.4539479805886746,3.5175790786743164,-0.6064935326576233,0.176572248339653
1783202915186799600,6.928799560546875,-0.2488642861872911,2.406990122319758,3.398210360151529,3.173393487930298,-0.574161171913147,0.1221196576952934
1783202915196737500,6.938737548828125,-0.0161821962550282,2.701687938921153,4.16610611898303,2.76101303100586,-0.4515065252780914,0.0639754086732864
1783202915206674400,6.94867431640625,0.0145779759287834,3.0374113011330364,4.818166005891562,2.3241000175476074,-0.284537523984909,-0.0019793701358139
1783202915216611300,6.958611328125,-0.1036149805143475,3.3694419463068246,5.188368268549442,1.841278076171875,-0.1110039129853248,-0.0736581608653068
1783202915226548500,6.968548583984375,-0.2301820898100733,3.5747584749296304,5.49313330565691,1.3659228086471558,0.0443142987787723,-0.1940231919288635
1783202915236486400,6.978486328125,-0.3884849383234977,3.562599542841315,5.585726833680272,0.8853281736373901,0.1343331933021545,-0.21437469124794
1783202915246423600,6.988423583984375,-0.2939133882254361,3.371956851737201,5.626196206712723,0.4713781177997589,0.2461308389902115,-0.2645417153835296
1783202915256360400,6.9983603515625,-0.620086539542675,3.641843175426125,5.572545865067839,0.1463503986597061,0.3632665276527405,-0.3453148901462555
1783202915266297300,7.00829736328125,-0.8300751516297459,3.628383974394202,5.319616229137778,-0.0944861695170402,0.4062512814998626,-0.3561118841171264
1783202915276235300,7.0182353515625,-0.65858958093822,3.362738064754009,4.97525743278861,-0.2798285782337188,0.3700959682464599,-0.3421472609043121
1783202915286172400,7.02817236328125,-0.6029159167721867,3.3557901453122496,4.712508413633704,-0.4882725775241852,0.2758941054344177,-0.3148980736732483
1783202915296109300,7.038109375,-0.5775964743375778,3.28055457932502,4.615937798672914,-0.6935247778892517,0.1520913392305374,-0.2719901502132416
1783202915306047500,7.048047607421875,-0.5594798028886317,3.178095198586583,4.378566381880641,-0.8602218627929688,0.0030270332936197,-0.2268269211053848
1783202915315984400,7.057984375,-0.4787131985202431,2.9830004965096717,3.93247622680664,-1.0492979288101196,-0.1593306362628936,-0.1533132195472717
1783202915325921500,7.067921630859375,-0.2667696529731154,2.6027304288238287,3.579700899767876,-1.2424468994140625,-0.2819114029407501,-0.0735842958092689
1783202915335858400,7.0778583984375,-0.0873746243312954,2.391058539824933,3.0911288627952334,-1.387088179588318,-0.3723132014274597,0.0025450750254094
1783202915345796400,7.08779638671875,0.0311070859253406,2.207461675579101,2.435208793327212,-1.5444614887237549,-0.4112435579299927,0.0938472896814346
1783202915355733500,7.0977333984375,0.1804050824671983,1.8555702917680144,1.8448972143232825,-1.7081327438354492,-0.4030706882476806,0.1903974711894989
1783202915365670400,7.10767041015625,0.2262301373139023,1.4296664540238675,1.2386714423507452,-1.8442285060882568,-0.3518972396850586,0.2720619738101959
1783202915375607600,7.117607666015625,0.1599021004036069,0.9745217626176774,0.5833429090350866,-1.9436285495758057,-0.2726045250892639,0.3180444836616516
1783202915385545500,7.12754541015625,0.0879635301351547,0.4933244921967387,-0.0739694915741682,-1.9999513626098635,-0.1651515513658523,0.3069766461849212
1783202915395482600,7.137482666015625,-0.0105117494031786,0.1025955012734979,-0.6553086595714092,-1.990411758422852,-0.0198961645364761,0.2511894702911377
1783202915405419300,7.147419189453125,-0.0640855186805129,-0.3146412650860846,-1.2577671879649162,-1.905195951461792,0.1141103655099868,0.1852013915777206
1783202915415356400,7.1573564453125,-0.0092617493420839,-0.7391437115997076,-1.8364198933571576,-1.7725473642349243,0.2301718741655349,0.1253336817026138
1783202915425294300,7.16729443359375,0.0955444867834448,-1.104227023808658,-2.3065917657643555,-1.6080540418624878,0.3230653405189514,0.0861047878861427
1783202915435231500,7.1772314453125,0.2458247723609209,-1.4091275238640606,-2.6483558694452047,-1.4226820468902588,0.3744347691535949,0.0709585547447204
1783202915445168400,7.18716845703125,0.3718509066477418,-1.6137363426089286,-2.94905964846313,-1.217702031135559,0.3972343504428863,0.0842570513486862
1783202915455105500,7.19710546875,0.4235612201407551,-1.8026839202329517,-3.1445483182936904,-1.0,0.379733145236969,0.1087014824151992
1783202915465043500,7.20704345703125,0.430047951811552,-1.8989022146247323,-3.266639743480086,-0.7674205899238586,0.3223966062068939,0.1176560968160629
1783202915474980400,7.21698046875,0.345833545076847,-1.9032995728008448,-3.3149563228815797,-0.5552613139152527,0.2355076223611831,0.109990008175373
1783202915484917500,7.22691748046875,0.1673234825760126,-1.8569310587272048,-3.2951123892486094,-0.3783110380172729,0.1375413835048675,0.0920104756951332
1783202915494854400,7.2368544921875,-0.0490770423799753,-1.84531646264866,-3.2245500757694243,-0.2248758971691131,0.0763766914606094,0.0478332675993442
1783202915504792600,7.24679248046875,-0.334699572122097,-1.8138398127585649,-3.2230536997318264,-0.0539054833352565,0.0260836891829967,-0.0119139533489942
1783202915514729500,7.2567294921875,-0.5334709168851375,-1.762098519605398,-3.300786343231797,0.1420040279626846,-0.0461026802659034,-0.0820483714342117
1783202915524666600,7.26666650390625,-0.7055830950424075,-1.7185006392888724,-3.42463542574048,0.3308815360069275,-0.1175449043512344,-0.1498607099056244
1783202915534603300,7.276603271484375,-0.7977829475730657,-1.6341712278723717,-3.475041670897603,0.5048930644989014,-0.172598585486412,-0.2069056034088134
1783202915544541400,7.28654150390625,-0.8730734586179256,-1.606560751891136,-3.533362926962972,0.6516108512878418,-0.1752364337444305,-0.2616450190544128
1783202915554478300,7.296478271484375,-1.0506780967116356,-1.5097079589881002,-3.5583114902585744,0.7921299934387207,-0.1497596502304077,-0.3390573263168335
1783202915564415500,7.30641552734375,-1.276576225592196,-1.3282602356001734,-3.7109137890428303,0.9320346117019652,-0.2312009781599044,-0.4124846756458282
1783202915574352400,7.316352294921875,-1.6257643417939542,-1.2036723174229265,-4.247786623325943,1.085361361503601,-0.3691104054450989,-0.4882452189922333
1783202915584290600,7.32629052734375,-2.0801430172637105,-1.1999262627623974,-4.931577865538001,1.240846872329712,-0.5536357760429382,-0.5877251625061035
1783202915594227500,7.3362275390625,-2.619418821035325,-1.093207763274759,-5.72282702742815,1.3499492406845093,-0.7134528756141663,-0.722461998462677
1783202915604164400,7.346164306640625,-2.975143353268504,-0.7930526311155408,-6.464511071160436,1.4652643203735352,-0.7963885068893433,-0.8393715620040894
1783202915614101500,7.3561015625,-2.751364993020892,-0.810463053991273,-7.301033206972479,1.6452369689941406,-0.7582237124443054,-0.9812920689582824
1783202915624039400,7.366039306640625,-2.4649197487190366,-0.7481803469490259,-8.22827606267333,1.8778259754180908,-0.5294387340545654,-1.169525384902954
1783202915633976600,7.3759765625,-2.292392267759144,-0.436568001230061,-8.795929235145449,2.135554313659668,-0.1610912978649139,-1.328455686569214
1783202915643913500,7.38591357421875,-1.9401479788571596,-0.2134631563298404,-9.081137923389672,2.413301944732666,0.2222281247377395,-1.438288688659668
1783202915653850600,7.3958505859375,-1.6631734504729507,0.0766848880127072,-9.317723158240318,2.6739888191223145,0.7329355478286743,-1.5192956924438477
1783202915663788500,7.40578857421875,-1.5247522372543811,0.2157066974729299,-8.982235066089034,2.913256883621216,1.3431363105773926,-1.5667623281478882
1783202915673724400,7.415724365234375,-1.54469144795537,0.4376218941971659,-8.187854620435834,3.1237924098968506,1.9168940782547,-1.6176244020462036
1783202915683661600,7.42566162109375,-1.8253174845844504,1.102585978603363,-7.149456744104623,3.2604973316192627,2.3987576961517334,-1.6563888788223269
1783202915693598500,7.435598388671875,-1.8954954749211668,1.6521800550326704,-5.607748111352324,3.317106246948242,2.70532751083374,-1.636892318725586
1783202915703536400,7.445536376953125,-1.8279416956081984,2.052823925444484,-3.942783101287484,3.319845676422119,2.865403890609741,-1.5920199155807495
1783202915713473500,7.4554736328125,-1.7997168871209024,2.5336378956362604,-2.3210732955813405,3.286233425140381,2.8663036823272705,-1.515570878982544
1783202915723410700,7.46541064453125,-1.6504036930099129,2.9675933762803672,-0.9026941053777932,3.2381250858306885,2.740875482559204,-1.4226140975952148
1783202915733347300,7.475347412109375,-1.505126622547209,3.3546099956169724,0.3109247287809848,3.202108860015869,2.596781015396118,-1.3200857639312744
1783202915743284500,7.485284423828125,-1.2290524040035902,3.5908126608908173,1.4104653483390808,3.2403886318206787,2.438427448272705,-1.1894899606704712
1783202915753222400,7.495222412109375,-0.9056330083739011,3.958821797418594,2.2383295459210872,3.3317644596099854,2.2384936809539795,-1.0131163597106934
1783202915763159600,7.50515966796875,-0.6261397021017968,4.401779499685764,2.9250071572244165,3.394632577896118,1.9955681562423704,-0.8176363110542297
1783202915773096400,7.515096435546875,-0.3452291494429111,4.829408115395903,3.902587284499407,3.104455709457397,1.9159266948699951,-0.5915656089782715
1783202915783033600,7.52503369140625,-0.1117616082213819,4.909321025544405,5.573282362648844,2.920452833175659,1.7806216478347778,-0.3727173805236816
1783202915792971500,7.534971435546875,-0.1125103807620704,5.450634472623468,5.981425356644392,2.791046142578125,1.650975465774536,-0.2002350986003875
1783202915802908400,7.544908447265625,-0.1445385270550847,5.7622822549819945,6.560632773309946,2.6193864345550537,1.4773740768432615,-0.0414654277265071
1783202915812845600,7.554845458984375,-0.0734128806047141,5.770423475861549,7.245741527861356,2.319879531860352,1.2962851524353027,0.1057751104235649
1783202915822782500,7.564782470703125,-0.0871744255840778,5.802189317956566,8.061840468847752,1.9937632083892824,1.1196233034133911,0.1974320709705352
1783202915832720600,7.574720703125,-0.267744069229532,5.999261457586288,8.583573601666092,1.6943755149841309,0.9441409111022948,0.2328642606735229
1783202915842657500,7.584657470703125,-0.3962517729327082,6.15429595195353,8.9076062338233,1.3145581483840942,0.7741371989250183,0.2636213600635528
1783202915852594700,7.5945947265625,-0.3816628372184932,6.15976064710021,9.406709601682424,0.8299190402030945,0.6562620997428894,0.2921457886695862
1783202915862531300,7.60453125,-0.2455719849099405,6.2171852465868,9.870559285330772,0.3388710021972656,0.5704957842826843,0.3072448670864105
1783202915872468500,7.614468505859375,-0.2083507817521691,6.300826821869611,10.067891537201405,-0.0664972141385078,0.49000084400177,0.3039595186710357
1783202915882406400,7.624406494140625,-0.2422583485836163,6.388520887413621,10.009944375145436,-0.3932641446590423,0.3678746521472931,0.2894330322742462
1783202915892343600,7.634343505859375,-0.3020648017054423,6.509122950825095,9.95385131652355,-0.6681878566741943,0.2015698999166488,0.258540391921997
1783202915902280400,7.644280517578125,-0.3777566235601902,6.59937956033349,9.931025736731293,-0.9825971722602844,-0.0318623073399066,0.2501213252544403
1783202915912217300,7.65421728515625,-0.3626546237573027,6.6545712862014765,9.921134457314016,-1.375317096710205,-0.2835654616355896,0.2347481846809387
1783202915922154500,7.664154541015625,-0.3747024966865778,6.76900196750164,9.963789357692002,-1.7821685075759888,-0.5183271169662476,0.2137749940156936
1783202915932092400,7.674092529296875,-0.3541680965714156,6.783104142612219,9.82015362469554,-2.126345634460449,-0.7264537215232849,0.2236499786376953
1783202915942029600,7.684029541015625,-0.3049963616453111,6.800500683093071,9.438698146617412,-2.4290590286254883,-0.8812142610549927,0.2322296202182769
1783202915951966500,7.693966552734375,-0.3715818804480135,6.845245833748579,9.083566027319431,-2.691615581512451,-0.9985700845718384,0.2656401693820953
1783202915961903600,7.703903564453125,-0.4134687190629542,6.872317380547523,8.680636384057998,-2.9420955181121826,-1.116297960281372,0.3303994536399841
1783202915971840300,7.71384033203125,-0.4714370700374245,7.024586501854658,8.264004378658532,-3.247910261154175,-1.2683300971984863,0.407941609621048
1783202915981778400,7.7237783203125,-0.5566416568532586,7.225895840662718,7.857900781536101,-3.619127750396729,-1.4908910989761353,0.5384743213653564
1783202915991715300,7.73371533203125,-0.5784066216766834,7.171863806223869,7.265756726408004,-4.02290678024292,-1.815965175628662,0.7377228140830994
1783202916001652500,7.743652587890625,-0.7682450837258249,6.964655472505092,6.241340029156207,-4.39137601852417,-2.154271125793457,0.9864466190338136
1783202916011589600,7.753589599609375,-1.2627807783432303,6.595548603868484,4.94649837129414,-4.686227798461914,-2.465864896774292,1.231046438217163
1783202916021527600,7.763527587890625,-1.922464730389416,6.121163497680425,3.436229417422413,-4.944401741027832,-2.790959596633911,1.443985104560852
1783202916031464700,7.773464599609375,-2.583381585231423,5.439579410123825,1.703847406166792,-5.162866115570068,-3.2467329502105717,1.5770015716552734
1783202916041401300,7.7834013671875,-3.378688205818832,4.623206036110222,-0.4218967940598726,-5.968848705291748,-3.296011686325073,1.677528977394104
1783202916051338500,7.79333837890625,-4.314467419196665,2.920535564768314,-1.3902157565146684,-5.684428215026856,-3.4323670864105225,1.6335090398788452
1783202916061275400,7.803275390625,-5.365407089453935,2.7330864090085027,-6.2388540575593705,-5.07206392288208,-3.446221351623535,1.4555994272232056
1783202916071213600,7.813213623046875,-6.022788463646173,1.5148695795349776,-9.753454416385292,-4.478100299835205,-3.28589129447937,1.2060731649398804
1783202916081150500,7.823150390625,-5.97195317942202,0.0978200304999947,-11.871159102541208,-4.517194747924805,-2.843086004257202,1.032831072807312
1783202916091087600,7.833087646484375,-5.164218746677041,-1.3383261409319935,-12.968982396787403,-4.7162675857543945,-2.2962024211883545,0.8540427684783936
1783202916101024500,7.8430244140625,-4.3008048045471305,-2.2922296245433387,-15.037643942832943,-4.722142696380615,-1.6630959510803225,0.6545608043670654
1783202916110961400,7.85296142578125,-3.668461133238673,-3.0080621647909283,-17.406276277446747,-4.485293865203857,-0.943102478981018,0.434714674949646
1783202916120899300,7.8628994140625,-2.989504471576214,-3.888401230497658,-19.39764883210659,-3.769942283630371,-0.2425556033849716,0.2067536860704422
1783202916130836500,7.87283642578125,-2.3768621105596424,-4.8599943923175335,-21.324805811965465,-2.4735264778137207,0.3079397976398468,-0.0333994813263416
1783202916140773600,7.882773681640625,-1.8033871000662445,-5.573652365005016,-22.918490715670583,-0.8274646997451782,0.8019380569458008,-0.1565885245800018
1783202916150710500,7.89271044921875,-1.0900000532746317,-5.861850882714987,-22.713267418289185,0.699253499507904,1.2908830642700195,-0.1719375550746917
1783202916160647400,7.9026474609375,-0.3285995016813278,-5.597665108755231,-20.079294878983497,1.9708330631256104,1.6701912879943848,-0.0976617187261581
1783202916170584300,7.912584228515625,0.1331649001255631,-4.751629294666648,-16.367917564082145,3.070919275283813,1.823898196220398,-0.0277943070977926
1783202916180522500,7.9225224609375,0.2296592349797487,-3.4010870846316217,-12.751153300333025,3.799869060516357,1.735363245010376,0.0087349405512213
1783202916190459400,7.93245947265625,0.3851142928466201,-2.0963331045642493,-8.890485587674378,4.165777206420898,1.4699811935424805,0.0581823661923408
1783202916200396500,7.942396484375,0.5335094953298568,-1.108706507310271,-5.328723080179095,4.295956611633301,1.1083818674087524,0.0667934343218803
1783202916210333700,7.952333740234375,0.3138596131891012,0.1436751882240176,-2.6156127067506314,4.331237316131592,0.7981619238853455,0.0564268231391906
1783202916220270300,7.962270263671875,-0.0677437489271163,1.3059367601111531,-0.4391033649265766,4.271024703979492,0.5527058243751526,0.0468492954969406
1783202916230208500,7.97220849609375,-0.4231172757655382,2.301450895744562,1.316440910729766,4.060022830963135,0.3903753161430359,0.0303598307073116
1783202916240145400,7.9821455078125,-0.6943009457886219,3.163850107873976,2.879485176977515,3.690044641494751,0.3053001165390014,0.0419336631894111
