time,seconds_elapsed,ax,ay,az,gx,gy,gz
1783203507653976300,0.110976318359375,-0.4552402607351541,0.0987105495989322,-1.056014781564474,-0.0754736885428428,0.0856254696846008,-0.0963359102606773
1783203507663913500,0.12091357421875,-0.2519226508446037,0.0796285402491688,-1.146032906141877,0.0074961194768548,0.0680858194828033,-0.0935974642634391
1783203507673850600,0.1308505859375,0.050411944245547,0.0275289351776242,-1.1743073989897963,0.0629322156310081,0.0616486892104148,-0.072860762476921
1783203507683787500,0.14078759765625,0.3165104199588298,-0.0133130705595016,-0.9138526282519102,0.1211664900183677,0.1272785067558288,-0.0225877575576305
1783203507693723400,0.150723388671875,0.4524598362363874,-0.0154667414620518,-0.589077068772912,0.1523883193731308,0.1504714488983154,0.0327015966176986
1783203507703660500,0.16066064453125,0.5828147935077548,-0.0299856806799769,-0.5206581970632076,0.1284641325473785,0.0518423654139041,0.091090053319931
1783203507713597400,0.170597412109375,0.7254270286753773,-0.0596709171086549,-0.5661164644241332,0.0822324529290199,-0.0463292077183723,0.1427082419395446
1783203507723534600,0.18053466796875,0.6633642479941249,-0.1056383030354976,-0.4118365878164768,0.0594027265906333,-0.0962392687797546,0.1633906364440918
1783203507733471700,0.1904716796875,0.4046051752582192,-0.0646229865580797,-0.1984369982421398,0.0616408437490463,-0.0329002439975738,0.1608632951974868
1783203507743407400,0.200407470703125,-0.0362400648996233,0.0576204143196344,0.1388081667095422,0.0651502311229705,0.0049620796926319,0.1165191382169723
1783203507753344500,0.210344482421875,-0.4159732492297887,0.1280658234208822,0.1530681627303362,0.0617128834128379,-0.0081116445362567,0.0564110651612281
1783203507763281700,0.22028173828125,-0.6239299170978367,0.2070309313252568,0.0620510902434587,0.0450828894972801,-0.0360815674066543,-0.0150297712534666
1783203507773218600,0.230218505859375,-0.7179030629113317,0.1390028124988079,0.0375783277660608,0.0460727848112583,-0.0306247510015964,-0.0651485994458198
1783203507783155500,0.240155517578125,-0.6176482064798474,0.0828609462991356,0.1251432139724493,0.0666125491261482,0.0257220417261123,-0.0768354758620262
1783203507793091600,0.250091552734375,-0.32330329496935,-0.0011988543957471,0.2583896549016237,0.0708786696195602,0.08469108492136,-0.0763478502631187
1783203507803028500,0.260028564453125,-0.1193551320903003,0.0078334701046347,0.4706985266298055,0.0472513325512409,0.0750175192952156,-0.0478319823741912
1783203507812965600,0.269965576171875,0.1252628948293626,-0.0227113057628273,0.4440016583621501,0.0117255644872784,0.0394177064299583,-0.0172884576022624
1783203507822902500,0.279902587890625,0.2917389667958021,0.0675762834057211,0.3929255511194467,-0.0342978537082672,0.0135632082819938,0.0199238918721675
1783203507832839400,0.28983935546875,0.2765815835438668,-0.0176832484677433,0.3662076400637626,-0.059207733720541,-0.0215734746307134,0.0547127649188041
1783203507842776600,0.299776611328125,0.2527292910523712,0.0096077863007783,0.163676650506258,-0.0813761726021766,-0.0526015534996986,0.0914656817913055
1783203507852712700,0.309712646484375,0.1305849666349589,-0.0165644735708832,0.0558253475964069,-0.1189397946000099,-0.0822678357362747,0.0940899550914764
1783203507862649300,0.3196494140625,-0.0032886662818491,0.0347679465204477,0.0817664290606975,-0.1485472619533538,-0.065392680466175,0.0744363963603973
1783203507872586500,0.32958642578125,-0.1199547054186463,0.1407438109472394,0.2059206319957971,-0.1828831285238266,-0.0420889556407928,0.0640074610710144
1783203507882523600,0.339523681640625,-0.2509172731943428,-0.0033250527694821,0.1108721120357513,-0.1649200916290283,-0.049479104578495,-0.0097577963024377
1783203507892460500,0.34946044921875,-0.4198385463558137,0.2318047225758433,-0.2926391305059194,-0.0969572886824607,0.0047244769521057,-0.0364621132612228
1783203507902396400,0.359396484375,-0.4128551172092556,0.1258615913748741,-0.4466787686169147,-0.0326978266239166,0.0799161344766616,-0.0611768215894699
1783203507912333600,0.36933349609375,-0.3713783206999301,0.0284144858404994,-0.3582622340172529,0.0285388994961977,0.1385887563228607,-0.0888731628656387
1783203507922270500,0.3792705078125,-0.3049745882049203,0.1185430850550532,-0.3691378482967615,0.0796131193637847,0.1424424052238464,-0.0852221399545669
1783203507932207600,0.38920751953125,-0.0315957462251186,0.0025695582270622,-0.3870768250912427,0.0888870507478714,0.0864515677094459,-0.0587252788245677
1783203507942144500,0.39914453125,0.3419032198905944,-0.0314113295689225,-0.3574503331124782,0.0779713243246078,0.0269788913428783,0.0060110655613243
1783203507952081400,0.409081298828125,0.6740490158766508,-0.1050076039165258,-0.2244213343262672,0.0757454559206962,-0.0229401998221874,0.0673130452632904
1783203507962017500,0.419017578125,0.68078329256773,-0.0955751741826534,-0.2362795299023389,0.0625375285744667,-0.0458491332828998,0.1013015508651733
1783203507971954700,0.42895458984375,0.4429860515788197,-0.0905167217493057,-0.2004746415495872,0.0776427090167999,-0.0482406541705131,0.1166863664984703
1783203507981891600,0.4388916015625,0.1959836137406528,-0.0097515786856412,-0.2273486199498176,0.0845405459403991,-0.0205012299120426,0.1062715202569961
1783203507991828500,0.448828369140625,-0.1153665008455514,0.0333376214563846,-0.1388958449929952,0.0809415504336357,0.0114907920360565,0.0601919069886207
1783203508001765400,0.458765380859375,-0.3416393082574009,0.1177770691186189,-0.0592728577017784,0.0654824674129486,0.0063920728862285,0.0148432720452547
1783203508011702500,0.46870263671875,-0.386299557108432,0.1502431684374809,-0.0855132143735885,0.0485362410545349,-0.0300631392747163,-0.0119760911911726
1783203508021638700,0.478638671875,-0.2740221083194017,0.1054167692393064,-0.1523614757657051,0.0173291973769664,-0.0664283409714698,-0.0243349615484476
1783203508031575600,0.488575439453125,-0.1081402028538286,0.0442316481754183,-0.1020218661040067,-0.0026248032227158,-0.0532278418540954,-0.0201039984822273
1783203508041512400,0.498512451171875,-0.0018292612537741,0.0159258834064006,0.0544762710750102,0.0002947952598333,-0.0437697954475879,-0.0138036962598562
1783203508051449600,0.50844970703125,0.0573509497284889,0.0541147442862391,0.0110334351897239,-0.0021212240681052,-0.0248248670250177,-0.004390753339976
1783203508061386500,0.518386474609375,0.0619701339617371,0.0701414577186107,0.0769710114777088,0.0037223007529973,0.0043330234475433,0.0035487846471369
1783203508071323600,0.52832373046875,0.0727563163921237,0.0053521746829152,0.1752607053160667,0.000664192251861,0.0284380931407213,0.0196867417544126
1783203508081259500,0.538259521484375,0.0696264939337968,-0.0481789244964718,0.207698163062334,-0.0109916636720299,0.0308519825339317,0.0254338439553976
1783203508091196400,0.548196533203125,0.1071305874198675,-0.1150929446011781,0.1710240906596183,-0.0260161533951759,0.0038991945330053,0.0275766216218471
1783203508101133600,0.558133544921875,0.1554816536128521,-0.1572708751171827,0.1017576622098684,-0.0496147871017456,0.0021652288269251,0.0327512100338935
1783203508111070700,0.56807080078125,0.0877861277416348,-0.1778001606658101,0.1035831240713596,-0.0420775115489959,0.0021654949523508,0.0233190916478633
1783203508121007400,0.57800732421875,-0.0415748500563204,-0.1226394144579768,-0.0510521418452262,-0.0133034363389015,0.0218388810753822,0.0249290317296981
1783203508130944500,0.587944580078125,-0.133351654869318,-0.0441653049409389,-0.1538864933758974,0.0185871180146932,0.0567872785031795,-0.0133440559729933
1783203508140880600,0.597880615234375,-0.2687596577465534,0.1056891564399003,-0.0878776054173707,0.0118451388552784,0.0934595689177513,-0.0265296529978513
1783203508150817500,0.607817626953125,-0.3308309139952063,0.0909033829793334,0.0197696993529796,-0.017795842140913,0.0747814923524856,-0.0558989942073822
1783203508160754400,0.61775439453125,-0.2473489131882786,0.13582827411592,-0.0206768773257732,-0.0693676397204399,-0.0667221471667289,-0.0162793304771184
1783203508170691600,0.627691650390625,0.0856239812716841,0.826520381757617,-0.3860053964674472,0.1301292330026626,0.0279628187417984,0.0413059368729591
1783203508180628500,0.63762841796875,0.0252045838832855,0.2081450300469994,-0.8647668180435896,0.2396609336137771,0.2086616605520248,0.0815435126423835
1783203508190565600,0.647565673828125,0.2801224710211157,-0.4006450394555926,-0.1354816526353359,0.2279358357191085,0.1063179820775985,0.1210965141654014
1783203508200501500,0.65750146484375,0.6565881779879331,-0.0450020480260252,-0.1574988386541604,0.2084679305553436,-0.0361837446689605,0.1707238256931305
1783203508210438400,0.6674384765625,0.6238153508074581,-0.0897454451158642,-0.4377110337853431,0.2357056736946106,-0.0398708879947662,0.1919524073600769
1783203508220375600,0.67737548828125,0.2104207198940217,0.1857820993304252,-0.2958452330708503,0.2906941771507263,0.1135156080126762,0.2392444610595703
1783203508230312700,0.687312744140625,-0.2990416910246014,0.1575710271075368,0.0181312844961881,0.2997646331787109,0.2000004351139068,0.1751139461994171
1783203508240249600,0.69724951171875,-0.5900489825449884,0.3449225677117705,-0.0782639738976955,0.2446946650743484,0.1684494465589523,0.1060024350881576
1783203508250186500,0.7071865234375,-0.554759934759885,0.3806169814273715,-0.1621954720377922,0.1674083918333053,0.1086575016379356,0.0587198734283447
1783203508260123400,0.717123291015625,-0.437170351037383,0.2232534595906734,0.0555289949983358,0.072230264544487,0.0692647844552993,0.0212266445159912
1783203508270058500,0.72705859375,-0.2327820431753993,0.0485860439926385,0.2455196519345045,0.0400662012398242,0.0328452587127685,-0.0002445592544972
1783203508279995400,0.736995361328125,-0.0123988783240318,0.0880231513679027,0.2429740591049194,0.028529766947031,-0.0003589349798858,0.0095642516389489
1783203508289932300,0.746932373046875,0.179985980272293,-0.0649529491648077,0.1376011290073394,0.0496273301541805,-0.0803517699241638,0.013142742216587
1783203508299869200,0.756869140625,0.2194993677541613,-0.0014119126245379,-0.1431762987911701,0.0718044117093086,-0.1555045694112777,-0.0067817596718668
1783203508309806300,0.766806396484375,0.0731067372649908,0.0036184827581048,-0.2769488094210625,0.0973947271704673,-0.1774258464574813,0.0146444356068968
1783203508319743500,0.776743408203125,-0.0122886959478259,-0.1316094873771071,-0.2402273907452821,0.1554095894098281,-0.1678026616573333,0.0367092825472354
1783203508329680100,0.78668017578125,-0.0408317766040563,-0.0883811710253357,-0.2996563157916069,0.2125743478536605,-0.1062085404992103,0.049534797668457
1783203508339616300,0.7966162109375,-0.2310357840299606,0.0660381140530109,-0.1078816980481147,0.2391811311244964,0.0237539149820804,0.0447730459272861
1783203508349553400,0.806553466796875,-0.3638413493238389,0.1683729916289448,0.1220984394490718,0.3151765763759613,0.0869581848382949,0.0435921996831893
1783203508359490300,0.816490234375,-0.3878118613675236,0.4054305201664567,-0.1738677896529436,0.3712840378284454,0.1231901198625564,0.0169437527656555
1783203508369427200,0.82642724609375,-0.468271299482882,0.3915308818906545,-0.2175935341328382,0.3605000972747803,0.1417851150035858,-0.0441491641104221
1783203508379364400,0.8363642578125,-0.6915403950341046,0.5201259898826479,0.2816056953161954,0.301677256822586,0.2499898821115493,-0.1424991637468338
1783203508389301200,0.84630126953125,-1.04861824157238,0.4356175686374306,0.7060808154314756,0.212071493268013,0.4124900996685028,-0.2415525168180465
1783203508399238400,0.85623828125,-1.2677606125824152,-0.0438306661590933,1.1258768378198143,0.1329257488250732,0.3338676989078522,-0.2737899124622345
1783203508409174300,0.86617431640625,-0.5866955804638564,-0.9597279519811271,0.8143710942804813,-0.0416239500045776,0.0575319901108741,-0.2560223639011383
1783203508419111200,0.876111083984375,0.0587244300387799,-0.8379086217343806,0.6453092436045408,-0.1714673787355423,-0.1099403947591781,-0.2907841205596924
1783203508429048300,0.88604833984375,0.1168130463920533,-0.4563640040680766,0.8064870630323886,-0.1319735050201416,-0.1028497293591499,-0.2827890515327453
1783203508438985500,0.8959853515625,0.0040378772139549,-0.1320107616543769,0.7590431748121976,-0.0394501760601997,-0.0412425771355629,-0.2757972478866577
1783203508448922400,0.90592236328125,0.0950172480389475,0.0521457823008298,0.5025988087594508,-0.0544845201075077,-0.0282764416188001,-0.2134438604116439
1783203508458859300,0.915859375,0.2785524452254176,-0.0901215849518776,0.3860235166460275,-0.1123702377080917,-0.0260437782853841,-0.1985188871622085
1783203508468796200,0.925796142578125,0.3386819197565316,-0.1048258176088333,0.1541623877078294,-0.0796405225992202,0.1511608362197876,-0.2502166926860809
1783203508478733300,0.9357333984375,0.0683306089043617,-0.2198424821034073,-0.248909294372797,0.0799163877964019,0.3361655175685882,-0.3140967488288879
1783203508488669400,0.94566943359375,0.2006584736838936,-0.078434654289484,-0.9021569297611712,0.0329872258007526,0.2571798861026764,-0.09059389680624
1783203508498606000,0.955606201171875,0.2644906021252274,-0.2210147407531738,-2.327944934916496,0.0322130173444747,-0.1644022464752197,-0.2332578748464584
1783203508508543200,0.965543212890625,0.0193662331186234,0.3595280161693692,-3.419392848911881,0.175462856888771,-0.3105344176292419,-0.3452557623386383
1783203508518480400,0.97548046875,-0.3028752778381109,1.2370207525342702,-4.26903633210361,0.2731630206108093,-0.2708088159561157,-0.3738995790481567
1783203508528417300,0.985417236328125,0.5589473034471273,0.9959159944325684,-3.71212608744204,0.3978796303272247,-0.3506064414978027,-0.3454016447067261
1783203508538354400,0.9953544921875,1.6678620466805991,0.6095397188261151,-4.502402604907751,0.4878274500370025,-0.4995770752429962,-0.1866363435983657
1783203508548291300,1.005291259765625,2.731813320332765,-0.1107838492304086,-5.011470317420363,0.6141486763954163,-0.6916306614875793,0.011318014934659
1783203508558228200,1.015228271484375,2.993499678692221,-0.0560039190337061,-5.612495598140359,0.8974355459213257,-0.7900137305259705,0.1199469789862632
1783203508568164400,1.025164306640625,2.323095741319656,0.2628366974383592,-6.285601195687055,1.2841976881027222,-0.8046824336051941,0.1974548250436782
1783203508578101500,1.0351015625,1.4750176077485084,0.5701844445154071,-6.450972375151514,1.658989667892456,-0.8129910826683044,0.2437192499637603
1783203508588038100,1.0450380859375,0.876432559787482,0.6234396493628621,-6.252457635498047,2.064687013626098,-0.7958754301071167,0.2758913338184356
1783203508597975300,1.054975341796875,0.693468878878653,0.4747317276686429,-5.804359063211083,2.447828531265259,-0.6882805228233337,0.3219089210033417
1783203508607912200,1.064912109375,1.084110264583677,0.5672013370513915,-4.858745269039273,2.797140598297119,-0.6603519320487976,0.3545568585395813
1783203508617849300,1.074849365234375,1.566515741750598,0.6260626913428307,-3.955692267221212,3.061485290527344,-0.6346027851104736,0.3891039192676544
1783203508627786500,1.084786376953125,1.7616591052748265,1.1149947937995195,-2.771775912886858,3.228749513626098,-0.4802651703357696,0.4582518339157104
1783203508637723100,1.09472314453125,1.6672523903496563,1.4731044676035645,-0.9044014938175676,3.282742500305176,-0.3216147720813751,0.5678292512893677
1783203508647660300,1.104660400390625,1.3749585661500692,1.6120938360989092,0.8666098155617713,3.2183611392974854,-0.2143309116363525,0.6512953639030457
1783203508657596400,1.114596435546875,0.7541426894195378,1.822231793528795,2.331848956617713,3.034444570541382,-0.0379180423915386,0.7086144089698792
1783203508667533300,1.124533203125,-0.014465893856436,1.8075328215688464,4.062929822146892,2.712393045425415,0.089983195066452,0.7390080094337463
1783203508677470200,1.13447021484375,-0.5762579192101955,1.972030725330114,5.69858281300962,2.2588465213775635,0.068483367562294,0.7229268550872803
1783203508687407400,1.144407470703125,-1.1098644451737405,1.9771353549927475,6.635439884752035,1.7704238891601562,0.0172547996044158,0.6178150773048401
1783203508697344300,1.15434423828125,-1.9106600185662508,1.8585095600903032,7.271340664020179,1.3795757293701172,0.0927826538681984,0.5004380941390991
1783203508707281400,1.164281494140625,-2.409167904750257,1.3413427122741937,7.648472433680295,1.010478138923645,0.1457212418317794,0.3932086229324341
1783203508717218300,1.17421826171875,-2.507843236905336,1.202719839003682,7.669802806478739,0.6142404079437256,0.1690336018800735,0.2997298240661621
1783203508727155200,1.1841552734375,-2.393114741702377,1.266684653913975,7.851165335801244,0.2002429515123367,0.0746522396802902,0.2209020853042602
1783203508737092400,1.19409228515625,-2.645331845448911,2.0814801110863685,7.728769374710321,-0.2336598932743072,0.0662816166877746,-0.1604108810424804
1783203508747028200,1.2040283203125,-4.666085100632905,4.4174435172855855,7.173031096437573,-0.4598099291324615,-0.2628755271434784,-0.417214959859848
1783203508756965400,1.21396533203125,-3.3177193578541275,-0.3590530921339988,6.58757397172749,-0.9403095245361328,0.137481689453125,-0.3369054794311523
1783203508766902300,1.22390234375,-0.3659703241765499,-1.5130658911138772,8.94813230547905,-1.3182929754257202,0.2337672114372253,-0.4515532553195953
1783203508776839200,1.233839111328125,-0.8155342928409576,0.445473484480381,7.642158428227901,-1.5725629329681396,0.2619032263755798,-0.5043755769729614
1783203508786776300,1.2437763671875,-1.0854783380664883,1.0946417416006329,5.47567714394331,-1.7908029556274414,0.3158980309963226,-0.5489235520362854
1783203508796713500,1.25371337890625,-0.8669589212603867,1.102304239052534,4.544078431120514,-2.0250415802001958,0.3684954047203064,-0.5261400938034058
1783203508806650400,1.263650390625,-0.0955491629585623,0.6130231770277023,3.675347970142961,-2.20361328125,0.3922406733036041,-0.4410073757171631
1783203508816587300,1.273587158203125,0.7834060471743345,0.1668576186299324,2.4547698183655737,-2.230905294418335,0.4676616787910461,-0.3096765279769897
1783203508826524200,1.283524169921875,1.4241943062230944,0.1446744283944368,0.7930687785327434,-2.152467727661133,0.6511092782020569,-0.1907453536987304
1783203508836461300,1.29346142578125,1.593274861599505,0.1778109743207693,-0.6193751764029264,-1.8945876359939573,0.7263546586036682,-0.0196000635623931
1783203508846397400,1.3033974609375,1.5923612538859246,0.564397385546565,-2.666198400127888,-1.5871994495391846,0.7057009935379028,0.0970136374235153
1783203508856334300,1.313334228515625,1.0973485163412988,0.4652028518229723,-4.189054448372126,-1.1856589317321775,0.5867835283279419,-0.0257706120610237
1783203508866271200,1.323271240234375,-0.0287618379734456,1.0847849489748478,-5.447034402304888,-0.8028783202171326,0.446376621723175,-0.2355507463216781
1783203508876208400,1.33320849609375,-1.0098862137265503,1.1418261021018028,-6.0169648720592255,-0.4550687968730926,0.3896951973438263,-0.4178345501422882
1783203508886145300,1.343145263671875,-1.2003218379512428,0.5975017827689647,-5.807452353051304,-0.1789860725402832,0.3409785330295563,-0.5177739858627319
1783203508896082400,1.35308251953125,-0.5866081944413483,0.2678758606493472,-5.359442628091573,0.047045461833477,0.2734074890613556,-0.5212044715881348
1783203508906019300,1.363019287109375,0.3768723880715668,-0.2015028155535459,-4.874284198954701,0.2472829520702362,0.2374383062124252,-0.4414021074771881
1783203508915956200,1.372956298828125,1.180746492126584,-0.5669593449890613,-4.177122018516063,0.3965952396392822,0.2074674814939499,-0.3418805003166199
1783203508925893400,1.382893310546875,1.5340496424317358,-0.7322077748566865,-3.292666749662161,0.4993860423564911,0.2408621907234192,-0.2367066740989685
1783203508935830300,1.392830322265625,1.6439276288636029,-0.824291599792242,-2.185337375923991,0.5378528833389282,0.3301140367984772,-0.1426492929458618
1783203508945767400,1.402767333984375,1.6712341534622013,-0.9194897573560477,-0.942421135610342,0.499983549118042,0.4217699468135834,-0.0004098562058061
1783203508955703300,1.412703369140625,1.823476825153828,-0.9316893137156964,0.2049000567764043,0.4289741814136505,0.4857144653797149,0.1767553687095642
1783203508965640200,1.42264013671875,1.819890491099656,-1.0381383486121891,1.072171551117301,0.316937118768692,0.4716548323631286,0.3298887014389038
1783203508975577300,1.432577392578125,1.483152545017749,-0.8375731061697006,1.5920482424139974,0.1839180886745453,0.4864127039909363,0.426303893327713
1783203508985514500,1.442514404296875,0.8385098024979233,-0.6043465340971946,2.1589976505309343,0.0013469522818922,0.5750623941421509,0.4997333586215973
1783203508995451100,1.452451171875,0.2040413941204547,-0.4602776703804731,2.86802445628643,-0.1774140000343322,0.5962947010993958,0.5288814306259155
1783203509005388300,1.46238818359375,-0.2324567567437887,-0.0162912095874547,3.2621389249294994,-0.4369752705097198,0.6297586560249329,0.5147578716278076
1783203509015325200,1.4723251953125,-0.8164373791605234,0.0718769032090902,3.8211008414238687,-0.7190701961517334,0.668584942817688,0.4226910471916199
1783203509025262300,1.482262451171875,-1.155091534127295,0.5277186369687319,4.204409838414192,-0.9558328986167908,0.669478714466095,0.2676205039024353
1783203509035199500,1.492199462890625,-1.4666558759860693,1.213552198663354,3.8105753557562823,-1.104544997215271,0.5284669995307922,0.0273938849568367
1783203509045136100,1.50213623046875,-2.3212306781001386,2.4273919820964336,2.530169635003805,-1.0442345142364502,0.3757631480693817,-0.1999260932207107
1783203509055073300,1.5120732421875,-3.127719933089614,1.5478998886078594,0.7944307145357131,-0.9610689878463744,0.2679186463356018,-0.5668454170227051
1783203509065010400,1.522010498046875,-3.050741907349229,1.5908178238362074,-0.1399047297745943,-0.864192008972168,0.2122394144535064,-0.8752439618110657
1783203509074947300,1.531947265625,-2.6890707416713235,1.5363403837174177,-0.7177735913127661,-0.6148173213005066,0.1877037137746811,-1.1154438257217407
1783203509084883200,1.54188330078125,-2.0841906852193177,-0.0570335543423891,-1.6160124708473682,-0.4299419820308685,0.4432002007961273,-1.2337936162948608
1783203509094820400,1.5518203125,-0.3687901308376342,-0.729099871969223,-1.6487112098783254,-0.3584354817867279,0.5857787132263184,-0.967089593410492
1783203509104757200,1.56175732421875,1.9983213508844373,-1.1437117697179318,-1.844119800209999,-0.4145312309265136,0.4621673226356506,-0.683073878288269
1783203509114694400,1.5716943359375,3.553341008369624,-2.170674059799313,-2.974747047427297,-0.4736426472663879,0.1690830290317535,-0.3643800020217895
1783203509124631300,1.58163134765625,4.591257530924677,-1.9408307004243133,-4.183233779394627,-0.4122903347015381,-0.1766496002674102,-0.1397761553525924
1783203509134568200,1.591568115234375,4.420633837759494,-1.5293413186103104,-5.7198874668449164,-0.2384491860866546,-0.4680373072624206,-0.0059669446200132
1783203509144505300,1.60150537109375,3.3252041606515643,-1.207302490618825,-6.850880040243268,0.0393976122140884,-0.6683887243270874,0.0335980430245399
1783203509154442200,1.611442138671875,2.027894359110296,-0.9353156875193118,-7.643793920475244,0.4199703335762024,-0.7874791026115417,0.02150784060359
1783203509164379400,1.62137939453125,1.128347319586575,-0.5338882655143737,-7.995382083556056,0.8442649245262146,-0.7907513380050659,0.0368729457259178
1783203509174316300,1.63131640625,0.7720888266071677,-0.5118652342766523,-7.832730099922418,1.3358579874038696,-0.757961630821228,0.0872164294123649
1783203509184253200,1.641253173828125,0.8662060570664704,-0.3035299423545599,-7.544816828894615,1.8495948314666748,-0.7148975133895874,0.1833863705396652
1783203509194190300,1.6511904296875,1.2775016698740422,0.0071294134885072,-6.890674290493131,2.3267805576324463,-0.6329189538955688,0.3085634410381317
1783203509204127200,1.661127197265625,1.554890185886621,0.3146159845143556,-5.819345035418868,2.6970207691192627,-0.5555013418197632,0.4343131184577942
1783203509214063400,1.6710634765625,1.569284914202988,0.6522025102496147,-4.339825440075994,2.9015955924987797,-0.5132818222045898,0.5249193906784058
1783203509224000300,1.681000244140625,1.3490714068301022,1.164571017873287,-2.530205875360965,2.928051471710205,-0.4462333023548126,0.5627256631851196
1783203509233937200,1.690937255859375,0.8970636982753872,1.4933751022160051,-0.5244996749222278,2.7982213497161865,-0.3737863302230835,0.5637484788894653
1783203509243874300,1.700874267578125,0.2844396035678684,1.6118939296126364,1.2653332393050194,2.5592641830444336,-0.284043937921524,0.5415371656417847
1783203509253811500,1.7108115234375,-0.347534503775835,1.6428490398466586,2.7692659758925435,2.257762908935547,-0.1160242855548858,0.5200449228286743
1783203509263748000,1.720748046875,-0.9110092215195298,1.621835477912426,4.099145044866204,1.9282199144363403,-0.0121072046458721,0.4863622784614563
1783203509273685200,1.730685302734375,-1.187766307760775,1.5787766729086636,4.956773681592941,1.5177489519119265,-0.0473506338894367,0.4092745780944824
1783203509283622100,1.7406220703125,-1.5262537278585135,1.680478221017122,5.5480883001595735,1.0641303062438965,-0.1481115967035293,0.2907449901103973
1783203509293559300,1.750559326171875,-1.8043553605765104,1.7591326555371285,6.140209558933973,0.6156538128852844,-0.2746022641658783,0.1878721415996551
1783203509303496400,1.760496337890625,-1.7752701358675955,1.698912287852168,6.385543917429446,0.2138406187295913,-0.341760516166687,0.0524927414953708
1783203509313433000,1.77043310546875,-2.0264828848771748,2.031597597542405,6.631698360136151,-0.0753490924835205,-0.2297792583703994,-0.0732092708349227
1783203509323370200,1.780370361328125,-2.2982629133582115,2.027161076399684,6.754187844729423,-0.3128607273101806,0.0029535938519984,-0.1429731696844101
1783203509333307400,1.790307373046875,-2.008913179786503,1.807902823925018,6.981231928774714,-0.5453987121582031,0.2644194662570953,-0.129621535539627
1783203509343244300,1.800244384765625,-1.3750069353364407,1.4366396540373565,7.102201071932911,-0.8409411311149597,0.4535385370254516,-0.0674630999565124
1783203509353181400,1.810181396484375,-0.7259701956413686,1.1118640945583582,7.12094785797894,-1.245581865310669,0.5263604521751404,-0.055981695652008
1783203509363118000,1.8201181640625,-0.7815615883514284,1.1109715296328069,7.288607440641522,-1.6510249376296997,0.6062585115432739,-0.1589453667402267
1783203509373055200,1.83005517578125,-1.2824784353733063,1.3224281684458254,6.955660849666595,-1.953041672706604,0.619942307472229,-0.3029892444610595
1783203509382991400,1.839991455078125,-1.6756915712624787,1.0453168619394302,5.759274305337667,-2.0853991508483887,0.5720202922821045,-0.4052714109420776
1783203509392928300,1.84992822265625,-1.139315288324654,0.6073252576470375,4.18553913372755,-2.0872514247894287,0.6146050691604614,-0.4149029850959778
1783203509402865200,1.859865234375,-0.3332316915266216,-0.0159679689824581,3.125168495041132,-1.9399232864379885,0.5936899185180664,-0.3152198195457458
1783203509412802300,1.86980224609375,0.7417967103265225,-0.4360404702246189,1.7302736407995225,-1.6452826261520386,0.6065188050270081,-0.1668278872966766
1783203509422739200,1.8797392578125,1.4040011207610368,-0.5503361269682645,0.3512573236912488,-1.3155478239059448,0.7120718359947205,-0.0654093846678733
1783203509432676400,1.88967626953125,1.3713446134366094,-0.6521452271044254,-0.2496013682901859,-1.0778528451919556,0.7758375406265259,-0.0336279086768627
1783203509442613200,1.89961328125,1.0070477754302325,-0.6103986737430095,-0.5664361978977919,-1.014677882194519,0.8990817070007324,-0.0224487595260143
1783203509452550100,1.909550048828125,0.9765226541113108,-0.4624649512916803,-0.5371458060055971,-1.0983260869979858,0.9697519540786744,-0.0415261834859848
1783203509462487300,1.9194873046875,0.9906617271661756,-0.2532633979290724,-0.6701964321017265,-1.2625360488891602,0.9060819149017334,-0.0755712389945983
1783203509472424200,1.929424072265625,0.7457818344399333,-0.1215934125363826,-1.5795008955299854,-1.4144949913024902,0.6537138223648071,-0.1321945637464523
1783203509482361300,1.939361328125,0.5857878179691731,-0.0135720137566328,-2.946844895023107,-1.5149259567260742,0.3241370022296905,-0.1892935335636139
1783203509492298200,1.94929833984375,0.3655601359404623,0.1299701957374811,-4.125077358502149,-1.5245587825775146,0.0006779641844332,-0.2344368398189544
1783203509502235100,1.959235107421875,-0.0128663497053086,0.1925216367185115,-5.001508310854435,-1.4107505083084106,-0.2306191623210907,-0.3092545866966247
1783203509512172300,1.96917236328125,-0.4157539073906838,0.5176093308866023,-5.506638099396229,-1.1812800168991089,-0.3152918517589569,-0.3733554482460022
1783203509522109200,1.979109130859375,-0.6257016029454767,0.7617173624575138,-5.648194688031077,-0.8853464126586914,-0.353981465101242,-0.4205661118030548
1783203509532046300,1.98904638671875,-0.5862754553556442,1.0093687657237052,-5.566973617893457,-0.5460994839668274,-0.4080860912799835,-0.4295569062232971
1783203509541983500,1.9989833984375,-0.3919502763465046,1.1262146914720534,-5.48322799771428,-0.2004989683628082,-0.4424781501293182,-0.4306706190109253
1783203509551920000,2.008920166015625,-0.271226047860086,1.2822387813985348,-4.9828544637888665,0.1083677783608436,-0.3804972767829895,-0.4025696218013763
1783203509561857300,2.018857177734375,-0.2713441212818026,1.2758861975014208,-3.94073902823925,0.3615419864654541,-0.2273918986320495,-0.3705967664718628
1783203509571793400,2.02879345703125,-0.3744645962774753,1.2156938868671654,-2.6743612483173607,0.51602703332901,0.0126634323969483,-0.3195531964302063
1783203509581730300,2.038730224609375,-0.4586182858008891,1.0936807876139878,-1.2445265981197355,0.5705715417861938,0.2613523602485657,-0.2611580491065979
1783203509591667200,2.048667236328125,-0.4892931177888065,1.036012442499399,0.1344160692304372,0.4899851381778717,0.4284198582172394,-0.2219238579273224
1783203509601604000,2.05860400390625,-0.5654348753681406,0.961123497992754,1.1309510723441838,0.340228408575058,0.3508161604404449,-0.1542926132678985
1783203509611541200,2.068541259765625,-0.3823722641294821,0.8715671457082033,1.3929314452141524,0.1397064179182052,0.1052166819572448,-0.060401938855648
1783203509621478400,2.078478515625,0.1677898214461281,0.9444909276217222,1.542507089653611,-0.0856145843863487,-0.0723937898874282,0.0596554949879646
1783203509631415300,2.088415283203125,0.3716508540309965,0.7574047599554061,2.17359023950696,-0.2709664106369018,-0.1108102202415466,0.1616790294647216
1783203509641352200,2.098352294921875,0.1208222820334136,0.508303742402792,2.750198871850967,-0.4081234633922577,-0.0434575416147708,0.2368827164173126
1783203509651289300,2.108289306640625,-0.3140311703637242,0.4168202214479446,3.070308777606487,-0.5206599831581116,0.0668145194649696,0.2444944381713867
1783203509661226200,2.118226318359375,-0.8310003036506474,0.4741325927317142,3.2745752126544714,-0.6376824975013733,0.1744927912950515,0.1884522140026092
1783203509671163400,2.128163330078125,-1.3080311020419,0.5554436792403459,3.366519921380281,-0.7539740204811096,0.2571016252040863,0.0855036377906799
1783203509681100300,2.138100341796875,-1.6994328045949338,0.5527689070731401,3.287115545275807,-0.8326283693313599,0.3669354319572449,-0.0529857985675334
1783203509691037200,2.148037109375,-1.977911600062251,0.5741624082356691,3.08572729601264,-0.8925539255142212,0.5264124274253845,-0.2085011303424835
1783203509700974300,2.157974365234375,-2.097602539978176,0.5468108754515647,2.8224282417595385,-0.9161847233772278,0.6828811168670654,-0.3565047085285187
1783203509710911200,2.1679111328125,-1.8040736210256811,0.3882721723556518,2.2490473392903803,-0.9075480103492736,0.7755630612373352,-0.4234864413738251
1783203509720848400,2.177848388671875,-1.076969891309738,0.0539566311150789,1.4120003028213977,-0.8974596858024597,0.8535401821136475,-0.4138703048229217
1783203509730785300,2.187785400390625,-0.2206289563059806,-0.0937371451005339,0.7146364623308181,-0.9196234345436096,0.9119018912315368,-0.3938934206962585
1783203509740722200,2.19772216796875,0.4642629406243562,-0.0315212196841835,0.3443775010496377,-0.9950653910636902,0.912191927433014,-0.4062893688678741
1783203509750659300,2.207659423828125,0.8498514268539845,-0.0593599514633417,-0.0094844521820545,-1.121793270111084,0.8260740637779236,-0.3908610641956329
1783203509760596200,2.21759619140625,0.9205110632278024,-0.2871265045642852,-0.4640618650943041,-1.3089817762374878,0.6583042144775391,-0.3101110756397247
1783203509770533400,2.227533447265625,0.7720334431581198,-0.5116986455380916,-0.9349877707391976,-1.485622763633728,0.4713137745857239,-0.2655498385429382
1783203509780470300,2.23747021484375,0.5158312152981758,-0.6819423994749784,-1.453347043210268,-1.567275047302246,0.2431722432374954,-0.3076834380626678
1783203509790407200,2.2474072265625,0.1567687708139419,-0.6475193208694457,-2.0239502976596357,-1.563918948173523,0.0718390941619873,-0.3710785508155823
1783203509800344300,2.25734423828125,-0.0502266690728254,-0.4010761243492364,-2.562236505872011,-1.4897578954696655,-0.1152860522270202,-0.3696287274360657
1783203509810281200,2.26728125,-0.1105528352198191,-0.347724765650928,-2.873386275580525,-1.4063440561294556,-0.2441768497228622,-0.4230237901210785
1783203509820218400,2.27721826171875,-0.0356616804897785,-0.454518668462336,-2.995178425559401,-1.3058067560195925,-0.2209072262048721,-0.4938462972640991
1783203509830155300,2.2871552734375,0.2971726822823285,-0.5766968951493502,-2.7085271372914312,-1.2053203582763672,-0.0954769775271415,-0.4537593722343445
1783203509840092200,2.297092041015625,0.7636144282504915,-0.6601417788162827,-2.2450562238276004,-1.138890266418457,0.1506265252828598,-0.3058290183544159
1783203509850029300,2.307029296875,1.328085463555157,-0.655799657958746,-1.6212655690699815,-1.10527241230011,0.3804198503494262,-0.1561246514320373
1783203509859966200,2.31696630859375,1.862193509300053,-0.7227648237287998,-1.2529004587113857,-1.141485333442688,0.4378397464752197,0.0149562740698456
1783203509869902300,2.32690234375,2.311542081648111,-0.7132575751930474,-1.1487918494611975,-1.1166115999221802,0.3065443336963653,0.4093965888023376
1783203509879839200,2.336839111328125,2.672857273495197,-0.5562590872764587,-1.5339707319766285,-1.0748828649520874,0.1618326902389526,0.538041353225708
1783203509889776000,2.346776123046875,2.3984539107732474,-0.3960308236584067,-2.008084035485983,-0.719996452331543,-0.2453298866748809,0.4946866035461426
1783203509899713300,2.35671337890625,1.6000398256897923,-0.2617313665449619,-2.7983570458203557,-0.3487747013568878,-0.3630253672599792,0.5399446487426758
1783203509909650400,2.366650390625,1.6378486012108624,0.3655471303284168,-3.530909688591957,-0.1203696057200431,-0.2791817486286163,0.6381670832633972
1783203509919587300,2.37658740234375,1.282145257896185,0.4880576577097177,-3.554676933148503,-0.0182253941893577,-0.2412769943475723,0.496597945690155
1783203509929524200,2.386524169921875,0.2528014795057475,0.3208209766343236,-3.641282034412026,0.0151844397187232,-0.1868702918291092,0.3022062480449676
1783203509939461000,2.396461181640625,0.0838061181947588,0.1647960099250078,-3.243274649983644,0.1354253590106964,-0.1759697049856186,0.2064435184001922
1783203509949398300,2.406398193359375,0.2164445102281868,-0.1316328682526946,-3.112233610144257,0.2336845099925995,-0.1412735879421234,0.1700571477413177
1783203509959335400,2.41633544921875,0.4946690386734902,-0.5063432559847831,-3.109278267470002,0.3111220300197601,-0.2334783524274826,0.1862912476062774
1783203509969272300,2.426272216796875,0.8304831479087471,-0.7866364073976874,-3.283267053154111,0.4877384006977081,-0.5346841216087341,0.2845896184444427
1783203509979209200,2.436209228515625,1.58838372855708,-0.9367430899739264,-3.864744168317318,0.7544084191322327,-0.9493750333786012,0.4750551581382751
1783203509989146000,2.44614599609375,2.4186337983623147,-1.061174940806627,-4.325803928986192,1.1311153173446655,-1.4056320190429688,0.6981680393218994
1783203509999083300,2.456083251953125,2.883823498442769,-0.7027572239667177,-4.278348350328207,1.4931129217147827,-1.6229944229125977,0.9165720343589784
1783203510009020400,2.4660205078125,3.1956700182437894,-0.1512365633890032,-3.5184108570247887,1.820697784423828,-1.56995689868927,1.0316829681396484
1783203510018957300,2.475957275390625,2.9196584896728397,0.017180267381668,-2.7724574654102323,2.184227228164673,-1.3906835317611694,1.036410570144653
1783203510028894200,2.485894287109375,2.2767475393816827,0.3633770928129554,-1.9707436081290244,2.527913808822632,-1.163888692855835,1.0192854404449463
1783203510038831400,2.495831298828125,1.8302821212545035,0.7848825494676828,-1.1840028635740278,2.812509536743164,-0.951140284538269,1.0189296007156372
1783203510048768300,2.505768310546875,1.4171123851381242,1.2673708826124668,-0.4385118287742137,3.0045952796936035,-0.7976301908493042,1.0601933002471924
1783203510058705400,2.515705322265625,1.0228130614474416,1.6629147995367646,0.196858789139986,3.1062047481536865,-0.6267210245132446,1.104289412498474
1783203510068642300,2.525642333984375,0.8216858012080193,2.116597601696849,1.0728864213883875,3.0976967811584477,-0.4240047931671142,1.136173129081726
1783203510078579200,2.5355791015625,0.6078548344790935,2.53881412923038,2.1452479421198367,3.002032995223999,-0.2304273545742035,1.1734544038772583
1783203510088516400,2.545516357421875,0.2850204721957445,2.7291017232865094,3.0970828027635813,2.81062126159668,0.0038443598896265,1.2050020694732666
1783203510098453200,2.555453369140625,-0.1320239133968949,3.0429373710781333,3.9232928033977754,2.496566772460937,0.3730019032955169,1.3061840534210205
1783203510108390400,2.565390380859375,-0.0160926182754337,3.658811261361837,4.91787141174674,2.1343178749084477,0.6651360988616943,1.560731053352356
1783203510118327300,2.575327392578125,0.75351827391088,3.442967201244831,5.44798132776618,1.7492780685424805,0.7723709344863892,1.775736927986145
1783203510128264200,2.58526416015625,0.4232524464525282,3.5087709220200773,5.5412996629327536,1.436951756477356,0.8229154944419861,1.8971120119094849
1783203510138201300,2.595201416015625,-0.8269400684744119,3.5978543960958715,5.482711280363798,1.120093584060669,0.8462956547737122,1.8791391849517824
1783203510148138200,2.60513818359375,-2.160480874826014,3.256763077110052,5.229371894589066,0.8703349232673645,0.916853666305542,1.6803700923919678
1783203510158075400,2.615075439453125,-3.291079188209772,3.4184710578918454,5.023534849223494,0.739091694355011,0.8047915697097778,1.1126662492752075
1783203510168012300,2.62501220703125,-5.665995133137702,3.972466876411438,4.162113834476471,0.5644838213920593,0.8881446123123169,0.4169278442859649
1783203510177949200,2.63494921875,-6.96514413280487,3.953728273671865,4.368587424179911,0.402225136756897,0.9117647409439088,-0.3227595686912536
1783203510187886300,2.64488623046875,-6.823986772620677,3.755949447077513,4.47571450446844,0.0731570571660995,1.2072651386260986,-0.8564112186431885
1783203510197823200,2.6548232421875,-6.121783090883493,4.3242222127527,4.741248185905814,-0.3626138269901275,1.376761555671692,-1.2373523712158203
1783203510207760400,2.664760498046875,-4.5578494745805855,4.886940266910195,5.1105064457118505,-0.8691216707229614,1.3234456777572632,-1.5312429666519165
1783203510217697300,2.674697265625,-3.7719533641561855,4.678860995575786,4.979665312358737,-1.3380696773529053,1.2684085369110107,-1.838154435157776
1783203510227634200,2.68463427734375,-3.3764714065521955,4.170654868328571,4.604114089888334,-1.670314073562622,1.2811216115951538,-2.136793851852417
1783203510237571300,2.6945712890625,-2.961087355387211,3.4287487062782045,3.751429339304566,-1.88901948928833,1.4077306985855105,-2.374322891235352
1783203510247508200,2.70450830078125,-2.185136592654884,3.1397645911484955,3.320976898345351,-1.9738075733184812,1.4818739891052246,-2.5334205627441406
1783203510257445400,2.7144453125,-1.4061857713237405,2.668107448619604,2.6585464240700003,-2.0421464443206787,1.5626533031463623,-2.632999897003174
1783203510267381500,2.724381591796875,-0.5005684719756245,1.9835615886479612,2.039969704568386,-2.137367486953736,1.6444590091705322,-2.6594934463500977
1783203510277318400,2.734318359375,0.4392155931293964,1.3046674708276986,1.5602946752786635,-2.2643346786499023,1.689641356468201,-2.610398292541504
1783203510287255300,2.74425537109375,1.315105278211832,0.5465791125223041,1.11704529658854,-2.453997135162353,1.6678690910339355,-2.5420217514038086
1783203510297192400,2.7541923828125,1.985190358893573,0.0106365448266267,0.7269388945430517,-2.731566429138184,1.5347051620483398,-2.498884916305542
1783203510307129300,2.76412939453125,2.3007091374665496,-0.5677051949203014,0.333701793256402,-3.1406290531158447,1.3121280670166016,-2.6492600440979004
1783203510317066500,2.77406640625,2.365661940500885,-0.6603074907720089,-0.1415963361233472,-3.5006260871887207,0.9460392594337464,-2.597339391708374
1783203510327003400,2.78400341796875,2.347196455614269,-1.3868477413862943,-0.5003261876523495,-3.590956926345825,0.8929546475410461,-2.335803508758545
1783203510336940300,2.793940185546875,2.735276320268213,-1.8425366226717828,-1.2779682644724846,-3.4684202671051025,1.0339453220367432,-2.2031784057617188
1783203510346877400,2.80387744140625,2.667523511251807,-1.559833487507701,-2.54979904910326,-3.3003454208374023,1.0211327075958252,-2.125645160675049
1783203510356814300,2.813814453125,2.571122992160916,-1.2136200032025577,-3.4990503229945897,-2.960212230682373,1.0189406871795654,-1.9622002840042116
1783203510366751500,2.82375146484375,2.7830285437852145,-1.0407910550780597,-4.013500897589326,-2.6283397674560547,1.0689983367919922,-1.8469094038009644
1783203510376688400,2.8336884765625,2.942887681829929,-1.1340645281895994,-4.628544182267785,-2.30448579788208,0.9766188859939576,-1.7331777811050415
1783203510386625300,2.843625244140625,3.151442461721599,-1.4882321863695978,-5.372649315667152,-1.92775559425354,0.7028474807739258,-1.5227034091949463
1783203510396562400,2.8535625,3.413486839738488,-1.6572636419072746,-6.189915546867251,-1.56091046333313,0.3171623945236206,-1.319880485534668
1783203510406499300,2.863499267578125,3.4691602116435765,-1.522007030199468,-6.620448067325353,-1.2010118961334229,-0.0525236576795578,-1.0717957019805908
1783203510416436500,2.8734365234375,3.4692160334840416,-1.605660295920074,-6.622787323927879,-0.7939727306365967,-0.2437703013420105,-0.7922877073287964
1783203510426374400,2.88337451171875,3.3921620198979974,-1.682584253385663,-6.208544844013452,-0.3245399296283722,-0.1757110506296157,-0.4793247878551483
1783203510436311600,2.8933115234375,3.135928958508372,-1.6623445984333751,-5.572112734347582,0.152179479598999,0.0104739926755428,-0.2133514285087585
1783203510446248200,2.903248291015625,2.688895092843473,-1.4380363690927624,-4.830658992239832,0.5502381324768066,0.1858658790588379,-0.0389279350638389
1783203510456185300,2.913185302734375,2.187843513526022,-1.1930832649998366,-4.154296438723803,0.8710899353027344,0.2974829375743866,0.1254820525646209
1783203510466122500,2.92312255859375,1.9133663549155,-1.1429179889917374,-3.714762281164527,1.098416090011597,0.3046992719173431,0.3136679828166961
1783203510476059400,2.933059326171875,1.7672642318055032,-1.0494587840497491,-3.42336759776175,1.2338273525238037,0.1651829332113266,0.4852314889431
1783203510485996500,2.94299658203125,1.6146373831018803,-0.8498926356472074,-3.169713739210367,1.3240283727645874,-0.062938779592514,0.6491212248802185
1783203510495933200,2.95293310546875,1.416163852241635,-0.6019127310790121,-2.810947647324204,1.3465222120285034,-0.275362879037857,0.7332451343536377
1783203510505870300,2.962870361328125,1.1888587791725993,-0.1953590521015226,-2.1983815664142368,1.323901891708374,-0.4752703607082367,0.7264871597290039
1783203510515807500,2.972807373046875,0.8030088655278086,0.2104299261137843,-1.4328361701011656,1.2759729623794556,-0.5970878601074219,0.694725513458252
1783203510525744400,2.982744384765625,0.4463558202728628,0.3740948861822485,-0.6995481987923383,1.1736676692962646,-0.6377087831497192,0.6550443768501282
1783203510535681500,2.992681640625,0.2605694831587374,0.385907927442342,-0.050340194183588,1.0781028270721436,-0.6959196329116821,0.6286018490791321
1783203510545618200,3.0026181640625,0.106749186886847,0.2952449290901422,0.2442068157702684,0.9489076137542723,-0.7418535351753235,0.637552797794342
1783203510555555300,3.012555419921875,0.111572076998651,0.1707689468547701,0.4757657468914985,0.8205184936523438,-0.7868545651435852,0.6394414901733398
1783203510565492500,3.022492431640625,0.0083703534603118,0.1830368922755122,0.7567763989239931,0.7341106534004211,-0.8452281951904297,0.6386634111404419
1783203510575429400,3.032429443359375,-0.0466512765377759,0.3664937635287642,0.9047522069513796,0.6895056366920471,-0.8149826526641846,0.6283984780311584
1783203510585366500,3.042366455078125,-0.1332625152811408,0.5329623828411102,1.0261550653517246,0.650024950504303,-0.7662245035171509,0.618669867515564
1783203510595303400,3.052303466796875,-0.2354939324826002,0.4990621590659022,1.1383254005044698,0.579269289970398,-0.762702465057373,0.5996240377426147
1783203510605240300,3.062240234375,-0.7235409226678311,0.7397162507906556,1.294284608501196,0.5058543682098389,-0.7353219389915466,0.4990623593330383
1783203510615177500,3.072177490234375,-1.291890845232457,0.9839616450056432,1.4211971702337265,0.4215627014636993,-0.7656511068344116,0.3853507041931152
1783203510625114400,3.0821142578125,-1.3622019604295492,0.7463271933630108,1.1999275779366492,0.3284119665622711,-0.7062011361122131,0.2957302033901214
1783203510635051500,3.092051513671875,-1.1491853788234292,0.6763862266525625,1.317027770707011,0.2316268235445022,-0.6241944432258606,0.2751833796501159
1783203510644988400,3.101988525390625,-1.1758943759202956,0.7658046317711472,1.4777555082798004,0.1177969872951507,-0.4069905877113342,0.3245973587036133
1783203510654925300,3.11192529296875,-1.0722050149954854,0.680011139151454,1.7932208030998706,0.1142949312925338,-0.3227116465568542,0.5437864065170288
1783203510664862500,3.121862548828125,-0.1012006128489971,0.2926911529541015,1.2960142087727784,0.024229060858488,0.0889933705329895,0.8068820834159851
1783203510674800400,3.13180029296875,1.4223350882224737,-0.4240995648011565,0.468522936156392,-0.0834119170904159,0.2198347449302673,0.9758854508399964
1783203510684737500,3.141737548828125,1.6407400848686695,-1.138651563718915,-0.6574181990712881,-0.2029286026954651,0.0917727798223495,1.0986794233322144
1783203510694674400,3.15167431640625,1.7667584742404518,-0.9006593846797942,-1.591250954556465,-0.1902604848146438,-0.0290471129119396,1.152110934257507
1783203510704611300,3.161611328125,1.6038614298045637,-0.3641413551837206,-2.4754443576037883,-0.1115870401263237,-0.2347669601440429,1.2151565551757812
1783203510714548200,3.17154833984375,1.1761951124325394,-0.3249202286466956,-3.550236320352554,0.0079113934189081,-0.1959599107503891,1.1797631978988647
1783203510724485400,3.1814853515625,0.9640577248137444,-0.1041004259437322,-3.527368654984236,0.1074609234929084,-0.109470397233963,1.0607866048812866
1783203510734422500,3.191422607421875,0.9458420499697328,0.2580111769780516,-3.674406889900565,0.299134224653244,-0.4204671680927276,0.9297236800193788
1783203510744359400,3.201359375,0.9080538788452744,0.3498118010580539,-5.068830034977197,0.5024711489677429,-1.0948615074157717,0.8674955368041992
1783203510754296300,3.21129638671875,0.8982612374968826,0.5307727638423443,-5.931026710271835,0.5703802108764648,-1.8103327751159668,0.9722371101379396
1783203510764233500,3.2212333984375,0.7360277715362608,0.8818389488756656,-5.437509618112444,0.6880287528038025,-2.1234097480773926,1.001192927360535
1783203510774170400,3.23117041015625,0.5957430660007521,0.9391177101507784,-4.0165807434260845,0.8743466734886169,-2.1913557052612305,0.910969853401184
1783203510784107500,3.241107421875,0.2628320212632417,0.9237059137463568,-2.754461205470562,1.092941164970398,-2.21474027633667,0.747575044631958
1783203510794044400,3.25104443359375,0.2230833637207746,1.343120535601675,-1.7491759096682071,1.2701648473739624,-2.159741878509521,0.5524750351905823
1783203510803981300,3.260981201171875,0.5375529255017638,1.8633578769043089,-0.6056359893858433,1.4782851934432983,-2.1144561767578125,0.3113068640232086
1783203510813918500,3.27091845703125,0.2514037415370345,2.0994389616250992,0.187841369947791,1.731669306755066,-2.091027975082397,0.0181988291442394
1783203510823855400,3.28085546875,-0.0854962632387876,2.3665710181698203,0.8659002059876918,1.424694299697876,-2.107125997543335,-0.3821046650409698
1783203510833792500,3.29079248046875,-0.0950860754914581,2.5061218199402093,2.0150614732831715,1.6050443649291992,-2.1825270652771,-0.2529631853103637
1783203510843730400,3.30073046875,0.3137095371939242,2.180539620253444,2.7221044117450712,1.5442290306091309,-1.9661877155303955,-0.4078701436519623
1783203510853667600,3.31066748046875,-0.3492740409195423,2.6948095775842664,3.731082132324576,1.0756844282150269,-2.027269124984741,-0.6660409569740295
1783203510863604200,3.320604248046875,-0.760958433848992,2.898803040909767,4.557157692924141,0.8476086258888245,-2.207383871078491,-0.7483111023902893
1783203510873541400,3.330541259765625,-0.3706888771310448,3.0133214004933837,4.181202565827966,0.7910710573196411,-2.212965965270996,-0.8461170196533203
1783203510883478500,3.340478515625,-0.3575723520569503,2.9569898569405075,4.5241690310359,0.8607543110847473,-2.1898717880249023,-0.9854892492294312
1783203510893415400,3.35041552734375,-1.3102427867420017,3.1252561733245847,4.84463198801279,0.9650782942771912,-1.9593582153320312,-1.1783101558685305
1783203510903352600,3.3603525390625,-2.069919291021675,3.5304794804811475,5.169734879750013,0.8401975631713867,-1.6313984394073486,-1.5032837390899658
1783203510913289200,3.370289306640625,-2.4326465416237717,3.75871423561573,5.950049975171685,0.6618666648864746,-1.2850042581558228,-1.7739711999893188
1783203510923226400,3.380226318359375,-2.252358801925927,3.6715102916762232,6.593077245318889,0.5573896169662476,-0.7650500535964966,-1.929474949836731
1783203510933163500,3.39016357421875,-1.4865459868483244,3.340104208141565,7.140589547038078,0.1648383289575576,-0.3022899031639099,-1.8657766580581665
1783203510943100400,3.400100341796875,-0.5870049386739731,2.354832941842079,7.616327821400761,-0.346047580242157,0.1856520026922226,-1.7559430599212646
1783203510953037600,3.41003759765625,0.5786623500034213,1.498629369482398,7.815469753041863,-0.946919083595276,0.5452418327331543,-1.5213289260864258
1783203510962974200,3.41997412109375,1.5864285028360785,0.6696475660473108,7.307176532033085,-1.4537546634674072,0.7240046262741089,-1.1430937051773071
1783203510972912400,3.429912353515625,2.0279666936941445,0.0982952467963099,6.379408775675296,-1.91517174243927,0.9925183653831482,-0.7963799238204956
1783203510982849300,3.439849365234375,2.001225401762873,-0.080659636862576,5.636661486625672,-2.419102668762207,1.2399662733078003,-0.6105652451515198
1783203510992786400,3.449786376953125,1.4293673249468206,-0.0441045146644115,4.908849316379428,-2.8581387996673584,1.3738524913787842,-0.4798873960971832
1783203511002723300,3.459723388671875,1.018505281250924,-0.0008247603863477,3.9048634127378463,-3.1904873847961426,1.464529275894165,-0.4149146974086761
1783203511012660500,3.469660400390625,0.6184158298514782,0.0238069920450448,2.420608021044731,-3.520843982696533,1.2853180170059204,-0.5147219896316528
1783203511022597400,3.479597412109375,0.1985151780448854,-0.2654085937529802,0.6223924783974886,-3.7446985244750977,1.209054470062256,-0.6182817220687866
1783203511032534300,3.4895341796875,0.4852567018795758,-0.0541065609797835,-1.217930852138996,-3.7550225257873535,1.1688250303268433,-0.8002949357032776
1783203511042471400,3.499471435546875,0.167149295052886,0.2501645551308989,-3.589901975786686,-3.513782262802124,1.069778561592102,-1.1234301328659058
1783203511052408600,3.50940869140625,-0.4056090185385197,0.1255474108591675,-6.0614621854335065,-3.474747657775879,0.7330460548400879,-1.3991076946258545
1783203511062345500,3.519345458984375,-0.3403610319498926,-0.2852875986993313,-7.513238618326187,-3.130481719970703,0.35273477435112,-1.3560951948165894
1783203511072282400,3.529282470703125,0.4570081471905112,-1.1456181878611444,-8.599400700873137,-2.5349433422088623,0.184997946023941,-1.1346317529678345
1783203511082220300,3.53922021484375,1.1764734179172665,-1.5370179907180368,-9.415942709451912,-1.904306411743164,0.1350203454494476,-0.9624089002609252
1783203511092157400,3.549157470703125,1.4681313553661106,-1.3943142778746782,-9.428028284043071,-1.267202615737915,-0.0053535499610006,-0.8418906927108765
1783203511102094300,3.55909423828125,1.4299782964520156,-1.1967941022165118,-9.31835561092496,-0.6518363952636719,-0.1435701251029968,-0.7392980456352234
1783203511112031500,3.569031494140625,1.3902470284357666,-0.905447495739162,-8.835756803143024,0.0233164690434932,-0.2416250556707382,-0.6117268204689026
1783203511121968400,3.578968505859375,1.3068670266985891,-0.7437149650380015,-8.285005081111192,0.620881199836731,-0.2976413667201996,-0.5004425644874573
1783203511131905300,3.5889052734375,1.1048177562434225,-0.53841319559291,-7.329805712470412,1.1666496992111206,-0.383796751499176,-0.3804870843887329
1783203511141842400,3.598842529296875,0.9198140208743512,-0.3398424879685044,-6.100724520763754,1.5523204803466797,-0.4416336417198181,-0.256073385477066
1783203511151779300,3.608779296875,0.7766145604033022,-0.1548667365849018,-4.711299622365832,1.850880742073059,-0.4619855284690857,-0.1802129745483398
1783203511161716500,3.618716552734375,0.6381267847545444,0.0740298434592783,-3.2666923504501577,2.0143280029296875,-0.4721189141273498,-0.1453364789485931
1783203511171653600,3.628653564453125,0.4858342825718224,0.2412235621757805,-1.9541694899469613,2.1021015644073486,-0.5129331350326538,-0.097638189792633
1783203511181591600,3.638591552734375,0.4872595661345869,0.3989123704440891,-0.7045610585182904,2.035184383392334,-0.5346428155899048,-0.0574702098965644
1783203511191528400,3.648528564453125,0.5767948756311089,0.573590161305666,0.6154962891429663,1.8078762292861936,-0.5974891781806946,-0.0695353969931602
1783203511201465300,3.65846533203125,0.5545048640202731,0.6503080748051404,1.8444260896801947,1.6672765016555786,-0.6140998005867004,-0.0227075740694999
1783203511211402500,3.668402587890625,0.5788304000467062,0.4903945762246847,2.712108502909541,1.4100401401519775,-0.4567373096942901,-0.0026624947786331
1783203511221339400,3.67833935546875,0.6240635534148663,0.4901908703461289,3.569636601871252,1.0498344898223877,-0.3941896259784698,-0.0260805953294038
1783203511231276500,3.688276611328125,0.4697551448324695,0.4079948176965117,4.405420486536622,0.7189947366714478,-0.3367854654788971,-0.0066674826666712
1783203511241213400,3.69821337890625,0.2376318943593651,0.2397846154138445,4.780869417676329,0.4276292026042938,-0.1374108344316482,0.0350106172263622
1783203511251150300,3.708150390625,-0.0266362971868365,0.0945671661838889,5.120293095710873,0.1977651119232177,0.1293979585170745,0.0484606437385082
1783203511261087500,3.71808740234375,-0.3531692947924137,0.0130687404096126,5.142867915612459,0.0094387885183095,0.3729939758777618,0.011168984696269
1783203511271026200,3.728026123046875,-0.6811982300441711,-0.0264405554190278,4.83758323854506,-0.162338301539421,0.5091872811317444,-0.0624373257160186
1783203511280963000,3.737963134765625,-0.8553764008205383,-0.1107020161658525,4.265895111468434,-0.3316432535648346,0.4962247908115387,-0.1169777736067771
1783203511290900000,3.74789990234375,-0.6434874350048602,-0.1720975651100277,3.649638943868875,-0.5285011529922485,0.3927093148231506,-0.1280269622802734
1783203511300837000,3.757837158203125,-0.1092545207712799,-0.1808651011943817,3.189865715879202,-0.7191837430000305,0.2549990117549896,-0.1106120944023132
1783203511310774000,3.76777392578125,0.4658190474925562,-0.2415580548271536,2.756137029728293,-0.8603179454803467,0.2051203995943069,-0.0606823489069938
1783203511320711200,3.777711181640625,0.8131268663730472,-0.4912541156634688,2.218552247783541,-0.9390211701393129,0.2509093582630157,0.0111706294119358
1783203511330648000,3.78764794921875,0.9111156775686888,-0.6418553037583827,1.7497510792076587,-0.9880638122558594,0.36932572722435,0.0764332562685012
1783203511340585000,3.7975849609375,0.8220844451367855,-0.6383244992837309,1.322807523152232,-1.035141944885254,0.5457800030708313,0.0930610224604606
1783203511350522000,3.807522216796875,0.5753378086905926,-0.6122720663994551,0.8647241479456425,-1.0690546035766602,0.6929574608802795,0.0732902437448501
1783203511360460000,3.8174599609375,0.4081072650950402,-0.6685676618561148,0.2112923881620168,-1.0993623733520508,0.787992537021637,0.0621837265789508
1783203511370397200,3.827397216796875,0.5026538999475538,-0.750779642727226,-0.7812479923576117,-1.1653395891189575,0.8684687614440918,0.0297530870884656
1783203511380334000,3.837333984375,0.6140762662772089,-0.7157314179606735,-1.85609197755456,-1.152282476425171,0.6458218693733215,0.0672017484903335
1783203511390271000,3.84727099609375,0.6553220305096358,-0.8565819041527807,-3.315346198982,-1.1092181205749512,0.3864693939685821,0.1356164813041687
1783203511400208000,3.857207763671875,0.8554166597656905,-0.7397440155804157,-4.342707132992148,-1.004713773727417,0.1201695874333381,0.181761160492897
1783203511410145000,3.86714501953125,0.9539392125118524,-0.62937430010885,-5.028012286898494,-0.8319848775863647,-0.1278772354125976,0.221962109208107
1783203511420082200,3.877082275390625,1.012675990575552,-0.5649633488662541,-5.436667906591296,-0.5972512364387512,-0.3886810541152954,0.2663918137550354
1783203511430019000,3.88701904296875,1.075474757381156,-0.4710319963678717,-5.6613353246331215,-0.3428746461868286,-0.6391540169715881,0.3205831348896026
1783203511439957200,3.896957275390625,1.204484583653882,-0.3891502703644335,-5.464444971311092,-0.0551154278218746,-0.8122044801712036,0.4063835740089416
1783203511449894000,3.906893798828125,1.3037920031674206,-0.3824373287223279,-4.970825587821007,0.1875134706497192,-0.8059865236282349,0.498153418302536
1783203511459831000,3.9168310546875,1.4450212595440446,-0.435559847100824,-4.326572575271129,0.4121832847595215,-0.7877256274223328,0.5989720821380615
1783203511469768000,3.926767822265625,1.532538653346896,-0.4584253205120563,-3.845622119218111,0.6525705456733704,-0.7624751329421997,0.7174921035766602
1783203511479705000,3.936705078125,1.5477818151861429,-0.27289237363711,-3.6002865916788576,0.934158980846405,-0.7645857930183411,0.8089324831962585
1783203511489642200,3.946642333984375,1.355217800630629,0.0738895582057535,-3.4394542246878146,1.263213276863098,-0.8143916726112366,0.873385488986969
1783203511499579000,3.956578857421875,0.9711313895270228,0.3900736688196659,-3.259481688418984,1.58064067363739,-0.861701250076294,0.9189081192016602
1783203511509516000,3.96651611328125,0.5942535215627401,0.7094662200860679,-2.8656776008993385,1.852373480796814,-0.9324957728385924,0.9261931777000428
1783203511519454000,3.976453857421875,0.3011369828034192,0.9869228328987956,-2.266888116407394,2.030099391937256,-1.0571364164352417,0.9096552729606628
1783203511529391000,3.98639111328125,-0.0187887254916131,1.286216452857852,-1.1540379334211348,2.0441622734069824,-0.9090363383293152,0.832976758480072
1783203511539328000,3.996327880859375,-0.5207878878574818,1.4572162858590485,0.480544797861576,1.989037036895752,-0.6945422291755676,0.6974796652793884
1783203511549265200,4.00626513671875,-1.142361012696102,1.543822263905406,1.6515180839926002,1.9173098802566528,-0.4809574782848358,0.5383952260017395
1783203511559202000,4.0162021484375,-1.3388342365846038,1.5838056069865822,2.340024664288759,1.8271589279174805,-0.2536898255348205,0.4067200124263763
1783203511569139000,4.026138916015625,-1.180130332989618,1.7180059876397251,3.0303391707897185,1.7259145975112915,0.0228831768035888,0.3373217582702636
1783203511579076000,4.036076171875,-0.837578805258125,1.689630080243945,3.70966525028646,1.620144963264465,0.3492942154407501,0.3524106740951538
1783203511589014000,4.046013916015625,-0.3859896143764257,1.437408884844184,4.18624874330163,1.5049312114715576,0.6599266529083252,0.4637108147144317
1783203511598951200,4.055951171875,0.0291705649048089,1.098311370024085,4.571201415845752,1.341555118560791,0.8201535940170288,0.6225599646568298
1783203511608888000,4.06588818359375,0.1088808651532977,0.8401572774440049,4.645135251584649,1.1083130836486816,0.8274967074394226,0.7739270925521851
1783203511618825000,4.075824951171875,-0.0235237911894917,0.7965934455275535,4.463028625896573,0.8145106434822083,0.6668910384178162,0.8625155091285706
1783203511628762000,4.08576220703125,-0.2281349480219185,1.070172193993628,4.366671361425519,0.4972756803035736,0.4733913242816925,0.8647493720054626
1783203511638699000,4.095698974609375,-0.5269301900047808,1.4892027849674223,4.637720006892085,0.2046515196561813,0.5277831554412842,0.7854969501495361
1783203511648637200,4.10563720703125,-0.7240374009478837,1.722474949747324,5.062741070452332,-0.0519328713417053,0.5886081457138062,0.6811662912368774
1783203511658574000,4.115573974609375,-1.5189970347285269,1.95897396761924,5.495636228388547,-0.2938696444034576,0.7531826496124268,0.5006780028343201
1783203511668511000,4.125510986328125,-2.1806831203773616,2.137905178141594,5.967578033077716,-0.4665710926055908,0.8633136749267578,0.1727033108472824
1783203511678447900,4.13544775390625,-3.122497522266209,1.9930092159509656,5.636095669436455,-0.6355285048484802,1.007168531417847,-0.2386296987533569
1783203511688385000,4.145385009765625,-3.5013872415095566,1.7988927112564443,5.231171637487411,-0.8130362033843994,1.1653236150741575,-0.5618088245391846
1783203511698322200,4.155322265625,-2.7886630425408483,1.7309312279254196,4.816355741599202,-1.0221805572509766,1.2575314044952393,-0.699529767036438
1783203511708259000,4.165259033203125,-1.622896677403152,1.5004711979568004,4.372385647419095,-1.2689721584320068,1.269355058670044,-0.7301753163337708
1783203511718197000,4.175197021484375,-0.8325922490172087,1.1093749080911277,3.886694718840718,-1.5312001705169678,1.2457740306854248,-0.721092939376831
1783203511728134000,4.1851337890625,-0.3028321693487465,0.8094733853667974,3.316634485226869,-1.7759050130844116,1.1559019088745115,-0.7095544934272766
1783203511738071000,4.195071044921875,0.2216302423030137,0.7787707885891199,2.4732114839851853,-2.0341503620147705,1.058478832244873,-0.7249637842178345
1783203511748008000,4.205008056640625,0.5281773405216634,1.0474445216178894,1.779979044210911,-2.273247003555298,0.9979848861694336,-0.7626366019248962
1783203511757945000,4.214945068359375,0.4504882439024746,1.109270278672874,0.889117415446043,-2.42947769165039,0.9384357929229736,-0.8337567448616028
1783203511767882000,4.224882080078125,0.2684347001085058,0.926225495351851,-0.3618874387770891,-2.544605255126953,0.9140657782554626,-0.918313443660736
1783203511777820200,4.234820068359375,0.280996258180961,0.87534505681172,-1.5007003305375577,-2.60586929321289,0.8396490812301636,-0.9666340947151184
1783203511787756800,4.2447568359375,0.3808960906296968,0.6827057850629091,-2.681731484824419,-2.617785930633545,0.7451558113098145,-0.9538378715515136
1783203511797694000,4.25469384765625,0.6688111882884055,0.3583282849907875,-3.684569387474656,-2.5978267192840576,0.6646016836166382,-0.8926416039466858
1783203511807631000,4.264631103515625,0.9748461722664534,0.1361494688943028,-4.416922123759985,-2.514368295669556,0.4975317716598511,-0.8021058440208435
1783203511817568000,4.274568115234375,1.029208826899156,0.0429126745313405,-5.261532288959622,-2.3432037830352783,0.2353266030550003,-0.7215062379837036
1783203511827505200,4.284505126953125,0.9176105194807052,-0.0915579744305461,-6.310632176569104,-2.0580053329467773,-0.0203813351690769,-0.6711730360984802
1783203511837443000,4.294443115234375,0.8055632992509753,-0.1653125811450183,-7.139865908938646,-1.6360455751419067,-0.2419904768466949,-0.6282984614372253
1783203511847380000,4.3043798828125,0.6657389412362128,-0.2014141874220222,-7.531289823323488,-1.087252497673035,-0.388015866279602,-0.5704852342605591
1783203511857316900,4.31431689453125,0.652838250869885,-0.2522336895551532,-7.494666604325175,-0.4959008693695068,-0.4273598492145538,-0.5034999251365662
1783203511867254000,4.32425390625,0.7160002980299294,-0.2677684547521173,-6.9669017901271575,0.0538368299603462,-0.4204670488834381,-0.4663519859313965
1783203511877191200,4.334191162109375,0.6917522842191159,-0.2787977982886135,-5.983994330349565,0.5679880380630493,-0.3433289527893066,-0.4208576083183288
1783203511887128000,4.344128173828125,0.6425990347977727,-0.3216141728386282,-4.931593647629023,1.0502498149871826,-0.2122766524553299,-0.3455546200275421
1783203511897066200,4.354066162109375,0.7064239297807217,-0.3572588291283696,-3.922643399578333,1.4711427688598633,-0.0563050396740436,-0.2507849633693695
1783203511907003000,4.3640029296875,0.8344740441758185,-0.3093750881861895,-2.935470683571696,1.7893729209899902,0.0672826841473579,-0.149847149848938
1783203511916940000,4.37393994140625,0.951760918624699,-0.2872793570384383,-1.9768992081493135,1.996616244316101,0.1436862647533416,-0.0341605171561241
1783203511926877000,4.383876953125,1.0494477511990814,-0.2929071337923407,-1.0670394489258528,2.0761966705322266,0.1584337949752807,0.0894655510783195
1783203511936814000,4.39381396484375,1.0254070965286344,-0.2303289509348571,-0.2443225511044263,2.014507293701172,0.0974525511264801,0.1812374591827392
1783203511946752000,4.403751953125,0.8814695310413837,-0.0525027790449559,0.5974187806606293,1.820156693458557,-0.0170814860612154,0.2164998352527618
1783203511956689200,4.413689208984375,0.6205678202535957,0.1349202193602919,1.4384148470163345,1.5249738693237305,-0.148889735341072,0.2012378126382827
1783203511966626000,4.4236259765625,0.3144515146676451,0.1837304274976253,2.248285122746229,1.1692339181900024,-0.260502278804779,0.1643863171339035
1783203511976563000,4.43356298828125,0.0124346802897751,0.1399532450914382,2.9090304204136133,0.7964740991592407,-0.3122663497924804,0.114008717238903
1783203511986500000,4.4435,-0.2278478747088462,0.0583745936878025,3.4448873556524515,0.4481550455093384,-0.270906388759613,0.0560695119202137
1783203511996437000,4.45343701171875,-0.3691178284220397,-0.078195877097547,3.775671800157427,0.1692533493041992,-0.1984164714813232,0.0175338387489318
1783203512006375200,4.463375244140625,-0.4639964717078954,-0.1624247507490217,3.849619664421677,-0.0844601467251777,-0.1509402990341186,-0.0231866929680109
1783203512016312000,4.47331201171875,-0.6290655994858593,0.0406771705642342,3.881324131718278,-0.2874645292758941,-0.0238379389047622,-0.0817146003246307
1783203512026249000,4.4832490234375,-0.4930028590269386,-0.0186813195943832,3.70196300534606,-0.4305825531482696,0.0787736624479293,-0.1083001345396041
1783203512036185900,4.493185791015625,-0.3247242676831782,-0.1198529986098408,3.256272663244605,-0.5419305562973022,0.1402366161346435,-0.1054717972874641
1783203512046123000,4.503123046875,-0.1356608085945248,-0.063862377449125,2.7588199852019546,-0.6245449781417847,0.1833891570568084,-0.1086121946573257
1783203512056061000,4.51306103515625,0.0302263575680553,-0.0631949995815753,2.2452263196974998,-0.6770684719085693,0.2165124863386154,-0.1209192499518394
1783203512065998000,4.522998046875,-0.0016314736593514,-0.1115956040047109,1.6120190172970297,-0.694352924823761,0.2497505992650985,-0.1522902250289917
1783203512075935200,4.532935302734375,-0.0576039015762507,-0.1791261485725641,0.8753940105199813,-0.6998871564865112,0.328723281621933,-0.1936912387609481
1783203512085871900,4.542871826171875,-0.0674769146844744,-0.1628723483860492,0.2004553523272275,-0.7046440839767456,0.4316576719284057,-0.2288465648889541
1783203512095809000,4.55280908203125,-0.0077502488005906,-0.132224258274585,-0.5504758276998997,-0.6910192370414734,0.4603026509284973,-0.2586225569248199
1783203512105746000,4.562745849609375,0.1480520881339907,-0.2221601113960147,-1.6728858661919832,-0.6649737358093262,0.4545486271381378,-0.2566960155963897
1783203512115684000,4.57268408203125,0.4386579592466354,-0.3961946359179913,-2.7308137879014014,-0.6221957206726074,0.499063491821289,-0.2049332112073898
1783203512125621000,4.58262109375,0.9240108149770648,-0.6433242072671651,-3.673368194502592,-0.5033556222915649,0.5567198395729065,-0.0898271203041076
1783203512135558100,4.59255810546875,1.5385734034664929,-0.9290405527725816,-5.217037898194789,-0.276665061712265,0.4640580415725708,0.0783098116517067
1783203512145495000,4.6024951171875,2.1647335638344285,-1.0220675037771465,-7.320382635086775,0.0405954383313655,0.2336535900831222,0.2594393789768219
1783203512155432000,4.612431884765625,2.800014165377617,-0.8131324923962354,-9.43429961939752,0.4631795585155487,-0.2025259137153625,0.4442929327487945
1783203512165370000,4.6223701171875,3.08270648688674,-0.3639849955782294,-11.213028371286391,0.9977635741233826,-0.7404330968856812,0.6032373309135437
1783203512175307000,4.63230712890625,2.7901690631896257,0.1375121355496346,-12.221934195673464,1.6314746141433716,-1.18799090385437,0.7091503143310547
1783203512185244200,4.642244140625,2.1913307711198926,0.6752721279308199,-12.058003862667084,2.29658842086792,-1.5014303922653198,0.7356799244880676
1783203512195181000,4.65218115234375,1.4621119489461183,1.1387170301705598,-10.953474933302402,2.929114818572998,-1.6628226041793823,0.7020422220230103
1783203512205118000,4.662117919921875,0.9464078671589492,1.71957279856503,-9.154859577682611,3.5296616554260254,-1.6021312475204468,0.6840245723724365
1783203512215056000,4.672055908203125,0.7928934219658375,2.1715116796672342,-7.01057609668076,4.061321258544922,-1.3723348379135132,0.7296873927116394
1783203512224993000,4.681992919921875,0.9599430560365318,2.4841578254133463,-4.809995558917522,4.459460258483887,-1.0133745670318604,0.8504918813705444
1783203512234930000,4.691929931640625,1.3460158186517654,2.812325949940085,-2.5241478904962538,4.666728019714356,-0.555712103843689,1.01644766330719
1783203512244867000,4.7018671875,1.6814958736270664,3.020944734978676,-0.0807522835820913,4.662845134735107,-0.0644411966204643,1.1922954320907593
1783203512254805000,4.711804931640625,1.7772108946718277,3.200122905999422,2.2344103266507385,4.473223686218262,0.5439896583557129,1.3183722496032717
1783203512264742100,4.7217421875,1.642696041242033,3.171810419228673,4.0562633499950165,4.233586311340332,1.1444803476333618,1.4415055513381958
1783203512274679300,4.73167919921875,1.379478527792543,2.8450679435908794,4.808177695840597,3.8725016117095943,1.3255836963653564,1.5950261354446411
1783203512284616400,4.741616455078125,0.7434890473276377,3.4554560959398746,5.039891525262594,3.420797109603882,1.173790693283081,1.685922145843506
1783203512294553600,4.7515537109375,0.1171872865319252,3.776463242796064,5.256954313519596,2.90963077545166,0.6923677325248718,1.6589831113815308
1783203512304491500,4.761491455078125,-0.6152271168127655,3.765490013360977,5.287393290925025,2.289023399353028,0.2525570392608642,1.657490611076355
1783203512314428400,4.771428466796875,-0.7241399114742875,3.3900171168237923,6.212373462390899,1.738052487373352,-0.0024702381342649,1.6736394166946411
1783203512324365300,4.781365234375,-0.258347825053893,2.9130729738026857,6.692773883345723,1.2492722272872925,-0.3518580794334411,1.684401512145996
1783203512334302500,4.791302490234375,-1.1643711113870143,2.752582552117109,5.988228022396564,0.8282941579818726,-0.5218391418457031,1.661549687385559
1783203512344239400,4.8012392578125,-1.3656313503563404,2.224371747717261,5.309046904328465,0.5037882328033447,-0.4017095267772674,1.5608962774276731
1783203512354177500,4.811177490234375,-1.716396798877418,2.966031826052069,6.265957168540358,0.1919621974229812,-0.0637964978814125,1.474395990371704
1783203512364114400,4.821114501953125,-1.715909892143309,3.533554650142789,6.8978311765104525,-0.1150454059243202,0.2551620602607727,1.3680362701416016
1783203512374051300,4.83105126953125,-2.0680930985078216,3.7408033158719536,6.9202306398451325,-0.4575694501399994,0.5259198546409607,1.1997514963150024
1783203512383988500,4.840988525390625,-2.507372112262249,3.587597205975652,6.641235419288277,-0.8040030598640442,0.7293959856033325,1.0843524932861328
1783203512393925400,4.85092529296875,-2.605707691068947,2.6284745264112948,6.070528704464436,-1.0828765630722046,1.3262276649475098,0.9037320017814636
1783203512403863600,4.860863525390625,-2.7242116131573915,2.838846877118945,6.258312791267037,-1.3140238523483276,1.794904112815857,0.704137921333313
1783203512413800400,4.870800537109375,-3.372195921190083,3.508172956126928,5.854364326351881,-1.4003344774246216,2.186866521835327,0.361641526222229
1783203512423737600,4.880737548828125,-4.215508740055561,3.227306096479297,4.492163534966111,-1.6873681545257568,2.3169641494750977,0.0088462084531784
1783203512433674200,4.89067431640625,-3.976026906980574,3.038220863950252,4.243387511584163,-2.014345645904541,2.0560758113861084,-0.3240653574466705
1783203512443612400,4.9006123046875,-3.4522476552873846,3.56359732170701,3.296432239675521,-2.19442081451416,1.7124749422073364,-0.6981896758079529
1783203512453549300,4.91054931640625,-3.1084450315162537,3.5131337934046982,2.717834479340911,-2.194740056991577,1.4481751918792725,-1.0639410018920898
1783203512463486500,4.920486572265625,-2.829385513551533,2.715699805399775,2.543790164077282,-2.1601250171661377,1.1355725526809692,-1.3960469961166382
1783203512473423400,4.93042333984375,-2.688321384608745,1.97299051027298,2.1508651974797246,-2.1592085361480717,0.801774263381958,-1.650929570198059
1783203512483360500,4.940360595703125,-1.968299137586355,1.596064492318034,1.9333593416303396,-2.189133644104004,0.6003921627998352,-1.874560832977295
1783203512493298400,4.95029833984375,-1.1619869927294553,1.572449807974696,1.9788298839509488,-2.3320353031158447,0.2540079355239868,-2.1150786876678467
1783203512503235300,4.9602353515625,-0.4205528321050107,2.0739865404605866,1.9621219102561476,-2.5152928829193115,0.2174552530050277,-2.207909345626831
1783203512513172500,4.97017236328125,0.1822588936403393,2.244550027871132,2.275942945000529,-2.7118306159973145,0.3851692378520965,-2.1900174617767334
1783203512523109400,4.980109375,-0.0550230182375758,1.4367673720702527,3.226484258702397,-2.9086923599243164,0.6409672498703003,-2.2067017555236816
1783203512533047600,4.990047607421875,-0.1471962019570172,0.940289384278655,3.440564816278219,-3.104464530944824,0.9048633575439452,-2.2869467735290527
1783203512542984400,4.999984375,-0.4905043202094733,0.6783592802911996,3.290737242904305,-3.244184732437134,1.1614952087402344,-2.4543137550354004
1783203512552921600,5.009921630859375,-0.6118903736054897,0.4807487960010767,2.984067248958349,-3.3578200340271,1.4386966228485107,-2.633331537246704
1783203512562858200,5.019858154296875,-0.3572296760991215,0.275739141370356,2.510454880708456,-3.4525506496429443,1.6252797842025757,-2.77496337890625
1783203512572795400,5.02979541015625,0.1926417559668421,0.1622325891777873,1.5899755277931689,-3.53263258934021,1.6035184860229492,-2.8625729084014893
1783203512582733300,5.0397333984375,1.0659624673441053,0.0168408062942326,0.1501297711908817,-3.6649019718170166,1.292333960533142,-2.8614213466644287
1783203512592670500,5.04967041015625,1.7928711128793655,0.028880495917052,-1.4635674084514378,-3.692244291305542,1.179919958114624,-2.790177345275879
1783203512602607600,5.059607666015625,2.6773288659513,-0.1518251769319176,-3.4453760159522293,-3.581385374069214,0.6084686517715454,-2.710530996322632
1783203512612544500,5.06954443359375,2.8895629188776013,-0.7070309557631611,-6.345722194650769,-3.3429975509643555,0.0525379478931427,-2.5485918521881104
1783203512622482400,5.079482421875,3.970345646473765,-0.6387666170280426,-8.660282162815331,-3.001387357711792,-0.3548141121864319,-2.1657464504241943
1783203512632419300,5.08941943359375,5.561845607355236,-0.6613834494404495,-9.92130864483714,-2.5096065998077397,-0.777371346950531,-1.557273030281067
1783203512642356500,5.0993564453125,6.44365240752697,-0.596978197286278,-10.597183122575284,-1.8788483142852783,-1.0990452766418457,-0.947219967842102
1783203512652293400,5.10929345703125,6.134400580394268,-0.3667010496038943,-10.860033264017105,-1.1513376235961914,-1.266732096672058,-0.5908033847808838
1783203512662231600,5.1192314453125,4.40040645776689,-0.7046810316361487,-10.851120474243164,-0.4057605564594269,-1.141720414161682,-0.4316850900650024
1783203512672168400,5.12916845703125,2.616214764297008,-0.9207223678909242,-10.076378795039654,0.3816296458244324,-0.9049721360206604,-0.2927842140197754
1783203512682105600,5.139105712890625,1.9587113711602984,-0.5032052867526188,-9.203591167625785,1.1614329814910889,-0.6835625171661377,-0.1483266502618789
1783203512692042200,5.149042236328125,1.7955339023478327,-0.1780409836843609,-8.392406886687874,1.8360495567321775,-0.5675376653671265,-0.056504052132368
1783203512701980400,5.15898046875,1.4127446914479136,-0.0986837346572429,-7.324295424616336,2.3595478534698486,-0.4892241954803467,-0.0207364670932292
1783203512711917300,5.168917236328125,0.9726458857432008,-0.0026535101834684,-5.822751044470071,2.7445321083068848,-0.5745729207992554,-0.08415237814188
1783203512721854500,5.1788544921875,-0.0879747821815311,-0.0317657324971631,-4.4302211657941335,2.9714810848236084,-0.7453992366790771,-0.1626573055982589
1783203512731791600,5.18879150390625,-0.5483905458584427,0.1249060442157089,-2.792292046692967,2.9265918731689453,-1.5276724100112915,-0.0825665965676307
1783203512741729500,5.1987294921875,-0.0219954125784337,0.1866673577323555,-1.7216805844992398,2.7308566570281982,-2.0597493648529053,0.0159216281026601
1783203512751666400,5.20866650390625,0.8122649157814681,0.2695113528966903,0.1599608448535203,2.3216116428375244,-2.2651729583740234,-0.0742599293589592
1783203512761603300,5.218603271484375,0.6634997109420597,-0.5020481891393661,3.2258249180108307,1.808661937713623,-1.9207358360290527,-0.1566245704889297
1783203512771540500,5.22854052734375,0.5341719047613441,-1.0722120292581616,5.563743549931049,1.2788575887680054,-1.4311199188232422,-0.1627590358257293
1783203512781478400,5.238478515625,1.1409272535659372,-0.7736600214466453,6.8051552309006444,0.7409411668777466,-1.008360743522644,-0.1447968184947967
1783203512791415600,5.24841552734375,1.1895457385234534,-0.1185851706311106,6.950456851282715,0.2211873680353164,-0.6241781711578369,-0.0676186233758926
1783203512801352400,5.2583525390625,1.2172032685168086,0.4604147407636046,6.814472509822249,-0.1887905597686767,-0.7908028364181519,0.0387578792870044
1783203512811289600,5.26828955078125,1.097394401309639,1.0665218547925353,5.10894226513505,-0.4483011364936828,-0.7225058674812317,0.134860560297966
1783203512821227500,5.2782275390625,1.211026771838963,1.7271898494400082,3.2503374279767274,-0.6467231512069702,-0.6033152937889099,0.3153232932090759
1783203512831164400,5.288164306640625,1.3116986846387386,2.0232395190417765,4.0290947725623845,-0.7720186114311218,-0.9096225500106812,0.3915126025676727
1783203512841101300,5.298101318359375,0.4500050634954124,1.3480220439076422,3.162548085364699,-0.9031057953834534,-0.9809023141860962,0.3191933929920196
1783203512851038500,5.30803857421875,-0.5660257904659957,0.2726270006991922,3.077636928537488,-0.9785151481628418,-0.900196373462677,0.2073378711938858
1783203512860976400,5.317976318359375,-0.9897234964679926,0.3062481152720749,2.527934423297644,-0.9361189603805542,-0.809714674949646,0.1440294682979583
1783203512870913500,5.32791357421875,-1.0499969825796782,0.7012633321471512,1.6238246059030292,-0.829620897769928,-0.742449164390564,0.0024122924078255
1783203512880850400,5.337850341796875,-1.2658604780495166,0.7369600108850747,0.823420662176609,-0.7748731970787048,-0.6559070944786072,-0.3387237191200256
1783203512890787300,5.347787353515625,-1.876324472113699,0.2138451413847505,0.4973357736647129,-0.7876158952713013,-0.2566837668418884,-0.5901846289634705
1783203512900725200,5.357725341796875,-1.8855904592394828,0.0135559394046664,0.4745540330141782,-0.8026164174079895,0.0573681853711605,-0.7382707595825195
1783203512910662400,5.367662353515625,-1.4890592848435042,-0.0674569678749889,0.1090507418274879,-0.7817199230194092,0.2715602815151214,-0.8207024931907654
1783203512920599600,5.377599609375,-0.8787718894552439,-0.4006389019757509,-1.044077091011405,-0.7227721810340881,0.2446878999471664,-0.8337200284004211
1783203512930536400,5.387536376953125,0.0723056043494027,-0.4818718817468732,-2.609029821228981,-0.5943992733955383,0.0998062416911125,-0.6943434476852417
1783203512940474600,5.397474609375,1.2258568228326736,-0.5792414650656282,-4.373144356831908,-0.3635154366493225,-0.1202318519353866,-0.3798414170742035
1783203512950411500,5.40741162109375,2.647612357601523,-0.4628610379371792,-5.908374148958921,-0.0615149848163127,-0.285383015871048,0.062428094446659
1783203512960348400,5.417348388671875,3.492182190790772,-0.3277876007765531,-7.005960711839795,0.2969992160797119,-0.2754963040351867,0.5123752951622009
1783203512970285300,5.427285400390625,3.451262735903263,-0.2788121190749109,-7.66647979953587,0.6905934810638428,-0.4429638981819153,0.6766833662986755
1783203512980223500,5.437223388671875,1.8269737273588773,-0.5782222050204873,-8.359199029091,1.080657124519348,-0.5379871129989624,0.616796612739563
1783203512990160400,5.447160400390625,0.0983753628278151,-0.3817756499432027,-8.521523680466412,1.569549798965454,-0.6099686622619629,0.4838046729564667
1783203513000097500,5.45709765625,-0.6053062094422057,0.2938924915678799,-8.758699282425642,2.1032536029815674,-0.7189303040504456,0.2864143550395965
1783203513010034700,5.46703466796875,-1.0125742837667464,0.8267292022027075,-8.726374052882194,2.63884711265564,-0.8418927192687988,0.0746736228466034
1783203513019972600,5.47697265625,-1.127740220538899,1.2678373310804367,-8.080237126281856,3.1417274475097656,-0.9001808166503906,-0.1000760868191719
1783203513029909200,5.4869091796875,-1.0501907515861093,1.5716909524314104,-6.939865314641595,3.555903196334839,-0.8291376233100891,-0.2255663275718689
1783203513039846400,5.496846435546875,-0.8711062501981854,1.8378244994580744,-5.42362488514483,3.854506969451904,-0.759423553943634,-0.2753306925296783
1783203513049784300,5.506784423828125,-0.3930950624674558,2.0203747772604226,-3.768478089261055,4.022512435913086,-0.6001273989677429,-0.2491532415151596
1783203513059721500,5.516721435546875,0.4229528789840638,2.077692701502144,-1.7656565043479202,4.110711574554443,-0.3476304113864898,-0.1110004186630249
1783203513069658600,5.52665869140625,1.3462082724839448,2.0107830653116108,-0.0573527032941579,4.108259677886963,-0.0371132753789424,0.1149196103215217
1783203513079595500,5.536595458984375,2.0143132852643726,1.8002265902087091,1.3768810586452482,3.961189031600952,0.0224320795387029,0.3182857930660248
1783203513089533400,5.546533447265625,1.872800389640778,2.077672827757895,2.827981784233451,3.68440842628479,-0.1076759845018386,0.4357817471027374
1783203513099470300,5.55647021484375,1.097200997629389,2.253964921948313,3.188412009939551,3.21977162361145,-0.0214079469442367,0.4691626131534576
1783203513109407500,5.566407470703125,0.8940962267719209,3.0462983719438315,4.880378424176573,2.7476813793182373,-0.1220795586705207,0.4436508417129516
1783203513119344400,5.576344482421875,0.2934953089438378,3.3100340640485286,5.652579771247506,2.2669804096221924,-0.2428017258644104,0.3709582686424255
1783203513129282600,5.586282470703125,-0.2633637900523841,3.306657865613699,5.990466741234064,1.7623350620269775,-0.3703547716140747,0.2937524020671844
1783203513139219500,5.596219482421875,-0.6798628167219459,3.276211289423704,6.39956192138791,1.257759690284729,-0.5136943459510803,0.2258039563894271
1783203513149156400,5.60615625,-1.08632384897992,3.055754767075181,6.789510502523183,0.6807584166526794,-0.5261075496673584,0.1880806982517242
1783203513159094300,5.61609423828125,-1.1460703886080532,3.0767952170163397,7.502523163044453,0.1191155835986137,-0.606753408908844,0.1410676389932632
1783203513169031400,5.626031494140625,-1.181291339593008,2.854571100473404,7.970520614022016,-0.4328692257404327,-0.6454521417617798,0.0960768610239029
1783203513178968300,5.63596826171875,-1.1016476748399435,2.679433729276061,8.46705091652274,-0.9639935493469238,-0.5490987300872803,0.0549861527979373
1783203513188905500,5.645905517578125,-1.0531719593539834,2.669772751483321,9.1130563256979,-1.433371663093567,-0.3063573837280273,0.0179571136832237
1783203513198843400,5.655843505859375,-1.1258848749957977,2.692517667254805,9.521780918973684,-1.835503935813904,-0.004868125077337,-0.0501082241535186
1783203513208780500,5.665780517578125,-1.3515166080251335,2.7820056304782628,9.639883566784858,-2.1964681148529053,0.3392150402069092,-0.1624204367399215
1783203513218717400,5.675717529296875,-1.4473336281396447,2.972423865176737,9.62779331601858,-2.525739908218384,0.6854153871536255,-0.3104605078697204
1783203513228655400,5.6856552734375,-1.221092604105547,3.143966719013452,9.526946923434734,-2.831206560134888,1.064125657081604,-0.4609317481517792
1783203513238592500,5.695592529296875,-0.9584817513123154,3.2222149108201266,9.31385829950571,-3.098609447479248,1.503393054008484,-0.6279575228691101
1783203513248529400,5.705529296875,-1.00460162438713,3.2336665714219213,8.84781198259592,-3.2990896701812744,1.7789306640625,-0.8473306894302368
1783203513258466600,5.715466552734375,-1.233073183952272,3.4105504940256477,7.350879480159282,-3.3738629817962646,1.8693170547485352,-1.0709894895553589
1783203513268403700,5.72540380859375,-1.2304317295327782,3.425813237348198,4.558515537273884,-3.2625434398651123,1.8371055126190183,-1.2416270971298218
1783203513278340900,5.7353408203125,-0.4233681817866861,2.5931986303687093,1.9853613315463063,-3.094996690750122,1.5286221504211426,-1.4593061208724976
1783203513288277800,5.74527783203125,-0.1174397999882698,1.4531956520408391,-0.4215419892728329,-2.956684827804565,1.5960355997085571,-1.4527673721313477
1783203513298214700,5.755214599609375,0.8608893190231174,0.942150501975417,-1.7602789029628036,-2.673509120941162,1.4472442865371704,-1.2940994501113892
1783203513308152600,5.765152587890625,2.145345411144942,0.2312260459050536,-3.7883448192477225,-2.4770843982696533,1.4689522981643677,-1.0362776517868042
1783203513318089700,5.77508984375,2.609714004100859,-0.2650298235684633,-5.057987738445401,-2.410571336746216,1.5446717739105225,-0.838799238204956
1783203513328027000,5.78502685546875,2.5478061217203734,-0.033114918616414,-5.721183351874351,-2.338212013244629,1.459994196891785,-0.7158923745155334
1783203513337964800,5.79496484375,2.0746752533771096,-0.1682644166879355,-6.840863088619709,-2.199323892593384,1.3512094020843506,-0.6152302026748657
1783203513347901700,5.804901611328125,1.6362990336813032,-0.3916802272334694,-7.863399378952383,-2.012235403060913,1.143334150314331,-0.5442396998405457
1783203513357838800,5.8148388671875,1.4191077967390415,-0.4988846836071461,-8.613419289353489,-1.813487648963928,0.9538662433624268,-0.4772963523864746
1783203513367776800,5.82477685546875,1.175649753509462,-0.6215441910050808,-9.092809071961044,-1.5131226778030396,0.6248945593833923,-0.3994167745113373
1783203513377713700,5.834713623046875,0.8543113288722932,-1.0300777917534112,-9.63035176832974,-1.1552751064300537,0.1866903305053711,-0.3028087317943573
1783203513387650800,5.84465087890625,0.8084295754022895,-1.2375601201079784,-9.758815066635607,-0.7478100657463074,-0.2712964713573456,-0.2374176234006881
1783203513397587700,5.854587646484375,0.8835827968683093,-1.0561278865501285,-9.305788390296698,-0.2882938981056213,-0.6302059292793274,-0.2005205899477005
1783203513407526000,5.86452587890625,0.9086753717444837,-0.7928141461845487,-8.299961242702603,0.165515512228012,-0.756777822971344,-0.174327865242958
1783203513417462800,5.874462890625,0.8436969228122383,-0.5668246126934886,-6.6799290148198605,0.5798636674880981,-0.6818695068359375,-0.1483551263809204
1783203513427400000,5.88439990234375,0.6725877842176705,-0.4601896998360752,-4.870793434229493,0.9233664274215698,-0.469152957201004,-0.136481687426567
1783203513437337900,5.894337890625,0.51374147647731,-0.3822830880086869,-3.1643881602734325,1.1843757629394531,-0.2121022641658783,-0.1366710364818573
1783203513447274800,5.904274658203125,0.4294678138360381,-0.221500697639212,-1.6742805354207753,1.3547890186309814,-0.012526037171483,-0.121973268687725
1783203513457211600,5.914211669921875,0.5078444543279708,-0.0348084977265447,-0.5153530763924121,1.4316539764404297,0.0955785885453224,-0.0915285423398017
1783203513467148800,5.924148681640625,0.6711090899672358,0.1122381396919488,0.4394616768449544,1.4048196077346802,0.1357117444276809,-0.0585040152072906
1783203513477086700,5.934086669921875,0.7204919834259897,0.1755561811313033,1.3215163142979145,1.2833179235458374,0.1248596385121345,-0.0308249834924936
1783203513487023900,5.94402392578125,0.6253684985335916,0.1880281246915459,2.1161188782691958,1.0911933183670044,0.1024083346128463,-0.0142211075872182
1783203513496960800,5.953960693359375,0.4321777303818613,0.1255947571322321,2.804322091704607,0.8452801704406738,0.0909908264875412,-0.0094556463882327
1783203513506899000,5.96389892578125,0.1916700613904744,-0.0092776775635778,3.3156267694890498,0.5884507894515991,0.0968402922153472,0.0007719132117927
1783203513516835600,5.973835693359375,0.0173229637879878,-0.1396294199645519,3.683433076921105,0.3239794671535492,0.1305194348096847,0.0222796034067869
1783203513526772700,5.983772705078125,-0.0782654352024197,-0.1801338643103837,3.897491422665119,0.0624755248427391,0.16364286839962,0.038326121866703
1783203513536710700,5.993710693359375,-0.1187496404778212,-0.1645430580772459,3.895815013885498,-0.1935061812400818,0.1890805810689926,0.0313478410243988
1783203513546647800,6.003647705078125,-0.1632468807868659,-0.1173288869597017,3.752431209823489,-0.4559552669525146,0.1832224130630493,0.0226909276098012
1783203513556585000,6.0135849609375,-0.2094585968635976,-0.093053400620073,3.5190813036322592,-0.7235592603683472,0.1692456007003784,0.0174575485289096
1783203513566521900,6.02352197265625,-0.1981980018544942,-0.1044533310346305,3.1227871528625486,-0.9679438471794128,0.1850203424692154,-0.0083789741620421
1783203513576459800,6.033459716796875,-0.1564947761781513,-0.0910085969194769,2.6242975329875944,-1.1482086181640625,0.2095019817352295,-0.0520843788981437
1783203513586396700,6.043396728515625,-0.0428612366050481,-0.026463497903198,1.8958184232652189,-1.2715120315551758,0.2766008079051971,-0.1086044684052467
1783203513596333800,6.053333740234375,-0.0762219466760754,0.0342401232540607,1.1798556807667016,-1.3047935962677002,0.4141251146793365,-0.1634083241224289
1783203513606271700,6.063271728515625,-0.0824636906098574,-0.0811195094592869,0.3573912964016199,-1.2301706075668335,0.5430155992507935,-0.2050663828849792
1783203513616209000,6.073208984375,0.1874394380833953,-0.1925476479426026,-0.8700298531383276,-1.063066840171814,0.5656183958053589,-0.2106944322586059
1783203513626145800,6.083145751953125,0.7588916375122964,-0.217189702572301,-2.4442905099272725,-0.7983213067054749,0.4207014441490173,-0.1533933728933334
1783203513636084000,6.093083984375,1.333874568350613,-0.4611906935721636,-4.177021480751037,-0.5007069110870361,0.3122167885303497,-0.030177965760231
1783203513646020900,6.103020751953125,1.8377664856605231,-0.7638702296424656,-5.376759673595428,-0.2080161571502685,0.2456809431314468,0.1447819471359253
1783203513655957800,6.112957763671875,2.132719738327712,-1.0113432076018305,-6.02350333391726,0.0590373799204826,0.2057907879352569,0.3469776511192322
1783203513665895700,6.122895751953125,2.125036636479199,-1.2823627000391482,-6.770117819789052,0.3100424110889435,0.2124880701303482,0.5350353717803955
1783203513675832800,6.132832763671875,2.145002296795696,-1.3564716000840067,-7.484435133168101,0.5866012573242188,0.1522958278656005,0.6977063417434692
1783203513685769700,6.142769775390625,2.1775483294829723,-1.2435948702275752,-8.226005779653788,0.9275004267692566,-0.1010362803936004,0.8148736953735352
1783203513695708000,6.1527080078125,1.988517019098252,-1.1931706510223448,-9.130000446236131,1.3699359893798828,-0.5159144401550293,0.8788201808929443
1783203513705644800,6.162644775390625,1.793884235444665,-1.1083389891721307,-9.694998720285296,1.806145429611206,-0.8401769399642944,0.9472954869270324
1783203513715582000,6.17258203125,1.71986666694507,-0.5863026356235146,-9.262129281312228,2.2489724159240723,-1.1834509372711182,0.9875134825706482
1783203513725518600,6.1825185546875,1.6041948995426296,0.168576843637973,-8.166234324780106,2.6765270233154297,-1.3738194704055786,0.9951807260513306
1783203513735456800,6.192456787109375,1.422173321789503,0.6688336193159222,-6.705841454711556,3.058635234832764,-1.4310060739517212,0.9925868511199952
1783203513745393700,6.2023935546875,1.3428949101522565,1.1979817045658827,-5.079933612793684,3.3666932582855225,-1.4336212873458862,1.0217483043670654
1783203513755330800,6.212330810546875,1.406304137006402,1.7067419585645198,-3.505602813377976,3.582767963409424,-1.397033452987671,1.0715895891189575
1783203513765268700,6.222268798828125,1.5421853103533387,2.1332412779837844,-1.957503602805733,3.692637920379639,-1.2869714498519895,1.1586103439331057
1783203513775206000,6.232205810546875,1.6925705176100134,2.3821654776647687,-0.3309060250580311,3.70344352722168,-1.141722321510315,1.262048840522766
1783203513785142800,6.242142822265625,1.8038411274440584,2.619881470111012,1.3897452163934707,3.5724494457244877,-1.055031418800354,1.3505616188049316
1783203513795080700,6.252080810546875,1.4441159812673925,2.945610677053034,3.38787659766376,3.2626492977142334,-0.8000499606132507,1.3237886428833008
1783203513805017600,6.262017578125,0.3180433286145329,3.007835078036785,5.38384349437654,2.872004985809326,-0.4455642998218536,1.20914888381958
1783203513814954800,6.271954833984375,-0.5705842574879527,3.117111445313692,6.624435091134905,2.4794492721557617,-0.14003686606884,1.0924890041351318
1783203513824892700,6.281892578125,-0.9746119251191616,3.4072473608270286,7.118780450811982,2.079619646072388,-0.0195651706308126,0.986202359199524
1783203513834829800,6.291829833984375,-1.3059556109420951,3.585132277166843,7.15962742498517,1.6143215894699097,-0.0746670365333557,0.8628596663475037
1783203513844767000,6.30176708984375,-1.6212405807591974,3.676670743179321,7.274428108641505,1.081868290901184,-0.217720553278923,0.7247007489204407
1783203513854705000,6.311704833984375,-1.8696705671824516,3.6995723108172416,7.638444376140832,0.5210579633712769,-0.3500189185142517,0.5770303010940552
1783203513864641800,6.321641845703125,-1.9544957992918788,3.651006725090742,8.175333577036858,-0.0489557683467865,-0.4276365637779236,0.4426937997341156
1783203513874578700,6.33157861328125,-1.922745008635521,3.4959716462016104,8.781180578824877,-0.5965432524681091,-0.4171120226383209,0.3224536776542663
1783203513884516600,6.3415166015625,-1.997761817305535,3.3082880971640347,9.26523543063402,-1.0742329359054563,-0.2977668642997741,0.2227314859628677
1783203513894453800,6.351453857421875,-2.1662810855373738,3.156577486522496,9.498871168029307,-1.4648566246032717,-0.1059750765562057,0.1179539337754249
1783203513904391000,6.361390869140625,-2.3234724656775594,3.077737466302514,9.452458376422523,-1.766634464263916,0.1117778494954109,-0.0040481793694198
1783203513914328800,6.371328857421875,-2.430599107574672,3.1016365205451844,9.173668323048949,-1.9943891763687132,0.3074176609516144,-0.1438476145267486
1783203513924266000,6.381265869140625,-2.627299052891135,3.1435411870777603,8.628381296163797,-2.196885108947754,0.6088433861732483,-0.3312601745128631
1783203513934202600,6.39120263671875,-2.4234546426475045,3.461188502112031,8.706944545269012,-2.373080253601074,0.9308437705039978,-0.5373011827468872
1783203513944140800,6.401140869140625,-2.3744850061647598,3.576673368640244,8.41347013298273,-2.4837405681610107,1.2410645484924316,-0.7317308783531189
1783203513954077700,6.41107763671875,-2.2459379750981925,3.316742621776461,7.209272038120031,-2.5493764877319336,1.4214086532592771,-0.944731831550598
1783203513964014800,6.421014892578125,-1.9954805745005608,3.0143355459719894,5.59837413380742,-2.596888542175293,1.442516803741455,-1.188966989517212
1783203513973952800,6.430952880859375,-1.5620423957288263,3.0361534100264307,3.930338630256057,-2.6688239574432373,1.4146311283111572,-1.4250476360321045
1783203513983890000,6.440889892578125,-0.7218408407516778,2.938992720218003,2.506463765245676,-2.796978235244751,1.4490468502044678,-1.563589334487915
1783203513993826800,6.450826904296875,0.4136821426179259,2.408114157913625,1.3498188641965387,-2.989142894744873,1.5746955871582031,-1.576207160949707
1783203514003765000,6.460764892578125,1.707112545442581,1.7524205906778574,0.2055114666730165,-3.215935468673706,1.7168954610824585,-1.504852294921875
1783203514013701600,6.47070166015625,2.7448259466409684,1.2557758680172264,-1.1934452301800251,-3.4125490188598637,1.819116711616516,-1.3682411909103394
1783203514023638800,6.480638671875,3.266692058189213,0.9090938894174992,-2.918747512307763,-3.493274688720703,1.8177945613861084,-1.179457664489746
1783203514033576700,6.49057666015625,3.3521289924561977,0.5363911882460117,-5.191522933188081,-3.4257726669311523,1.619091272354126,-0.9693793058395386
1783203514043513900,6.500513916015625,3.033018034610152,0.0648837563861161,-7.885762601929903,-3.1377995014190674,1.173769235610962,-0.7376591563224792
1783203514053450800,6.51045068359375,2.4345881772108373,-0.4441698545359074,-10.559062943017482,-2.7187306880950928,0.5406383872032166,-0.5703468322753906
1783203514063389000,6.520388916015625,1.8034421912543477,-0.8369336392223834,-12.45387715767622,-2.233144998550415,-0.1497382074594497,-0.5225480198860168
1783203514073325800,6.530325927734375,1.2096613287046551,-0.961394570019096,-12.973662079036234,-1.661262273788452,-0.6357182264328003,-0.4884720742702484
1783203514083262700,6.5402626953125,0.8359552957095205,-0.8374147007375955,-12.296090149730444,-0.9897806644439696,-0.902153253555298,-0.4553298652172088
1783203514093200600,6.55020068359375,0.6501382711961865,-0.7707881192721426,-11.149203257107734,-0.3088032007217407,-0.896010160446167,-0.4333457350730896
1783203514103137800,6.5601376953125,0.4273986063465476,-0.8810556895434856,-9.426119820073248,0.3115464746952057,-0.6887359023094177,-0.4193827211856842
1783203514113074700,6.57007470703125,0.3008610884714871,-0.9096059305928648,-7.517219212394952,0.8186892867088318,-0.4254504442214966,-0.4004351198673248
1783203514123012900,6.580012939453125,0.356859016155824,-0.8001086140416562,-5.788826563036442,1.214411973953247,-0.2030973583459854,-0.3574564456939697
1783203514132949800,6.58994970703125,0.6331558644741774,-0.6268201586466282,-4.314697428560256,1.5013238191604614,-0.0945983082056045,-0.3043706119060516
1783203514142887000,6.599886962890625,0.963711760920286,-0.4378612924436107,-3.0296055958181616,1.6530265808105469,-0.0868481621146202,-0.2295984327793121
1783203514152824800,6.609824951171875,1.238111031989008,-0.2879565987128764,-1.7337889554440975,1.67310893535614,-0.1372090727090835,-0.1389700025320053
1783203514162761700,6.61976171875,1.3893299135908483,-0.2120966172169893,-0.3720961135804653,1.5714880228042605,-0.2047877758741378,-0.0535154901444911
1783203514172698600,6.62969873046875,1.3215198214292525,-0.1561122066013515,0.9712386492937802,1.3748137950897217,-0.2397228628396988,0.0210876371711492
1783203514182636800,6.63963671875,1.155090145887807,-0.0877357857938855,2.134978477039933,1.144514083862305,-0.2396890670061111,0.0798237845301628
1783203514192573700,6.64957373046875,0.9195070007517934,-0.079751289846003,2.9116034857720137,0.9117944836616516,-0.243300586938858,0.1376409977674484
1783203514202510800,6.6595107421875,0.6972136183649301,-0.0743421242788434,3.372586089551449,0.6760092973709106,-0.2265450209379196,0.1590244174003601
1783203514212448800,6.66944873046875,0.4509303616467863,0.0036016777537763,3.764827750059962,0.4338840544223785,-0.1398482024669647,0.1426023095846176
1783203514222386000,6.679385986328125,0.0806298262462019,0.0776888043582439,4.122257040384412,0.2095407843589782,0.0073728589341044,0.1088674291968345
1783203514232322800,6.68932275390625,-0.2567949330560863,0.1252902212277054,4.29378498891294,0.0152818178758025,0.216910108923912,0.0695602372288703
1783203514242260700,6.6992607421875,-0.5229140131659805,0.1106879876405,4.220350334867835,-0.1267292499542236,0.4392420649528503,0.0513002574443817
1783203514252197600,6.70919775390625,-0.6894000220045446,-0.0135562316656112,3.716973527473211,-0.236234962940216,0.6233586668968201,0.0445059984922409
1783203514262134800,6.719134765625,-0.6642947337772697,-0.1565817238092422,2.948382187592983,-0.2914081811904907,0.7849776148796082,0.0640060305595398
1783203514272072700,6.72907275390625,-0.4509519158914685,-0.3066366761982441,2.0877701511412856,-0.295352041721344,0.9199647307395936,0.1147578954696655
1783203514282009600,6.739009521484375,-0.0630117519691586,-0.5260279074028134,1.1250544155210256,-0.26253741979599,1.0592576265335083,0.2330711781978607
1783203514291947500,6.748947509765625,0.6710758452847599,-0.8489107850030064,0.2227384958058595,-0.1777314394712448,1.0923247337341309,0.4146835803985595
1783203514301884700,6.758884765625,1.521534298121184,-1.2441142179265618,-1.053948496684432,-0.0236645750701427,0.958767831325531,0.6175689697265625
1783203514311821800,6.76882177734375,2.0769540119640526,-1.2210713421218096,-2.738139016222953,0.2546597421169281,0.5395585894584656,0.7198535203933716
1783203514321759700,6.778759765625,2.1099322985887525,-0.9369783600345254,-4.612165878918766,0.4874496757984161,0.165660411119461,0.7715311050415039
1783203514331696600,6.788696533203125,1.8295136211000385,-0.207028593237698,-5.8323389570266,0.7341740131378174,-0.2354340106248855,0.7215193510055542
1783203514341633800,6.7986337890625,1.0710090832091868,0.236898538583517,-6.335282049179077,0.988295078277588,-0.5318698883056641,0.6111719012260437
1783203514351571700,6.80857177734375,0.2686366158887743,0.0424113008804619,-6.509208291020989,1.2196239233016968,-0.6107298135757446,0.5136756896972656
1783203514361508600,6.818508544921875,-0.1082844336301088,0.1397052616797387,-6.10601152125597,1.4435433149337769,-0.5300142168998718,0.4813891649246216
1783203514371445800,6.82844580078125,-0.022945114518702,0.135629682803899,-5.612659848791361,1.6785672903060913,-0.4147530794143677,0.5033082962036133
1783203514381383700,6.8383837890625,0.3230684633001685,-0.0623386750131845,-5.5004164484024045,1.9191772937774656,-0.3673029541969299,0.5758100152015686
1783203514391320800,6.84832080078125,0.8390721125558018,-0.0111924251437187,-5.511546914225816,2.110933780670166,-0.3924881815910339,0.6613733768463135
1783203514401257700,6.8582578125,1.4032337896503506,0.3100821404770016,-5.336148846265673,2.2671892642974854,-0.4741673469543457,0.752859890460968
1783203514411195600,6.868195556640625,1.554883171623945,0.529508735255897,-5.058835295185446,2.392085075378418,-0.5877754092216492,0.8335278034210205
1783203514421132800,6.8781328125,1.4260945868864654,0.6507274692609906,-4.704844747138023,2.4917454719543457,-0.6967267394065857,0.8858673572540283
1783203514431070700,6.88807080078125,1.215691621844843,0.8276771505773067,-4.244830111607909,2.57033920288086,-0.8284815549850464,0.9047377109527588
1783203514441007600,6.898007568359375,1.0550109382841737,1.0984665605857968,-3.7489036202192314,2.625981092453003,-0.9536009430885316,0.9018251299858092
1783203514450944800,6.90794482421875,1.0147501665011047,1.4545859373554586,-3.10642813873589,2.665982723236084,-1.0208734273910522,0.8741975426673889
1783203514460882700,6.917882568359375,0.8480867552690208,1.7823539566487072,-2.2944974233448505,2.687422275543213,-1.007986307144165,0.8231263160705566
1783203514470819600,6.927819580078125,0.6461125228114426,2.0662702669948336,-1.3736451454639431,2.690835237503052,-0.898914635181427,0.7773300409317017
1783203514480756700,6.9377568359375,0.4507062340347096,2.356100477559864,-0.4493798442691564,2.6887025833129883,-0.7006990909576416,0.7435190081596375
1783203514490694700,6.947694580078125,0.335165728329122,2.598407889449596,0.3570394142240286,2.698218822479248,-0.4225907623767853,0.7645114064216614
1783203514500631800,6.9576318359375,0.4550179962866008,2.736515214413404,0.8015794172465801,2.7062573432922363,-0.1695276647806167,0.8602094054222107
1783203514510568700,6.967568603515625,0.6321500484324991,2.628387432649732,0.6634393590569496,2.6956353187561035,-0.0877443850040435,0.9942617416381836
1783203514520506600,6.977506591796875,0.3130797148577868,2.4339760366618632,0.3461445107221603,2.632631063461304,-0.0701567083597183,1.0577778816223145
1783203514530443800,6.98744384765625,-0.3603349486380815,2.6344571079522368,0.4437012141108513,2.531888484954834,-0.1620506644248962,1.03124737739563
1783203514540381700,6.997381591796875,-1.1522148096472025,2.994786795893311,0.6170575471103191,2.379417896270752,-0.3571657240390777,0.9204139709472656
1783203514550318600,7.007318603515625,-1.8128148536249995,3.436000869363546,0.9886761063069104,2.120687246322632,-0.5873541831970215,0.7604604959487915
1783203514560255700,7.017255859375,-2.2776433191776277,3.853408535310626,1.8488421525567769,1.7586344480514526,-0.7454538941383362,0.5894802808761597
1783203514570193700,7.027193603515625,-2.508154494811594,3.985138141936064,3.261736189347505,1.336855173110962,-0.7925913333892822,0.4130666255950928
1783203514580130800,7.037130859375,-2.5481322849348187,3.977060049420595,4.5976077767342325,0.9187358617782592,-0.7272363305091858,0.2391780912876129
1783203514590067700,7.047067626953125,-2.5619883763298392,3.8646787018656727,5.573280024561286,0.536201536655426,-0.605869710445404,0.078910119831562
1783203514600005600,7.057005615234375,-2.4214167070791124,3.718866209352016,6.1637003246366975,0.171737253665924,-0.5096120238304138,-0.0705261901021003
1783203514609942800,7.06694287109375,-2.1539026654794813,3.5661850001126525,6.5972454709142445,-0.2186091989278793,-0.4427009224891662,-0.2115935683250427
1783203514619880700,7.076880615234375,-1.927713736958801,3.468808913987875,7.040511216217279,-0.6387186050415039,-0.4058710634708404,-0.3373352289199829
1783203514629817600,7.086817626953125,-1.7386251434288915,3.332956089952588,7.409452080637216,-1.0771870613098145,-0.3799944519996643,-0.4496037065982818
1783203514639754800,7.096754638671875,-1.6169437603481114,3.202303172647953,7.682952210909128,-1.4951578378677368,-0.326535165309906,-0.5554986000061035
1783203514649692700,7.106692626953125,-1.6194059126779436,3.120383598852157,7.935615304857492,-1.8559986352920528,-0.2529834508895874,-0.6598849296569824
1783203514659629600,7.116629638671875,-1.6701855211921035,3.0801012728244066,8.015113204464315,-2.145126819610596,-0.1567720621824264,-0.7520611882209778
1783203514669566700,7.126566650390625,-1.584831735163927,2.998946838182211,7.967794988450407,-2.373739957809448,-0.0505289770662784,-0.8242075443267822
1783203514679504600,7.136504638671875,-1.376858408422023,2.8198510847479104,7.949975838643312,-2.578559160232544,0.0669176056981086,-0.8854958415031433
1783203514689441800,7.14644189453125,-1.1634490281060337,2.605570620685816,8.051152486094832,-2.77333664894104,0.2062102556228637,-0.9564632177352904
1783203514699379700,7.156379638671875,-0.944032370199263,2.426807460206747,8.133622094988823,-2.9622600078582764,0.4232772588729858,-1.0122069120407104
1783203514709316600,7.166316650390625,-0.3476020160540938,2.237067270900309,8.037576380684971,-3.1274001598358154,0.6527607440948486,-1.0257550477981567
1783203514719253800,7.176253662109375,0.6145148768901825,1.9133961655318736,7.571115053233504,-3.2928590774536133,0.8706910014152527,-1.003095626831055
1783203514729191700,7.186191650390625,1.026626920647174,1.51480455147475,6.54154521100223,-3.4826879501342773,1.2036970853805542,-0.9657745957374572
1783203514739128600,7.196128662109375,1.3665584020733832,1.3022650858610867,5.514888041347265,-3.668509721755981,1.5924416780471802,-0.9444882273674012
1783203514749065700,7.206065673828125,1.7925721299327908,1.0860279347732662,4.107878970941901,-3.784622192382813,1.9931155443191528,-0.896742045879364
1783203514759003600,7.216003662109375,2.094809694389254,0.5791892964869737,1.94331725654304,-3.817739486694336,2.2148678302764893,-0.8425616025924683
1783203514768940800,7.22594091796875,2.232538687559962,0.2713134338825941,-0.9299123671710492,-3.788936138153076,2.1813082695007324,-0.8187170028686523
1783203514778878700,7.235878662109375,2.24707048625946,0.18674305331707,-3.894211670342088,-3.6923012733459473,1.8762906789779663,-0.8306246995925903
1783203514788815600,7.245815673828125,2.227002242351323,0.1067573701933026,-6.779992732593417,-3.5463008880615234,1.335002064704895,-0.8457106947898865
1783203514798752800,7.255752685546875,2.2541801721341908,0.0109700145646929,-9.146022775754332,-3.3291797637939453,0.7493676543235779,-0.8106079697608948
1783203514808690700,7.265690673828125,2.3155451798096296,-0.3392556279912591,-10.620820018750427,-3.0252914428710938,0.1834387630224228,-0.7083345651626587
1783203514818627600,7.275627685546875,2.268735497839749,-1.0654670850425958,-11.642550253397223,-2.577365636825561,-0.3409354090690613,-0.5860370397567749
1783203514828564700,7.285564697265625,1.9743829875446852,-1.4619389304667711,-12.46554889076948,-1.9857248067855835,-0.6883338093757629,-0.5118504166603088
1783203514838502700,7.295502685546875,1.548740138824284,-1.4362519698940217,-12.26067864460945,-1.2628759145736694,-0.82890385389328,-0.4764445424079895
1783203514848439800,7.305439697265625,0.9568851297706366,-1.4729066069439052,-11.579196263861656,-0.5231561660766602,-0.7298528552055359,-0.4643247425556183
1783203514858377700,7.315377685546875,0.5813366107139736,-1.2332064549431203,-10.192135171985626,0.1961440742015838,-0.5965784192085266,-0.4831967949867248
1783203514868314600,7.325314697265625,0.4652059205628931,-0.923912834495306,-8.80238118776381,0.8185884356498718,-0.4384681284427643,-0.5236627459526062
1783203514878251800,7.335251708984375,0.55558513353765,-0.7160135228376835,-7.308446113577484,1.3138552904129028,-0.3368929922580719,-0.5313702821731567
1783203514888189700,7.345189697265625,0.8313874032720923,-0.5792762441180646,-5.77073911768198,1.6630455255508425,-0.2909265458583832,-0.4892071485519409
1783203514898126600,7.355126708984375,1.284727967865765,-0.5155439227893949,-4.233650545945763,1.8769619464874268,-0.3029448986053467,-0.3767579197883606
1783203514908064500,7.365064453125,1.7062319632157683,-0.4667497890040278,-2.6862059998899697,1.9911917448043823,-0.3547098338603973,-0.2185147404670715
1783203514918001700,7.375001708984375,2.093997062832117,-0.233986304398626,-1.2772674227267502,2.004345655441284,-0.36832195520401,-0.0962643399834632
1783203514927938800,7.384938720703125,1.921152917138487,-0.3035432402275502,0.0899292772501707,1.9002480506896973,-0.3341203033924103,0.0224362071603536
1783203514937876700,7.394876708984375,1.6404025234773754,-0.3127804396502673,1.415578745830059,1.6901359558105469,-0.3297878205776214,0.133047804236412
1783203514947813600,7.404813720703125,1.3819038552433252,-0.1361801562935113,2.603804195535183,1.3885713815689087,-0.3158741295337677,0.20053231716156
1783203514957751800,7.414751708984375,0.9723513597760348,-0.0950043885573744,3.57782750711143,1.0247809886932373,-0.285959780216217,0.2354554533958435
1783203514967688700,7.424688720703125,0.4758860853355378,-0.1237486908741295,4.31424442409575,0.6366061568260193,-0.2265174835920334,0.2440042048692703
1783203514977625600,7.43462548828125,0.1022813938230276,-0.0801002494141459,4.836198506188392,0.268505334854126,-0.1428661197423935,0.2400906831026077
1783203514987563500,7.4445634765625,-0.1598172716643661,-0.0135806354545056,5.014114109927416,-0.0626334473490715,-0.0647042021155357,0.2054400295019149
1783203514997500700,7.454500732421875,-0.3744170308087021,0.0516175206430256,4.928933488509059,-0.3543361723423004,0.0042622052133083,0.1505103409290313
1783203515007438600,7.4644384765625,-0.5567653562981635,0.1010091819301247,4.747536472395062,-0.5854138135910034,0.09811332821846,0.0956050232052803
1783203515017375700,7.474375732421875,-0.5851559498064219,0.0240177121862769,4.5043438021034,-0.7734827995300293,0.2390113323926925,0.0366399697959423
1783203515027312600,7.484312744140625,-0.5040562410261482,-0.1044903020441532,4.186178600674867,-0.8998713493347168,0.38697150349617,-0.015319631434977
1783203515037250800,7.494250732421875,-0.4188695551931858,-0.2523921680524945,3.6418355766415593,-0.9767863750457764,0.5513697266578674,-0.0454546324908733
1783203515047187700,7.504187744140625,-0.0502181021738797,-0.468938092828542,2.80741245893538,-1.0314818620681765,0.6905433535575867,-0.0627268254756927
1783203515057126000,7.5141259765625,0.58360470177643,-0.7982023420289158,1.7195470796018837,-1.0905447006225586,0.7881147861480713,-0.0558210797607898
1783203515067062500,7.5240625,1.2560937017947436,-1.2024499360211194,0.3455231639534235,-1.1066818237304688,0.7927164435386658,0.0108245266601443
1783203515076999700,7.533999755859375,2.1223235781282184,-1.5028881959706544,-1.3166536766976118,-1.062688946723938,0.6879371404647827,0.1574889421463012
1783203515086937600,7.5439375,3.021479280246794,-1.945035166376829,-3.088548783174157,-0.9573532342910768,0.5694107413291931,0.4203628897666931
1783203515096874800,7.553874755859375,3.595802724263072,-2.419140286579728,-4.71917488578558,-0.793395459651947,0.4368221461772918,0.7502403855323792
1783203515106812700,7.563812744140625,3.689956925731897,-2.754123059557378,-6.531957298445701,-0.5708529353141785,0.2111552208662033,1.0373433828353882
1783203515116749800,7.573749755859375,3.4255367584943768,-2.7929125166788697,-8.137586906966567,-0.2676456272602081,-0.0964524373412132,1.2166428565979004
1783203515126686700,7.583686767578125,3.1836469874948263,-2.331395806022733,-9.501842292794583,0.152493342757225,-0.4998121857643127,1.3046818971633911
1783203515136625000,7.593625,2.876861258214712,-1.5223532132886348,-10.513432826220988,0.6781721711158752,-0.8733288645744324,1.3077740669250488
1783203515146561500,7.6035615234375,2.38454068236351,-0.7451308231852948,-10.882677642023562,1.295588731765747,-1.1468586921691897,1.2943549156188965
1783203515156499700,7.613499755859375,1.950004625352472,-0.1800740969471633,-10.608161612707375,1.944116711616516,-1.2869594097137451,1.3103083372116089
1783203515166436600,7.6234365234375,1.6100490323983132,0.2707199980340898,-9.644574939471482,2.579707622528076,-1.319466471672058,1.3130958080291748
1783203515176373800,7.633373779296875,1.296669750072062,0.7054856260173022,-8.348509877294301,3.1673452854156494,-1.2682805061340332,1.3068677186965942
1783203515186311700,7.643311767578125,1.1839066366579385,1.3134160099506378,-6.852880274149775,3.6706721782684326,-1.1818231344223022,1.3131635189056396
1783203515196248800,7.653248779296875,1.1639612154118717,2.027815740916133,-5.218752300897241,4.039074420928955,-1.051840901374817,1.3365520238876345
1783203515206186800,7.663186767578125,1.1157697236947717,2.6121134664580223,-3.372628759649396,4.221982002258301,-0.8462136387825012,1.3889610767364502
1783203515216123600,7.67312353515625,1.1243369149014353,3.021730624659359,-1.287747315686941,4.202254772186279,-0.6651999950408936,1.4729489088058472
1783203515226060500,7.683060546875,1.143943678777665,3.3046129157826303,0.605580459806323,3.999290227890015,-0.5800707340240479,1.558793306350708
1783203515235998700,7.692998779296875,1.060260017918795,3.585127016469836,2.102259279742837,3.617132425308228,-0.5654440522193909,1.593679666519165
1783203515245935600,7.702935546875,0.7442107857309281,3.924472660832107,3.4803199035614725,3.109309673309326,-0.5966117978096008,1.586352825164795
1783203515255873800,7.712873779296875,0.2965196252010763,4.204693916052579,4.683637123936414,2.521761417388916,-0.6658709645271301,1.5241936445236206
1783203515265810700,7.722810791015625,-0.227475607330352,4.375699302011728,5.595274414226412,1.9217610359191892,-0.7334182858467102,1.4217737913131714
1783203515275749600,7.73274951171875,-0.7343428871892392,4.499011793425679,6.2170402851581565,1.3660298585891724,-0.7668429613113403,1.2937421798706057
1783203515285686800,7.742686767578125,-1.2187142576016483,4.54932802221179,6.687591512271761,0.8867588639259338,-0.7490524649620056,1.1632970571517944
1783203515295623700,7.752623779296875,-1.549355640374124,4.56070281818509,7.056608364537358,0.5060189366340637,-0.6303254961967468,1.0674307346343994
1783203515305561900,7.762561767578125,-1.6309925978362558,4.44358275167048,7.463218742138147,0.2184380441904068,-0.4398759305477142,0.999090313911438
1783203515315498800,7.772498779296875,-1.6040787258170544,4.194635463374853,7.839119508698582,-0.0069773299619555,-0.1647790372371673,0.9714573621749878
1783203515325437000,7.78243701171875,-1.5083298025026917,4.067654512581229,8.147413888975978,-0.1715393811464309,-0.0221513081341981,1.031184196472168
1783203515335373800,7.792373779296875,-1.3217264499172567,3.713569856509566,8.058034062302113,-0.3412396311759949,0.1947643309831619,1.1005173921585083
1783203515345310700,7.802310791015625,-0.8015126356206834,3.5400802525192496,7.915673756068944,-0.5894403457641602,0.449188619852066,1.1517891883850098
1783203515355248600,7.81224853515625,-0.2323446746714413,3.819459503957629,8.876623066538572,-0.9063473343849182,0.6549703478813171,1.1691977977752686
1783203515365185800,7.822185791015625,-0.4619429732441902,3.995149832862616,9.18416692070961,-1.2451180219650269,0.8587671518325806,1.124578595161438
1783203515375123700,7.832123779296875,-1.0108908607244491,4.171912174913287,9.2654803453058,-1.6046000719070437,1.0706558227539062,1.0053409337997437
1783203515385060900,7.842060791015625,-1.6172002193272113,4.41756568236053,9.25190482441783,-1.969488501548767,1.2511759996414185,0.8114520907402039
1783203515394998800,7.851998779296875,-2.3299302635148167,4.664178390228748,9.137211108267309,-2.32974910736084,1.41853928565979,0.5364571809768677
1783203515404936000,7.86193603515625,-3.157318952539563,4.7251431465402245,8.893099569565058,-2.6513547897338867,1.7047979831695557,0.1843611598014831
1783203515414872800,7.871872802734375,-3.875825826562941,4.605303884194791,8.556811851468682,-2.87990665435791,2.05322265625,-0.2169714570045471
1783203515424811000,7.88181103515625,-4.476850522761047,4.401469995345175,7.702011716166138,-3.0181102752685547,2.3268113136291504,-0.6884545683860779
1783203515434747600,7.89174755859375,-4.648314758403599,4.23397378655076,6.313948169249296,-3.0972471237182617,2.4682505130767822,-1.220259189605713
1783203515444685800,7.901685791015625,-4.352259097452461,4.221075142011046,4.665045236191153,-3.162969827651977,2.5083119869232178,-1.72666597366333
1783203515454622700,7.911622802734375,-3.60127151106298,4.028571625471115,2.824640657112002,-3.304749011993408,2.4191761016845703,-2.121267080307007
1783203515464560600,7.921560546875,-2.0094985784590245,3.499411557522416,1.0648977607220411,-3.618143081665039,2.2133569717407227,-2.3406732082366943
1783203515474497800,7.931497802734375,0.2097403364144265,2.919201685816049,-0.3262999925673008,-4.107283592224121,1.8856927156448364,-2.331260204315185
1783203515484435000,7.94143505859375,2.683075885170698,2.221910326039791,-1.7461317196667194,-4.707129955291748,1.446201205253601,-2.1375436782836914
