time,seconds_elapsed,ax,ay,az,gx,gy,gz
1783203112698453800,0.097453857421875,-0.5440699792455882,-2.345406357327104,-2.315403433251381,0.3608948588371277,-0.1944943517446518,0.0625500231981277
1783203112708390400,0.107390380859375,-0.7148618685845285,-2.558877843093872,-2.9875410625487566,0.5756704807281494,-0.2188789546489715,0.0287650059908628
1783203112718327600,0.11732763671875,-0.8429124213710427,-2.6357284430623054,-3.7094957389384495,0.8312007784843445,-0.175992727279663,-0.0203705821186304
1783203112728263700,0.127263671875,-0.8958990384101867,-2.610042213141918,-4.305827308884263,1.1149699687957764,-0.1491711139678955,-0.0523496977984905
1783203112738200600,0.13720068359375,-0.9493924359276892,-2.5311045777663588,-4.853813073334098,1.411531925201416,-0.1748772710561752,-0.0627221763134002
1783203112748137500,0.147137451171875,-1.124467117152363,-2.435254386034608,-5.309665913009643,1.7203186750411987,-0.2163114249706268,-0.0859030187129974
1783203112758074600,0.15707470703125,-1.376350020508468,-2.309886861786991,-5.588858117443323,2.0380101203918457,-0.2735640704631805,-0.172455757856369
1783203112768011500,0.167011474609375,-1.5850196589514611,-2.07130329272598,-5.8632063889771695,2.326676607131958,-0.2286332845687866,-0.3053447604179382
1783203112777948700,0.17694873046875,-1.6719228663787244,-1.820351971131563,-5.899029982030392,2.5571329593658447,-0.2001832723617553,-0.4891020655632019
1783203112787885600,0.186885498046875,-1.8719465492904184,-1.330806997473538,-5.945343989437818,2.7534642219543457,-0.0255174301564693,-0.6844062805175781
1783203112797821400,0.196821533203125,-1.837275048881769,-0.8365268119871616,-5.71745410221815,2.9385790824890137,0.2017194479703903,-0.8339494466781616
1783203112807758600,0.206758544921875,-1.6586027815565465,-0.5377332505047321,-5.504494657626748,3.0936238765716557,0.4499144852161407,-0.922355890274048
1783203112817695700,0.21669580078125,-1.6020555494263766,-0.1225114041641354,-5.176670231971144,3.1748294830322266,0.7654966711997986,-0.9779805541038512
1783203112827632600,0.226632568359375,-1.7601865485042332,0.4652916991502046,-4.317129039621353,3.180121421813965,1.088314652442932,-1.0121387243270874
1783203112837569500,0.236569580078125,-1.97117118589133,1.0794082243725658,-3.1640655041903254,3.191427707672119,1.3495808839797974,-1.0544177293777466
1783203112847506400,0.24650634765625,-2.1678319682411846,1.7376660891383886,-2.1360504901856183,3.272700786590576,1.4281140565872192,-1.122424840927124
1783203112857442600,0.256442626953125,-2.314379204770177,2.3613398395180702,-1.296550215345621,3.361889362335205,1.2941181659698486,-1.2237133979797363
1783203112867380000,0.2663798828125,-2.4332893695719537,3.042225423416495,-0.486992074304819,3.425420999526977,1.1435174942016602,-1.3271360397338867
1783203112877316900,0.27631689453125,-2.102559723994136,3.4438638578236103,0.6327566360235214,3.4503014087677,1.0508954524993896,-1.4128049612045288
1783203112887254000,0.28625390625,-1.905247053606808,3.90073551915288,1.949878514754772,3.3811793327331543,0.8836160898208618,-1.4661723375320437
1783203112897191200,0.296191162109375,-1.762448794347793,4.474159091719985,2.721940161094069,3.2050445079803467,0.6898742914199829,-1.4896621704101562
1783203112907127800,0.3061279296875,-1.3809623366095125,4.821960721999407,3.2305601298391817,2.972018003463745,0.5485364198684692,-1.457905888557434
1783203112917065000,0.31606494140625,-0.7374079738482833,4.709982694548368,3.6133565011322495,2.740868330001831,0.4710784256458282,-1.3794044256210327
1783203112927001000,0.3260009765625,-0.2502610743079334,4.558778572124242,3.80039766061306,2.4747185707092285,0.6355719566345215,-1.2618730068206787
1783203112936938000,0.33593798828125,0.2453134618379175,4.743183537882566,4.348790252298117,2.0700361728668213,0.8739749193191528,-0.9453552961349488
1783203112946875000,0.345875,1.523190540895611,4.697817624980211,5.5924213628828525,1.5581063032150269,0.7044461965560913,-0.5882524251937866
1783203112956812000,0.35581201171875,1.8425763701602813,4.65910240213871,5.192261184334755,1.0499744415283203,0.4899437427520752,-0.3228513598442077
1783203112966749000,0.3657490234375,1.2470553859449922,4.862373396408557,5.4292853951245545,0.6080924868583679,0.4165413677692413,-0.1788889169692993
1783203112976686000,0.37568603515625,0.7200118717588484,4.922748662394285,6.219902104330062,0.221714437007904,0.5161960124969482,-0.1449716985225677
1783203112986622000,0.3856220703125,0.5788026352569461,4.77689700691402,6.695926209896802,-0.1517962366342544,0.6204378008842468,-0.1421242356300354
1783203112996558800,0.395558837890625,0.081227353747934,4.605102516403794,6.759857707059383,-0.541834831237793,0.737949550151825,-0.1818141192197799
1783203113006496000,0.40549609375,-0.5796173126406967,4.594165527325869,6.976009810212254,-0.9458633065223694,0.7432901859283447,-0.2417179644107818
1783203113016433000,0.415432861328125,-0.7943490276016294,4.627169386783242,7.134012506735324,-1.3571759462356567,0.6423750519752502,-0.3171610534191131
1783203113026370000,0.4253701171875,-1.0810650516688822,4.807970190569758,6.958481752306223,-1.7700066566467283,0.5122490525245667,-0.3893696665763855
1783203113036307000,0.435306884765625,-1.1412756286121903,4.879065588012337,7.276175829091668,-2.1713335514068604,0.2118996083736419,-0.4684040248394012
1783203113046243000,0.4452431640625,-1.1506021137535571,4.979301739743351,7.068449024456739,-2.562440872192383,-0.1519256681203842,-0.4939939677715301
1783203113056180000,0.455179931640625,-0.703130587323755,4.895474286499619,6.975280911415815,-2.944966077804565,-0.5661888718605042,-0.451566070318222
1783203113066117000,0.4651171875,0.0108279757454991,4.680073878496885,6.916843335494399,-3.3175621032714844,-1.0177907943725586,-0.3610165417194366
1783203113076053800,0.4750537109375,0.2676099031895398,4.627498472607136,6.694483609873056,-3.6823806762695312,-1.4855505228042605,-0.2273000329732895
1783203113085991000,0.484990966796875,0.3178821467034518,4.628173595389724,6.3307531735777856,-3.990910768508911,-1.9833546876907349,-0.0525488555431366
1783203113095928000,0.494927978515625,0.6612754590213299,4.413113379126787,5.631194453391433,-4.183474540710449,-2.479791641235352,0.1810061037540435
1783203113105865000,0.504864990234375,1.1029923674471676,4.032047484888136,4.4377439625144,-4.263158798217773,-2.8715739250183105,0.4503946900367737
1783203113115800800,0.51480078125,1.1086960589814931,3.476494792315364,3.2718133467257022,-4.265933990478516,-3.0252249240875244,0.6797828674316406
1783203113125738000,0.524738037109375,0.5404870061922818,3.0377433095663786,2.2063129439353943,-4.261927127838135,-2.994926929473877,0.8454558253288269
1783203113135675000,0.5346748046875,-0.2264742482680827,2.6782071100905536,1.234179976150393,-4.243473529815674,-2.756704092025757,0.9505963921546936
1783203113145612000,0.544612060546875,-1.037904685986787,2.1563041736632584,0.1841577129989862,-4.2264814376831055,-2.344655036926269,0.9608771800994872
1783203113155549000,0.554548828125,-1.6426497178822754,1.7858561195507645,-0.700900782445073,-4.197329044342041,-1.9705127477645876,0.8431025743484497
1783203113165485800,0.56448583984375,-1.8626123192340132,1.3006304703965783,-1.8917244319498536,-4.370621681213379,-1.7027782201766968,0.6447679996490479
1783203113175422000,0.574421875,-1.7424558076329528,0.7520489320106803,-3.174100575992465,-4.628254890441895,-1.4016684293746948,0.417310357093811
1783203113185359000,0.584359130859375,-1.4068471578419208,0.1960105017475783,-4.02569051707685,-4.466964244842529,-1.1735719442367554,0.1019314751029014
1783203113195296000,0.5942958984375,-1.2997045877233149,0.2396780862994492,-6.304389482787252,-4.116353511810303,-1.0437753200531006,-0.2026428133249282
1783203113205233000,0.60423291015625,-1.1538521285254508,-0.0826060947552323,-8.313481234011054,-3.783339500427246,-0.9467829465866088,-0.4213845729827881
1783203113215169800,0.614169677734375,-0.6626341070886701,-0.4730673746529966,-9.51343394638896,-3.46155047416687,-0.7956451177597046,-0.5134865641593933
1783203113225107000,0.62410693359375,-0.0574580633647739,-0.7801912498462945,-10.318197838890551,-2.9898040294647217,-0.5524709224700928,-0.4659814238548279
1783203113235044000,0.634044189453125,0.5545268566563725,-1.0781126316040754,-11.164377445363998,-2.4040255546569824,-0.2502937018871307,-0.3282075822353363
1783203113244980000,0.64397998046875,1.2070916243471204,-1.1774453316893427,-11.43299097263813,-1.8001877069473269,0.0948636531829834,-0.1248675286769867
1783203113254916900,0.653916748046875,1.6277201520368456,-1.1743493384353816,-11.142594652622938,-1.1643837690353394,0.3796501159667969,0.1090733259916305
1783203113264854000,0.66385400390625,2.0037404533237217,-1.4549924723297356,-10.48224741436243,-0.459951251745224,0.538219153881073,0.3006351888179779
1783203113274791000,0.673791015625,1.9973361392393707,-1.570485376033932,-9.712994980224966,0.2266614735126495,0.5742142200469971,0.4497860670089721
1783203113284728000,0.68372802734375,1.6654162609636782,-1.5559136837154626,-8.662045080834627,0.8187170624732971,0.5605380535125732,0.5773054361343384
1783203113294665000,0.6936650390625,1.1958915273535995,-1.5211889918148516,-7.292059626922011,1.2816660404205322,0.5211315155029297,0.6523226499557495
1783203113304601900,0.703601806640625,0.5966357405241578,-1.3937664347335696,-5.775797570115327,1.6170285940170288,0.4474073350429535,0.6903796195983887
1783203113314538000,0.7135380859375,0.0298667304754257,-1.131468666477501,-4.345627988874912,1.844391703605652,0.3514565825462341,0.6927493214607239
1783203113324475100,0.72347509765625,-0.3628577451139688,-0.9401911115359516,-3.0353210508555173,2.0006823539733887,0.2320662885904312,0.6663220524787903
1783203113334411800,0.733411865234375,-0.6832660492941737,-0.6827810422562063,-1.8690438135862348,2.0915603637695312,0.106533408164978,0.6170141100883484
1783203113344349000,0.743348876953125,-0.9858234933547676,-0.3399055067347362,-0.8071119169324636,2.126832962036133,0.0085926577448844,0.5462391972541809
1783203113354286000,0.7532861328125,-1.1838009112611412,-0.0025719693798571,0.1860597472280263,2.125378131866455,-0.0367833487689495,0.4510605037212372
1783203113364223000,0.763222900390625,-1.288284783564508,0.3367766706570982,1.0952905608981849,2.0562100410461426,-0.0530235767364501,0.3535791933536529
1783203113374160100,0.77316015625,-1.2540465600065889,0.6660345631819218,1.9771406156897544,1.890346646308899,-0.0412159189581871,0.2688888013362884
1783203113384096000,0.783095947265625,-1.1405413229882717,0.9830869079977274,2.8340093739598986,1.6215417385101318,-0.022348117083311,0.1907195448875427
1783203113394033000,0.793032958984375,-1.0646437859609723,1.267859981303662,3.608659283226728,1.2838950157165527,-0.0198026672005653,0.1246012449264526
1783203113403970000,0.802969970703125,-0.9848391584925352,1.4490607441931962,4.2252047891616815,0.9179868102073668,-0.0726091191172599,0.0693287178874015
1783203113413907000,0.812906982421875,-0.8609405377537012,1.53911934691146,4.574202935749292,0.5612473487854004,-0.1994397640228271,0.0260582026094198
1783203113423843800,0.82284375,-0.7131991230040788,1.5958112482093274,4.642826974642277,0.2116587162017822,-0.3430627286434173,-2.00022477656e-05
1783203113433781000,0.832781005859375,-0.5809394280899316,1.6423676860705017,4.584951708778739,-0.1573922932147979,-0.4193835854530334,-0.0174639727920293
1783203113443718000,0.8427177734375,-0.4815172961555421,1.5966308940291405,4.578046751695871,-0.5352815985679626,-0.4591474533081054,-0.04375621676445
1783203113453654000,0.852654052734375,-0.3935467517577111,1.5936723364844918,4.499530264341831,-0.9289135336875916,-0.531440794467926,-0.0391726493835449
1783203113463591000,0.8625908203125,-0.2431172669678926,1.5042214904010296,4.270866470140218,-1.3007135391235352,-0.6094868183135986,-0.0322592817246913
1783203113473527800,0.87252783203125,-0.0898975669376552,1.3136974572405218,3.934710269469023,-1.6398569345474243,-0.6792645454406738,-0.0466219745576381
1783203113483465000,0.88246484375,-0.1461846868269145,1.03555600396879,3.548223811486363,-1.9185165166854856,-0.7206463813781738,-0.1026708930730819
1783203113493402000,0.892402099609375,-0.4266722648333758,0.9795844528347252,2.9510534526288508,-2.135328769683838,-0.670722246170044,-0.1870275884866714
1783203113503339000,0.902339111328125,-0.6127003748141229,0.821512125141546,2.390986205241084,-2.292358875274658,-0.5993949770927429,-0.2728350758552551
1783203113513276000,0.91227587890625,-0.6597194617509842,0.6861727305211126,1.69236272007823,-2.3922901153564453,-0.525709331035614,-0.3445425629615783
1783203113523212800,0.922212890625,-0.6095600309617817,0.5646968799497932,0.865778625434637,-2.44581151008606,-0.4298057854175567,-0.3889018893241882
1783203113533149000,0.93214892578125,-0.436040177963674,0.3430794971283525,-0.0217015441983938,-2.442810297012329,-0.3111484050750732,-0.3745863437652588
1783203113543086000,0.942086181640625,-0.0014509294606745,0.0073417227986268,-1.2012135260939598,-2.367748498916626,-0.1651293486356735,-0.2817479074001312
1783203113553023000,0.95202294921875,0.5495598818987608,-0.7081883821699768,-2.5821856534451246,-2.204854249954224,-0.0317305363714695,-0.1786079555749893
1783203113562960000,0.9619599609375,0.8658388311892747,-1.3585516212284563,-4.115515164908767,-1.935257077217102,0.1184369847178459,-0.1123459711670875
1783203113572897000,0.97189697265625,0.7179508475758135,-1.8402128558993336,-5.727606078398227,-1.540152907371521,0.2826347053050995,-0.1044582203030586
1783203113582834000,0.981833984375,0.3360248293764889,-2.2741171908780933,-7.241506666770577,-1.0429774522781372,0.3843591809272766,-0.1508318781852722
1783203113592771000,0.99177099609375,-0.2296013673126697,-2.4859552302241323,-8.66770792890191,-0.464322566986084,0.3979908227920532,-0.2729210257530212
1783203113602708000,1.0017080078125,-0.9121076842807232,-2.5001889227598904,-9.965717110884189,0.1995682120323181,0.356683999300003,-0.4683868587017059
1783203113612643800,1.011643798828125,-1.370301972515881,-2.5298598384022712,-11.220761595886945,0.881142258644104,0.3279948234558105,-0.6577988862991333
1783203113622581000,1.0215810546875,-1.4619830618694425,-3.0080095578208565,-11.92020399621725,1.6120535135269165,0.345751404762268,-0.9870159029960632
1783203113632518100,1.03151806640625,-2.2247686380803584,-2.096505100130289,-12.6243026979208,2.395758628845215,0.7449398040771484,-1.29876446723938
1783203113642454800,1.041454833984375,-2.691852481344342,-1.1112282078076154,-12.449142530369755,3.165316104888916,1.3467299938201904,-1.360612392425537
1783203113652392000,1.051391845703125,-1.8300864525519311,-0.9820680132787674,-11.715832931751011,3.832170248031616,1.7969818115234375,-1.2459691762924194
1783203113662328800,1.061328857421875,-0.7969246502432972,-0.5234708798637613,-10.768146422958374,4.392305850982666,2.042724132537842,-1.09028959274292
1783203113672266000,1.071265869140625,-0.4118809749474749,-0.0040323242560029,-9.60282254089117,4.83161735534668,2.201381206512451,-0.9702354669570924
1783203113682203100,1.081203125,-0.7280187256690114,0.4190099865771829,-8.140105027267337,5.107037544250488,2.3303215503692627,-0.8843818306922913
1783203113692139800,1.091139892578125,-1.4267489591419695,1.2428418599031863,-6.473281822115182,5.279375553131104,2.478087902069092,-0.795484721660614
1783203113702077000,1.101076904296875,-2.0176272321179507,2.020751209357381,-4.827921676230431,5.462735652923584,2.5910584926605225,-0.6906260251998901
1783203113712013000,1.111012939453125,-2.5226325174972413,2.9131697121754287,-3.427933298242092,5.629769802093506,2.6437039375305176,-0.5735819935798645
1783203113721950000,1.120949951171875,-2.7653683839321137,3.810409059278667,-2.0034487769007683,5.722002029418945,2.6258299350738525,-0.4347799122333526
1783203113731886800,1.130886962890625,-2.815470677706599,4.615904188664257,-0.4333797265827656,5.660223007202148,2.5241446495056152,-0.3047960698604584
1783203113741824000,1.140823974609375,-2.8169372431278226,5.3897290452837945,1.2385773343265056,5.415712356567383,2.375490188598633,-0.1937235742807388
1783203113751761000,1.150760986328125,-2.734562326779961,5.951548104774951,2.896091443863511,5.007684230804443,2.196406364440918,-0.1150870844721794
1783203113761698000,1.160697998046875,-2.5751187837988136,6.308143282362819,4.473575154352188,4.4765729904174805,2.0502166748046875,-0.0542316883802413
1783203113771635000,1.170635009765625,-2.334403171145171,6.562972614434361,5.919699845093488,3.89111590385437,1.961067795753479,-0.0138043733313679
1783203113781571800,1.18057177734375,-2.009172561375052,6.600782412868738,7.080508880084753,3.2615880966186523,1.8853195905685425,0.073934331536293
1783203113791509000,1.190509033203125,-1.557761357408762,6.425688880813121,7.888662999546527,2.5630812644958496,1.6972700357437134,0.1595230102539062
1783203113801446000,1.20044580078125,-1.661084369239211,6.222943371722102,8.310703001469372,1.8564364910125728,1.4040534496307373,0.1720976531505584
1783203113811381800,1.2103818359375,-1.733660214497894,6.208741827890276,8.541863873183727,1.224263310432434,1.0592424869537354,0.1560925841331482
1783203113821319000,1.22031884765625,-1.5677151806682348,5.8581356615841385,8.783350324079393,0.6851258277893066,0.8348003625869751,0.1213025152683258
1783203113831255800,1.230255859375,-1.8020343702830373,5.76353956156671,8.877880957645177,0.2036393880844116,0.6026566624641418,0.056152269244194
1783203113841193000,1.24019287109375,-2.029431213288754,5.934241580665111,8.891103427311778,-0.2181592136621475,0.4068043231964111,-0.0565468445420265
1783203113851130000,1.250130126953125,-2.0482447809606787,6.10741086665988,9.147788031861186,-0.6250012516975403,0.1808372437953949,-0.1820546984672546
1783203113861066800,1.260066650390625,-1.6028431926727291,6.060870649281144,9.351115724754331,-1.0497006177902222,-0.0454550646245479,-0.3179118931293487
1783203113871003600,1.270003662109375,-1.413587279751897,6.378350206533074,9.610009237524867,-1.510796308517456,-0.2637320160865783,-0.4367764890193939
1783203113880940800,1.27994091796875,-1.157741756375134,6.533418018648028,9.85239935926199,-2.002443313598633,-0.4887091517448425,-0.5191211700439453
1783203113890877400,1.28987744140625,-0.9176292241811752,6.666186905193329,9.949967753088474,-2.4974265098571777,-0.7627366781234741,-0.5427148938179016
1783203113900814600,1.299814697265625,-0.6594473668113351,6.940958370575308,9.809206698745488,-2.983787298202514,-1.0517098903656006,-0.4819194078445434
1783203113910751500,1.30975146484375,-0.3177276867941022,7.016075278618931,9.522186577165126,-3.4172306060791016,-1.383345603942871,-0.3316372334957123
1783203113920687600,1.3196875,0.0103643037565052,7.030944346448779,8.980950871497392,-3.781585931777954,-1.7434433698654177,-0.1287985891103744
1783203113930624500,1.32962451171875,0.0530439001843333,7.012286407729983,8.19272777943015,-4.087620735168457,-2.0861990451812744,0.1241436675190925
1783203113940561400,1.3395615234375,-0.0131213473796844,6.743796799096465,7.201045477044582,-4.348714828491211,-2.391132116317749,0.4003060162067413
1783203113950498600,1.34949853515625,-0.281320302503556,6.463745932006836,6.027610184714198,-4.5810089111328125,-2.637331485748291,0.6886892914772034
1783203113960435700,1.359435791015625,-0.6691840401887893,6.41617870966792,4.610207146066427,-4.777706146240234,-2.8107478618621826,0.901664137840271
1783203113970372600,1.36937255859375,-1.4679580446258187,5.847813005012274,3.014849925234913,-4.955177307128906,-2.956641674041748,0.9321578741073608
1783203113980309500,1.3793095703125,-2.459717503900826,4.543535410284996,1.0180752192705869,-5.111745834350586,-3.0198781490325928,0.7801781892776489
1783203113990246700,1.38924658203125,-3.10671718481034,3.784435829110443,-0.9045394409835338,-5.319023132324219,-2.941617965698242,0.4789285957813263
1783203114000183600,1.39918359375,-3.486058739474416,3.481129174117744,-2.5941607533991333,-5.619979381561279,-2.68918514251709,0.0888196602463722
1783203114010120700,1.40912060546875,-3.3048139913126824,3.0948166113972664,-4.302788964101672,-6.1439595222473145,-2.2922163009643555,-0.310716301202774
1783203114020057600,1.4190576171875,-2.9185645569562912,2.49560101044774,-5.98584960282743,-6.762537002563477,-1.4982775449752808,-0.7660635113716125
1783203114029994500,1.428994384765625,-2.5563608918368814,1.7843860469982027,-7.727406854185461,-7.447217464447021,-0.2820963263511657,-1.2160682678222656
1783203114039931600,1.438931640625,-1.807972382029891,1.0591611898314208,-9.161910665237905,-7.1469807624816895,0.8078251481056213,-1.562143087387085
1783203114049867500,1.448867431640625,-0.1537933899986557,0.3716784726902842,-12.553683101296423,-6.196664810180664,1.4334421157836914,-1.6226128339767456
1783203114059804700,1.4588046875,2.059389129178971,-0.5386068184688687,-15.312504840064047,-4.830779552459717,1.407691478729248,-1.3510197401046753
1783203114069741600,1.468741455078125,4.151226237498223,-1.3461879603482785,-16.682668573153016,-3.2201361656188965,0.8100225329399109,-0.7890626192092896
1783203114079678500,1.478678466796875,5.579362559345364,-1.9598688706323504,-17.421663231670856,-1.549493432044983,-0.0090818013995885,-0.0451247356832027
1783203114089615600,1.48861572265625,6.227754571396112,-2.225687506490946,-17.25691807515025,0.0125147644430398,-0.5936480760574341,0.71799635887146
1783203114099552500,1.498552490234375,6.172606684669852,-2.001190476579964,-16.06708168311715,1.3687694072723389,-0.7513420581817627,1.3245140314102173
1783203114109489700,1.50848974609375,5.634018863162398,-1.5449854624658823,-14.054281725025175,2.4202985763549805,-0.6578667163848877,1.6744701862335205
1783203114119426600,1.518426513671875,4.625463459648191,-1.0844514792367814,-11.69511630693674,3.062227725982666,-0.4836163520812988,1.800878643989563
1783203114129363500,1.528363525390625,3.5839869065240024,-0.7224705169573425,-9.151952750325204,3.331918239593506,-0.3010529279708862,1.7700594663619995
1783203114139300600,1.538300537109375,2.563494104717672,-0.3235137228496372,-6.646503130558132,3.42407751083374,-0.127280980348587,1.6494523286819458
1783203114149237800,1.54823779296875,1.5431747597821055,0.0983767875999212,-4.730541498452425,3.461836814880371,0.0246598217636346,1.512704849243164
1783203114159174700,1.558174560546875,0.680768094998598,0.4582889807812869,-3.311919147142768,3.4002389907836914,0.1445244252681732,1.3940023183822632
1783203114169111600,1.568111572265625,0.0393322496281471,0.7807640812981873,-1.9656161821126936,3.2625248432159424,0.2523640692234039,1.293378233909607
1783203114179048400,1.57804833984375,-0.5898812247626483,1.2035694415703415,-0.6860042420864105,3.097780466079712,0.3193099200725555,1.210254788398743
1783203114188985600,1.587985595703125,-1.0386145878218114,1.4433575641155243,0.3572241231411695,2.919262647628784,0.3368279337882995,1.1380202770233154
1783203114198921700,1.597921630859375,-1.346583681667596,1.6728743218846618,1.2601906157195568,2.717288017272949,0.3292272090911865,1.0753153562545776
1783203114208858400,1.6078583984375,-1.5354720764502885,1.8637422000467776,2.1660306179076434,2.4967310428619385,0.3096329867839813,1.0158839225769043
1783203114218795500,1.61779541015625,-1.6264374187499284,2.0117804057858883,2.954323852601647,2.2490248680114746,0.2817860841751098,0.9544225335121156
1783203114228732700,1.627732666015625,-1.721774984784424,2.159531757407635,3.7046453762978313,1.9558894634246824,0.2353757172822952,0.8698890209197998
1783203114238669600,1.637669677734375,-1.845612522985786,2.3106829806007445,4.406528740039468,1.6277399063110352,0.1561245620250702,0.7753303050994873
1783203114248606700,1.647606689453125,-1.9406480373337864,2.336992164725065,4.965269122737646,1.274509072303772,0.0611658208072185,0.6646453738212585
1783203114258543600,1.657543701171875,-2.059749633054435,2.3234648668929934,5.385523410287499,0.8957826495170593,-0.0465950034558773,0.5405851602554321
1783203114268480500,1.66748046875,-2.1613661332279444,2.287933534784615,5.6990364019960165,0.4779289960861206,-0.1844026744365692,0.4144608378410339
1783203114278417700,1.677417724609375,-2.1600378072336315,2.195081940346956,5.890324113005399,0.0376334190368652,-0.3181670904159546,0.3083993792533874
1783203114288354600,1.6873544921875,-2.1215015942208466,2.064929081518948,5.946379177704453,-0.4006137251853943,-0.447845458984375,0.1997312307357788
1783203114298291700,1.697291748046875,-2.086891614741087,2.013944744212925,5.812632970559597,-0.8100574612617493,-0.549079179763794,0.109642818570137
1783203114308228600,1.707228515625,-2.040819891656935,1.9083705924548209,5.492820586445927,-1.1866455078125,-0.6359943747520447,0.0422784239053726
1783203114318165500,1.71716552734375,-1.8465353369191289,1.7231849977128206,5.038702607738972,-1.5245648622512815,-0.6585849523544312,-0.0322379060089588
1783203114328102700,1.7271025390625,-1.7103960971578955,1.63376381611526,4.537648690333962,-1.832021951675415,-0.6431527733802795,-0.1081241518259048
1783203114338039600,1.73703955078125,-1.5427007125295698,1.5094117525205015,3.939379430323839,-2.112149715423584,-0.6336031556129456,-0.1524942517280578
1783203114347976700,1.746976806640625,-1.2012542234305292,1.2296721433371305,3.260954099059105,-2.387723445892334,-0.6289655566215515,-0.1870322525501251
1783203114357913600,1.75691357421875,-0.9548116844974458,1.0122271508295089,2.5960148568332198,-2.658830165863037,-0.6354053616523743,-0.2058437913656234
1783203114367850500,1.7668505859375,-0.7699217117011546,0.72892349248901,1.883819942435622,-2.9040589332580566,-0.630415678024292,-0.204121246933937
1783203114377787600,1.77678759765625,-0.6495785184215754,0.3662525386514142,0.9805921685725448,-3.0800108909606934,-0.5826307535171509,-0.1766213774681091
1783203114387724500,1.786724609375,-0.6627772418864071,-0.096929803662002,-0.0771247407346963,-3.189624309539795,-0.4812812507152557,-0.1359871327877044
1783203114397660400,1.796660400390625,-0.7238865212351083,-0.6579075900234281,-1.319989543122053,-3.2150845527648926,-0.3069043457508087,-0.119064837694168
1783203114407597600,1.80659765625,-0.8760700100854039,-1.2694471043646336,-2.6247283256202936,-3.1736531257629395,-0.0615244098007679,-0.1597622036933899
1783203114417534500,1.816534423828125,-1.06316311894916,-1.8846479176923632,-3.8409932903736825,-3.060293674468994,0.2281873226165771,-0.2500284016132355
1783203114427471600,1.8264716796875,-1.2260703194528817,-2.4527169774889943,-5.063588627192377,-2.878398895263672,0.5992921590805054,-0.3549899756908417
1783203114437408800,1.83640869140625,-1.3370939687885344,-2.871322036527097,-6.239162685117125,-2.6281683444976807,0.9981099963188172,-0.4508018791675567
1783203114447345400,1.846345458984375,-1.3282523445546626,-3.031874125272036,-7.297534843462705,-2.2842166423797607,1.317935347557068,-0.559322714805603
1783203114457282600,1.856282470703125,-1.2437953612357378,-2.942505404514074,-8.263269050121307,-1.7964410781860352,1.492392659187317,-0.6587955951690674
1783203114467219700,1.8662197265625,-0.9521571514006704,-2.7363971409916874,-9.227031664445995,-1.1405029296875,1.4391690492630005,-0.7294117212295532
1783203114477156600,1.876156494140625,-0.245821703621,-2.4822996303260325,-10.289560942471027,-0.3289706707000732,1.2548142671585083,-0.6980165839195251
1783203114487093800,1.88609375,1.0392403185047208,-2.2886872757613657,-11.418985828161238,0.6002251505851746,1.094560980796814,-0.5451729893684387
1783203114497030400,1.896030517578125,2.384617254731059,-2.211483624571562,-12.201585819649695,1.6089681386947632,1.0640966892242432,-0.3165338337421417
1783203114506967600,1.905967529296875,2.989467938958108,-1.9653163223832844,-12.623103259003162,2.6189866065979004,1.2565851211547852,-0.1068786084651947
1783203114516904700,1.91590478515625,2.6976500617071983,-1.1280436604648827,-12.64192252576351,3.528423547744751,1.659928321838379,0.0349016226828098
1783203114526841600,1.925841552734375,1.6391569073304533,0.0102926998250186,-12.248600084280968,4.257012367248535,2.221534252166748,0.1181903854012489
1783203114536778800,1.93577880859375,0.3466496837653219,1.1286188300043345,-11.448569650042057,4.84131383895874,2.7326736450195312,0.2266070991754531
1783203114546715400,1.94571533203125,-0.4265628861747682,1.876698419992625,-10.660209779852629,5.294748783111572,3.0425267219543457,0.3335918486118316
1783203114556652500,1.955652587890625,-0.763021576923877,2.133823461785912,-10.064010311853885,5.526124000549316,3.1625356674194336,0.3622438013553619
1783203114566589700,1.965589599609375,-1.0175295680865646,2.4890958663374185,-9.241789673116802,5.536489486694336,3.1865851879119877,0.3305599093437195
1783203114576526600,1.975526611328125,-1.2010394847013055,2.794144104300439,-7.998108878171443,5.512368202209473,3.16903018951416,0.2690680921077728
1783203114586463700,1.985463623046875,-1.5448174124225973,3.110999099913239,-7.102673365619778,5.551504135131836,3.296492576599121,0.2240822464227676
1783203114596400400,1.995400390625,-2.028423351420462,3.664165189610421,-6.206746270158886,5.578092575073242,3.529316663742065,0.223659485578537
1783203114606337500,2.005337646484375,-2.349069848270714,4.435224380908906,-5.159800930234789,5.448973655700684,3.828912734985352,0.2728174328804016
1783203114616274700,2.015274658203125,-2.5473306131631133,4.9785401077210905,-3.688796649780869,5.228720188140869,4.006854057312012,0.3667753040790558
1783203114626211600,2.025211669921875,-2.642587222915888,5.193457116121054,-2.12735631159842,4.977126598358154,3.94623613357544,0.5178308486938477
1783203114636148700,2.035148681640625,-2.7586355685457584,5.436012657552957,-0.6864139919310808,4.709284782409668,3.682090997695923,0.6776826977729797
1783203114646085400,2.04508544921875,-3.028504648838937,5.86863133663535,0.8431675651758909,4.434176445007324,3.3126258850097656,0.8133150935173035
1783203114656022500,2.0550224609375,-3.315590529131889,6.1874751679778095,2.4089047237694263,4.211052894592285,2.9225070476531982,0.920876681804657
1783203114665959700,2.064959716796875,-3.6081136320427056,6.3682975990742445,3.8409418524473904,4.02487325668335,2.49690580368042,0.998153567314148
1783203114675896600,2.074896484375,-3.918673911425471,6.480446891438961,4.940563720548153,3.7824904918670654,1.993259072303772,1.0368356704711914
1783203114685833700,2.084833740234375,-4.137819935697317,6.339317588305473,5.800633320686221,3.4183645248413086,1.4084007740020752,0.9840386509895324
1783203114695770600,2.0947705078125,-4.405165634992718,6.112381640809774,6.617896629276872,2.991182565689087,0.870131254196167,0.8400994539260864
1783203114705707500,2.10470751953125,-4.562509867607057,5.821539330592751,7.355133045950532,2.560445547103882,0.4228202998638153,0.6261669397354126
1783203114715644700,2.114644775390625,-4.759388530491292,5.5978907342046496,7.890973614576459,2.126600980758667,0.037086296826601,0.3757835328578949
1783203114725581600,2.12458154296875,-5.021776022857427,5.612495598140359,8.261458785828948,1.6769311428070068,-0.2632543742656708,0.0755496770143508
1783203114735518700,2.134518798828125,-5.288647674900293,5.717479821181297,8.6484444255054,1.187204360961914,-0.506202757358551,-0.2206672579050064
1783203114745455600,2.14445556640625,-5.301025510436296,5.686543415647745,9.042043930363654,0.6709412336349487,-0.7334361672401428,-0.487381249666214
1783203114755392500,2.154392578125,-5.1244683355689045,5.601815798693895,9.392647758582234,0.1697644740343094,-0.9238780736923218,-0.7104650139808655
1783203114765329700,2.16432958984375,-4.884017072939873,5.692549378064275,9.671652916011212,-0.2873362600803375,-1.0722779035568235,-0.901119351387024
1783203114775266600,2.1742666015625,-4.62208112373352,5.892109242856503,9.85486136546135,-0.7109145522117615,-1.1792964935302734,-1.0471858978271484
1783203114785203700,2.18420361328125,-4.4196530100286,6.029527416512369,9.978363826489447,-1.0920467376708984,-1.285195231437683,-1.1470831632614136
1783203114795140600,2.194140625,-4.22268111590296,6.1272752585589885,10.023203669691084,-1.4405683279037476,-1.4532079696655271,-1.2064156532287598
1783203114805077500,2.204077392578125,-4.151907790021598,6.2436611655801535,10.03272553127408,-1.7761510610580444,-1.7199515104293823,-1.2464615106582642
1783203114815014700,2.2140146484375,-4.052549590168893,6.24763883703947,10.033082089626788,-2.099515914916992,-2.045649290084839,-1.272478103637695
1783203114824951600,2.22395166015625,-3.856286136573553,6.244914965033531,10.000060109990834,-2.442877531051636,-2.3473165035247803,-1.293028712272644
1783203114834888700,2.233888671875,-3.621740883117914,6.331233650571107,9.822450795722007,-2.75713849067688,-2.530507326126098,-1.2416551113128662
1783203114844825600,2.24382568359375,-3.29995076919049,6.409425143754482,9.484405420303345,-3.013800859451294,-2.665246725082397,-1.0822190046310425
1783203114854761700,2.25376171875,-2.8008348341107365,6.19997107693553,8.988114771777392,-3.2648403644561768,-2.9026331901550293,-0.8243591785430908
1783203114864699600,2.26369970703125,-2.5625416262984277,5.954919627034664,8.374219488090276,-3.624262571334839,-3.209144115447998,-0.4666311144828796
1783203114874637600,2.273637451171875,-2.438637014210224,5.638238526684045,7.668313444703817,-3.9923949241638175,-3.5610039234161377,-0.0595200583338737
1783203114884573400,2.283573486328125,-2.68823779797852,4.892767657889426,6.542064266440272,-4.270920753479004,-3.9968557357788086,0.2609586119651794
1783203114894511400,2.293511474609375,-3.6274189287543295,4.007799178816378,4.688515543627739,-4.343059062957764,-4.460024356842041,0.3425468504428863
1783203114904448500,2.303448486328125,-4.6788154028683895,3.1858900902464984,2.559648242944479,-4.264994621276856,-4.891997337341309,0.1160119548439979
1783203114914385700,2.3133857421875,-5.849548450502753,2.6016452639356253,0.1997469117969274,-4.205664157867432,-5.188438415527344,-0.331788957118988
1783203114924321500,2.323321533203125,-6.422549998265504,2.3467241619274017,-2.197221290463209,-4.359987735748291,-5.188511848449707,-0.767309844493866
1783203114934258400,2.333258544921875,-5.59880492644012,2.507269820931554,-4.5098178496003145,-4.786719799041748,-4.779633045196533,-1.0351139307022097
1783203114944195600,2.343195556640625,-3.814588098528981,2.899884990927577,-6.837758692863583,-5.339296817779541,-4.052414417266846,-1.1258721351623535
1783203114954133500,2.353133544921875,-1.574145213715732,3.196325851804018,-9.75582757525742,-6.165650844573975,-2.9113433361053467,-1.165988802909851
1783203114964069600,2.363069580078125,0.660318304426968,2.9994083182141185,-12.0932949562788,-6.383078575134277,-1.670754313468933,-1.3562287092208862
1783203114974007600,2.373007568359375,2.2927044024482366,2.7657915777802464,-14.975640198862552,-5.853775501251221,-0.7636099457740784,-1.4167945384979248
1783203114983944700,2.38294482421875,4.621513552978635,1.313515963193774,-18.307680343014,-4.789338111877441,-0.3071974217891693,-1.154868721961975
1783203114993881300,2.39288134765625,6.788703277793526,-0.0909780556507408,-19.995937381339072,-3.3148012161254883,-0.2497808337211609,-0.5780776143074036
1783203115003818500,2.402818603515625,8.08461461071372,-0.8953712151437997,-20.48140385351181,-1.5157976150512695,-0.4326052367687225,0.1251977235078811
1783203115013755600,2.412755615234375,8.199320601823926,-1.1907182894341648,-19.98846485350132,0.37514328956604,-0.7006996273994446,0.7980130910873413
1783203115023692500,2.422692626953125,7.452892578434944,-1.062131072487682,-18.43491088465452,2.019646644592285,-0.9280931353569032,1.315223217010498
1783203115033629700,2.432629638671875,6.228258429265022,-0.6774038061972707,-15.774148538100718,3.121100425720215,-1.0223695039749146,1.597139835357666
1783203115043566600,2.442566650390625,4.869347034813464,-0.2116217662468552,-12.179784322208166,3.679070711135864,-0.9378666877746582,1.6352981328964231
1783203115053503500,2.45250341796875,3.5727594100669022,0.2217038189958781,-8.420323652139306,3.5313475131988525,-0.600041389465332,1.4493855237960815
1783203115063440600,2.462440673828125,2.112391966700554,0.7924084879931061,-4.775614565888047,3.224804401397705,-0.100345566868782,1.084781289100647
1783203115073377500,2.47237744140625,0.7402928816348314,1.2030355538893491,-1.8722586839795112,2.990751266479492,0.3401602506637573,0.6788694858551025
1783203115083314700,2.482314697265625,-0.4861349094862118,1.4478474228806792,-0.5297597874075174,2.550649881362915,0.6622967720031738,0.3150524199008941
1783203115093251600,2.49225146484375,-1.3609877623341975,1.4012299024820327,1.3080968607544898,1.7603132724761963,0.829189121723175,0.0731205642223358
1783203115103188500,2.5021884765625,-2.030400935103744,1.25454267296046,3.241993378001452,0.8893687725067139,0.9629613161087036,-0.090019091963768
1783203115113125600,2.512125732421875,-2.5803008626118302,1.2283978856176136,4.508049086362123,0.2288059443235397,1.086042046546936,-0.2227582931518554
1783203115123062500,2.5220625,-3.09329919257164,1.3073201772935688,4.876704119578004,-0.1547270715236663,1.1045396327972412,-0.3243789374828338
1783203115132999700,2.531999755859375,-3.152045103789866,1.214136574422568,4.741028990197181,-0.3837720155715942,0.9669761657714844,-0.394284576177597
1783203115142936600,2.5419365234375,-2.8746672553017736,0.9503934296637772,4.732659805780649,-0.4590207040309906,0.6568412184715271,-0.4312231540679931
1783203115152873500,2.55187353515625,-2.437567777543515,0.5539755063839257,4.557803589612245,-0.4143986999988556,0.2433084100484848,-0.4077464044094085
1783203115162810600,2.561810546875,-1.944089263828844,0.1860362932872027,4.2698815507560965,-0.3270874917507171,-0.1697880923748016,-0.3118052184581756
1783203115172747500,2.57174755859375,-1.5300792774960397,-0.0586165857501327,4.0652065349072215,-0.2597012221813202,-0.50184166431427,-0.1416505277156829
1783203115182684700,2.5816845703125,-1.0375791072942315,-0.4484717164482921,4.086614064595104,-0.2211184203624725,-0.7392182946205139,0.0317023582756519
1783203115192621600,2.59162158203125,-0.8258234124694019,-0.737641490343213,4.001415322998166,-0.2054838985204696,-0.8823220133781433,0.1184786707162857
1783203115202558500,2.601558349609375,-0.9647742025200275,-0.9269048559181392,3.903426073411107,-0.2047563344240188,-1.0188294649124146,0.0925474688410759
1783203115212495600,2.61149560546875,-1.1813687156781554,-1.184580225070566,3.5563691240191457,-0.2528509199619293,-1.1329143047332764,-0.0202408339828252
1783203115222432500,2.6214326171875,-1.5010877224199473,-1.3208427989505231,3.113268798410892,-0.3514382243156433,-1.2233991622924805,-0.1675783544778823
1783203115232369700,2.63136962890625,-1.7490201345846057,-1.4410446109980344,2.507691261214018,-0.4911305010318756,-1.250239610671997,-0.299860805273056
1783203115242306600,2.641306640625,-1.743385051307082,-1.394955352257192,1.6987404384166,-0.6281841993331909,-1.2286360263824463,-0.3887142539024353
1783203115252243500,2.651243408203125,-1.5592501346617935,-1.2546565085984769,0.609709522435069,-0.6792782545089722,-1.191837191581726,-0.4675447642803192
1783203115262180600,2.6611806640625,-1.367924137468636,-1.2077705465219917,-0.7158025835007429,-0.6472196578979492,-1.1231409311294556,-0.5702351331710815
1783203115272117500,2.671117431640625,-1.1645618116535246,-1.3160539572387933,-1.9111001635491849,-0.6118830442428589,-1.0467413663864136,-0.7131069302558899
1783203115282054700,2.6810546875,-0.9344545406453312,-1.5991374700225889,-2.8618659336566923,-0.6113903522491455,-0.9530699253082277,-0.8602524399757385
1783203115291991600,2.690991455078125,-0.6208006791613996,-2.05323586724624,-3.7006215276092287,-0.5439175367355347,-0.7747663855552673,-1.015774846076965
1783203115301928400,2.700928466796875,-0.2989439297385514,-2.311191514644772,-4.543948667261004,-0.3141922354698181,-0.5520192980766296,-1.145378589630127
1783203115311865600,2.710865478515625,-0.0516856174431741,-2.2026818939566613,-5.651469764178991,-0.0341190695762634,-0.2651871144771576,-1.1787625551223757
1783203115321802500,2.720802490234375,0.3659028118982911,-1.909278208819032,-6.487175907433032,0.3258167505264282,0.0805599018931388,-1.1327452659606934
1783203115331739600,2.73073974609375,0.6782475635450333,-1.3143690728917716,-6.947351871004701,0.3279965817928314,0.5331841111183167,-1.013274312019348
1783203115341676500,2.740676513671875,0.798258894521743,-1.0164502484172582,-6.475725708135962,0.6633135676383972,0.7947520613670349,-0.9834880828857422
1783203115351613400,2.750613525390625,0.5698403072528541,-0.513570942215994,-6.910524069344997,0.9693785905838012,0.8487184047698975,-0.9982762336730956
1783203115361550600,2.760550537109375,0.2815839218758046,-0.2980217368597164,-7.615099740910529,0.9904058575630188,0.8197053670883179,-1.062588453292847
1783203115371487700,2.77048779296875,-0.0227362940736114,-0.3472478688541799,-7.579387791538238,0.7857284545898438,0.8680747151374817,-1.1487867832183838
1783203115381424600,2.780424560546875,-0.6550102611467242,-0.0974297890733927,-8.149937269973755,0.5059103965759277,1.013053297996521,-1.3011577129364014
1783203115391361500,2.790361572265625,-2.0438871702730657,0.6260507817093283,-9.396990756222603,0.372918039560318,1.3281846046447754,-1.4760702848434448
1783203115401298400,2.80029833984375,-3.467928624022006,1.2744263540819287,-11.247398258399963,0.3643248379230499,1.8741419315338133,-1.6470518112182615
1783203115411235600,2.810235595703125,-4.059721966016292,1.4021663065493106,-12.900568785774707,0.4212328195571899,2.722879648208618,-1.7465084791183472
1783203115421172700,2.8201728515625,-3.180015937516093,1.3074573938071727,-13.856119452071187,0.6023576259613037,3.767489433288574,-1.66791832447052
1783203115431109600,2.830109619140625,-1.089581243340671,1.0752896100725975,-14.146580069494249,1.0218794345855713,4.709720134735107,-1.3399696350097656
1783203115441047600,2.840047607421875,1.254026978523284,0.9327195335462688,-13.92657772065401,1.609730243682861,5.167097091674805,-0.7836387753486633
1783203115450984400,2.849984375,2.8031559705346822,0.9376761330403388,-13.280923024612663,2.3887720108032227,5.066608428955078,-0.1472472250461578
1783203115460921600,2.859921630859375,2.815440282568336,1.0877240711666645,-12.508143000870945,3.2669692039489746,4.745998859405518,0.3566750288009643
1783203115470858500,2.8698583984375,1.4357567337229846,1.5384461238250136,-11.699972514796256,3.930831670761109,4.432027339935303,0.659382164478302
1783203115480795600,2.879795654296875,-0.8820087524846195,2.310184091167897,-9.937508084487916,4.600178718566895,4.279839038848877,0.8154345750808716
1783203115490732500,2.889732666015625,-3.186049080200493,3.158372553245723,-8.515490245521068,5.242209911346436,4.320685863494873,0.8691104650497437
1783203115500669400,2.89966943359375,-5.045341607362031,4.2603105893343685,-6.690514121720194,5.698028087615967,4.433372974395752,0.8733997941017151
1783203115510606600,2.909606689453125,-6.213536076429486,5.249457820284366,-4.305937783521413,5.839107036590576,4.480478763580322,0.8368597626686096
1783203115520543500,2.91954345703125,-6.986411377239227,6.067711893478036,-1.5526111350387335,5.624941349029541,4.3986005783081055,0.7689291834831238
1783203115530480600,2.929480712890625,-7.572291695797443,6.924321708551049,1.2531786911308764,5.157447338104248,4.245686054229736,0.6882979273796082
1783203115540417800,2.939417724609375,-7.946386874240637,7.364266200476885,3.732535838264227,4.691499710083008,4.052665710449219,0.6339273452758789
1783203115550354400,2.9493544921875,-8.245887707209587,7.768041062390804,5.483659959390759,4.317702770233154,3.8346800804138175,0.612798273563385
1783203115560291600,2.95929150390625,-8.30259509833753,8.18297327813506,6.83334613711834,3.978423357009888,3.524291753768921,0.5789585709571838
1783203115570228500,2.969228515625,-8.207980293619633,8.502789169380069,8.115305517053603,3.5264675617218018,3.1155495643615723,0.485643059015274
1783203115580165600,2.97916552734375,-7.937990217295288,8.593398830109834,9.548430440968277,2.9304428100585938,2.630215644836426,0.3998344242572784
1783203115590102800,2.989102783203125,-7.440900527346134,8.394531623756885,10.841251406657696,2.2899839878082275,2.160581111907959,0.3247453272342682
1783203115600039400,2.999039306640625,-6.868524418005347,8.388906769612431,11.755530151367187,1.7250422239303589,1.6852866411209106,0.2822564542293548
1783203115609976600,3.0089765625,-6.321632294011116,8.361403261137008,12.299986572647096,1.2011443376541138,1.141285419464111,0.2513961791992187
1783203115619913500,3.01891357421875,-5.818455393102765,8.215995842292905,12.645534871041772,0.6906453371047974,0.5638947486877441,0.2013769596815109
1783203115629850600,3.0288505859375,-5.415804566782713,7.946804222869873,12.903512438011168,0.1941853463649749,0.1156066507101059,0.0858066380023956
1783203115639787800,3.038787841796875,-5.042110954877734,7.641276384696364,13.098312541055678,-0.2789627611637115,-0.2215018719434738,-0.1693446934223175
1783203115649724400,3.048724365234375,-4.792351181155443,7.14148094291985,13.248048344492911,-0.6834349036216736,-0.5137189030647278,-0.5034011006355286
1783203115659661600,3.05866162109375,-4.561845558479428,6.716987118104099,13.04459731748104,-1.0221220254898071,-0.7511740922927856,-0.7959243059158325
1783203115669598500,3.068598388671875,-4.194133943593502,6.670131843426823,12.777774765276908,-1.3349957466125488,-0.9897996783256532,-0.934798300266266
1783203115679536600,3.07853662109375,-3.672058280947805,6.8641159539133305,12.531179008543493,-1.6210991144180298,-1.2601089477539062,-0.8948162794113159
1783203115689473500,3.0884736328125,-3.0674095490336417,7.093022324699163,12.28946050245762,-1.887176752090454,-1.5224125385284424,-0.7040863037109375
1783203115699410700,3.09841064453125,-2.446058104121685,7.214988077679276,12.017692895066736,-2.0388803482055664,-1.833855152130127,-0.372824490070343
1783203115709347600,3.10834765625,-1.9124907411247487,7.187675123339891,11.65632275816202,-2.1399948596954346,-2.2528443336486816,0.054649643599987
1783203115719284500,3.118284423828125,-1.5851123056709766,7.100401913556456,11.235221498394012,-2.255913019180298,-2.6999850273132324,0.5137498378753662
1783203115729221600,3.1282216796875,-1.720292929533124,6.988878059613704,11.193525213915107,-2.43888783454895,-3.098054885864258,1.0010054111480713
1783203115739158500,3.138158447265625,-2.0138456677526237,6.924734381005168,10.91686866543889,-2.7131800651550293,-3.3840410709381104,1.457930564880371
1783203115749095700,3.148095703125,-2.5798230159670115,6.8634946071445935,10.781775135338306,-2.988297939300537,-3.582430601119995,1.8446890115737915
1783203115759032600,3.158032470703125,-3.433782608792185,6.823630214267968,10.23834045832157,-3.2895076274871826,-3.888033151626587,2.0928609371185303
1783203115768969500,3.167969482421875,-4.829310500240326,6.806971340411901,9.229798791071772,-3.748979330062866,-4.279937267303467,2.12000036239624
1783203115778906600,3.17790673828125,-7.242021630555391,6.881998232084512,8.048136937665939,-4.376222610473633,-4.581972122192383,1.8777780532836916
1783203115788843500,3.187843505859375,-9.9703979621768,6.87051471503973,6.556465132236481,-5.0816569328308105,-4.765329837799072,1.401740550994873
1783203115798780700,3.19778076171875,-12.2239952198565,6.870558554181456,4.239465954226255,-5.788996696472168,-4.8215012550354,0.8153705596923828
1783203115808717600,3.207717529296875,-12.829551714265346,6.588515636491775,1.3801257396548985,-6.388682842254639,-4.854170322418213,0.2180757522583007
1783203115818654500,3.217654541015625,-11.917736144798994,6.431572093632817,-2.319927048155665,-6.671134471893311,-4.840683937072754,-0.2428519129753112
1783203115828591600,3.227591552734375,-9.69489759799838,5.863209311586618,-7.112611406788229,-6.505923748016357,-4.668857574462891,-0.4553701281547546
1783203115838528500,3.237528564453125,-6.892866247579455,5.185472547107935,-12.200954536008837,-5.951101303100586,-4.283697605133057,-0.4547003507614136
1783203115848465400,3.24746533203125,-4.043449461129308,4.624706796061992,-17.00521476614475,-5.474655151367188,-3.6889944076538086,-0.2292773574590683
1783203115858402600,3.257402587890625,-1.187748333712667,3.611896949973702,-20.489393098700045,-5.625194549560547,-2.7465038299560547,-0.0108715211972594
1783203115868340500,3.267340576171875,1.292320614951849,2.4095729784198103,-21.73363912631273,-5.203276634216309,-1.752224087715149,-0.0286627691239118
1783203115878276600,3.277276611328125,2.5136133447393774,1.3330058226920662,-23.43081012345552,-3.8313241004943848,-1.0601279735565186,-0.1036014631390571
1783203115888213800,3.2872138671875,4.02400212559849,-0.4318309627708047,-25.94417241604328,-2.5585854053497314,-0.5591171383857727,0.0352788418531417
1783203115898150400,3.297150390625,5.678587488207221,-2.51159557517618,-24.88897479608059,-1.6142054796218872,-0.110598973929882,0.4368582367897033
1783203115908087600,3.307087646484375,7.032440722486377,-4.11358741171658,-21.81630221195221,-0.6197270750999451,0.2682031095027923,0.8657655119895935
1783203115918024400,3.3170244140625,7.198461890292167,-4.65983919198066,-18.7242877984941,0.4056267142295837,0.5101544260978699,1.1859198808670044
1783203115927961600,3.326961669921875,6.291936828449368,-4.731083934766054,-15.449631337296962,1.099516749382019,0.5679335594177246,1.3848350048065186
1783203115937898800,3.336898681640625,5.000086753618717,-4.719447857508063,-11.74319557045102,1.5073471069335938,0.5775733590126038,1.3182545900344849
1783203115947835400,3.34683544921875,3.191281427896022,-4.307887164023518,-8.162583985579014,1.8007453680038452,0.6169702410697937,1.0747737884521484
1783203115957772500,3.3567724609375,1.2729293935224413,-3.879732186351717,-5.652072990769147,1.973235845565796,0.7097297310829163,0.7836808562278748
1783203115967709400,3.36670947265625,-0.2693616056950763,-3.271858062650263,-3.431450950974226,2.0701353549957275,0.7314729690551758,0.5468419194221497
1783203115977646600,3.376646484375,-1.2750611448541282,-2.610776664896309,-1.6315490626752376,2.02763032913208,0.5958983898162842,0.4028556942939758
1783203115987583700,3.386583740234375,-1.8061492582559584,-2.026884889806807,-0.1282341657251119,1.871137261390686,0.4155550599098205,0.2779758870601654
1783203115997520400,3.396520263671875,-2.265325543265789,-1.2474155975595116,1.134005783739686,1.6757214069366455,0.2541749775409698,0.2002472579479217
1783203116007457500,3.40645751953125,-2.68267168828398,-0.587439530698955,1.8959961179196836,1.4756817817687988,0.1946608126163482,0.1760319769382476
1783203116017395500,3.4163955078125,-3.0181252936437724,0.0262059429455548,2.3524340640068053,1.389155030250549,0.2083433270454406,0.2007668912410736
1783203116027332600,3.42633251953125,-3.334960707773268,0.6688620416928083,2.5700258445739745,1.3096245527267456,0.1765392869710922,0.2312139570713043
1783203116037269500,3.43626953125,-3.5346295858979224,1.0276969610314817,2.894457705181837,1.1597144603729248,0.0970559120178222,0.2520065903663635
1783203116047206700,3.44620654296875,-3.687603640604019,1.320537532393634,3.523897179481387,1.049987554550171,-0.0145705733448266,0.185550257563591
1783203116057143600,3.4561435546875,-3.81376976788342,1.6734896773040293,3.9600276660770177,0.841907262802124,-0.1807488948106765,0.0844345539808273
1783203116067080400,3.46608056640625,-3.7481010716646903,1.7860997190482912,4.533226197716593,0.5163667798042297,-0.3770002722740173,-0.0578428246080875
1783203116077017600,3.476017578125,-3.5854806522130964,1.951231390668452,5.066929169791937,0.1169706359505653,-0.5613685250282288,-0.2146950215101242
1783203116086954500,3.48595458984375,-3.3110353500455614,2.1103816497914494,5.353737109926342,-0.3204194605350494,-0.6797373294830322,-0.3904120624065399
1783203116096891600,3.4958916015625,-2.937964838474989,2.244329516988248,5.320443912133574,-0.7505825757980347,-0.7288708090782166,-0.5497029423713684
1783203116106828500,3.50582861328125,-2.4193185657560825,2.334271507589519,5.027336579594016,-1.152736783027649,-0.7422482967376709,-0.6669737696647644
1783203116116765400,3.515765380859375,-1.795542231784761,2.417951953577995,4.548467021468282,-1.5134073495864868,-0.7393715977668762,-0.7414246201515198
1783203116126702600,3.52570263671875,-1.1441709116622805,2.44178188810721,3.9764527311772095,-1.798994541168213,-0.7612623572349548,-0.7813242077827454
1783203116136639500,3.535639404296875,-0.6122188018422573,2.3919512508809566,3.289723681947589,-1.972351312637329,-0.8372830748558044,-0.82355797290802
1783203116146576600,3.54557666015625,-0.3291554185310378,2.3364194794036446,2.424810148909688,-2.088222026824951,-0.9273337125778198,-0.8502687811851501
1783203116156513500,3.555513427734375,-0.0462795206159353,2.182378233857453,1.659148432740569,-2.151280403137207,-1.0213515758514404,-0.8488589525222778
1783203116166451500,3.565451416015625,0.3252666309315711,2.0234338725700973,0.9012883302330972,-2.1283633708953857,-1.0756081342697144,-0.8344854116439819
1783203116176388600,3.575388671875,0.623318653331697,1.963285254947096,-0.0640770431131124,-2.0716392993927,-1.0699621438980105,-0.7781747579574585
1783203116186325500,3.585325439453125,0.8985990180838852,1.8763342628553508,-1.0896353116154671,-2.0280234813690186,-0.9742774963378906,-0.6861308813095093
1783203116196262700,3.5952626953125,1.1946125203937292,1.704731203263998,-2.096834916606545,-1.990139961242676,-0.8434454202651978,-0.5729271173477173
1783203116206199600,3.605199462890625,1.3732625758871435,1.625357076167315,-3.417957263150811,-1.95715594291687,-0.7468388080596924,-0.4780082106590271
1783203116216136400,3.615136474609375,1.531679113908112,1.3658309645816682,-4.980168001183867,-1.8489421606063845,-0.7379904985427856,-0.3993096649646759
1783203116226073600,3.625073486328125,1.978722039662301,0.743246543808654,-7.143512741008401,-1.6193310022354126,-0.6694850921630859,-0.2528103590011596
1783203116236010500,3.635010498046875,2.406298048402369,-0.063701560864225,-9.843914439511298,-1.12623929977417,-0.3326295614242553,-0.0586145296692848
1783203116245947600,3.64494775390625,2.67685218835026,-0.8276968781910836,-12.738852621686458,-0.4891510903835296,0.2759538292884826,0.2468076348304748
1783203116255884500,3.654884521484375,3.12355901401788,-1.842077480727434,-15.369958665645122,0.3284644186496734,1.1013331413269043,0.5207153558731079
1783203116265821400,3.664821533203125,3.3829335883036253,-2.276323030359298,-17.07993536834717,1.3065762519836426,1.7571982145309448,0.6946814060211182
1783203116275758600,3.674758544921875,3.0115006148070096,-2.572693894739449,-18.320799352306125,1.4307676553726196,2.522490262985229,0.7262890934944153
1783203116285696500,3.684696533203125,2.2372930424802004,-3.088568364657461,-17.13006162751913,1.8518776893615725,3.226768732070923,0.4668818414211273
1783203116295633700,3.694633544921875,0.7368713827535509,-2.5303081666916607,-16.432534120899437,2.6153833866119385,3.746540307998657,0.2892170548439026
1783203116305570600,3.704570556640625,0.258149927861616,-2.124441300934553,-16.513613152217864,3.4209980964660645,3.995908737182617,0.3273053169250488
1783203116315507700,3.7145078125,0.3037962651405483,-1.3777329992994665,-15.296372035908698,4.127793312072754,3.90716552734375,0.5385770797729492
1783203116325444400,3.7244443359375,0.0982777111396193,-0.2481513886775821,-13.98993287923336,4.881411075592041,3.638032913208008,0.7430475354194641
1783203116335381500,3.734381591796875,-0.6085299572616816,1.052249364616349,-13.06560035802126,5.49875545501709,3.464134693145752,0.8978496193885803
1783203116345318700,3.744318603515625,-1.32619628880769,1.9538554555617271,-11.957117722594738,6.018648624420166,3.4559571743011475,0.9399459362030028
1783203116355255600,3.754255615234375,-2.1407447854816914,3.1014737311989067,-10.41298157043457,6.579418659210205,3.4952681064605717,0.9860228896141052
1783203116365192700,3.764192626953125,-2.714617270860076,4.420525116688013,-9.24375308214426,7.145272731781006,3.564763069152832,1.085066318511963
1783203116375129300,3.77412939453125,-3.2140795351594686,5.929110062995552,-7.82972273479998,7.575464248657227,3.639764070510864,1.2361952066421509
1783203116385066500,3.78406640625,-3.8454517310872673,7.518180166381597,-5.825403604805469,7.896939277648926,3.6239519119262695,1.393923282623291
1783203116395003600,3.794003662109375,-4.67672573711276,9.215921072366832,-3.609280045473575,7.792306900024414,3.587702751159668,1.4641438722610474
1783203116404940500,3.8039404296875,-5.447810647374391,10.320472798085213,-0.4917687871873378,7.3406805992126465,3.396259069442749,1.4057104587554932
1783203116414878700,3.813878662109375,-6.006020868718624,10.691934120893478,2.50597042877078,6.76436185836792,3.007873296737671,1.2591590881347656
1783203116424815600,3.823815673828125,-6.194294200342894,10.797463702857494,4.734164365124702,6.250647068023682,2.4771361351013184,1.0725315809249878
1783203116434752500,3.83375244140625,-6.12009090001285,10.946045660084485,6.342763929367065,5.478241920471191,1.9114822149276731,0.8247513771057129
1783203116444689400,3.843689453125,-5.964391804257035,10.807208851802349,8.14131323401332,4.452212333679199,1.484207034111023,0.5321093201637268
1783203116454626600,3.85362646484375,-5.796234793466329,10.499465091145035,9.835506676650049,3.476881742477417,1.3126739263534546,0.1965584754943847
1783203116464563700,3.863563720703125,-5.71311110457778,10.328207191729543,10.494131913423535,2.6618142127990723,1.3081004619598389,-0.1288534253835678
1783203116474500600,3.87350048828125,-5.632441238582134,10.15640919408798,10.559098014330864,1.910513162612915,1.3323419094085691,-0.3531006574630737
1783203116484437500,3.8834375,-5.427663346880674,10.010797777104376,10.67918920561075,1.189653754234314,1.2816730737686155,-0.4809033572673797
1783203116494374400,3.89337451171875,-5.131446357887983,9.91901614998579,11.02717963646054,0.5871655344963074,1.098615646362305,-0.5310594439506531
1783203116504311600,3.9033115234375,-4.873858959279954,9.88358243303299,11.16964983280897,0.1186626031994819,0.7742182016372681,-0.5412039160728455
1783203116514248700,3.913248779296875,-4.654594569325447,9.902955826544762,11.244323673260212,-0.2874052822589874,0.314939796924591,-0.4899732172489166
1783203116524186600,3.9231865234375,-4.232472734338045,9.754843824917078,11.478754360425471,-0.6802512407302856,-0.2061317265033722,-0.3858194947242737
1783203116534123800,3.933123779296875,-3.723106623400748,9.619579614424705,11.80765079922676,-1.065598726272583,-0.7441331148147583,-0.243627980351448
1783203116544060400,3.943060302734375,-3.2982039255231617,9.51233270714879,11.954882510888575,-1.4608582258224487,-1.2134225368499756,-0.0933385342359542
1783203116553997600,3.95299755859375,-3.0056442899942395,9.293633257600664,12.070372345852851,-1.8849738836288448,-1.5749802589416504,0.0359246432781219
1783203116563934500,3.9629345703125,-3.004062281499803,9.231386352524162,11.944537642484905,-2.321999311447144,-1.8476662635803225,0.1510020941495895
1783203116573871600,3.97287158203125,-3.126819184857607,9.13462869055867,11.73722760195732,-2.7386107444763184,-2.025275945663452,0.2963995039463043
1783203116583808800,3.982808837890625,-3.215507522135973,9.012899084421992,11.290164217936992,-3.1668403148651123,-2.1566522121429443,0.434867113828659
1783203116593745400,3.992745361328125,-3.460013320852816,8.78913884435296,10.83822358326912,-3.61806583404541,-2.2680084705352783,0.5601068139076233
1783203116603682600,4.0026826171875,-3.832627320827544,8.590562729901075,10.424204390716552,-4.227255344390869,-2.4512720108032227,0.683453381061554
1783203116613619500,4.012619384765625,-4.420945972448587,8.44474848382175,10.032038133531808,-4.963886260986328,-2.746737241744995,0.7608621716499329
1783203116623556600,4.022556640625,-5.226811104190349,8.174810429945587,9.31993674263656,-5.709646224975586,-3.1153130531311035,0.7643723487854004
1783203116633493800,4.03249365234375,-5.963198210558295,7.568060926359891,7.823976300102472,-6.364963531494141,-3.5211291313171387,0.6738198399543762
1783203116643431700,4.042431640625,-6.488684558430314,6.792860981994867,5.488445440101623,-6.680157661437988,-3.800342082977295,0.5685279965400696
1783203116653368600,4.05236865234375,-6.632849283736944,6.126158821749687,2.20591137739718,-6.959897994995117,-3.783415079116821,0.5504807829856873
1783203116663305500,4.062305419921875,-6.194927822071313,5.685560249829292,-0.6876619461655616,-7.245635509490967,-3.590381383895874,0.5898268222808838
1783203116673242600,4.07224267578125,-5.497677378827333,5.839414594501257,-3.435693410849571,-7.505006790161133,-3.416346311569214,0.6495580673217773
1783203116683179500,4.082179443359375,-4.577727895005047,6.276380947399139,-6.802219761970639,-7.709612846374512,-3.370911121368408,0.7312015295028687
1783203116693116700,4.09211669921875,-2.708624752447009,6.135609956184029,-10.599668509650227,-7.6089091300964355,-3.38313889503479,0.8567725419998169
1783203116703053600,4.102053466796875,-0.1742617574065923,5.353977348423004,-15.414688618731498,-6.9294610023498535,-3.162275075912476,1.0123509168624878
1783203116712990500,4.111990478515625,1.5489493976607918,3.7162022508397694,-20.93103211958408,-5.61635684967041,-2.3728694915771484,1.1467411518096924
1783203116722927600,4.121927734375,2.6629516732916234,1.3452221840560434,-25.186826108276843,-3.5151805877685547,-1.5347919464111328,1.3151272535324097
1783203116732864500,4.131864501953125,3.932875162996352,-0.8808889546744525,-27.89081501761675,-3.30570387840271,-0.3086132407188415,1.4640016555786133
1783203116742802700,4.141802734375,5.270624526953697,-3.1981773248896,-24.719977827334404,-2.3312647342681885,0.6509706377983093,1.1158785820007324
1783203116752739600,4.151739501953125,4.80899135031104,-3.428229066318273,-22.178635640931127,-0.4392473697662353,1.012964963912964,0.7676303386688232
1783203116762676500,4.161676513671875,5.435376697736978,-3.9548374039575456,-21.894840911138058,1.0019290447235107,0.971173107624054,0.7988295555114746
1783203116772613600,4.171613525390625,6.337841086012125,-4.539083691573143,-17.91821223887205,1.4678784608840942,0.8345246911048889,1.2081130743026731
1783203116782550500,4.181550537109375,6.59387628674209,-4.884411625215411,-12.551366056525708,1.6571969985961914,0.7347661852836609,1.631466031074524
1783203116792487700,4.19148779296875,5.441976534393429,-4.429441705854237,-8.892375346943735,1.9586519002914429,0.7742654085159302,1.8229377269744875
1783203116802424600,4.201424560546875,3.161944566513598,-3.606011106805503,-6.792552938959002,2.224471092224121,0.8092421293258667,1.805273413658142
1783203116812361500,4.211361572265625,0.8836003325249999,-3.1777345485806463,-4.912345341801643,2.3860347270965576,0.7754346132278442,1.6142576932907104
1783203116822298600,4.221298583984375,-1.1090864465385677,-2.700773162163794,-3.0569191346794367,2.4151642322540283,0.7627676725387573,1.3203715085983276
1783203116832235500,4.231235595703125,-2.765596639730036,-2.113549612303078,-1.3991642021238804,2.295459270477295,0.8073492646217346,1.0051894187927246
1783203116842173700,4.241173583984375,-3.7739188190102575,-1.7345378741152584,0.1787163987278938,2.0969276428222656,0.8510976433753967,0.701644241809845
1783203116852110600,4.251110595703125,-4.36592317340672,-1.3060120173044505,1.3808470396667718,1.7792458534240725,0.8874868154525757,0.412339448928833
1783203116862047700,4.2610478515625,-4.67669855684489,-0.8864435200616717,2.482084526270628,1.4912068843841553,0.891120433807373,0.1508162468671798
1783203116871985700,4.270985595703125,-4.877262922504544,-0.4125784922249615,3.212460994046926,1.3075478076934814,0.835533082485199,-0.044406771659851
1783203116881922600,4.280922607421875,-4.875825583177805,0.0886025586910545,3.545848314526677,1.223036289215088,0.6876349449157715,-0.1691426038742065
1783203116891859500,4.290859375,-4.604209366956353,0.443067592382431,3.8036072703093287,1.1104791164398191,0.4366839528083801,-0.2028630226850509
1783203116901796600,4.300796630859375,-4.243917965199053,0.7076001339532435,4.165674741828441,0.9597732424736024,0.1748507022857666,-0.2236436903476715
1783203116911733500,4.3107333984375,-4.0696635143160815,1.1091536665558814,4.624522087144851,0.7801856398582458,-0.0819960013031959,-0.2312443554401397
1783203116921670700,4.320670654296875,-3.93554525898844,1.493781198798865,4.9139264735132455,0.5572394728660583,-0.3128250241279602,-0.2717127501964569
1783203116931607600,4.330607666015625,-3.870478328055143,1.7932519288904964,5.199038715645671,0.2503637075424194,-0.5060415863990784,-0.3571949005126953
1783203116941545500,4.34054541015625,-3.849403683583438,2.0053858824431896,5.533820705354214,-0.1344125866889953,-0.6584282517433167,-0.486930787563324
1783203116951482600,4.350482666015625,-3.712579091906547,2.1005890084430576,5.788470589205622,-0.5214468836784363,-0.7653738856315613,-0.6620208621025085
1783203116961419500,4.36041943359375,-3.568342178146541,2.2441572291612624,5.783529625672101,-0.8711860775947571,-0.8667831420898438,-0.8642566204071045
1783203116971356700,4.370356689453125,-3.3637574709296225,2.316571015726029,5.4738885069608685,-1.2084325551986694,-0.9862144589424132,-1.0654152631759644
1783203116981293600,4.38029345703125,-3.0443413926571607,2.2455714798733597,5.0929497462332245,-1.547806978225708,-1.090426683425903,-1.252429485321045
1783203116991230500,4.39023046875,-2.6418378658533093,2.21280259821564,4.648047924160957,-1.87450647354126,-1.1600524187088013,-1.4176666736602783
1783203117001167600,4.400167724609375,-2.200064697195589,2.2100497923761604,4.085062743499875,-2.19869065284729,-1.1958767175674438,-1.5417897701263428
1783203117011104500,4.4101044921875,-1.7133704367935656,2.2122131078898906,3.4782746614694595,-2.5096852779388428,-1.2136889696121216,-1.5949859619140625
1783203117021041700,4.420041748046875,-1.1416473845340311,2.187133903951943,2.873102782464027,-2.744133949279785,-1.2438366413116455,-1.6479912996292114
1783203117030979600,4.4299794921875,-0.6780209151823073,2.229602780238539,2.133019159665704,-2.9449496269226074,-1.2740931510925293,-1.7142568826675415
1783203117040916500,4.43991650390625,-0.3044509296569973,2.114798589450866,1.4168267000645398,-3.080592155456543,-1.248151779174805,-1.781550407409668
1783203117050853400,4.449853271484375,0.0747041899237316,1.9331610425792636,0.6678419779300689,-3.1201789379119877,-1.165574550628662,-1.8299038410186768
1783203117060790500,4.45979052734375,0.4791082987850532,1.761275658915192,-0.2683937470436096,-3.085341453552246,-1.0466824769973757,-1.8132745027542116
1783203117070727700,4.469727783203125,0.9494215158917008,1.5842032280020415,-1.2110089439213276,-3.0035336017608643,-0.93045836687088,-1.7127875089645386
1783203117080664600,4.47966455078125,1.497461787007749,1.4175504842944442,-2.0850205601722003,-2.844581127166748,-0.8834766149520874,-1.5282975435256958
1783203117090601500,4.4896015625,2.0950148615725337,1.2032801032349467,-2.99710150257647,-2.6480789184570312,-0.9068272113800048,-1.2658041715621948
1783203117100538400,4.499538330078125,2.6778490904331207,0.9469368594691157,-3.88105817425847,-2.4169135093688965,-0.9410911202430724,-1.0153179168701172
1783203117110475500,4.5094755859375,3.0137492705166338,0.7706120320528745,-4.609460127091407,-2.1288130283355717,-0.9510513544082642,-0.7720932960510254
1783203117120413400,4.519413330078125,3.136144647085666,0.5325611085638403,-5.585393071681261,-1.851917624473572,-0.8667256236076355,-0.5449314117431641
1783203117130350600,4.5293505859375,3.029398382808268,0.3382446973830461,-6.638644818273186,-1.593762993812561,-0.6306702494621277,-0.2907632887363434
1783203117140287700,4.539287841796875,2.866243418088555,0.160725253354758,-7.99347128149867,-1.3112231492996216,-0.3186579942703247,-0.0274634435772895
1783203117150224400,4.549224365234375,2.591327575799822,-0.14336758357957,-9.69642729178369,-0.911607265472412,0.0006701983511447,0.2131733894348144
1783203117160161500,4.55916162109375,2.153827116025239,-0.4727507829844951,-11.511854665994644,-0.3278479874134063,0.2950910031795501,0.3842645585536957
1783203117170098400,4.569098388671875,2.113420725226402,-1.0177557780578732,-13.088339428573846,0.389594554901123,0.555516242980957,0.4927489459514618
1783203117180035600,4.57903564453125,2.4509457300327715,-1.53087159691751,-14.143119699907302,1.1559033393859863,0.8835659027099609,0.5709211826324463
1783203117189972700,4.58897265625,2.7795167362719773,-1.6404500158809123,-14.378029695022104,1.937200665473938,1.2810834646224976,0.6770886182785034
1783203117199909400,4.598909423828125,2.9763462993174787,-1.6196648558750748,-13.851274934649467,2.723184823989868,1.661740779876709,0.7666168808937073
1783203117209847600,4.60884765625,2.871277320602536,-1.3008867832452058,-13.03342710416913,3.445615768432617,1.917711853981018,0.8437846302986145
1783203117219784400,4.618784423828125,2.0711710446484384,-0.6837468185484409,-12.18560966736078,4.077876091003418,2.1025984287261963,0.8944512605667114
1783203117229721600,4.6287216796875,1.0900074328634888,-0.0134766636233776,-11.153229443883896,4.613882541656494,2.2520904541015625,0.9110017418861388
1783203117239658500,4.638658447265625,0.0608981208160519,0.7065172340873629,-10.170653992539645,5.055596828460693,2.330163955688477,0.8899462223052979
1783203117249595600,4.648595703125,-1.0566375165726989,1.340289549959451,-9.292339710658789,5.381465911865234,2.341782093048096,0.8180435299873352
1783203117259532500,4.658532470703125,-2.101962342622876,2.043204740966857,-8.555293848121165,5.602297782897949,2.40341854095459,0.725114107131958
1783203117269469400,4.668469482421875,-2.699329685357213,2.456671268072724,-7.5514026370257135,5.768178462982178,2.500559091567993,0.6500380039215088
1783203117279406600,4.678406494140625,-3.005148615431785,2.9409730803802607,-6.465514110723137,5.931236267089844,2.575612068176269,0.6270492076873779
1783203117289344500,4.688344482421875,-3.1067838203057643,3.523344806295633,-5.439748336949944,6.100112438201904,2.655421495437622,0.6645424962043762
1783203117299281700,4.69828173828125,-3.241926450245082,4.120757449476421,-4.318717770117521,6.263105392456055,2.746622323989868,0.702136218547821
1783203117309218600,4.708218505859375,-3.6452538606524474,5.017898304641246,-3.141636230239272,6.423128604888916,2.8614964485168457,0.7350965738296509
1783203117319155500,4.718155517578125,-4.100556372968852,6.1025441374063485,-1.947674282708764,6.533820629119873,2.954667091369629,0.7812372446060181
1783203117329092600,4.728092529296875,-4.28535618326366,6.966902374649047,-0.7114712762981653,6.567963123321533,2.9839768409729004,0.8418742418289185
1783203117339029500,4.738029541015625,-4.225539720204472,7.655836824968457,0.613299655881524,6.513589382171631,2.9109387397766118,0.8920907378196716
1783203117348966700,4.747966552734375,-4.112916672848165,8.339103166523575,2.039680366232991,6.291245460510254,2.733164072036743,0.9164440035820008
1783203117358903600,4.757903564453125,-3.968725936317444,9.046354194778203,3.585923719805479,5.847612857818604,2.4868032932281494,0.9223843812942504
1783203117368841700,4.767841796875,-3.655708911432326,9.376631274282932,5.243225647896528,5.144437313079834,2.204750299453736,0.8858130574226379
1783203117378778400,4.7777783203125,-3.3885464597493407,9.26891207332015,6.862517286545038,4.238659858703613,1.8926019668579104,0.7817332744598389
1783203117388715500,4.787715576171875,-3.255222277408838,9.096358873397111,8.176381624785066,3.235569477081299,1.6066255569458008,0.6319267153739929
1783203117398652700,4.797652587890625,-3.204797035290301,8.859269196155667,9.133969934388997,2.264711618423462,1.3697574138641355,0.4574516117572784
1783203117408589600,4.807589599609375,-3.2243650745913386,8.54157921102345,9.597983284166457,1.4148236513137815,1.2196829319000244,0.2764791846275329
1783203117418526700,4.817526611328125,-3.2516149005666373,8.324905129823089,9.590123218315838,0.7423011064529419,1.1554406881332395,0.1064801514148712
1783203117428463400,4.82746337890625,-3.2011630627021197,8.03105253187418,9.452458960944414,0.2209415584802627,1.0825878381729126,0.0020932967308908
1783203117438400500,4.837400390625,-3.010281302145123,7.714936079668998,9.120454034733772,-0.1598409712314605,0.9460209608078004,-0.1340413242578506
1783203117448337700,4.847337646484375,-3.1341675017938018,7.861006930857896,8.979707008916138,-0.4612165093421936,0.7610780000686646,-0.2219299077987671
1783203117458275600,4.857275634765625,-2.7079709647133945,7.656037900498509,9.162205264270304,-0.7254806160926819,0.4948743879795074,-0.248997077345848
1783203117468212500,4.86721240234375,-2.4515663461491464,7.5921572567403315,9.409574343463778,-1.029380440711975,0.139113649725914,-0.2211460024118423
1783203117478149600,4.877149658203125,-2.321773552805185,7.729635636150837,9.676151980996131,-1.3813400268554688,-0.2701715230941772,-0.1712138056755066
1783203117488086500,4.88708642578125,-2.286733219084144,7.789026567274331,10.033998619949816,-1.8636635541915891,-0.6993495225906372,-0.1485282033681869
1783203117498023400,4.8970234375,-2.4019831078127023,7.797333207848667,10.353405930393931,-2.4391143321990967,-1.0625262260437012,-0.1820820569992065
1783203117507960600,4.906960693359375,-2.6799542460188266,7.889335199719667,10.666661732470988,-3.123548984527588,-1.308289885520935,-0.2499612420797348
1783203117517897700,4.916897705078125,-3.0494629734545944,7.964585963276028,10.825253042536971,-3.694788694381714,-1.5168267488479614,-0.2983146607875824
1783203117527834600,4.926834716796875,-3.4181545392885804,8.014215378841758,10.533694693005083,-4.229363918304443,-1.7688658237457275,-0.3057704269886017
1783203117537772500,4.9367724609375,-3.650486208347976,7.951774412497878,10.062361960124967,-4.85203742980957,-2.1648290157318115,-0.309548944234848
1783203117547709400,4.94670947265625,-4.061488975688815,7.906780840039253,9.789195591852067,-5.622411251068115,-2.6689884662628174,-0.3225334584712982
1783203117557646600,4.956646484375,-4.59404073190242,8.314554416200519,9.259785933056474,-6.555305004119873,-3.092296838760376,-0.352369099855423
1783203117567583500,4.96658349609375,-5.0695747158646585,8.603370773547887,8.505199737653136,-7.591290473937988,-3.2298405170440674,-0.4054429829120636
1783203117577520600,4.976520751953125,-5.543617292225361,8.959869505023956,7.092016362527012,-8.665650367736816,-3.1105518341064453,-0.478123277425766
1783203117587457500,4.98645751953125,-6.0811301779776805,9.88279683561325,5.010871182483434,-9.735200881958008,-2.9232044219970703,-0.6226279735565186
1783203117597394400,4.99639453125,-7.02105715868473,10.926416245985031,2.156540905028581,-10.575689315795898,-2.781388998031616,-0.9098129272460938
1783203117607331600,5.00633154296875,-7.484463190218806,11.76005902696848,-1.4262825106739998,-11.158473014831545,-2.6459603309631348,-1.3848490715026855
1783203117617269500,5.01626953125,-7.463126387679576,11.937805119359492,-5.956688974794745,-11.209894180297852,-2.185110330581665,-1.903241872787476
1783203117627206700,5.02620654296875,-6.348382353770733,10.71681020347476,-10.975686765110492,-10.781527519226074,-1.6451361179351809,-2.361071348190308
1783203117637143600,5.0361435546875,-4.272942107370495,9.069887630578876,-15.747617089527845,-9.653682708740234,-1.243728518486023,-2.7080397605896
1783203117647080700,5.046080810546875,-0.8923867925055324,6.415773051476478,-21.5270971475482,-9.40992832183838,0.051522459834814,-3.154641628265381
1783203117657017300,5.056017333984375,2.8874516258120537,3.456068674880266,-22.335865014994145,-7.848613262176514,0.959145188331604,-3.666370391845703
1783203117666954500,5.06595458984375,5.963751752787828,2.0395736909881235,-26.63527368900776,-5.171842098236084,1.2012654542922974,-3.805964946746826
1783203117676891600,5.0758916015625,8.521337217983604,1.663264343626797,-29.688867478656768,-2.6403918266296387,0.9175026416778564,-3.068732261657715
1783203117686828500,5.08582861328125,11.106578751868009,1.2363850849792362,-28.474698609399795,-0.4218343496322632,0.2711318731307983,-1.5821582078933716
1783203117696766700,5.0957666015625,13.093326569336652,0.5622711871728301,-25.695273643064496,1.5157090425491333,-0.2087224274873733,0.2495974898338318
1783203117706703600,5.10570361328125,14.309360063421725,-0.9829244109123944,-22.282897979438303,3.045381546020508,-0.2120313942432403,1.7246211767196655
1783203117716640500,5.115640625,13.450801452368497,-1.9440473243832588,-18.037287531107665,3.9836061000823975,0.0734462663531303,2.634799003601074
1783203117726577400,5.125577392578125,10.880340723508596,-2.1101555859506127,-13.842752605497836,4.452305793762207,0.3411480188369751,3.031928062438965
1783203117736514600,5.1355146484375,7.874851331815123,-1.9858274877533315,-10.235533584207296,4.421424388885498,0.51268470287323,2.992130279541016
1783203117746451700,5.14545166015625,4.432048965743184,-1.246713586769998,-7.052777992594241,4.201730728149414,0.602418839931488,2.6488125324249268
1783203117756388600,5.155388671875,1.113690140941739,-0.6249181974828243,-4.618216264998913,3.890458345413208,0.7119350433349609,2.200392723083496
1783203117766326800,5.165326904296875,-1.750152207354456,-0.1513148893222212,-2.9550165110409257,3.4815635681152344,1.0305140018463137,1.6928092241287231
1783203117776263400,5.175263427734375,-3.857235984644293,0.396207349269092,-1.1486492261201142,3.311796903610229,1.3789846897125244,1.150188446044922
1783203117786200600,5.18520068359375,-5.278951625794172,0.9033613371148704,-0.3291074512034654,3.295868158340454,1.5593512058258057,0.7035335302352905
1783203117796137500,5.195137451171875,-5.66021947234571,0.9912368236403912,0.4175537964195013,3.210005760192871,1.512184739112854,0.3827203512191772
1783203117806074600,5.20507470703125,-5.439306438401341,1.1718760801896453,1.5951748500019312,3.047462224960327,1.2899255752563477,0.1725524812936782
1783203117816011800,5.21501171875,-4.928720138019323,1.5441618711233138,2.822615873286128,2.8961026668548584,0.9686124920845032,0.0368911959230899
1783203117825948400,5.224948486328125,-4.333187609496712,1.88779644485116,3.655116498497128,2.741917371749878,0.6239768266677856,-0.0356519781053066
1783203117835885600,5.234885498046875,-3.809681037265062,2.267260310720652,4.285436262762547,2.557921886444092,0.3768690526485443,-0.0735819935798645
1783203117845823500,5.244823486328125,-3.4022125815302133,2.7084613785788414,4.906747375664114,2.337268829345703,0.2193231284618377,-0.0887753292918205
1783203117855760600,5.2547607421875,-3.1009330484509467,3.0020903969049453,5.429585839375854,2.0749666690826416,0.1025386825203895,-0.1134934946894645
1783203117865697500,5.264697509765625,-2.994744125795364,3.331910964813828,5.829682305037975,1.7321128845214844,0.0192613676190376,-0.1343345940113067
1783203117875634400,5.274634521484375,-2.9561349936768413,3.5231747104257343,6.366399071976542,1.315626859664917,-0.0611195415258407,-0.1798520535230636
1783203117885571600,5.284571533203125,-2.95515738081634,3.637729310366511,6.830992851990461,0.8635961413383484,-0.1901568919420242,-0.2596614062786102
1783203117895508500,5.294508544921875,-3.0008894966825843,3.7277652628615496,7.1321350224256514,0.458853930234909,-0.4055988490581512,-0.3477243781089782
1783203117905445400,5.3044453125,-2.974850215540826,3.673879943417013,7.171536473965644,0.0411522984504699,-0.7139164209365845,-0.4318586885929107
1783203117915382300,5.31438232421875,-2.757100029541552,3.528248068167269,7.064054004368185,-0.4181946516036987,-1.0545047521591189,-0.5157697200775146
1783203117925320400,5.324320556640625,-2.435444209518284,3.3448072712659838,6.945567910197377,-0.8738433718681335,-1.325391173362732,-0.6154787540435791
1783203117935257300,5.33425732421875,-2.156589420345425,3.205018861347437,6.561262887907028,-1.2348501682281494,-1.4908746480941772,-0.7424530982971191
1783203117945194500,5.344194580078125,-1.917877402599156,3.087565617355704,5.870885253041982,-1.5430822372436523,-1.626087307929993,-0.8828752040863037
1783203117955131600,5.354131591796875,-1.5917086351960896,2.942582561403513,5.066971839889884,-1.862866759300232,-1.7106235027313232,-1.0072907209396362
1783203117965068300,5.364068359375,-1.1478858405321837,2.744480494204163,4.388089997029304,-2.2071492671966557,-1.713565707206726,-1.1024999618530271
1783203117975005400,5.37400537109375,-0.7190006488896906,2.5666981614559887,3.717387953492999,-2.504095554351806,-1.669569492340088,-1.153566598892212
1783203117984943400,5.383943359375,-0.2658998844012618,2.413248013670742,2.81979613969028,-2.7318336963653564,-1.638294696807861,-1.155645489692688
1783203117994880500,5.393880615234375,0.264911530951038,2.240332117915153,1.846587651628256,-2.897911310195923,-1.669636368751526,-1.094198226928711
1783203118004817400,5.4038173828125,0.8333535157132893,2.0334649988494813,0.8229425232708454,-2.95427680015564,-1.7598310708999634,-0.9883561730384828
1783203118014754600,5.413754638671875,1.3971438022121787,1.680021709421277,-0.3671498893499374,-2.927356481552124,-1.8518143892288208,-0.8373785614967346
1783203118024691500,5.42369140625,1.9360770761564368,1.2439718868464231,-1.6008710158169268,-2.8165557384490967,-1.8800727128982544,-0.6509141325950623
1783203118034628400,5.43362841796875,2.486739366339147,0.8844111374512315,-2.869174210843444,-2.635310649871826,-1.8501017093658447,-0.4227652847766876
1783203118044565500,5.4435654296875,2.9232658665150404,0.5670758109755814,-4.0841958975374695,-2.416382074356079,-1.7605571746826172,-0.1857764273881912
1783203118054502400,5.45350244140625,3.217157335169613,0.2801512587241828,-5.276643933373689,-2.1543233394622803,-1.6310046911239624,0.0429248325526714
1783203118064440600,5.463440673828125,3.4079213145658374,-0.12433525859043,-6.441297953355312,-1.8224084377288816,-1.446901798248291,0.2404522746801376
1783203118074377500,5.47337744140625,3.4130642304122447,-0.4178884352013468,-7.589988680529594,-1.4497298002243042,-1.1909990310668943,0.4400041699409485
1783203118084314400,5.483314453125,3.2716637091219423,-0.6061366323843598,-8.805909946411848,-1.0924891233444214,-0.846603274345398,0.6698887348175049
1783203118094251500,5.49325146484375,3.0921473921880125,-1.0189911650717258,-9.882866978240012,-0.6965359449386597,-0.4060097336769104,0.8818289041519165
1783203118104188400,5.5031884765625,2.6624875629112124,-1.3391305891826748,-10.951382344937324,-0.1969655156135559,0.0794200748205185,1.0245987176895142
1783203118114125600,5.51312548828125,2.041900526500493,-1.5483765662088989,-11.961925999659298,0.3751077651977539,0.544659435749054,1.087486982345581
1783203118124062500,5.5230625,1.2958368063792585,-1.6328043234333396,-12.73233987879157,0.9534329175949096,0.9656023979187012,1.073164463043213
1783203118134000600,5.533000732421875,0.4840809726310893,-1.394284028866887,-13.078275130677222,1.528823971748352,1.248171329498291,0.9636335372924804
1783203118143937300,5.542937255859375,-0.222838120255433,-0.7277588326238096,-13.06114162504673,2.0748109817504883,1.4201487302780151,0.8225909471511841
1783203118153874400,5.55287451171875,-0.3756512487787753,-0.0706111210569739,-12.689439479219912,2.567183256149292,1.5726326704025269,0.6734484434127808
1783203118163811300,5.562811279296875,-0.3551067291283979,0.6173332953117787,-11.777634431147575,2.986272096633911,1.688020944595337,0.5537486672401428
1783203118173748500,5.57274853515625,-0.1902252328770235,1.24791755573228,-10.86129115512371,3.356889247894287,1.709263801574707,0.5110881924629211
1783203118183685600,5.582685546875,0.1537062414381653,1.6564665001802146,-10.045719452881812,3.730858325958252,1.6451458930969238,0.5449804067611694
1783203118193622300,5.592622314453125,0.5037153186339884,2.093564224372804,-9.493414656189085,4.126338005065918,1.537346124649048,0.65471351146698
1783203118203560400,5.602560546875,0.6594041121914982,2.5648990030795336,-9.051271777436137,4.5125226974487305,1.5399837493896484,0.8191285729408264
1783203118213497300,5.612497314453125,0.5861103279218077,2.9047987741932277,-8.550689569196104,4.8682355880737305,1.6742236614227295,1.0029113292694092
1783203118223434500,5.6224345703125,0.3383716847635805,3.3527442017450926,-7.694675381928682,5.202267646789551,1.8126782178878784,1.1843370199203491
1783203118233371400,5.632371337890625,-0.125947516092658,4.024732485699653,-6.842372324138879,5.53056526184082,1.920576572418213,1.3653147220611572
1783203118243308500,5.64230859375,-0.630088585858047,4.628808386161923,-5.785290205603838,5.844307899475098,1.974343180656433,1.5091490745544434
1783203118253245400,5.652245361328125,-1.0613071888841688,5.317296846279501,-4.600649628648162,6.0996856689453125,2.015746593475342,1.6212416887283323
1783203118263182300,5.662182373046875,-1.5340964041829108,5.996999357873201,-3.3386247832387683,6.268412590026856,2.061219453811645,1.6831663846969604
1783203118273120500,5.67212060546875,-2.043288327597081,6.655382602584361,-2.0270424184560776,6.333194732666016,2.1151645183563232,1.6978349685668943
1783203118283057400,5.682057373046875,-2.427159780775756,7.212048517096042,-0.6417845766097307,6.264586448669434,2.1694083213806152,1.6727839708328247
1783203118292994600,5.69199462890625,-2.7407985908210275,7.570661464247107,0.7464666018337011,6.0356645584106445,2.2036194801330566,1.5988693237304688
1783203118302931500,5.701931396484375,-3.031332273480296,7.895534638881683,2.160970996430516,5.599982738494873,2.242100954055786,1.4856302738189695
1783203118312868400,5.711868408203125,-3.2080221348166464,8.168961119395494,3.667483228117227,4.953482151031494,2.2147648334503174,1.3771177530288696
1783203118322805500,5.721805419921875,-3.3445664482474324,8.30194218738675,5.032987152701616,4.164501190185547,2.1253557205200195,1.3097586631774902
1783203118332742400,5.731742431640625,-3.408722401815653,8.053952345946431,6.310933789864182,3.3461263179779053,1.9840682744979856,1.2174171209335327
1783203118342680600,5.7416806640625,-3.415865843829512,7.794725655698776,7.333076696965098,2.601400375366211,1.8436797857284544,1.083355188369751
1783203118352617500,5.751617431640625,-3.5322888679906725,7.68399207535088,7.950266346022486,1.994813680648804,1.715553641319275,0.9484865665435792
1783203118362554600,5.7615546875,-3.4476755250662565,7.267412092399597,8.456593819916248,1.5425019264221191,1.4508817195892334,0.8463761806488037
1783203118372491300,5.7714912109375,-3.425949430948496,6.755638628059625,8.876915912005305,1.21773099899292,1.055846095085144,0.7638672590255737
1783203118382428400,5.781428466796875,-3.4942014216586945,6.35450405152142,9.572673486343026,0.9290499091148376,0.487337976694107,0.6734428405761719
1783203118392365600,5.791365478515625,-3.785843065559864,6.115279115816951,10.394038385033609,0.5785377025604248,-0.148796334862709,0.5710605978965759
1783203118402302500,5.801302490234375,-3.949047422379255,5.817337202727794,11.135329045534132,0.1775828599929809,-0.6873740553855896,0.4279596507549286
1783203118412240400,5.811240478515625,-3.726189976368844,5.486894119006395,11.589645177161692,-0.1186185926198959,-0.987481653690338,0.138423204421997
1783203118422177500,5.821177490234375,-4.3232048524037,5.857656353634596,11.503671359539032,-0.2947472631931305,-1.222832441329956,-0.1618271619081497
1783203118432114400,5.831114501953125,-4.226638621357084,5.746384428626299,11.06929560765624,-0.576553225517273,-1.3778471946716309,-0.4336344003677368
1783203118442051300,5.84105126953125,-3.805732884161174,5.603312759253383,11.211323905456066,-0.9199955463409424,-1.3844516277313232,-0.6310055255889893
1783203118451988500,5.850988525390625,-3.2187109943524,5.383855769336224,11.447772362184525,-1.2619682550430298,-1.2684898376464844,-0.7669329643249512
1783203118461925600,5.860925537109375,-3.0885324165612458,5.6598225819826125,11.454880148363111,-1.558456301689148,-1.148826003074646,-0.8549549579620361
1783203118471863600,5.870863525390625,-3.1518127563387157,5.993473521834612,11.41189440859556,-1.9332642555236816,-1.1035796403884888,-0.8906546235084534
1783203118481800200,5.88080029296875,-3.152446378067136,6.256043677291274,11.652563113367556,-2.327657699584961,-1.259192943572998,-0.8602056503295898
1783203118491737300,5.8907373046875,-3.107923930251598,6.440712262421846,11.837821481084823,-2.717969417572021,-1.6092175245285034,-0.7648810148239136
1783203118501674500,5.900674560546875,-2.9526179254665967,6.621713557216525,11.816695690947771,-3.083638906478882,-2.115398406982422,-0.6170374751091003
1783203118511611400,5.910611328125,-2.7291347487732764,6.634820876070856,11.549154176819323,-3.416461706161499,-2.619115114212036,-0.4205740690231323
1783203118521548500,5.920548583984375,-2.485671152585745,6.607297493851185,11.02844804896116,-3.711455821990967,-2.9465785026550293,-0.1587741523981094
1783203118531485400,5.9304853515625,-2.22895235350579,6.54682402818799,10.285579179358482,-4.046924114227295,-3.0796289443969727,0.182105466723442
1783203118541423400,5.94042333984375,-2.1314352514751254,6.340280295857787,9.309166926819085,-4.518344879150391,-3.155395030975342,0.4974303543567657
1783203118551360300,5.9503603515625,-2.728238092194497,6.33111849975884,7.924023651263117,-5.022464275360107,-3.230058431625366,0.5867912173271179
1783203118561297400,5.96029736328125,-4.555705448289215,6.792260093492269,5.858572883957624,-5.602303981781006,-3.2633590698242188,0.4348467290401459
1783203118571234600,5.970234619140625,-6.537574553805589,7.190318331325054,3.46831382394731,-6.236530780792236,-3.3542425632476807,0.1860542893409729
1783203118581171500,5.98017138671875,-7.498333310139179,6.80132252086997,0.6526531766265631,-6.935316562652588,-3.278942108154297,-0.1541421711444854
1783203118591108400,5.9901083984375,-7.860755586445331,6.093987321463227,-2.3351848230421544,-7.025873184204102,-3.178292751312256,-0.581703245639801
1783203118601045200,6.000045166015625,-8.24009801789224,5.707843393307924,-6.876868467980623,-7.216885089874268,-2.858335018157959,-0.9940351247787476
1783203118610983400,6.0099833984375,-7.378965172436833,4.776090658967196,-11.108119551569224,-7.548551559448242,-2.031741142272949,-1.4825564622879028
1783203118620920300,6.01992041015625,-5.623427911043167,3.997013580907881,-14.46196353124976,-7.255096435546875,-0.9105805158615112,-1.9794772863388064
1783203118630857500,6.029857421875,-2.9864217031300067,3.317347601932287,-19.029945985049007,-6.347238540649414,0.2599521577358246,-2.3131322860717773
1783203118640794600,6.039794677734375,0.6415886887114495,2.179457085713744,-22.855184656929968,-5.195008754730225,1.2285661697387695,-2.372387409210205
1783203118650731300,6.049731201171875,4.292185737022757,1.3153900865025818,-24.15219664456844,-3.819044351577759,1.619434833526611,-2.0792744159698486
1783203118660668400,6.05966845703125,7.346769122231006,0.8928916732877492,-23.95066752552986,-2.10347318649292,1.1519246101379397,-1.4093410968780518
1783203118670605300,6.069605224609375,9.494939089277386,0.5852233159542083,-23.74743627874851,-0.5775038003921509,0.2406838983297348,-0.3768666982650757
1783203118680543500,6.07954345703125,10.859938571470977,-0.0901321063458919,-22.063531590414048,0.7007485628128052,-0.5666376948356628,0.6785504221916199
1783203118690480400,6.08948046875,10.92940081475377,-0.6034924014858901,-19.34712977422476,1.7471320629119873,-0.8382956385612488,1.482046604156494
1783203118700417500,6.09941748046875,9.65508113591671,-0.884930485150218,-16.418330238980055,2.729987859725952,-0.6020239591598511,1.8749048709869385
1783203118710354400,6.1093544921875,7.534130015185475,-0.8664733297005295,-13.638016799372432,3.263155221939087,-0.0995586887001991,1.9375253915786743
1783203118720291300,6.119291259765625,5.213488681280612,-0.8084967954196035,-10.401330880129336,3.153214454650879,0.4860193133354187,1.8106905221939087
1783203118730228500,6.129228515625,3.2375206165015697,-0.9093819856438784,-6.569567774915694,2.8219027519226074,0.9374909996986388,1.5039342641830444
1783203118740165400,6.139165283203125,1.2931371920317412,-0.7398181037299335,-3.919743001961708,2.4259979724884038,1.2373597621917725,1.109706997871399
1783203118750103600,6.149103515625,-0.468609226200357,-0.5571123431049287,-1.902002080336213,2.072784662246704,1.4133483171463013,0.7336974143981934
1783203118760040400,6.15904052734375,-1.78842889264822,-0.4359537783218547,-0.5036661457300186,1.716256022453308,1.5299090147018433,0.4259004294872284
1783203118769977300,6.168977294921875,-2.690294730508328,-0.3005849749438464,0.6600894641071557,1.3709518909454346,1.583102822303772,0.206024095416069
1783203118779914500,6.17891455078125,-3.170728469210863,-0.0947551082377322,1.6678087090581657,1.0868735313415527,1.5183491706848145,0.0861879736185073
1783203118789851400,6.188851318359375,-3.271790842632949,0.0896430441873148,2.3306875116229056,0.8671966791152954,1.3175444602966309,0.0283542666584253
1783203118799788500,6.19878857421875,-3.070734309542179,0.1360151019249111,2.744796720546484,0.7304824590682983,1.0625358819961548,-0.0056833261623978
1783203118809725400,6.208725341796875,-2.7149133311972022,0.1714469557141885,2.9768741225838657,0.6947843432426453,0.8018965125083923,-0.0209339875727891
1783203118819663600,6.21866357421875,-2.4232912687793373,0.2892826596848666,3.031612259465456,0.7490696907043457,0.5334831476211548,-0.0056397197768092
1783203118829600300,6.228600341796875,-2.1379995784267782,0.3275531344335526,2.964535450014472,0.8250537514686584,0.2828013896942138,0.0440809577703475
1783203118839537400,6.238537353515625,-1.8508526155963536,0.3291644420877099,2.9747306808143854,0.854978621006012,0.0849122926592826,0.0989396721124649
1783203118849474300,6.248474365234375,-1.734563739208877,0.4550614701021462,3.1334441559553143,0.8548756837844849,-0.0364159531891346,0.1124155968427658
1783203118859411500,6.258411376953125,-1.914441875192523,0.739686951630935,3.3086966779649254,0.8399571776390076,-0.0989014357328414,0.1141069680452346
1783203118869348600,6.2683486328125,-2.0965628216668963,0.9267705620139836,3.463151911139488,0.8570243716239929,-0.1597364246845245,0.0901631489396095
1783203118879285000,6.278284912109375,-2.248288629877567,1.1540113376751542,3.55296779114306,0.9099760055541992,-0.2268771231174469,0.0498751141130924
1783203118889223200,6.28822314453125,-2.3538380855858323,1.4058153305761516,3.648330199357867,0.9434470534324646,-0.3503695428371429,0.0100791938602924
1783203118899160000,6.29816015625,-2.5631360850602385,1.598908775833249,3.9762797126978633,0.841202437877655,-0.5192360281944275,0.0216064192354679
1783203118909097200,6.30809716796875,-2.6111341000318524,1.78753398963511,4.513750512874126,0.5837836265563965,-0.6342552900314331,-0.0537697747349739
1783203118919034400,6.318034423828125,-2.8518326154202223,2.145939139254391,5.262948000976443,0.3602160215377807,-0.7517475485801697,-0.1648046672344207
1783203118928971300,6.32797119140625,-2.955957883544266,2.352473226973414,5.549730806669593,0.2635708451271057,-0.8943248987197876,-0.2570946812629699
1783203118938908200,6.337908203125,-2.702172799828648,2.422340251664817,5.496129564863443,0.2073733508586883,-1.0988924503326416,-0.3019465506076813
1783203118948845000,6.347844970703125,-2.375650104421377,2.554487499180436,5.468917148289084,0.0870649814605712,-1.3840266466140747,-0.2877640128135681
1783203118958782200,6.3577822265625,-1.895749449682236,2.579392515595257,5.540167444032431,-0.125372439622879,-1.6925386190414429,-0.2295041978359222
1783203118968720100,6.36772021484375,-1.4138925463087857,2.602908123478293,5.515694681555033,-0.3518933951854706,-1.9030134677886963,-0.1140665262937545
1783203118978657300,6.3776572265625,-0.9832933903552592,2.607343475577235,5.35599804059565,-0.536443829536438,-2.0170321464538574,0.0396290235221385
1783203118988594200,6.38759423828125,-0.7072789391748606,2.6570582313388584,4.967490890440344,-0.691889762878418,-2.052408456802368,0.2098027914762497
1783203118998531000,6.397531005859375,-0.4919913073642179,2.6252485501021146,4.514404592868686,-0.8806940317153931,-2.0419881343841557,0.3874524235725403
1783203119008468200,6.40746826171875,-0.3256314456559717,2.349511016166955,4.033739383497834,-1.1171873807907104,-2.0280442237854004,0.5654985308647156
1783203119018405000,6.417405029296875,-0.1598912136834114,1.9222434888541695,3.52148602668643,-1.344655990600586,-2.081916332244873,0.7351096272468567
1783203119028342300,6.42734228515625,0.0074051616899669,1.3735343785658478,2.8286417094469067,-1.5659832954406738,-2.215505838394165,0.866762638092041
1783203119038279200,6.437279052734375,0.0394273166336119,0.8072863236512988,2.019087075537443,-1.7795379161834717,-2.346400737762451,0.9720765352249146
1783203119048217300,6.44721728515625,-0.0892309197224676,0.2598408400906249,1.0718792901724576,-1.8600343465805051,-2.435060501098633,1.0261701345443726
1783203119058154000,6.457154052734375,-0.3612349662177264,-0.3666887746442109,-0.2371691722184419,-1.817479133605957,-2.5017852783203125,1.0630313158035278
1783203119068091100,6.467091064453125,-0.8456367317683994,-0.8762113182522356,-1.914635351938009,-2.421796560287476,-2.404170274734497,1.0366089344024658
1783203119078028300,6.4770283203125,-1.306222299054265,-1.2379279305070638,-2.788476287797093,-2.7978436946868896,-2.0821425914764404,0.8709280490875244
1783203119087965200,6.486965087890625,-1.9167443069159984,-1.723021185453236,-3.70455535992682,-2.567847967147827,-1.8780208826065063,0.5362151265144348
1783203119097902300,6.49690234375,-2.552827457013726,-1.5982902055434882,-7.593700979050993,-2.2708210945129395,-1.5140585899353027,0.2122242301702499
1783203119107839200,6.506839111328125,-2.5621634406358003,-2.134768049159646,-9.415530036997794,-1.8434888124465945,-1.1973210573196411,-0.1229472979903221
1783203119117776100,6.516776123046875,-2.12112706182003,-2.4054092828691003,-11.774580888795851,-1.583260178565979,-0.7404413819313049,-0.4132712781429291
1783203119127713300,6.52671337890625,-1.299787882092595,-2.3751595444254576,-13.08068569895029,-1.1366642713546753,-0.2157256454229354,-0.6506866812705994
1783203119137651200,6.536651123046875,-0.0040048517271876,-2.327587645911425,-14.40629717360735,-0.4096828103065491,0.3635459840297699,-0.759204626083374
1783203119147588400,6.54658837890625,1.432320914055407,-2.2823438980840147,-15.522848549199104,0.2575401961803436,0.9498899579048156,-0.6828749179840088
1783203119157525200,6.556525146484375,2.772268664839864,-2.07395234593004,-15.52054085677862,0.6248639225959778,1.51665461063385,-0.4443299770355224
1783203119167462100,6.566462158203125,3.702245913940668,-1.5965581210538744,-14.350335047888755,0.8286268711090088,1.945649266242981,-0.1471391469240188
1783203119177399000,6.57639892578125,3.9734108792632816,-1.0509675811775028,-13.083905245518684,1.0566163063049316,2.1801998615264893,0.1055301204323768
1783203119187336200,6.586336181640625,3.400298856863379,-0.5444374243184924,-12.24208851042986,1.3634765148162842,2.2702014446258545,0.2471369951963424
1783203119197273300,6.5962734375,2.124140564422309,-0.039186493615061,-11.755476375353336,1.6951074600219729,2.3311595916748047,0.3055020570755005
1783203119207210200,6.606210205078125,0.6813022018752992,0.333606150862202,-11.42469076180458,1.9035065174102783,2.4808714389801025,0.2789838314056396
1783203119217147100,6.616147216796875,-0.6091140407599508,0.5565253004645928,-10.799776071453094,2.0165843963623047,2.698715209960937,0.160620167851448
1783203119227085000,6.6260849609375,-1.6470461992755532,0.6738414375405758,-9.954221903401614,2.098895788192749,2.9719529151916504,-0.0078922677785158
1783203119237022200,6.636022216796875,-2.4068857851624488,0.8070840790774673,-9.140729345521333,2.2235682010650635,3.2934141159057617,-0.1691703796386718
1783203119246959000,6.645958984375,-2.7723791394770143,1.0121331158705056,-8.215580247229337,2.419343948364258,3.606631278991699,-0.2746608555316925
1783203119256896300,6.655896240234375,-2.8176699413165447,1.2574381021410226,-7.241395607611537,2.657160997390747,3.817792892456055,-0.2933562397956848
1783203119266833200,6.665833251953125,-2.70284090834856,1.4519851072072982,-6.192060157680511,3.016867160797119,3.882037401199341,-0.2257722914218902
1783203119276770000,6.67577001953125,-2.707260770617425,1.8213921278342604,-5.265500023546815,3.4322633743286133,3.8451085090637207,-0.0752765163779258
1783203119286707200,6.685707275390625,-2.713915260070562,2.145522667407989,-4.254662354314327,3.7785756587982178,3.6914501190185542,0.1180397942662239
1783203119296644000,6.69564404296875,-2.8608623095721004,2.532741531318426,-3.060473027768731,3.780704259872437,3.510050058364868,0.2961575984954834
1783203119306581200,6.705581298828125,-3.165624131809175,2.8834751233965155,-1.4890379497945307,3.6650238037109375,3.347620010375977,0.4166866242885589
1783203119316518100,6.71551806640625,-3.5728172777339813,2.9546316033765674,-0.0818815798729658,3.605863332748413,3.2081046104431152,0.4991119801998138
1783203119326456000,6.7254560546875,-3.930708924873173,2.998250672611594,0.7181774959385394,3.6683809757232666,3.0916507244110107,0.5666760206222534
1783203119336393200,6.735393310546875,-4.281259269338846,3.161304807305336,1.2821885125160215,3.771775007247925,2.975998878479004,0.6385560631752014
1783203119346330000,6.745330078125,-4.555632675313949,3.405565983611345,1.8686755647957325,3.8402841091156006,2.821654796600342,0.7162588238716125
1783203119356267300,6.755267333984375,-4.754957270045578,3.6843762029901135,2.5348089852422477,3.86415433883667,2.654826402664185,0.8033977150917053
1783203119366204200,6.7652041015625,-4.88704431180656,3.932784269842505,3.263318490102887,3.899558305740357,2.449056386947632,0.9113186001777648
1783203119376141000,6.77514111328125,-5.01097230477035,4.264820467974245,3.843120365530252,4.010754108428955,2.2027664184570312,1.028612732887268
1783203119386078200,6.785078125,-5.12719922183752,4.701789158959686,4.274609163799882,4.140140056610107,1.9152958393096924,1.1432433128356934
1783203119396015000,6.79501513671875,-5.255103717216849,5.2238440710783,4.729924827858805,4.213040828704834,1.588472604751587,1.257900953292847
1783203119405952300,6.8049521484375,-5.21045501267314,5.6555514805346725,5.442671530920267,4.242349624633789,1.2266772985458374,1.3681719303131104
1783203119415889200,6.81488916015625,-4.973328510552644,6.030585401132703,6.136811148667335,4.271914958953857,0.8508808016777039,1.459139347076416
1783203119425826000,6.824825927734375,-4.619959893795848,6.417054907980561,6.71846011326611,4.241361618041992,0.5060743689537048,1.5136011838912964
1783203119435764000,6.834763916015625,-4.2190310689628125,6.765602972713112,7.402017546722292,4.068194389343262,0.1875257194042205,1.5103031396865845
1783203119445701000,6.844701171875,-3.909184198546409,7.131571543323993,8.145851461964845,3.688016653060913,-0.0844607874751091,1.4458850622177124
1783203119455638300,6.85463818359375,-3.6857974679648873,7.43331577130556,8.971148439407347,3.1389758586883545,-0.3095724582672119,1.3056421279907229
1783203119465575200,6.8645751953125,-3.54836964969784,7.581001656475663,9.64916928152442,2.4744696617126465,-0.4881285727024078,1.113919019699097
1783203119475512300,6.87451220703125,-3.455917868232727,7.646941570851206,10.127367808520791,1.782854080200195,-0.6169555187225342,0.8940184712409973
1783203119485449000,6.884448974609375,-3.45449397290945,7.821199236604571,10.351533122259378,1.1171337366104126,-0.681947648525238,0.6906751394271851
1783203119495386000,6.89438623046875,-3.470856494167447,8.009411193430424,10.352559542697668,0.4783228933811188,-0.6331667900085449,0.5222573280334473
1783203119505323300,6.9043232421875,-3.3531019291415807,8.127670493108033,10.42021795142889,-0.1425172090530395,-0.507404088973999,0.3760758936405182
1783203119515260200,6.91426025390625,-3.22044643984288,8.226376951053737,10.514031376636028,-0.7643131613731384,-0.3808548748493194,0.2207297384738922
1783203119525197300,6.924197265625,-3.1573113537549973,8.374562017917633,10.624926869547366,-1.389559984207153,-0.3181137442588806,0.0762833505868911
1783203119535134000,6.934134033203125,-3.153363492912054,8.477036303964256,10.781530805188416,-1.9995014667510984,-0.3927070200443268,-0.035673014819622
1783203119545071000,6.944071044921875,-3.009546558129787,8.421866205406188,10.837594637715815,-2.5663187503814697,-0.6161395907402039,-0.1442974954843521
1783203119555009000,6.954009033203125,-2.874149953429401,8.28351571933627,10.77096966368556,-3.1069819927215576,-0.9184951782226562,-0.2703739404678345
1783203119564946200,6.9639462890625,-2.8080466651856897,8.152787983229755,10.555664532750844,-3.645846366882324,-1.251637578010559,-0.392725795507431
1783203119574883300,6.97388330078125,-2.765292980608344,8.027737708237767,10.375025057005882,-4.223449230194092,-1.6560369729995728,-0.5096543431282043
1783203119584820200,6.9838203125,-2.7884523223996163,8.018582341879606,10.012511595284938,-4.880908012390137,-2.177135944366455,-0.5915321111679077
1783203119594757000,6.993757080078125,-2.77669583363235,7.987901956933737,9.2738173810184,-5.552955150604248,-2.737900972366333,-0.6302641034126282
1783203119604694000,7.003694091796875,-2.793207407972216,7.980843270593881,8.21611742284596,-6.371057033538818,-3.287468194961548,-0.6112980842590332
1783203119614631200,7.013631103515625,-2.744258083625138,8.007790314230322,6.551189237660169,-7.292997360229492,-3.665974378585816,-0.5939654111862183
1783203119624568300,7.023568359375,-2.940734303188324,7.9598308777034275,4.612897700324655,-8.025896072387695,-3.853325605392456,-0.6471765041351318
1783203119634505200,7.033505126953125,-3.6387455016717314,7.838836015582084,1.5193798965662717,-8.472286224365234,-3.7582621574401855,-0.8491423726081848
1783203119644442000,7.043442138671875,-4.616966264937818,7.58462393862605,-2.096178498524427,-8.617585182189941,-3.291830539703369,-1.2519766092300415
1783203119654379000,7.05337890625,-5.265979331496357,6.871250043576955,-5.827551722750068,-8.51222038269043,-2.479642152786255,-1.8110159635543823
1783203119664316200,7.063316162109375,-5.079050400218367,6.000282032805681,-9.432873385986683,-8.207242012023926,-1.4025088548660278,-2.451058387756348
1783203119674253300,7.07325341796875,-3.70887117729932,4.82999322180748,-12.624269964694976,-7.9275288581848145,-0.2353121787309646,-3.0262370109558105
1783203119684190200,7.083190185546875,-1.1059807356081903,3.181920309832692,-15.016014294826984,-7.29404354095459,1.004014492034912,-3.59333872795105
1783203119694128400,7.09312841796875,1.978283355984092,1.6837717096045612,-16.314651253318786,-6.046304702758789,1.79537034034729,-3.849313497543335
1783203119704065000,7.10306494140625,5.190151644834876,0.4798658756867051,-18.21690409354568,-4.659659385681152,1.845150589942932,-3.633233547210693
1783203119714002200,7.113002197265625,7.664790531274676,0.0766607764847576,-18.14540186886787,-3.373901844024658,1.0136070251464844,-2.905521869659424
1783203119723939000,7.12293896484375,9.070825203689932,0.5565494485251605,-17.327412584090233,-2.14006781578064,-0.4240233600139618,-1.7698169946670532
1783203119733876200,7.132876220703125,9.818049345892668,0.7773939472779631,-16.88882710555792,-1.2836886644363403,-1.619802951812744,-0.4665234386920929
1783203119743813400,7.1428134765625,9.698476625528931,0.748234780550003,-15.31848800612688,-0.0322339758276939,-2.3043105602264404,0.678655743598938
1783203119753750000,7.15275,9.05553820270896,0.8322080720052123,-15.089149673664568,1.3664685487747192,-2.401294231414795,1.4329279661178589
1783203119763687200,7.162687255859375,8.030871914610266,0.6373677830807865,-14.418748658901452,2.193413257598877,-2.0414459705352783,1.8319170475006104
1783203119773624000,7.1726240234375,6.866389159542321,0.056871349518001,-11.840938151800632,2.4902589321136475,-1.4378573894500732,1.909892201423645
1783203119783561200,7.182561279296875,5.551144765120744,-0.4438355080150067,-8.80818139847517,2.6393725872039795,-0.8482366800308228,1.7649493217468262
1783203119793498400,7.192498291015625,3.902585238672793,-0.3314025764033198,-6.789549080967903,2.614093542098999,-0.3746241331100464,1.5340074300765991
1783203119803435000,7.20243505859375,2.396621580779552,-0.1263369538016617,-4.927997668963671,2.423745393753052,0.0334329232573509,1.251702070236206
1783203119813372200,7.2123720703125,1.0932776867058127,0.2076302123926579,-3.1227503279834985,2.1133086681365967,0.3729401528835296,1.009507179260254
1783203119823309000,7.22230908203125,0.0363104997873306,0.4610780269779265,-1.6904063253134487,1.8018624782562256,0.5836161971092224,0.8699299097061157
1783203119833246200,7.23224609375,-0.6937738531745969,0.6776494515214115,-0.7116349424272775,1.4935413599014282,0.7078046798706055,0.8073760271072388
1783203119843183400,7.242183349609375,-1.230292321062088,0.9570108750421552,0.0813239459902048,1.2453798055648804,0.7558530569076538,0.7989570498466492
1783203119853120000,7.2521201171875,-1.672470271128416,1.2677633890613913,0.7029775887191295,1.0785820484161377,0.7174611687660217,0.8164234161376953
1783203119863058200,7.26205810546875,-1.9244778237774969,1.452205764220655,1.139216211864352,0.9561203122138976,0.6011711955070496,0.847053587436676
1783203119872995000,7.2719951171875,-1.9890959880299863,1.4874780070014295,1.5489561196625232,0.8635128736495972,0.4587349593639374,0.8596423864364624
1783203119882932000,7.281931884765625,-1.944842420283705,1.3811691112279891,2.020946439668536,0.7903212904930115,0.2704965770244598,0.8524874448776245
1783203119892869000,7.291869140625,-1.9911472214713688,1.3348755620867012,2.354120409658551,0.7303239703178406,0.0697288513183593,0.8310943245887756
1783203119902806000,7.301805908203125,-2.0292527879819278,1.3576418129071592,2.557946115201712,0.6653042435646057,-0.0712940469384193,0.7696841955184937
1783203119912743000,7.311742919921875,-2.1504935876883566,1.39717405121997,2.8208611385732887,0.5898091793060303,-0.1543599069118499,0.6669977903366089
1783203119922679800,7.3216796875,-2.34779091437608,1.375124131975323,2.986053454339504,0.5204768776893616,-0.2038544118404388,0.5411664247512817
1783203119932617000,7.331616943359375,-2.529399235153198,1.448709592667967,3.157740392822027,0.5001713037490845,-0.2646884620189667,0.4114492237567901
1783203119942554000,7.34155419921875,-2.6419591541454195,1.5146050833798943,3.071750208586454,0.2555260360240936,-0.2874171733856201,0.312258780002594
1783203119952491000,7.351490966796875,-2.7263205681353804,1.6435910903856157,3.472634025233984,-0.0613616295158863,-0.2855138182640075,0.2361615896224975
1783203119962428000,7.361427978515625,-2.676840205651521,1.763466739218682,3.8533722949534654,-0.3636633157730102,-0.3223517537117004,0.1410035938024521
1783203119972364800,7.37136474609375,-2.5007705220401286,1.6948849320322277,3.731466163206101,-0.6061268448829651,-0.4007032811641693,0.0396458134055137
1783203119982302000,7.381302001953125,-2.2054662639781832,1.4274777118079365,3.527562131729722,-0.7788240909576416,-0.5181974768638611,-0.0450099594891071
1783203119992239000,7.391239013671875,-1.754929650889337,1.1686718042556197,3.156723909255862,-0.977853000164032,-0.6662386059761047,-0.1094240993261337
1783203120002176000,7.401176025390625,-1.294253044319153,0.942004590698704,2.840319287759065,-1.2569068670272827,-0.7799004912376404,-0.1555207967758178
1783203120012113000,7.41111279296875,-0.9309580037664622,0.700871994742006,2.6734949868768454,-1.4457920789718628,-0.8239758014678955,-0.1631749868392944
1783203120022049800,7.4210498046875,-0.569170335569419,0.5136276043066754,2.19276255748868,-1.5632805824279783,-0.8516165018081665,-0.1627076864242553
1783203120031987000,7.430987060546875,-0.4187463672049343,0.4794068068075924,1.5725018304228782,-1.6818714141845703,-0.8916166424751282,-0.1498017460107803
1783203120041924000,7.440924072265625,-0.2869561894986778,0.2938288517471403,1.0363695853739976,-1.7901493310928345,-0.9489523768424988,-0.116690956056118
1783203120051861000,7.450861083984375,-0.1726422664459794,-0.0686775957111269,0.4057616518169641,-1.8565877676010127,-1.0643738508224487,-0.0483470484614372
1783203120061798000,7.4607978515625,-0.1158285653993487,-0.472423231530562,-0.5417670360654592,-1.9018893241882324,-1.1349682807922363,0.0208736341446638
1783203120071734800,7.47073486328125,-0.2329568152204156,-0.89566449900195,-1.5843705473929643,-1.9277856349945068,-1.1589796543121338,0.0448487401008605
1783203120081672000,7.480671875,-0.5830901763830334,-1.367717947372049,-2.7377567389070987,-1.8977396488189695,-1.147781252861023,0.0024349172599613
1783203120091609000,7.490609130859375,-0.980244524178654,-1.7988811669491231,-4.12893754106164,-1.843358278274536,-1.0281145572662354,-0.0799595564603805
1783203120101546000,7.5005458984375,-1.1662656198967247,-2.222073699907958,-5.658299317938089,-1.7638580799102783,-0.844024658203125,-0.1509024500846862
1783203120111483000,7.51048291015625,-1.0416273597717285,-2.7737194481700658,-7.449904502534866,-1.6058948040008545,-0.6249924302101135,-0.1896850019693374
1783203120121420800,7.5204208984375,-0.6685882662527263,-3.5766590478539464,-9.632240943077209,-1.3222875595092771,-0.1917663663625717,-0.1879194974899292
1783203120131358000,7.53035791015625,-0.1439808931723236,-4.405298029200733,-11.709815863418578,-0.8925033807754517,0.5055719614028931,-0.1398156136274337
1783203120141294800,7.540294921875,0.2598652804121374,-4.913946347257495,-13.217717503637074,-0.2967394590377807,1.3105602264404297,-0.0016368022188544
1783203120151232000,7.55023193359375,0.5105769480317831,-5.3470566092491145,-14.397197336828707,0.4739108979701996,2.0246644020080566,0.164342314004898
1783203120161169200,7.560169189453125,0.7878538203634321,-5.274981553119421,-15.197066443026063,1.405321478843689,2.4436585903167725,0.2692951560020447
1783203120171105800,7.570105712890625,0.284035333615914,-3.974748849868774,-15.434314525699614,2.446882486343384,2.4836597442626958,0.2742893695831299
1783203120181043000,7.58004296875,-0.7594160997778177,-2.201897319450229,-15.390295351231098,3.534095525741577,2.313010931015014,0.1993559449911117
1783203120190979800,7.589979736328125,-1.665896445696056,-0.4129688067167997,-14.900477698111532,4.568953514099121,2.125285148620605,0.1176389753818512
1783203120200917000,7.5999169921875,-1.9725274228058756,1.1008110048200934,-13.872168085074424,5.474550247192383,1.996312379837036,0.1090386509895324
1783203120210854100,7.609854248046875,-1.49902172980085,2.0177615260221065,-12.590809593641756,6.215811729431152,1.865806579589844,0.185451403260231
1783203120220790800,7.619790771484375,-0.7090491637177765,2.622850549049675,-11.33990936883688,6.81149959564209,1.6835485696792605,0.2823204398155212
1783203120230728000,7.62972802734375,-0.4203605244033038,3.644275955531001,-10.229700055748223,7.418920516967773,1.4389283657073977,0.3652142584323883
1783203120240664800,7.639664794921875,-0.7678807073928415,4.987274033796787,-9.399563821581005,7.903232097625732,1.2275928258895874,0.4212096631526947
1783203120250602000,7.64960205078125,-1.3394894856229425,6.381600732761621,-8.29213391007781,8.080718040466309,1.1699955463409424,0.4403188824653625
1783203120260539100,7.6595390625,-1.8346828404314812,7.712175382784008,-6.513582268321514,7.961258411407471,1.2883632183074951,0.4146710336208343
1783203120270475800,7.669475830078125,-2.2614418337002395,8.664242883139849,-4.485777633321285,7.759140968322754,1.5755730867385864,0.3333455324172973
1783203120280413000,7.679412841796875,-2.794672219827771,9.621900750848653,-2.8786802903354167,7.492986679077148,2.024986505508423,0.2289822697639465
1783203120290350000,7.68935009765625,-3.0632974375396964,10.34897525447011,-1.1071931801378727,7.173369884490967,2.459080219268799,0.1338421702384948
1783203120300287000,7.699286865234375,-3.2032097660988565,10.88245552370548,0.7335773096442222,6.676130771636963,2.730703830718994,0.0497278347611427
1783203120310224000,7.709223876953125,-3.2706697296485303,11.150893694412709,2.7924802627414462,5.969583511352539,2.8104851245880127,-0.0121895931661129
1783203120320160800,7.719160888671875,-3.1335859025135635,10.897035837721823,5.007453482994437,5.096440315246582,2.709277391433716,-0.0595569089055061
1783203120330098000,7.729097900390625,-2.8700395955011246,10.350919374275207,6.886588482484221,4.170574188232422,2.451564073562622,-0.1419311463832855
1783203120340035000,7.73903515625,-2.7532737492516635,9.867660056757927,8.322924185138941,3.233518123626709,2.0457396507263184,-0.2371453046798706
1783203120349972000,7.748971923828125,-2.8384283594459294,9.332251449808478,9.289010858497024,2.351945638656616,1.5908455848693848,-0.3568581342697143
1783203120359908900,7.758908935546875,-2.846821509259939,8.763668887531757,9.837406372791529,1.6236305236816406,1.1552067995071411,-0.5090095400810242
1783203120369845800,7.768845703125,-2.8372382728785275,8.363553132647276,9.917470674109458,1.0797808170318604,0.8009768724441528,-0.6709824800491333
1783203120379783000,7.778782958984375,-2.839152582067251,8.220224858164787,9.666300449067354,0.6801465153694153,0.5621181726455688,-0.8132469654083252
1783203120389720000,7.788719970703125,-2.798928708228469,8.262215741676092,9.484937919744848,0.3224078416824341,0.3978909254074096,-0.9152923822402954
1783203120399657000,7.798656982421875,-2.6149431369259952,8.335728137132525,9.482228076264262,-0.0321667082607746,0.2586105167865753,-0.9769392013549804
1783203120409593900,7.80859375,-2.345705632534623,8.414604105448722,9.627949383363129,-0.3819226026535034,0.1329785585403442,-0.9831590056419371
1783203120419530800,7.81853076171875,-1.9632219804525373,8.369304243519903,9.872471840953828,-0.7242847084999084,-0.0284330956637859,-0.9627470970153807
1783203120429468000,7.828468017578125,-1.593310225173831,8.330586098068952,10.183767156612872,-1.071444749832153,-0.226859375834465,-0.8967480659484863
1783203120439405000,7.838405029296875,-1.234430443780124,8.260781909480691,10.46545994569063,-1.405848264694214,-0.4687362015247345,-0.777206540107727
1783203120449342000,7.848342041015625,-0.8971113368093967,8.242948146626352,10.627572415620088,-1.7180440425872805,-0.7214707136154175,-0.6090785264968872
1783203120459278800,7.85827880859375,-0.597945142622292,8.187758758845925,10.654714105045796,-2.016242265701294,-0.9711910486221312,-0.4086934626102447
1783203120469215700,7.8682158203125,-0.4175923748642206,8.158521558445692,10.658048217904566,-2.3208413124084477,-1.219922661781311,-0.2034236639738083
1783203120479153000,7.87815283203125,-0.4194461860373616,8.123304699113964,10.62863273832798,-2.654146432876587,-1.5205038785934448,0.0057387701235711
1783203120489090000,7.888090087890625,-0.5661211405992508,8.097194106301664,10.48038395857811,-3.026517629623413,-1.808610439300537,0.2264623492956161
1783203120499027000,7.89802685546875,-0.8163742507964372,8.124251040053368,10.190015695613624,-3.414247512817383,-2.0719258785247803,0.5106058716773987
1783203120508963800,7.9079638671875,-1.0521838250994682,7.780975362765789,9.800433025181292,-3.817452192306519,-2.3579204082489014,0.8333421349525452
1783203120518901000,7.91790087890625,-1.339185095848888,7.31682991104126,9.25186390788555,-4.230435848236084,-2.727077007293701,1.207228183746338
1783203120528838000,7.927837890625,-1.6501389045938848,6.740340521162748,8.545950850236416,-4.636107921600342,-3.2149195671081543,1.563629388809204
1783203120538775000,7.937775146484375,-2.3539143656924364,6.205733878245949,7.544566653525829,-5.0328288078308105,-3.850891351699829,1.8066630363464355
1783203120548712000,7.9477119140625,-3.82351404004544,5.823531381192803,5.903883851802349,-5.481517314910889,-4.419958114624023,1.84026837348938
1783203120558648800,7.95764892578125,-5.778593922835588,5.370656680545211,4.001364469593763,-5.887300491333008,-4.702824115753174,1.705938696861267
1783203120568586000,7.9675859375,-7.46244775776565,4.710392736653984,1.3153373334020375,-6.357001304626465,-4.481133460998535,1.448820948600769
1783203120578523000,7.97752294921875,-8.583621532461047,3.824747965754568,-1.8858920725345607,-6.805300235748291,-3.774078369140625,1.0503000020980835
