time,seconds_elapsed,ax,ay,az,gx,gy,gz
1783202826537098200,0.08409814453125,0.4062472433768213,-0.1024729708723723,1.667406557998061,-0.6121143102645874,-0.8518326282501221,-0.0062159509398043
1783202826547035100,0.09403515625,-0.358068903402239,0.5292173510938882,0.6138970372527838,-0.7406680583953857,-1.021139144897461,-0.1046746149659156
1783202826556973300,0.103973388671875,-0.5320569584339857,0.638599662963301,0.2836199577480554,-0.727264404296875,-1.3312973976135254,-0.3249503672122955
1783202826566910200,0.11391015625,-0.7262436057552695,0.8880101848565042,-0.0737941350072622,-0.5583148002624512,-1.4694947004318235,-0.5806290507316589
1783202826576847400,0.123847412109375,-0.6778817259073256,0.8977128098338842,-0.3474006482630968,-0.300609827041626,-1.403219223022461,-0.7166606783866882
1783202826586784500,0.133784423828125,-0.6448463022679091,0.1588818174451589,-0.7034241634428501,0.0736082568764686,-0.902825117111206,-0.6427339911460876
1783202826596721700,0.1437216796875,-0.3304085969299077,-0.5553308665156365,-0.0076671736270189,0.0664697811007499,-0.0579898990690708,-0.721958577632904
1783202826606658800,0.153658935546875,0.5171386446349322,-1.3340977095820008,0.2409790858954191,0.0756097435951232,-0.1049044132232666,-0.4742484092712402
1783202826616596700,0.1635966796875,-0.7029397409267724,-3.486643845885992,-1.0832318743139504,0.0430822223424911,0.3802528381347656,-0.0772908106446266
1783202826626533600,0.17353369140625,-0.5842998444337397,-2.770601023888588,-0.4290869978249073,0.0621994584798812,0.4735577404499054,0.1526209414005279
1783202826636470500,0.183470458984375,-0.6460824929993599,-2.135360023703426,-1.1795388699024916,0.1461025923490524,0.3539380729198456,0.2021019458770752
1783202826646408400,0.193408447265625,-0.696007530510798,-2.2410433349244294,-2.2636440199196337,0.2335269898176193,0.403137058019638,0.2312920540571212
1783202826656345600,0.203345703125,-0.5724221404395997,-3.094015524147451,-2.994514993214607,0.2999739646911621,0.6348404288291931,0.3076912760734558
1783202826666282800,0.21328271484375,-1.2594225539565085,-3.9305484736144543,-4.203216244715452,0.345708966255188,1.021135926246643,0.3799433708190918
1783202826676220700,0.223220703125,-1.9091569205269217,-4.497288038372993,-5.4060734463632105,0.430627703666687,1.314531683921814,0.3256723284721374
1783202826686157800,0.23315771484375,-1.993227973268181,-4.841835343031585,-6.507762183865904,0.5685051679611206,1.2975865602493286,0.0228312164545059
1783202826696094700,0.2430947265625,-2.0358286592409014,-4.987836928376555,-7.52832045212388,0.7603473663330078,0.9633541703224182,-0.4769831597805023
1783202826706032600,0.25303271484375,-2.104884221418947,-4.497873437045515,-8.706309169974922,1.0079656839370728,0.6096147894859314,-1.0023736953735352
1783202826715969500,0.262969482421875,-2.179722897043079,-3.675455522170663,-9.311129751324652,1.341407060623169,0.5233848690986633,-1.3965753316879272
1783202826725906700,0.27290673828125,-2.098221110267937,-2.589896373952925,-9.639616440281271,1.7547839879989624,0.7261513471603394,-1.6066526174545288
1783202826735844600,0.2828447265625,-1.5980791931413114,-1.6603692067071794,-10.076014053380488,2.1905083656311035,1.078496336936951,-1.6455832719802856
1783202826745781800,0.29278173828125,-0.8501865040272474,-0.8129838777057826,-10.057263760203124,2.603465795516968,1.311801195144653,-1.505109786987305
1783202826755718700,0.30271875,-0.282253637830913,-0.1443622937053442,-9.606675124666094,3.008317708969116,1.39042067527771,-1.232151746749878
1783202826765656800,0.31265673828125,0.5137028249673545,0.151703304117918,-8.823351495078205,3.426778793334961,1.161123514175415,-0.9380958080291748
1783202826775593700,0.32259375,0.90180986988917,0.3769721951842308,-8.203654247114061,3.85399341583252,0.6877822279930115,-0.7216997146606445
1783202826785530600,0.332530517578125,0.5763312767073512,0.9931336702376604,-7.218560675469041,4.2861104011535645,0.1501073688268661,-0.6130433082580566
1783202826795468500,0.342468505859375,0.035890959201008,1.70728264131248,-5.975978781676292,4.729621410369873,-0.4227059483528137,-0.6050153374671936
1783202826805405700,0.35240576171875,-0.6064161799781024,2.378427167919278,-4.988839383417368,5.148697376251221,-0.9308556914329528,-0.7218801379203796
1783202826815342600,0.362342529296875,-1.1279166730843484,3.114151426464319,-4.045336882311106,5.355893611907959,-1.0780783891677856,-0.990208864212036
1783202826825280800,0.37228076171875,-1.3829780603460966,3.92932623834312,-2.39116214632988,5.207429885864258,-0.9147073030471802,-1.28543221950531
1783202826835217700,0.3822177734375,-1.648565517797321,4.448383429950476,-0.3311380802482366,4.704786777496338,-0.5620412230491638,-1.508319616317749
1783202826845154800,0.39215478515625,-1.9411748376868665,4.964051563641429,1.3648843313813208,3.944257020950317,-0.13319693505764,-1.609858751296997
1783202826855092700,0.4020927734375,-2.010319831714034,5.377258270767331,2.4618869568943977,3.084792375564575,0.1992421150207519,-1.615109086036682
1783202826865029600,0.412029541015625,-2.0896695550218225,5.620932587096095,2.9780665472388264,2.248135566711426,0.4397293031215668,-1.5458024740219116
1783202826874966500,0.421966552734375,-2.057803613553196,5.658514421993494,3.590245090135932,1.541790008544922,0.7321894764900208,-1.374518632888794
1783202826884904700,0.43190478515625,-1.6423549727194011,5.206385571277141,4.362567433238029,1.0406781435012815,0.7250367403030396,-1.2380825281143188
1783202826894841600,0.441841552734375,-1.7285735588833688,5.497170598348975,3.770572431191802,0.7738614082336426,0.1906605511903762,-1.1964757442474363
1783202826904778800,0.45177880859375,-1.936560475759208,6.24454496267736,2.2837848906725644,0.7673419713973999,-0.6186378598213196,-1.2753961086273191
1783202826914716700,0.461716552734375,-1.7367792233012616,6.7692877987056965,1.132918573024869,0.9946449995040894,-0.9618136882781982,-1.417996168136597
1783202826924653600,0.471653564453125,-1.2714575674042106,6.777259508237242,1.789040302544832,1.301724553108215,-0.5459291338920593,-1.466314673423767
1783202826934590500,0.481590576171875,-0.9220154764413832,6.317312092724442,3.447158223193884,1.563148856163025,-0.2686778903007507,-1.4580788612365725
1783202826944528600,0.491528564453125,-0.68668126456514,6.604798662772774,2.9185505284309388,1.697920799255371,-0.0979658067226409,-1.3427200317382812
1783202826954465500,0.501465576171875,-0.0734333388708531,6.733541362541914,3.0612627168416977,1.7044854164123535,0.0166181102395057,-1.1376017332077026
1783202826964402700,0.511402587890625,0.4936733056344091,6.793029908820986,3.7400937062978734,1.5815056562423706,0.1137164309620857,-0.8940600156784058
1783202826974340600,0.521340576171875,0.8174635073378682,6.893664119958877,4.422034352207183,1.3313777446746826,0.2078090608119964,-0.6325857639312744
1783202826984277800,0.53127783203125,0.9889001243211328,6.883795636895298,5.108220965123176,1.0075798034667969,0.2725837826728821,-0.3774402737617492
1783202826994214700,0.541214599609375,1.0741007656142114,6.782103441137075,5.6113902672469615,0.6478680968284607,0.288312017917633,-0.1436569392681121
1783202827004152600,0.551152587890625,0.8685450214080512,6.716690765506029,6.06815086941719,0.2807209491729736,0.3017724454402923,0.0166179481893777
1783202827014089500,0.56108935546875,0.5309468052349985,6.804126472374796,6.506458700051903,-0.0725093483924865,0.3360105454921722,0.102265179157257
1783202827024026600,0.571026611328125,-0.0005544190123677,6.652628919962048,6.949695803782343,-0.411405086517334,0.3824874758720398,0.1100543886423111
1783202827033964500,0.580964599609375,-0.4971916890189051,6.606411943188309,7.2836980412900445,-0.757979154586792,0.3274697065353393,0.0372549369931221
1783202827043901700,0.590901611328125,-0.8476910339497029,6.686412531620264,7.392078921031952,-1.1317873001098633,0.2701030969619751,-0.0425006076693534
1783202827053839600,0.600839599609375,-0.7685469162166119,6.71499039132893,7.813224019941687,-1.500379204750061,0.1121568903326988,-0.090458758175373
1783202827063776800,0.61077685546875,-0.5774230174668132,6.851233091464638,7.822418549266457,-1.8399149179458616,-0.1308275312185287,-0.0767986103892326
1783202827073713700,0.620713623046875,-0.3998324078984558,7.030229476177692,7.897520844262837,-2.11564302444458,-0.4359622001647949,-0.0017715981230139
1783202827083650600,0.630650634765625,-0.2486944825783371,7.119756602367758,7.875505411809683,-2.30911636352539,-0.7529164552688599,0.0933088436722755
1783202827093588500,0.64058837890625,-0.2674409763634204,7.128717907458543,7.8823811427980655,-2.459469556808472,-1.0415925979614258,0.1909044086933136
1783202827103525600,0.650525634765625,-0.6518208174556493,7.243321607238053,8.036127350920438,-2.627021789550781,-1.367856740951538,0.2579249739646911
1783202827113462800,0.660462890625,-1.1298064323537051,7.450824539989233,7.934849581182003,-2.7455077171325684,-1.735788106918335,0.3310568332672119
1783202827123400700,0.670400634765625,-1.1236693909034132,7.470166369318962,7.705903462907671,-2.932042121887207,-2.1463935375213623,0.4403084814548492
1783202827133337900,0.680337890625,-0.969170903109014,7.287505032357573,7.540397843408584,-3.2071797847747803,-2.593454599380493,0.5530481338500977
1783202827143275800,0.69027587890625,-1.0537737246394157,7.075628706827759,7.120124266636371,-3.522827386856079,-3.138763189315796,0.6877907514572144
1783202827153212700,0.700212646484375,-1.077544184066355,6.553695083001256,5.895304824027419,-3.878263235092163,-3.753074407577514,0.8120889663696289
1783202827163149600,0.710149658203125,-1.1349989594954997,5.544582922387122,4.234690410387516,-4.236342906951904,-4.195957660675049,0.903613805770874
1783202827173087500,0.72008740234375,-1.7212851554408668,4.557978946179151,2.6428485042005776,-4.346671581268311,-4.270626544952393,0.9093908667564392
1783202827183024600,0.730024658203125,-2.484922964566946,3.6618668495401736,0.4740501751452684,-4.257565975189209,-4.118696212768555,0.8976532220840454
1783202827192961800,0.7399619140625,-2.894039187508821,2.314439556655288,-1.7962030337810515,-4.152286052703857,-3.862056255340576,0.8698914051055908
1783202827202899700,0.749899658203125,-2.812818994154036,1.0891942898496985,-4.136051756981015,-4.129228591918945,-3.537493705749512,0.7571470141410828
1783202827212836900,0.7598369140625,-2.6427684247016905,-0.1344619541987776,-6.563893820932507,-4.063117504119873,-3.006531238555908,0.6281005144119263
1783202827222773500,0.7697734375,-2.392540741206705,-1.4568480370685457,-8.758711557385325,-4.077064037322998,-2.3238091468811035,0.5556764006614685
1783202827232711700,0.779711669921875,-1.9952559719644485,-2.75104321372062,-10.779785422825812,-3.8467116355896,-1.4448500871658323,0.4591182172298431
1783202827242648600,0.789648681640625,-1.721217204771191,-3.604045067429542,-12.33669688540697,-3.397035598754883,-0.5889325141906738,0.3318510949611664
1783202827252585700,0.799585693359375,-1.411346076696366,-4.344141549709439,-13.596720327866077,-3.00403904914856,0.0319838188588619,0.3099420964717865
1783202827262523600,0.809523681640625,-0.7186122340939939,-5.441654462832212,-13.961974028205873,-2.647855758666992,0.3555251061916351,0.3789206147193908
1783202827272460800,0.819460693359375,-0.0422042340010404,-6.314976343253255,-14.106654886341094,-2.178945541381836,0.4567157030105591,0.4159098863601684
1783202827282397700,0.829397705078125,0.2649174492351711,-6.818952870106696,-14.267880052042006,-1.733494520187378,0.4286121726036072,0.3958584070205688
1783202827292335900,0.8393359375,0.3441735029101371,-7.095113159498572,-13.89149705492258,-1.311734914779663,0.4224618971347809,0.3017122149467468
1783202827302272500,0.8492724609375,0.2186230233110487,-6.929980464965104,-13.044639403057095,-0.7730734944343567,0.4667457342147827,0.17747762799263
1783202827312209700,0.859209716796875,0.0932011385276913,-6.486798306292295,-12.175958041918276,-0.1852051317691803,0.4847607314586639,0.0972693264484405
1783202827322147600,0.869147705078125,0.0632756636023521,-5.977173544418812,-11.110669236052036,0.2959814667701721,0.4346400201320648,0.0827859938144683
1783202827332084700,0.879084716796875,0.0565204902537167,-5.435756636965275,-9.739580789333582,0.7325708866119385,0.3030259907245636,0.0888668075203895
1783202827342022700,0.889022705078125,0.0302682970136404,-4.913476391658187,-8.526690853971242,1.1424795389175415,0.0991663336753845,0.0923539474606514
1783202827351959800,0.898959716796875,-0.0998724329851567,-4.396775115527213,-7.456989492359757,1.4466476440429688,-0.1663482040166854,0.0827307477593422
1783202827361896700,0.908896728515625,-0.2451338674873113,-3.9760938347369432,-6.574753653120994,1.6425238847732544,-0.4114882051944732,0.069783791899681
1783202827371835000,0.9188349609375,-0.4800326105557382,-3.679496906515956,-5.891554531583189,1.7620766162872314,-0.5737273097038269,0.0352498739957809
1783202827381771500,0.928771484375,-1.0149410128980874,-3.228383954843878,-5.556476773798465,1.8309683799743648,-0.6231683492660522,-0.032162457704544
1783202827391708700,0.938708740234375,-1.6479007702782749,-2.744503290557861,-5.738379985868931,1.8462274074554443,-0.5024795532226562,-0.0875825732946395
1783202827401646600,0.948646484375,-2.1396132972337303,-2.5740350802153347,-6.340378495535254,1.83758008480072,-0.2671237885951996,-0.1517735421657562
1783202827411583700,0.958583740234375,-2.440298225420713,-2.50740718357563,-7.031384491431712,1.834145784378052,0.0198729783296585,-0.2678230702877044
1783202827421520600,0.968520751953125,-2.685008899059892,-2.5367910989701747,-7.6609718497693535,1.8124444484710691,0.2490443736314773,-0.4461600482463836
1783202827431458800,0.978458740234375,-3.063803633496165,-2.465954060202837,-8.474602354815602,1.765294075012207,0.4678651392459869,-0.6503662467002869
1783202827441395700,0.988395751953125,-3.4516239704310894,-2.5010955162107944,-9.328326385319231,1.7703559398651123,0.7195005416870117,-0.850959300994873
1783202827451334000,0.998333984375,-3.9208489173769943,-2.630308756101132,-10.21441247024536,1.810765266418457,1.0394364595413208,-1.0610145330429075
1783202827461270500,1.0082705078125,-4.3261689629063005,-2.692169876730442,-10.926204649060963,1.9626048803329468,1.477869153022766,-1.2579898834228516
1783202827471207700,1.018207763671875,-4.421636877322197,-2.598783737024665,-11.205113944900036,2.2699546813964844,1.924518346786499,-1.4723092317581177
1783202827481145600,1.0281455078125,-4.486567614655196,-1.817088877682388,-11.10932132857442,2.728148460388184,2.3053641319274902,-1.6359682083129885
1783202827491082800,1.038082763671875,-4.305901543164253,-0.6609598172008991,-10.38754317779541,3.2734546661376958,2.5112085342407227,-1.6915051937103271
1783202827501019600,1.04801953125,-3.930739027750492,0.4579720237866044,-9.205935684925317,3.769055366516113,2.486650228500366,-1.6715000867843628
1783202827510957800,1.057957763671875,-3.685558983033895,1.7723723685994743,-7.611155971720814,4.183935165405273,2.3152315616607666,-1.5909826755523682
1783202827520894700,1.067894775390625,-3.3908646735638377,3.025471564753353,-5.855487777423859,4.574963092803955,2.0483243465423584,-1.4691646099090576
1783202827530832600,1.07783251953125,-3.2056817091703413,4.153143761557341,-4.199538432985544,4.900700569152832,1.7626274824142456,-1.3871246576309204
1783202827540769500,1.08776953125,-3.0793437324553725,5.149474182009697,-2.4483488454073665,5.14167594909668,1.409038543701172,-1.353439450263977
1783202827550706700,1.097706787109375,-2.953594953805208,5.895674241861701,-0.7772942862957716,5.279905319213867,0.9712134599685668,-1.3882838487625122
1783202827560644600,1.10764453125,-2.821747858279944,6.495771301820874,0.6833312234848737,5.308272838592529,0.498396635055542,-1.5111682415008545
1783202827570581800,1.117581787109375,-2.881555553510785,7.270702950638532,2.1955086413264278,5.208444118499756,0.0940992087125778,-1.674283742904663
1783202827580518700,1.1275185546875,-2.4670789725795386,7.828084319943189,3.3112855254143474,4.897943019866943,-0.2705631852149963,-1.820634841918945
1783202827590457300,1.137457275390625,-1.7693454219937323,8.114507644674182,4.075956476980448,4.370204448699951,-0.5413922667503357,-1.911181926727295
1783202827600394200,1.147394287109375,-1.0971413033314048,8.349621637928486,4.700532729157805,3.703149080276489,-0.6320686340332031,-1.9402804374694824
1783202827610331400,1.157331298828125,-0.7518603506360203,8.633836054438351,5.185290176278352,3.0153307914733887,-0.5266225934028625,-1.9236384630203247
1783202827620269300,1.167269287109375,-0.6480811194706708,8.888780537322162,5.451054743862152,2.3819146156311035,-0.3234918117523193,-1.864084362983704
1783202827630206500,1.17720654296875,-0.6588133066914975,9.099179776036738,5.492819417402148,1.8576208353042605,-0.1137921884655952,-1.762542724609375
1783202827640144400,1.187144287109375,-0.6496192157581449,9.201509100654722,5.370490676328539,1.4499590396881104,0.0632981657981872,-1.6185038089752195
1783202827650081300,1.197081298828125,-0.5282119734436274,9.107861679664254,5.227576827865839,1.1563327312469482,0.2190555036067962,-1.454568862915039
1783202827660018400,1.207018310546875,-0.3913714535452425,9.039734484377504,5.234501074171066,0.9206797480583192,0.3657166063785553,-1.2837177515029907
1783202827669956400,1.216956298828125,-0.3147451638519764,9.04225903441906,5.469646047085523,0.7267575263977051,0.518449604511261,-1.125862956047058
1783202827679893200,1.226893310546875,-0.3902235986843705,9.097992027556897,5.797682069665194,0.5829665064811707,0.6357759833335876,-0.9855974912643432
1783202827689831200,1.2368310546875,-0.4084112895429134,9.157995537620785,6.104623866289853,0.4598230421543121,0.7180755734443665,-0.8581296801567078
1783202827699768300,1.246768310546875,-0.4491964505262673,9.33754254195392,6.414401763123274,0.3372047245502472,0.7719963192939758,-0.703450620174408
1783202827709705500,1.25670556640625,-0.5110743761599064,9.430471585541962,6.7698506932854645,0.226653054356575,0.7427341938018799,-0.4796069860458374
1783202827719643400,1.266643310546875,-0.5318056140214205,9.425207965925336,7.009117714565992,0.0984532833099365,0.6685808897018433,-0.2533690333366394
1783202827729580300,1.276580322265625,-0.7417851660192012,9.614007951772212,7.396345346304773,-0.095320925116539,0.4983707964420318,0.0065992204472422
1783202827739517400,1.286517333984375,-1.035918188344687,9.5735251347363,7.734989856660365,-0.3594806790351867,0.2850390970706939,0.2505383789539337
1783202827749455400,1.296455322265625,-1.314850572798401,9.53352045660615,7.972558257329464,-0.6444336175918579,0.021958190947771,0.4321357905864715
1783202827759392300,1.306392333984375,-1.7132982483401893,9.52130102650225,8.124866541603208,-0.9510430693626404,-0.2552656829357147,0.5314227342605591
1783202827769330200,1.316330078125,-2.0554181797213853,9.376174178165195,8.15641727964282,-1.2584402561187744,-0.483073890209198,0.5304436087608337
1783202827779267300,1.326267333984375,-2.3886054475843905,9.213492968437077,8.113575916782022,-1.5814646482467651,-0.5977219343185425,0.4792696535587311
1783202827789204500,1.33620458984375,-2.7117177500262857,8.918118275487423,8.112425577703117,-1.9024094343185425,-0.5322436094284058,0.403299480676651
1783202827799142400,1.346142333984375,-2.959832971411944,8.70851340202093,8.169733857333659,-2.18005108833313,-0.3154212832450866,0.3327520787715912
1783202827809079300,1.356079345703125,-3.1912723678067323,8.712191798272729,8.307415650361776,-2.4429168701171875,-0.1319541931152343,0.2810918688774109
1783202827819017500,1.366017578125,-3.232997586119174,8.633573604109882,8.490465694379806,-2.7080581188201904,-0.146266296505928,0.2619618475437164
1783202827828954400,1.375954345703125,-3.093127343136072,8.42896814636588,8.588290693315862,-3.0020177364349365,-0.4248291254043579,0.2682177722454071
1783202827838891300,1.385891357421875,-2.890034920303523,7.963095432457328,8.486165366837382,-3.3206582069396973,-0.8993961215019226,0.3023837208747864
1783202827848829200,1.3958291015625,-2.855825776709616,7.295852589464187,8.232979125797748,-3.6323165893554688,-1.504848599433899,0.3585054576396942
1783202827858766300,1.405766357421875,-3.0108985572606324,6.415342258843779,7.5557666774541135,-3.87773871421814,-2.195451021194458,0.4293098747730255
1783202827868704300,1.415704345703125,-3.307597776812315,5.338442510160803,6.243286487048864,-4.004946231842041,-2.858753204345703,0.5583558082580566
1783202827878641400,1.425641357421875,-3.2971976710900663,3.916262758630514,4.29234940315187,-3.9378316402435294,-3.4405159950256348,0.7141901254653931
1783202827888578300,1.435578369140625,-3.4754508362203835,2.7430478310525417,1.966997407338023,-3.862098455429077,-3.7825560569763184,0.8263603448867798
1783202827898516500,1.4455166015625,-3.712600426955521,1.9230816932439805,-0.1982651488065719,-3.842360496520996,-3.884567260742188,0.8704580664634705
1783202827908453400,1.455453369140625,-3.2009736776098605,0.8962345539748668,-2.645057412421703,-3.8478808403015137,-3.831728219985962,0.8534897565841675
1783202827918391600,1.4653916015625,-1.5261622501827776,-0.4654337379693984,-5.432125586986541,-3.910961151123047,-3.793348789215088,0.9078196287155152
1783202827928328200,1.475328125,0.5071123406611383,-2.395911094422638,-8.603871124285458,-4.041662693023682,-3.9341537952423096,0.9948570728302002
1783202827938265300,1.485265380859375,1.9205201721929013,-4.317092214742303,-12.701595196437834,-4.226711750030518,-3.71478009223938,1.046362280845642
1783202827948203300,1.495203369140625,1.9352417943760751,-5.672374605041742,-15.997234824430942,-4.727400779724121,-2.755910396575928,1.1624184846878052
1783202827958140400,1.505140380859375,1.5798260358311236,-6.360623411184549,-17.34644227873087,-5.066094398498535,-1.1251994371414185,1.161177158355713
1783202827968078300,1.515078369140625,1.0554558325074612,-6.115375561928749,-17.836547516620158,-4.154583930969238,0.4376303255558014,1.0713682174682615
1783202827978015500,1.525015380859375,0.9902506621472535,-5.8416422074228525,-19.646762709140777,-2.9155755043029785,1.3558592796325684,1.0241930484771729
1783202827987952400,1.534952392578125,1.7935336684413252,-6.346527081292868,-19.52584851104021,-2.156866312026977,1.5468692779541016,1.1012417078018188
1783202827997890600,1.544890625,2.3151631947547195,-6.425295497581362,-16.949114693260192,-1.5041297674179075,1.3164104223251345,1.236222505569458
1783202828007827200,1.5548271484375,2.4764006354153154,-6.332827641764283,-14.906307719439267,-0.6403225064277649,0.9545449018478394,1.383649468421936
1783202828017765400,1.564765380859375,2.084254251974821,-5.72168837878704,-13.251804482156038,0.1580396592617035,0.6063179969787598,1.4956843852996826
1783202828027702300,1.574702392578125,1.5216348358862102,-5.195156905776262,-11.091169585812091,0.6229263544082642,0.287894457578659,1.6121684312820437
1783202828037640400,1.584640380859375,0.9773325822547078,-4.904277186158299,-8.746872651031612,0.9867277145385742,0.1347467303276062,1.5836074352264404
1783202828047577300,1.594577392578125,0.1813192747026681,-4.151491902697086,-6.959417571851611,1.324815273284912,0.1717361956834793,1.3594202995300293
1783202828057514500,1.604514404296875,-0.5233968282468616,-3.500731700210273,-5.33652820097208,1.4911677837371826,0.2799761295318603,1.0638480186462402
1783202828067452400,1.614452392578125,-0.8638155086681246,-2.992601560808718,-3.7716286622464654,1.5299406051635742,0.4010563194751739,0.7534439563751221
1783202828077389300,1.624389404296875,-1.0019650653384626,-2.409324995008111,-2.515383569282293,1.4827834367752075,0.5218615531921387,0.4880772829055786
1783202828087327200,1.6343271484375,-0.9813814192540944,-1.8107970840618013,-1.451978092944622,1.3251967430114746,0.6089468598365784,0.3131914436817169
1783202828097264400,1.644264404296875,-0.9070834263779224,-1.123369823434949,-0.3967769658505916,1.1036819219589231,0.634974479675293,0.2147948443889618
1783202828107201300,1.654201171875,-0.828051536847651,-0.4010039358958602,0.4594166696369647,0.9297462701797484,0.6067796349525452,0.1768790781497955
1783202828117139500,1.664139404296875,-0.7429124164834618,0.1865127516925334,1.011107133823633,0.8009645938873291,0.5048463344573975,0.1842136979103088
1783202828127076400,1.674076416015625,-0.7048795498829334,0.5666279210776091,1.4119015186220407,0.6142327785491943,0.334471195936203,0.2113806456327438
1783202828137014300,1.68401416015625,-0.7501208865575492,0.7263599256113171,1.7750281438052653,0.4127063155174255,0.0924971625208854,0.2102293670177459
1783202828146951400,1.693951416015625,-1.0310802467942235,0.9799261058792472,1.833408436581492,0.2876320779323578,-0.1500345468521118,0.1470105201005935
1783202828156889300,1.703889404296875,-1.1661294262964277,0.9387667047560214,1.5001573097020386,0.1947490274906158,-0.4565976560115814,0.1274250894784927
1783202828166826200,1.713826171875,-1.4135934172317386,0.373472954891622,0.5129372474223375,0.0446533933281898,-0.5751903057098389,0.0279941596090793
1783202828176763400,1.723763427734375,-2.354261863955855,0.4845189621895551,0.1165863980293273,-0.1171911656856536,-0.377515584230423,-0.1056307479739189
1783202828186701300,1.733701416015625,-2.596871473662555,1.0383774180650711,-0.1844862143009901,-0.2268467396497726,-0.1726596653461456,-0.2558899223804474
1783202828196638500,1.743638427734375,-2.994872720611095,1.7170593544393775,-1.5081488929778335,-0.2548775672912597,0.0020679356530308,-0.3008073270320892
1783202828206576400,1.753576416015625,-2.979392242884636,1.376269648748636,-3.075087244054675,-0.2298621833324432,0.341827392578125,-0.1257140040397644
1783202828216513300,1.76351318359375,-2.334173307912052,-0.0170797296166419,-4.146010840937495,-0.169183924794197,0.6817585825920105,0.1280935108661651
1783202828226451500,1.773451416015625,-1.9916728527806695,-1.3282429922044277,-5.393323270383477,-0.0599240213632583,0.9534934163093568,0.3152262270450592
1783202828236388400,1.783388427734375,-1.8926281027913088,-2.5764801352798936,-6.434034099832177,0.1131135374307632,1.1271213293075562,0.3573883473873138
1783202828246325200,1.7933251953125,-1.9624771534346044,-3.988770360958576,-7.278730189749598,0.3800787329673767,1.2200052738189695,0.2349218428134918
1783202828256263200,1.80326318359375,-2.132203167107701,-5.22220273361206,-7.942345489895343,0.7486394643783569,1.2538303136825562,-0.0284655839204788
1783202828266200300,1.813200439453125,-2.425625703076273,-5.640184400054812,-8.515679630613327,1.1782195568084717,1.2468867301940918,-0.3951756656169891
1783202828276138200,1.82313818359375,-2.7131337543040512,-5.158883815389872,-8.891056665560603,1.610135555267334,1.2859233617782593,-0.7090635895729065
1783202828286075400,1.833075439453125,-2.441645548376441,-4.249200581777096,-8.88436388992369,2.019150972366333,1.346984624862671,-0.8363600969314575
1783202828296013300,1.843013427734375,-1.816333383139968,-3.3608047586038707,-8.838731435039639,2.410822868347168,1.4679994583129885,-0.7708540558815002
1783202828305950500,1.852950439453125,-1.2608078708350658,-2.587026371474564,-8.543036424094439,2.7902066707611084,1.581790328025818,-0.6118355989456177
1783202828315887400,1.862887451171875,-0.8549611710831523,-1.702049124573171,-8.192676926025747,3.161165237426758,1.6317507028579712,-0.419609397649765
1783202828325825500,1.872825439453125,-0.6277551744744181,-0.9866761646613478,-7.787589812469482,3.519993782043457,1.6705259084701538,-0.2496927827596664
1783202828335762200,1.88276220703125,-0.5775302772335708,-0.4498825330942869,-7.0255123845279215,3.864371299743652,1.6839615106582642,-0.1648679077625274
1783202828345700400,1.892700439453125,-0.934766090812534,0.3278770326256752,-6.039943596586585,4.1630377769470215,1.6418803930282593,-0.1800425499677658
1783202828355637200,1.90263720703125,-1.5640296240232885,1.272719257903099,-4.867556352004408,4.393692493438721,1.5500372648239136,-0.2635560929775238
1783202828365575400,1.912575439453125,-2.0934780073940757,2.040212281152606,-3.7123254094064233,4.545358657836914,1.375471591949463,-0.4120459854602813
1783202828375512300,1.92251220703125,-2.490737203803658,2.6527561502307653,-2.5329554663300518,4.576276779174805,1.1267880201339722,-0.6058072447776794
1783202828385450200,1.9324501953125,-2.835189523655176,3.224223912554979,-1.2047592358767985,4.477231502532959,0.8359367251396179,-0.8189722895622253
1783202828395387400,1.942387451171875,-3.071494187998772,3.749543671688437,0.1624281117498874,4.265109539031982,0.5616691708564758,-1.044815182685852
1783202828405324500,1.952324462890625,-3.1934488350629806,4.522922245845199,1.663439407932758,3.979165315628052,0.3067905902862549,-1.2248740196228027
1783202828415262500,1.962262451171875,-2.949937600341439,5.276874234998226,2.898161235874891,3.663968324661255,0.0172479823231697,-1.3301551342010498
1783202828425199400,1.972199462890625,-2.4881816741019485,5.752074749222397,3.5249224308758973,3.307032585144043,-0.3564543128013611,-1.375407099723816
1783202828435137300,1.98213720703125,-1.9667413867503405,6.137656951841712,3.680276074194908,2.890294075012207,-0.7415844202041626,-1.4535170793533323
1783202828445074400,1.992074462890625,-1.9559289008349177,6.358800287410617,3.776274442225695,2.477900505065918,-1.012881875038147,-1.522162675857544
1783202828455012400,2.002012451171875,-1.5293454102635382,6.39443449537158,3.7623020309746265,2.079566478729248,-1.105143427848816,-1.5103901624679563
1783202828464949200,2.01194921875,-0.6356432973757385,6.445718107885122,3.924413331860304,1.691521406173706,-1.0553878545761108,-1.4407083988189695
1783202828474886400,2.021886474609375,-0.2032661719642579,6.4567509585529566,4.078367629775404,1.339978814125061,-0.9298874139785768,-1.314339280128479
1783202828484824300,2.03182421875,-0.0342141120299696,6.351330682182312,4.156712267693877,1.040366291999817,-0.7361883521080017,-1.1729978322982788
1783202828494761500,2.041761474609375,0.1290304306693375,6.2985202984929085,4.117198587951064,0.808141827583313,-0.5703247785568237,-1.037371039390564
1783202828504699400,2.051699462890625,0.1427044434957206,6.208316880476475,3.867635798105597,0.5947296619415283,-0.6110721230506897,-0.9253096580505372
1783202828514636300,2.06163623046875,-0.1032524308122694,6.16218465937674,3.2728830217838287,0.3492674827575683,-0.743066668510437,-0.8131128549575806
1783202828524574200,2.07157421875,-0.2079597366079688,6.030911564347147,3.0354823788970706,0.0702064484357833,-0.8194997310638428,-0.7154620289802551
1783202828534511400,2.081511474609375,-0.2369913314335048,6.041244157791137,3.220110047495365,-0.1885667890310287,-0.7757573127746582,-0.6725960969924927
1783202828544449300,2.09144921875,-0.2838536203734576,6.150385500511526,3.447217259904742,-0.3567532896995544,-0.6248663067817688,-0.6890199780464172
1783202828554386400,2.101386474609375,-0.319869813389331,6.274935424765944,3.5750907756239174,-0.4429478049278259,-0.4642627835273742,-0.7497637867927551
1783202828564324400,2.111324462890625,-0.3820322550527751,6.414089628434181,3.5424469816505906,-0.4767723381519317,-0.3706485331058502,-0.8348557949066162
1783202828574261500,2.121261474609375,-0.4367560711480677,6.527915329578518,3.279402778941393,-0.4602716565132141,-0.4286971688270569,-0.9279316663742064
1783202828584198000,2.131197998046875,-0.4832867900460958,6.487993069034815,2.7813118029952046,-0.377258151769638,-0.5077098608016968,-1.0033621788024902
1783202828594136000,2.141135986328125,-0.3494073119103908,6.255855461242795,2.6848043163985014,-0.2940980195999145,-0.3771973848342895,-1.0095913410186768
1783202828604073000,2.151072998046875,0.0355615811161696,5.907610178849101,3.333873204797506,-0.2541163861751556,0.0015740422531962,-0.9111842513084412
1783202828614011100,2.16101123046875,0.3853241362050175,5.494872258278727,4.046784743031859,-0.3088227808475494,0.3214694857597351,-0.7533925175666809
1783202828623948000,2.170947998046875,0.0890887347728014,5.294585248255729,4.372535285022854,-0.4153167903423309,0.4562361240386963,-0.6078360080718994
1783202828633886200,2.18088623046875,-0.2106044058978557,5.342867925387621,4.249235068568587,-0.5114129781723022,0.3715691864490509,-0.5444203019142151
1783202828643822800,2.19082275390625,-0.5255050525724888,5.393492781731486,4.121224774727225,-0.5867733359336853,0.2953177094459533,-0.5397121906280518
1783202828653761000,2.200760986328125,-0.3442477371901273,5.205463195735216,4.368248986005783,-0.5735874772071838,0.6281856894493103,-0.5622220635414124
1783202828663698000,2.210697998046875,0.6706476830005645,4.869852938508987,6.706241267684102,-0.7099568247795105,0.5807998776435852,-0.4500704109668731
1783202828673635800,2.2206357421875,1.5901771878451108,4.044090097120404,6.029947103229165,-0.9757733345031738,0.0988066121935844,-0.2021650075912475
1783202828683573000,2.230572998046875,2.315300849659741,3.6425247279495,5.323807251086831,-1.2563585042953491,-0.6019736528396606,0.1823391169309616
1783202828693510100,2.24051025390625,2.5272408880755304,3.646530456459522,4.861022566321492,-1.4773399829864502,-1.148589849472046,0.5634680986404419
1783202828703448000,2.250447998046875,2.068398511195183,3.834491068872809,5.12246167192161,-1.5832284688949585,-1.4034870862960815,0.79250568151474
1783202828713385200,2.26038525390625,1.2079254448227583,4.239240913298726,5.681923939153552,-1.617876648902893,-1.216933012008667,0.904069721698761
1783202828723323100,2.2703232421875,0.4673803419925272,4.813589199495315,6.513070811668038,-1.659837007522583,-1.0079890489578247,0.9769123792648317
1783202828733260000,2.280260009765625,-0.0112855102546513,5.32916088707447,6.397558180350065,-1.81391716003418,-0.8674370646476746,1.0003443956375122
1783202828743198000,2.290197998046875,-0.2015396404325962,5.64488804770112,6.398810810759663,-1.9789952039718628,-0.609833300113678,1.003237247467041
1783202828753134800,2.300134765625,-0.1743091036796569,5.706821649044752,6.970115491476655,-2.123922824859619,-0.2879465818405151,1.0004736185073853
1783202828763073000,2.310072998046875,0.0673344374738633,5.692586787465214,7.471790171128511,-2.327154397964477,-0.207044318318367,1.0137851238250732
1783202828773010000,2.320010009765625,0.3640438861586153,5.792337201505899,7.3652113723725074,-2.6733264923095703,-0.521359384059906,1.0701497793197632
1783202828782948000,2.329947998046875,0.270872558247298,5.811157052788138,6.788817259562015,-3.2285192012786865,-1.02900493144989,1.2282211780548096
1783202828792885000,2.339885009765625,-0.0690276512578129,5.619858235862851,6.18378157415688,-3.9777965545654297,-1.596919059753418,1.4818603992462158
1783202828802823200,2.3498232421875,-0.8414396454047411,5.011480254292488,4.702435347908735,-4.767279624938965,-2.161638736724853,1.7277714014053345
1783202828812760000,2.359760009765625,-1.845668490956724,4.096972377002239,2.2269302000284195,-5.402279376983643,-2.583371162414551,1.8166762590408323
1783202828822698200,2.3696982421875,-2.701823255738616,3.1173394088506696,-0.8134101402938365,-5.867430686950684,-2.8136277198791504,1.7435191869735718
1783202828832635000,2.379634765625,-2.976129441696405,1.99071701336056,-4.11750429289937,-6.208456516265869,-2.9302022457122803,1.6466256380081177
1783202828842572000,2.389572021484375,-2.586319976770877,0.5867348895609379,-7.881878453972935,-6.419488430023193,-2.778611183166504,1.6006203889846802
1783202828852510000,2.399510009765625,-2.112411548183858,-0.8355895311370491,-11.310890195101498,-6.213348865509033,-2.237815618515014,1.5976728200912476
1783202828862447000,2.409447021484375,-2.0121467548802494,-1.8439514579057688,-14.666767141914368,-5.565610408782959,-1.3378087282180786,1.6277544498443604
1783202828872385000,2.419385009765625,-2.1120830468818546,-2.710597221563756,-17.0987102114439,-4.666072845458984,-0.2757651805877685,1.4477086067199707
1783202828882322200,2.429322265625,-2.568861476969719,-3.5631747123807664,-18.328920699441436,-3.7298004627227774,0.7076783776283264,1.107653021812439
1783202828892260000,2.439260009765625,-2.350668223378062,-5.30411529314518,-18.40202100696564,-2.8277430534362797,1.3214342594146729,0.6459363102912903
1783202828902197200,2.449197265625,-1.8302346288509663,-6.42492724879086,-17.771095093500612,-2.0634570121765137,1.5334131717681885,0.1321175992488861
1783202828912135200,2.45913525390625,-1.3482172742187977,-6.5925961838036775,-16.37185957970619,-1.4708353281021118,1.4294548034667969,-0.1965513676404953
1783202828922071800,2.46907177734375,-0.3949701721569523,-6.666213208678364,-14.802092142683266,-0.9703388810157776,1.230990290641785,-0.2951355278491974
1783202828932010000,2.479010009765625,0.4094942259414121,-6.353541928490996,-13.205287061131,-0.4647800624370575,1.049314022064209,-0.2973590195178985
1783202828941947000,2.48894677734375,0.6744821465969085,-5.579909087312221,-11.830599128615855,0.0826169252395629,0.8704743385314941,-0.2537595629692077
1783202828951885000,2.498885009765625,1.0608942972343414,-4.966628136131167,-10.794061785459515,0.6715995073318481,0.6751200556755066,-0.1725989431142807
1783202828961822000,2.508822021484375,1.483353474417329,-4.612139283172786,-9.803283153915404,1.248934984207153,0.537090539932251,-0.0712415128946304
1783202828971760000,2.518760009765625,1.6164958704501389,-4.175761836078763,-8.531807758593558,1.7377549409866333,0.4582580626010895,0.0150995030999183
1783202828981697000,2.528697021484375,1.3141405248329043,-3.331751974859833,-7.075539859500527,2.111166000366211,0.3543327152729034,0.0806944295763969
1783202828991635200,2.53863525390625,0.947647784217447,-2.4825199950784445,-5.749995604860782,2.37922739982605,0.2744770348072052,0.1345121264457702
1783202829001572000,2.548572021484375,0.6971490286961197,-1.795913403184712,-4.315415221440792,2.5715198516845703,0.2189111709594726,0.1744492799043655
1783202829011510000,2.558510009765625,0.4441460352689027,-1.0558389866061508,-3.105688134023547,2.673416376113892,0.1904869973659515,0.1758277267217636
1783202829021447000,2.568447021484375,0.1363792590621858,-0.359972252805531,-1.9006921667814252,2.651780605316162,0.1761528998613357,0.1511200666427612
1783202829031384000,2.578384033203125,-0.1468466213343665,0.165578976996243,-0.6964934873968363,2.506826400756836,0.1699914038181305,0.1046939641237258
1783202829041322000,2.588322021484375,-0.3236091460481285,0.5783855788886547,0.3737923961043358,2.284698009490967,0.1535633504390716,0.0604571998119354
1783202829051259100,2.598259033203125,-0.3588656432704999,0.908970409168303,1.1823685403704642,2.036498069763184,0.1114976406097412,0.0246834922581911
1783202829061197000,2.608197021484375,-0.3325962796999141,1.2043971245661378,1.6639251456230877,1.7885255813598633,0.0629639998078346,-0.0035469385329633
1783202829071134200,2.61813427734375,-0.3276465848706662,1.4468629418879746,1.9198516252815725,1.5608901977539062,0.0396578758955001,-0.0304917357861995
1783202829081072000,2.628072021484375,-0.2941213318876922,1.5373662196338176,2.1223551423102616,1.3673624992370603,0.0360600762069225,-0.067870020866394
1783202829091009000,2.638009033203125,-0.3006449980353936,1.520205533735454,2.091129982963204,1.2307807207107544,0.0411682836711406,-0.1273879408836364
1783202829100947000,2.647947021484375,-0.3046006037933751,1.486103942169249,1.8865332930475471,1.135092854499817,0.0669211074709892,-0.1871804147958755
1783202829110883800,2.6578837890625,-0.2091530015131458,1.4165081356346607,1.6935089675039052,1.06124746799469,0.0874287784099578,-0.2325159311294555
1783202829120822000,2.667822021484375,-0.0032427813135087,1.2756570649206638,1.4262322417914866,0.9950913190841676,0.0821323841810226,-0.2241594046354293
1783202829130759000,2.677759033203125,0.4190529124034568,1.0521484615251422,1.2512339868038893,0.9265934824943542,-0.0270018279552459,-0.151393324136734
1783202829140697000,2.687697021484375,0.815068282764405,0.8030863146781921,1.0601485203683376,0.8250074982643127,-0.1495882421731948,-0.0486107729375362
1783202829150634000,2.697634033203125,0.8924345771700143,0.5584791014134883,1.1005109258949757,0.677573561668396,-0.2649284303188324,0.0636446624994278
1783202829160572200,2.707572265625,0.8151701357036828,0.1301569504812359,0.8588993873149156,0.5388627648353577,-0.3970985114574432,0.1895626038312912
1783202829170509000,2.717509033203125,0.7705600826699286,-0.4669435580104589,0.1645095941990614,0.4224086105823517,-0.5131374597549438,0.336413562297821
1783202829180447000,2.727447021484375,0.7159159076821059,-1.1708946679368617,-0.8174696448177099,0.3575421571731567,-0.5620592832565308,0.4906924664974212
1783202829190383900,2.7373837890625,0.6944922305770218,-1.9314871180176731,-1.8934768285751344,0.3602522015571594,-0.5060369968414307,0.6238611340522766
1783202829200321800,2.74732177734375,0.5983205883385613,-2.7872522989600896,-3.0029461369514463,0.4779881536960602,-0.4815687239170074,0.6987271308898926
1783202829210259000,2.757259033203125,0.4007599345395341,-3.518518409052491,-4.556183294934034,0.7381172180175781,-0.4922339022159576,0.6789845824241638
1783202829220196900,2.76719677734375,0.0065939206556067,-3.802764097483456,-6.045818041577935,1.1290093660354614,-0.4216408729553222,0.5722760558128357
1783202829230134000,2.777134033203125,-0.5573613494299352,-3.653442720066011,-6.893814926606416,1.587291240692139,-0.2776847779750824,0.3867376148700714
1783202829240072000,2.787072021484375,-1.2588168431483209,-3.1365029590040443,-7.336406133648753,2.0723953247070312,-0.0263295788317918,0.1744529902935028
1783202829250009000,2.797009033203125,-1.8487270017445083,-2.429593876054883,-7.272363577327132,2.553525924682617,0.3228731751441955,-0.0277557615190744
1783202829259947000,2.806947021484375,-2.0787492248177526,-1.771207124212384,-6.945782429730892,2.9678268432617188,0.6069673299789429,-0.197085291147232
1783202829269884200,2.81688427734375,-2.098070157489925,-1.1849492045134304,-6.666340634450316,3.2853517532348637,0.7586522102355957,-0.3459783494472503
1783202829279822000,2.826822021484375,-2.009371737208962,-0.6038917760670185,-6.229684078153968,3.5156381130218506,0.8363290429115295,-0.4806036055088043
1783202829289759000,2.836759033203125,-1.8947946331754328,0.0010305120915174,-5.3965393098205325,3.638782024383545,0.9699113368988036,-0.5388048887252808
1783202829299697000,2.84669677734375,-1.6365874952338637,0.4383236127257346,-4.126201978617907,3.644067287445069,0.9437267184257508,-0.6088369488716125
1783202829309634000,2.856634033203125,-1.9194839610129597,1.4020640152186157,-3.121382546761632,3.571362257003784,0.9362440705299376,-0.6903738975524902
1783202829319572000,2.866572021484375,-1.9389007552750408,2.3882664248883723,-1.896166798311472,3.459878444671631,0.9768695831298828,-0.7523998618125916
1783202829329509000,2.876509033203125,-1.7093781522870062,2.959195258030295,-0.8991951573461293,3.333942413330078,0.9512198567390442,-0.7845191955566406
1783202829339447000,2.886447021484375,-1.546046954217553,3.395985085317492,-0.3855354408681392,3.195196866989136,0.875252366065979,-0.8046548366546631
1783202829349384200,2.89638427734375,-1.3954115715920925,3.8924528439760206,0.1547252822875976,3.026798725128174,0.8031119108200073,-0.8089451789855957
1783202829359322000,2.906322021484375,-1.163814427352324,4.3280975928813215,0.7776286328166723,2.845788955688477,0.6910733580589294,-0.7954811453819275
1783202829369259000,2.916259033203125,-0.950007572151348,4.734927166190743,1.14218558306396,2.6707942485809326,0.480594664812088,-0.7741636037826538
1783202829379197200,2.926197265625,-0.7902537211120129,5.012608381539583,1.096869354522228,2.5265634059906006,0.2594716548919678,-0.7363495826721191
1783202829389133800,2.9361337890625,-0.6808245013609528,5.153211030450463,1.176266716364026,2.373429536819458,0.1119657903909683,-0.6848600506782532
1783202829399072000,2.946072021484375,-0.5903627246692776,5.374724952897429,1.67787125338912,2.107487916946411,0.4051226377487182,-0.6238692998886108
1783202829409009000,2.9560087890625,-0.5455363254711032,5.521659727439284,3.391290205499529,1.743976593017578,0.7296079993247986,-0.5417858362197876
1783202829418947000,2.965947021484375,-0.4391175395824014,5.93305032505393,3.946890828867256,1.4409984350204468,0.7820125818252563,-0.4939996004104614
1783202829428884000,2.975884033203125,-0.7076195693060755,6.644895110839605,3.084212799796462,1.219144582748413,0.767314076423645,-0.4378713369369507
1783202829438822100,2.985822265625,-0.802771257379651,6.673636052155494,2.9394448478996758,1.054711103439331,0.949648916721344,-0.3649293780326843
1783202829448759000,2.995759033203125,-0.7931126176744699,6.523756456333398,3.6014375152796503,0.8962482213973999,1.2536702156066897,-0.3508540391921997
1783202829458697000,3.005697021484375,-1.117057425417751,6.881123202815652,4.281984368743002,0.6979167461395264,1.5018513202667236,-0.4183259606361389
1783202829468634000,3.015634033203125,-1.432207224547863,7.505797654670476,4.78939116230607,0.4483007788658142,1.6971126794815063,-0.539525032043457
1783202829478572000,3.025572021484375,-1.3250374741613864,7.74557554808259,5.236902290093899,0.2039581537246704,1.7718311548233032,-0.5859021544456482
1783202829488509000,3.035509033203125,-0.9989064084202052,7.589333431491255,5.439626171875,-0.0591624304652214,1.6599130630493164,-0.5544283986091614
1783202829498446800,3.04544677734375,-0.7151647239886224,7.860464494544267,5.72389027274549,-0.3434583246707916,1.535103440284729,-0.5651876330375671
1783202829508384000,3.055384033203125,-0.4507023250445723,8.232968604403734,6.215402454823256,-0.6245911717414856,1.3069876432418823,-0.5583211779594421
1783202829518322000,3.065322021484375,-0.3382888287857175,8.287679268756508,6.292036781692505,-0.9063562154769896,1.0704987049102783,-0.5145732760429382
1783202829528259000,3.075259033203125,-0.1535039237990975,8.194395420381426,6.560022532457113,-1.202656626701355,0.913905918598175,-0.4552548229694366
1783202829538197000,3.085197021484375,-0.0082014266341924,8.24465027436912,6.855940246242285,-1.5233081579208374,0.8512506484985352,-0.3765833973884582
1783202829548134100,3.095134033203125,0.1376741942435503,8.436458794382213,7.20410778722465,-1.8800464868545528,0.6013875603675842,-0.2815916538238525
1783202829558072000,3.105072021484375,0.0534779076874256,8.59115134344399,6.989710418784618,-2.251202344894409,0.3363985419273376,-0.1535205841064453
1783202829568009200,3.11500927734375,0.1302691786840558,8.652124575322865,7.306121470022201,-2.5823545455932617,0.077939823269844,-0.0105810072273015
1783202829577947100,3.124947021484375,0.0699324911430478,8.838761830177903,7.543691039735078,-2.86358380317688,-0.2300365567207336,0.141963705420494
1783202829587884300,3.13488427734375,-0.0895072524458169,8.974456248781085,7.5675979850232595,-3.154237508773804,-0.6224544048309326,0.2940200567245483
1783202829597822200,3.144822265625,-0.3575675297513604,9.039872431543468,7.539003758701682,-3.5277912616729736,-1.1733624935150146,0.440656453371048
1783202829607759400,3.15475927734375,-0.6714166215464472,9.069156393694875,7.168065582984686,-3.9735610485076895,-1.6998180150985718,0.6030911803245544
1783202829617697300,3.164697265625,-0.6533937658607959,8.786534799334406,6.756479170536995,-4.416324138641357,-2.021557331085205,0.8117039799690247
1783202829627634200,3.17463427734375,-0.7507099384918808,8.286286937615275,6.181209093320369,-4.815100193023682,-2.185646772384644,1.0494599342346191
1783202829637572400,3.184572265625,-1.1948466214105486,7.977009976041317,4.941850837749242,-5.13090705871582,-2.1933515071868896,1.3176188468933103
1783202829647509200,3.19450927734375,-1.7082913799636066,7.304809218379854,3.3465935701608656,-5.324021816253662,-2.235917091369629,1.585848331451416
1783202829657447400,3.204447509765625,-2.470325114893913,5.6766942218065255,1.0725175880759954,-5.370243549346924,-2.287532091140747,1.7402416467666626
1783202829667384000,3.214384033203125,-3.605897417297959,3.71460621381998,-1.081755956542492,-5.2381768226623535,-2.115762233734131,1.6878516674041748
1783202829677322200,3.224322265625,-5.035170341959596,2.17560450193882,-2.7718133222877976,-4.896413803100586,-1.8083117008209229,1.4409568309783936
1783202829687259100,3.234259033203125,-5.878845272135735,1.0467591697022318,-4.798464695599675,-4.376252174377441,-1.624850869178772,1.1317851543426514
1783202829697197300,3.244197265625,-5.4891492044568055,0.07628799764961,-6.990629287195206,-3.8873345851898193,-1.714969038963318,0.877795934677124
1783202829707134200,3.25413427734375,-4.096186195060611,-0.7463061505749822,-8.891559938907623,-3.3906185626983643,-1.9878697395324707,0.8033502101898193
1783202829717072100,3.264072021484375,-2.2328725956894457,-1.4116186100274324,-10.467339768087864,-3.67595648765564,-2.2957406044006348,0.9977373480796814
1783202829727009300,3.27400927734375,-0.5549029964923858,-2.4195313317239284,-10.8134515455842,-3.815252065658569,-2.08208966255188,1.2189428806304932
1783202829736947200,3.283947265625,0.0897812105489894,-2.943480971547961,-11.629663883817194,-3.368865489959717,-1.7134000062942505,1.277965068817139
1783202829746884400,3.29388427734375,-0.437634753678739,-3.6037218268245454,-13.724472263032196,-2.9792728424072266,-1.3748855590820312,1.261037826538086
1783202829756822300,3.303822265625,-0.7916026515029371,-5.200051692080497,-14.527728089058398,-2.9541661739349365,-0.913661241531372,1.1745487451553345
1783202829766759200,3.31375927734375,-1.399844439473003,-6.382279362675547,-13.8542372915864,-2.7003743648529053,-0.3419583141803741,0.9553011059761048
1783202829776697000,3.323697021484375,-2.0858337762512265,-7.316668582999706,-13.863926326429842,-2.2334463596343994,0.1564229428768158,0.7283810973167419
1783202829786634200,3.33363427734375,-2.0921938128024338,-7.847283525931835,-13.395057937836649,-1.965694546699524,0.473359614610672,0.535830557346344
1783202829796572200,3.343572265625,-1.7140721553221343,-7.694592379820346,-11.62996900424361,-1.6185466051101685,0.6214697957038879,0.3553397953510284
1783202829806509300,3.35350927734375,-1.2595340515069662,-7.358370712697505,-10.169178659290075,-1.1597670316696167,0.5675644874572754,0.1858889609575271
1783202829816447200,3.363447265625,-0.9486633910007776,-6.8307841776758425,-8.93145881857574,-0.7519065737724304,0.3820494413375854,0.0342445522546768
1783202829826384400,3.37338427734375,-0.7457161487925797,-6.074525080624222,-7.300470896914601,-0.3792451024055481,0.1198194175958633,-0.0822956413030624
1783202829836322300,3.383322265625,-0.481134653513506,-5.370984012803435,-5.797462289434671,-0.0666231140494346,-0.1915097683668136,-0.1711752116680145
1783202829846259200,3.39325927734375,-0.272115032589063,-4.585226434066891,-4.474504544156789,0.1349108070135116,-0.4871025383472442,-0.2440057396888733
1783202829856197000,3.403197021484375,-0.1136274751584976,-3.7929029209434986,-3.170515118721127,0.2683508694171905,-0.7364999651908875,-0.3070887625217438
1783202829866134300,3.41313427734375,-0.0441219772558659,-3.11562383710444,-2.2750240765899417,0.3125542998313904,-0.9363585114479064,-0.3623783886432647
1783202829876072200,3.423072265625,-0.0875724119257181,-2.661838451352715,-1.6430635593801737,0.303950697183609,-1.0044441223144531,-0.4442472457885742
1783202829886009300,3.43300927734375,-0.260765517187491,-2.179978333108872,-1.1077841317683457,0.2715519964694977,-0.9874279499053956,-0.5450505018234253
1783202829895947300,3.442947265625,-0.5176926252558827,-1.6060715070694684,-0.848542243951559,0.2248770594596862,-0.866990864276886,-0.6485595703125
1783202829905884200,3.45288427734375,-0.6254178175680339,-1.1564734900049864,-0.5808212816029786,0.1747308075428009,-0.695282518863678,-0.7467132806777954
1783202829915822300,3.462822265625,-0.6913900267779827,-0.7940100049056112,-0.4817851533114909,0.1207059696316719,-0.5064828991889954,-0.8555041551589966
1783202829925759200,3.47275927734375,-0.7508454014398157,-0.405818788831681,-0.365455360391736,0.0301393158733844,-0.3829308748245239,-0.9654751420021056
1783202829935697400,3.482697509765625,-0.881169525181502,-0.0869406168282032,-0.327120076778531,-0.0951131805777549,-0.3757575154304504,-1.0930547714233398
1783202829945634000,3.492634033203125,-1.0658514081850647,0.2151091699711978,-0.4987830498635768,-0.2060109376907348,-0.4502320289611816,-1.2036702632904053
1783202829955572200,3.502572265625,-0.8548688166245818,0.3931581908315419,-0.9510901797562836,-0.239541083574295,-0.691333532333374,-1.2225443124771118
1783202829965509000,3.512509033203125,-0.2866327296979725,0.3142269851967692,-2.124644714552164,-0.2053841799497604,-0.9826074242591858,-1.1027952432632446
1783202829975447300,3.522447265625,0.2514608785517513,0.0455969451792538,-3.549913079747557,-0.1633637249469757,-1.156773328781128,-0.8159663677215576
1783202829985385200,3.53238525390625,0.4725405012346804,-0.3113799252025783,-4.994810274520516,-0.0531346909701824,-1.136943221092224,-0.5295716524124146
1783202829995322000,3.542322021484375,0.0304066825710237,-0.2271108656711876,-6.701053635913134,0.1528615057468414,-0.7823140621185303,-0.3185109198093414
1783202830005260300,3.55226025390625,-0.5466016166150569,-0.46070773236081,-7.778273118069768,0.4212402403354645,-0.2727687954902649,-0.2575226724147796
1783202830015197200,3.562197265625,-1.1487616004534065,-1.1251726350732147,-8.912890896227955,0.7130733728408813,0.264880359172821,-0.3790760934352875
1783202830025135400,3.57213525390625,-1.5953312096074224,-1.8877986368082464,-10.056762240421772,1.029524564743042,0.7351884245872498,-0.6250783801078796
1783202830035072300,3.582072265625,-2.063669290716201,-2.1920473949566484,-11.041492239451408,1.3672579526901243,1.1896833181381226,-0.906445562839508
1783202830045010400,3.592010498046875,-2.6360715574115514,-1.800339841324836,-11.611685159534217,1.7368130683898926,1.7715797424316406,-1.095386981964111
1783202830054947000,3.601947021484375,-2.9443285282880067,-1.162846386037767,-11.395455314970016,2.145370483398437,2.4083356857299805,-1.1514273881912231
1783202830064885200,3.61188525390625,-2.8068387507006523,-0.5164113532736897,-10.78932014389038,2.542942523956299,2.950102567672729,-1.1056857109069824
1783202830074822100,3.621822265625,-2.3027423968598244,0.018767536573112,-9.786185304120185,2.9169702529907227,3.234318494796753,-1.0060701370239258
1783202830084760000,3.631760009765625,-1.7217274923808872,0.6001499591901898,-8.712759369027614,3.293574094772339,3.280174493789673,-0.8821565508842468
1783202830094697200,3.641697265625,-1.3677891129121182,1.2725330876812335,-7.470883577677607,3.696280717849731,3.213464498519897,-0.7419443130493164
1783202830104635100,3.65163525390625,-1.2740332631111144,1.99713272562176,-5.997821195650101,4.07344388961792,3.064474105834961,-0.6033456921577454
1783202830114572300,3.661572265625,-1.414478675633669,2.7714240307092664,-4.520353856661916,4.395245552062988,2.8902406692504883,-0.466290146112442
1783202830124510200,3.67151025390625,-1.6047493185549973,3.4992075593829157,-2.999845832848549,4.623600482940674,2.7047383785247803,-0.3814303874969482
1783202830134447400,3.681447265625,-1.8664763011857863,4.17570133806318,-1.5860510478258132,4.735703945159912,2.49338960647583,-0.3491656482219696
1783202830144385300,3.69138525390625,-2.0836277906395493,4.653175350177288,-0.2103355258285999,4.763317108154297,2.2473738193511963,-0.3740491569042206
1783202830154322200,3.701322265625,-2.282020657479018,4.9741263829320665,0.9996528428733348,4.740147113800049,2.0343525409698486,-0.4521521925926208
1783202830164260000,3.711260009765625,-2.4136716459102927,5.322956187215447,2.171651964920759,4.6340861320495605,1.8604488372802732,-0.5604237914085388
1783202830174197200,3.721197265625,-2.422662761617452,5.705242855420709,3.3084014944106337,4.428955078125,1.7074612379074097,-0.6854769587516785
1783202830184135200,3.73113525390625,-2.352862372421473,6.106796534153819,4.26733771149218,4.141012191772461,1.5797621011734009,-0.7775858640670776
1783202830194072300,3.741072265625,-2.128924437697977,6.377336645576357,5.061013808268308,3.8041253089904794,1.4614970684051514,-0.8250705599784851
1783202830204010200,3.75101025390625,-1.8710789726756512,6.6617801946669815,5.644587018927932,3.431511878967285,1.3516017198562622,-0.8323865532875061
1783202830213947400,3.760947509765625,-1.6326117234706878,6.968903777599334,6.092932259452343,3.0549447536468506,1.224889636039734,-0.796791136264801
1783202830223885300,3.77088525390625,-1.340655899053812,7.028978599333763,6.442057831811905,2.665476083755493,1.109749674797058,-0.7298550009727478
1783202830233823200,3.7808232421875,-1.1073837342739103,7.0749442316949365,6.743266053220629,2.2853660583496094,1.0328017473220823,-0.677714467048645
1783202830243760400,3.790760498046875,-0.9449567915678024,7.170747369414568,6.962730641922354,1.9291155338287356,0.9883801937103271,-0.6480295658111572
1783202830253698300,3.8006982421875,-0.8307710249394178,7.234026540148258,7.059265016525983,1.6093136072158811,0.973750650882721,-0.6412562727928162
1783202830263635200,3.81063525390625,-0.7531535322517157,7.340148242786526,7.274792265778779,1.3215430974960327,0.9576553106307985,-0.6511475443840027
1783202830273573000,3.820572998046875,-0.7000105556070804,7.555137147378921,7.424747849446534,1.0369242429733276,0.8747456073760986,-0.6403478980064392
1783202830283510300,3.83051025390625,-0.5759998527958988,7.727493947947025,7.504055194917321,0.7513337135314941,0.736579179763794,-0.5784972906112671
1783202830293448200,3.8404482421875,-0.3899626096606254,7.817877398705482,7.643420410987734,0.4766792953014374,0.5892105102539062,-0.4645651578903198
1783202830303385300,3.85038525390625,-0.1813128449618816,7.8427201635390515,7.825437020304799,0.2123621553182602,0.4817871451377868,-0.3024087250232696
1783202830313323300,3.8603232421875,-0.069598144622147,7.866095193907618,8.046501445418595,-0.0558253899216651,0.3906578421592712,-0.1330287307500839
1783202830323260400,3.870260498046875,-0.1643064728423953,7.915250562220812,8.307374733829498,-0.3527694344520569,0.305690735578537,0.0522958636283874
1783202830333198300,3.8801982421875,-0.0656786330908536,7.8587144360065455,8.642181857979297,-0.6781507730484009,0.2156631797552108,0.2596094012260437
1783202830343135200,3.89013525390625,-0.0275946938902139,7.815539311146735,8.936110443773865,-1.0133612155914309,0.0579055100679397,0.4790815711021423
1783202830353073200,3.9000732421875,-0.0611877514123916,7.765869563570618,9.076558194383978,-1.3841496706008911,-0.2378860563039779,0.6918517351150513
1783202830363010000,3.910010009765625,-0.1861287208110094,7.683736054763197,8.997309301102161,-1.7841719388961792,-0.6449997425079346,0.902277648448944
1783202830372948200,3.9199482421875,-0.3403586207970976,7.464383109742402,8.861151941162348,-2.1593589782714844,-1.096522331237793,1.0925426483154297
1783202830382885000,3.929885009765625,-0.5717722982287406,7.161651039767265,8.530043087008595,-2.509849071502685,-1.5547205209732056,1.2669706344604492
1783202830392823300,3.9398232421875,-1.0182216420039534,6.90684508857131,8.164888170868158,-2.808842658996582,-1.923864483833313,1.4020297527313232
1783202830402760200,3.94976025390625,-1.336079092657566,6.65135700033009,7.83270788809061,-3.0388665199279785,-2.145913362503052,1.5008559226989746
1783202830412698400,3.959698486328125,-1.8162772690385576,6.4436424706548445,7.574968221530318,-3.1979522705078125,-2.2378528118133545,1.5341602563858032
1783202830422636300,3.96963623046875,-2.375940173409134,6.318667014464736,7.314667180049419,-3.3096423149108887,-2.250608205795288,1.525784611701965
1783202830432573400,3.979573486328125,-2.8374539614558216,6.145489545163512,7.102422605729103,-3.437410831451416,-2.2445719242095947,1.4988211393356323
1783202830442511400,3.989511474609375,-3.289887055815756,6.066941493627429,6.820491331720352,-3.615302801132202,-2.286174297332764,1.474654197692871
1783202830452448300,3.9994482421875,-3.905146321332455,6.167939861902594,6.359173796898126,-3.8981335163116455,-2.348670959472656,1.4271025657653809
1783202830462386200,4.00938623046875,-4.891257837848365,6.578466536164283,5.610170954585075,-4.265440464019775,-2.3530502319335938,1.357285976409912
1783202830472323000,4.019322998046875,-5.841103278240561,6.755474961930513,4.579040438908338,-4.591526985168457,-2.2879204750061035,1.3222367763519287
1783202830482261200,4.02926123046875,-6.064231650146842,6.140701141843199,2.9196605354994536,-4.814095973968506,-2.228749990463257,1.2957459688186646
1783202830492198100,4.0391982421875,-5.851768464639783,5.317055438739061,0.7687614357501268,-4.895778656005859,-2.3195528984069824,1.2519861459732056
1783202830502136300,4.04913623046875,-5.373413870298863,4.398564921553433,-1.7695839069247246,-4.875045776367188,-2.630850315093994,1.139204740524292
1783202830512073200,4.0590732421875,-4.8104219676360485,3.579582826346159,-4.635107778567075,-4.790276050567627,-3.07487416267395,0.9833569526672364
1783202830522011400,4.069011474609375,-4.249089522618055,2.537954005269706,-7.523712666067481,-4.607872486114502,-3.387011766433716,0.8027700781822205
1783202830531948300,4.0789482421875,-4.085200398404896,1.4627727509424089,-10.07194461198449,-4.985715389251709,-3.265244245529175,0.6789466142654419
1783202830541886200,4.08888623046875,-4.213089988476038,0.9531927049934864,-11.378913345491885,-5.287492275238037,-2.275620460510254,0.4391486644744873
1783202830551823000,4.098822998046875,-4.651262794554233,1.0572590825371444,-12.898024946510793,-4.858718395233154,-1.124699354171753,0.2242183834314346
1783202830561761000,4.108760986328125,-4.378354200434685,0.4062755926884711,-16.721202594208716,-4.487487316131592,-0.0373690798878669,0.1702965646982193
1783202830571698200,4.1186982421875,-2.525001584716141,-1.1382144874759017,-18.429587059283257,-3.953267812728882,0.7187216877937317,0.2265324592590332
1783202830581636000,4.128635986328125,-0.7581343894042074,-2.300771681308746,-19.355717569828037,-3.392744779586792,1.013751745223999,0.3561083078384399
1783202830591573200,4.1385732421875,0.5653581203375011,-3.1852728351309896,-19.55015877643228,-2.8229517936706543,1.1079304218292236,0.5391725301742554
1783202830601510400,4.148510498046875,1.2607966187886892,-3.580389174292981,-18.380904569178817,-2.0164239406585693,1.1078790426254272,0.6380615830421448
1783202830611448300,4.1584482421875,1.3723171117305757,-3.7777962449654936,-17.263963902008534,-1.1589369773864746,1.0157796144485474,0.7364025712013245
1783202830621385200,4.16838525390625,1.4693459918528795,-4.319085726647079,-15.703080028665063,-0.2327819913625717,0.9157695770263672,0.817802369594574
1783202830631323400,4.178323486328125,1.4611474878281354,-4.546438438250124,-13.826954147863388,0.5796340703964233,0.7771271467208862,0.8619251251220703
1783202830641260300,4.18826025390625,1.2280628084443508,-4.41106667573005,-11.645462341451644,1.2425076961517334,0.5812271237373352,0.8754507899284363
1783202830651198500,4.198198486328125,1.0323252784192565,-4.187236000773311,-9.405330130022763,1.7245200872421265,0.3560899794101715,0.8468911051750183
1783202830661135400,4.20813525390625,0.7567738416407257,-3.767316644266248,-7.16581926536262,2.0558412075042725,0.1827914267778396,0.8058781623840332
1783202830671073500,4.218073486328125,0.4371299459617584,-3.299027809126675,-5.051103239628672,2.241231918334961,0.07487703114748,0.7407958507537842
1783202830681010200,4.22801025390625,0.0819862823564559,-2.6277345216989514,-3.1437650589615105,2.3057057857513428,0.0431007295846939,0.643676221370697
1783202830690948400,4.2379482421875,-0.2212363476146012,-1.9652955718562009,-1.469572201824188,2.2323155403137207,0.0441879332065582,0.5108303427696228
1783202830700885200,4.24788525390625,-0.4178690729137509,-1.4515513919651508,-0.0961848305135965,2.033592939376831,0.0448822192847728,0.3541384935379028
1783202830710823400,4.257823486328125,-0.4915079442940652,-1.0062141010850667,0.9921733007729052,1.770072102546692,0.0470980815589427,0.1928443163633346
1783202830720761300,4.26776123046875,-0.5127925051894039,-0.6306596637442707,1.7333733603805304,1.5040135383605957,0.0504531301558017,0.0173446740955114
1783202830730698200,4.2776982421875,-0.5808236927557736,-0.2510021749988198,2.1859897023528814,1.2361644506454468,0.0532819181680679,-0.1481291204690933
1783202830740636400,4.287636474609375,-0.6296977599095552,0.075198741108179,2.533288059285283,0.9617422223091124,0.0534196011722087,-0.2841769754886627
1783202830750573300,4.2975732421875,-0.6597249416437,0.385733593788743,2.7764970961898565,0.702892005443573,0.0792749673128128,-0.4007638692855835
1783202830760511500,4.307511474609375,-0.7896206839054822,0.6986221699886024,2.946903347212076,0.4814440906047821,0.1253953129053115,-0.5053192973136902
1783202830770448400,4.317448486328125,-0.9941672510690986,0.9692086047708988,2.9683354268193245,0.3366264402866363,0.1855735927820205,-0.6032091975212097
1783202830780386600,4.327386474609375,-1.1294549885675311,1.1432257397666572,2.909140895050764,0.246028870344162,0.2068964540958404,-0.6796802282333374
1783202830790323200,4.3373232421875,-1.1616886673700064,1.292486326907575,2.855572386470437,0.1637292951345443,0.2113733291625976,-0.7194432020187378
1783202830800261400,4.347261474609375,-1.1246468576334416,1.5484882098898292,2.8564924239248035,0.0703045427799224,0.2312168180942535,-0.6940129399299622
1783202830810198300,4.3571982421875,-0.995061861821264,1.7396331514276564,2.947923922431469,-0.0439307503402233,0.2561099231243133,-0.6267032623291016
1783202830820136200,4.36713623046875,-0.8809302365329116,1.9038658283814789,3.1220997551202774,-0.1683464348316192,0.2338357865810394,-0.5472198724746704
1783202830830073300,4.3770732421875,-0.8642869255721568,2.0877410711772737,3.1936019797980784,-0.3206349909305572,0.1654674261808395,-0.4585435092449188
1783202830840011300,4.38701123046875,-0.7474591200023889,2.077310278055817,3.239271259561181,-0.5269899964332581,0.0662835836410522,-0.3716565370559692
1783202830849949400,4.396949462890625,-0.701684334038198,1.9794648208536207,3.2883775280356407,-0.7786226272583008,-0.0728306770324707,-0.3133516013622284
1783202830859886300,4.40688623046875,-0.7534938701219857,1.8234303556635976,3.1872458887696262,-1.0360981225967407,-0.2775976955890655,-0.2943252027034759
1783202830869824500,4.416824462890625,-0.7186078501798212,1.6134814910650253,2.7811948986172674,-1.27594256401062,-0.4853006601333618,-0.2880764007568359
1783202830879761400,4.426761474609375,-0.5564590668279678,1.3324987499527632,2.2722551963984965,-1.4868996143341064,-0.6584839224815369,-0.2732066214084625
1783202830889699600,4.436699462890625,-0.5138794967085123,0.9520037874698638,1.58697108528018,-1.6397254467010498,-0.8410705327987671,-0.2520737051963806
1783202830899636200,4.44663623046875,-0.4402702167488634,0.5604543470092117,0.4276461513668299,-1.6845948696136477,-1.0466108322143557,-0.2059333473443985
1783202830909574100,4.45657421875,-0.0607803396552801,0.0199349729172885,-1.28023328679502,-1.6123942136764526,-1.1540422439575195,-0.0920179709792137
1783202830919511300,4.46651123046875,0.2181799557186663,-0.6804466810245067,-2.985236877259612,-1.423409342765808,-1.117771029472351,0.0396726801991462
1783202830929449200,4.47644921875,0.1077817448049783,-1.1571143451917916,-4.571242916899919,-1.164090633392334,-0.9561951756477356,0.1417415887117386
1783202830939386400,4.486386474609375,-0.0497425205513834,-1.7421623776443302,-6.062408526372909,-0.8886902332305908,-0.7898911237716675,0.190461978316307
1783202830949324300,4.49632421875,-0.2309895337354391,-2.4180352479472758,-7.578368385362625,-0.6256170868873596,-0.6520262360572815,0.1530581563711166
1783202830959261400,4.506261474609375,-0.4016770128518342,-3.051457362142205,-9.180183404031396,-0.3946225047111511,-0.4369136393070221,0.0509690679609775
1783202830969199400,4.516199462890625,-0.3995104824677109,-3.839356336821616,-10.950969672483206,-0.1554396748542785,-0.0686778426170349,-0.0752220526337623
1783202830979137500,4.526137451171875,-0.2734258229266852,-4.620606959527731,-13.06115565357208,0.1216952502727508,0.4644201695919037,-0.2282203882932663
1783202830989074400,4.536074462890625,-0.4517588483601808,-5.108402166908979,-15.303405003285407,0.493018090724945,1.247382402420044,-0.4208339750766754
1783202830999012400,4.546012451171875,-0.71005680639036,-5.466552757245302,-17.113171282994745,1.0357422828674316,2.22751522064209,-0.6567423343658447
1783202831008949200,4.55594921875,-0.8680383870601653,-5.358941692832112,-18.08487112005949,1.7135881185531616,3.154010534286499,-0.8718954920768738
1783202831018887200,4.56588720703125,-0.6116966776642948,-4.583884371808171,-18.14400953772664,2.443863868713379,3.752668857574463,-0.9152981042861938
1783202831028824300,4.57582421875,0.0610879808323457,-3.416754317101836,-17.540627464747427,3.2009496688842773,3.952160358428955,-0.812807023525238
1783202831038762200,4.58576220703125,0.1526324016615748,-1.5382228364631532,-16.52637209602594,3.938785791397095,3.931218147277832,-0.6252962350845337
1783202831048699400,4.595699462890625,0.0087475162096321,0.2039529851846396,-14.921044685322045,4.644438743591309,3.787709951400757,-0.3659919500350952
1783202831058637300,4.60563720703125,-0.2128162367284297,1.444678583586216,-13.14831137445569,5.297555923461914,3.595282793045044,-0.1416057348251342
1783202831068575500,4.615575439453125,-0.8828096936039626,2.9316075784027573,-11.194580860447884,5.905902862548828,3.476454496383667,0.0027831606566905
1783202831078512400,4.625512451171875,-1.648908924407512,4.388192288359999,-9.04018456623256,6.409367084503174,3.434824228286743,0.0664939582347869
1783202831088450300,4.6354501953125,-2.4234505509942768,5.711380919784308,-6.807251910918951,6.739083290100098,3.459901571273804,0.087352305650711
1783202831098387200,4.64538720703125,-3.1566268786221743,6.892804872781038,-4.407411368092895,6.86491060256958,3.507202386856079,0.0821942836046218
1783202831108325000,4.6553251953125,-3.817457808746397,7.900998164984584,-1.948069419506192,6.767484664916992,3.472256660461426,0.0615631788969039
1783202831118262300,4.66526220703125,-4.247238049532473,8.736163625490665,0.2555687522619962,6.598695755004883,3.350632667541504,0.0931261628866195
1783202831128200200,4.6752001953125,-4.1522292770609255,9.232156752374769,2.206387762737274,6.319716930389404,3.090729236602783,0.1495706140995025
1783202831138137300,4.685137451171875,-3.9780911460340014,9.43859059458971,3.8845325723707673,5.747758865356445,2.760854482650757,0.1812321245670318
1783202831148075300,4.6950751953125,-3.923756621517241,9.588156302157044,5.876697738713026,4.96864652633667,2.4648025035858154,0.1364000588655471
1783202831158012400,4.705012451171875,-4.010258262406289,9.438073877239226,7.418037538152933,4.380786895751953,2.1736273765563965,0.0485908463597297
1783202831167950300,4.714950439453125,-3.903547069442272,9.355985961139202,7.810182752549648,3.826527833938599,1.8838027715682983,-0.0212273448705673
1783202831177888500,4.724888427734375,-3.50896176841706,8.980129033720493,8.218701594120263,3.2939369678497314,1.5598995685577393,-0.0954206138849258
1783202831187825400,4.734825439453125,-3.3064421770364043,8.693321093586087,8.387108195757865,2.699075937271118,1.3008860349655151,-0.1907652765512466
1783202831197763300,4.744763427734375,-3.535905889444053,8.572554195001722,8.671545899629592,2.124884843826294,1.1260441541671753,-0.3134653866291046
1783202831207700200,4.7547001953125,-3.716562900845706,8.572295836326479,8.960182808756828,1.5869532823562622,1.0134122371673584,-0.4315626621246338
1783202831217638100,4.76463818359375,-3.5054672042995687,8.680707111206651,9.14140037665069,1.0180141925811768,0.8983597159385681,-0.5316400527954102
1783202831227575300,4.7745751953125,-3.4500589130714534,8.801706064981222,9.314971813705563,0.497429609298706,0.7731062173843384,-0.5978625416755676
1783202831237513200,4.78451318359375,-3.364692705953121,9.023154520976544,9.23239465278387,0.0731073766946792,0.6525576710700989,-0.604936420917511
1783202831247450400,4.794450439453125,-3.159689481063187,9.1101600197345,9.029085080069304,-0.2195330560207367,0.5179070830345154,-0.57793790102005
1783202831257388300,4.80438818359375,-2.998694324725866,9.171666335576772,8.774408892732858,-0.4210456907749176,0.3790541291236877,-0.4780438244342804
1783202831267325400,4.814325439453125,-2.862515045215189,9.282178966650369,8.667939399570226,-0.640376091003418,0.16716168820858,-0.3209509551525116
1783202831277263400,4.824263427734375,-2.825924559442699,9.409371514368056,8.724396030807494,-0.8960763216018677,-0.107184924185276,-0.1417478919029235
1783202831287201300,4.834201171875,-2.917442567189038,9.51928851763606,8.821334310036898,-1.1477130651474,-0.396815150976181,0.0261823702603578
1783202831297138400,4.844138427734375,-3.0793273658424614,9.60761386682093,8.909109624123573,-1.3924084901809692,-0.6837523579597473,0.1809218823909759
1783202831307076400,4.854076416015625,-3.268214153189957,9.634666124397516,8.869187948101759,-1.6610043048858645,-0.99832284450531,0.330570638179779
1783202831317013200,4.86401318359375,-3.4136423225611447,9.637140990078448,8.845245346978306,-1.9511785507202148,-1.2904177904129028,0.4496499001979828
1783202831326951200,4.873951171875,-3.554309561140835,9.639106152671577,8.92252498601377,-2.2600302696228027,-1.552046537399292,0.5441569685935974
1783202831336888300,4.883888427734375,-3.780898594895005,9.694390232998131,8.913743713665008,-2.5881893634796143,-1.7554986476898191,0.6242163777351379
1783202831346826200,4.893826171875,-4.103233190962672,9.785735806787011,8.922799711301922,-2.968468189239502,-1.934679388999939,0.7097770571708679
1783202831356763400,4.903763427734375,-4.400839003965259,9.832027602362633,8.90698897870779,-3.4428956508636475,-2.1381170749664307,0.7591837644577026
1783202831366701300,4.913701416015625,-4.806356325632334,10.03354736905098,8.802826008921862,-3.9983298778533936,-2.366452932357788,0.7749068140983582
1783202831376638500,4.923638427734375,-5.012044902437925,10.011234999477862,8.64329712574482,-4.592236042022705,-2.6643314361572266,0.7548511028289795
1783202831386576400,4.933576416015625,-5.246948467811942,9.897104762429,8.195944987910986,-5.220130920410156,-2.974013566970825,0.6959965229034424
1783202831396514300,4.943514404296875,-5.602282247161865,9.969606519538164,7.632991371431946,-5.906638145446777,-3.264958381652832,0.6556733250617981
1783202831406451500,4.953451416015625,-5.799178445702791,10.002578230291604,6.564857113006711,-6.606654644012451,-3.569586992263794,0.6441879272460938
1783202831416389400,4.963389404296875,-6.074557229328155,10.034915150272846,4.737102172142267,-7.20330810546875,-3.939343452453613,0.6452071070671082
1783202831426326300,4.973326171875,-6.392560518193244,9.585524200087786,2.061698136773705,-7.522754669189453,-4.311861038208008,0.6308042407035828
1783202831436264200,4.98326416015625,-6.467237865775823,8.425991760903596,-1.417884100162983,-7.396690368652344,-4.561671733856201,0.5833302140235901
1783202831446201300,4.993201416015625,-6.017559330821037,6.639452043002843,-5.486000385037064,-6.755219459533691,-4.592014789581299,0.502015233039856
1783202831456139300,5.00313916015625,-4.985022455477714,4.770987490609288,-9.673049923327564,-5.74225664138794,-4.415496826171875,0.4338928759098053
1783202831466076400,5.013076416015625,-3.750877550640702,3.2466780286863446,-13.283456342482566,-4.6116719245910645,-4.0081467628479,0.5092653036117554
1783202831476014300,5.023014404296875,-2.5083076395466923,1.5330097779899834,-15.694860481852292,-3.634927034378052,-3.415841579437256,0.6950775384902954
1783202831485952300,5.0329521484375,-1.9438801511228083,-0.0093074881799519,-16.835883450877667,-2.8189988136291504,-2.689440488815308,0.8186008334159851
1783202831495889400,5.042889404296875,-2.2708481060795487,-0.7972035402499139,-16.951997555220125,-3.39760971069336,-1.8317347764968872,0.9189846515655518
1783202831505827300,5.052827392578125,-2.4326143929198385,-1.8935485786370927,-14.549745859599112,-3.667589664459229,-0.709510862827301,0.6959244012832642
1783202831515764200,5.06276416015625,-2.986391307991743,-2.4068251410163937,-14.009582167077063,-2.992631673812866,0.1396563947200775,0.4467553496360779
1783202831525702100,5.0727021484375,-2.5565552453652023,-2.8384678146734834,-15.33460444366932,-2.684558868408203,0.4600255787372589,0.2098440080881118
1783202831535639300,5.082639404296875,-1.894628044436872,-3.4092487637773154,-13.796682928240298,-2.747037410736084,0.3912297487258911,0.1049375608563423
1783202831545577200,5.0925771484375,-1.2699395640566944,-4.252299424575269,-12.27716449998617,-2.619404554367065,0.2031321227550506,-0.0166129134595394
1783202831555514400,5.102514404296875,-0.9996910559918732,-4.164666441568732,-12.17697744809389,-2.732974052429199,0.2061851769685745,-0.0405528657138347
1783202831565452300,5.112452392578125,-0.3400286581903696,-4.226741204948723,-10.63133556754589,-2.490565538406372,0.270010381937027,-0.1181425228714943
1783202831575390500,5.122390380859375,0.3713709411110729,-4.120939528045058,-10.857104809349774,-2.079287528991699,0.335951566696167,-0.1898681074380874
1783202831585327400,5.132327392578125,1.1468959527119993,-4.264521485027671,-10.59781908239126,-1.410869002342224,0.3717561066150665,-0.2084137350320816
1783202831595265800,5.142265869140625,1.743299126589298,-4.21735641374886,-10.239458064174652,-0.6668518781661987,0.3400402665138244,-0.1445111781358719
1783202831605202700,5.15220263671875,1.955577164787799,-3.860967572388053,-9.182167271324992,0.0664381980895996,0.1971552819013595,-0.0271930787712335
1783202831615140600,5.162140625,1.9149086159214377,-3.268029152011871,-7.770262245571613,0.6651141047477722,-0.036393828690052,0.0831994786858558
1783202831625077800,5.172077880859375,1.6660086738988755,-2.6378485039561985,-5.9808466799736015,1.089552879333496,-0.3222196698188782,0.159125417470932
1783202831635015700,5.182015625,1.3803884822443129,-2.1080236884884536,-4.171162233328819,1.3233094215393066,-0.6230599284172058,0.1882548183202743
1783202831644953600,5.19195361328125,0.9701903823498635,-1.4166869993329048,-2.6258693123489616,1.3970463275909424,-0.8473073244094849,0.1581187844276428
1783202831654890800,5.201890869140625,0.583984202613309,-0.7563055665418505,-1.4351613981783389,1.370698094367981,-0.960433065891266,0.1032278388738632
1783202831664828700,5.21182861328125,0.446227298522368,-0.4235418213205412,-0.6266559810608625,1.2926576137542725,-0.9581988453865052,0.018097024410963
1783202831674765800,5.221765869140625,0.4142530013084411,-0.1803077595725655,-0.1657937887907028,1.2160006761550903,-0.8968326449394226,-0.0785091444849968
1783202831684703700,5.231703857421875,0.3818147398445755,0.0405712259717285,0.0799649325966835,1.1383033990859983,-0.7693879008293152,-0.1769620776176452
1783202831694641000,5.241640869140625,0.3459459194101393,0.2651500341483391,0.2410024667710065,1.042004108428955,-0.5876269340515137,-0.2397570163011551
1783202831704578800,5.251578857421875,0.3175121443472802,0.5162443626763299,0.3427285647988319,0.9089832901954652,-0.3490294218063354,-0.2669183015823364
1783202831714515700,5.261515625,0.1719845331896096,0.9325388432171196,0.4518500337749719,0.7238779067993164,-0.0807351469993591,-0.257834255695343
1783202831724453600,5.27145361328125,0.13804076253362,1.1562832281298934,0.6698188309609889,0.5332078337669373,0.1556596159934997,-0.2307184487581253
1783202831734391800,5.281391845703125,0.1463558786753565,1.3466943024352191,0.8514204297363758,0.3829511702060699,0.3071748316287994,-0.2105844169855117
1783202831744328700,5.29132861328125,0.0766471863508224,1.483373348161578,0.9513777645260096,0.26950404047966,0.3932047486305237,-0.2009813636541366
1783202831754266600,5.3012666015625,-0.0700439156282693,1.4831544447138905,1.1083271526038645,0.1706288456916809,0.4168043434619903,-0.1937809735536575
1783202831764203800,5.311203857421875,-0.3004291267950087,1.430135094448924,1.2888187443107366,0.088289700448513,0.3660148680210113,-0.2059007734060287
1783202831774141700,5.3211416015625,-0.6186359023429453,1.3692052633203566,1.3852835608094929,0.0086095202714204,0.2622706294059753,-0.2199012786149978
1783202831784078800,5.331078857421875,-0.855017577445507,1.2840806098729372,1.4949503887087106,-0.0522770509123802,0.1336409300565719,-0.2293644696474075
1783202831794016800,5.341016845703125,-0.881406183481589,1.189565027745813,1.6165695202082395,-0.1218936815857887,-0.028447575867176,-0.2335251271724701
1783202831803954000,5.350953857421875,-0.760589381340891,1.033560738498345,1.7232535329043863,-0.193424716591835,-0.1860906034708023,-0.2213229984045028
1783202831813891800,5.360891845703125,-0.5754371043466031,0.8955946486361325,1.7574737824141975,-0.2487055510282516,-0.3088791072368622,-0.1972027570009231
1783202831823830000,5.370830078125,-0.3632467444315552,0.8345598958283662,1.682389607596397,-0.3020803332328796,-0.3889402151107788,-0.1521170735359192
1783202831833766700,5.3807666015625,-0.1756757889229804,0.7611915850177406,1.5804343769878149,-0.3713797628879547,-0.4600399434566498,-0.1048829853534698
1783202831843704600,5.39070458984375,-0.0012826602216809,0.6806240103527903,1.461732009717822,-0.4376994371414184,-0.5471665859222412,-0.0579845644533634
1783202831853641700,5.400641845703125,0.1344885499447584,0.5506497960273176,1.242045302698016,-0.4831103086471557,-0.656269371509552,-0.0341284982860088
1783202831863579600,5.41057958984375,0.2673678380619734,0.4133098752394318,0.7956856830328702,-0.5191320180892944,-0.7881974577903748,-0.0163987018167972
1783202831873516800,5.420516845703125,0.3122789198689162,0.1009457065061666,0.0936293008118867,-0.5729015469551086,-0.9239656925201416,-2.7984380722e-05
1783202831883454700,5.430454833984375,0.2143903541773557,-0.4255120619475841,-0.7156640518128872,-0.6586334109306335,-1.0165921449661257,-0.0045147463679313
1783202831893392000,5.440391845703125,-0.1146798337556421,-0.8708618469830602,-1.592560283589363,-0.7561075091362,-1.0857826471328735,-0.0566043108701705
1783202831903329800,5.450329833984375,-0.5270562275372446,-1.2792217716649177,-2.71045138335228,-0.8698563575744629,-1.2026219367980957,-0.1421757489442825
1783202831913268000,5.46026806640625,-1.0105604597263038,-1.61842873820886,-4.5493958267509935,-0.899512767791748,-1.3201522827148438,-0.2043491005897522
1783202831923204600,5.47020458984375,-1.1165206881925462,-2.0100119348086416,-7.2942422316581,-0.7332578301429749,-1.202555775642395,-0.1343542784452438
1783202831933142800,5.480142822265625,-0.7130480240955949,-2.524567869473993,-10.758760170453789,-0.2827175557613373,-0.7513760924339294,0.081929013133049
1783202831943079700,5.49007958984375,0.0860647107765078,-3.499719016036391,-14.236956505990028,0.486200600862503,0.0011744354851543,0.2987893521785736
1783202831953017600,5.500017578125,0.9731690328344702,-4.520594095158577,-16.78102724057436,1.433571457862854,0.7672039270401001,0.3818911612033844
1783202831962954800,5.509954833984375,1.318856593569368,-4.577828725031018,-18.146797707140443,2.399909257888794,1.3388128280639648,0.3058200776576996
1783202831972892700,5.519892578125,1.2854774710588155,-3.771037710615993,-18.37472967993617,3.2468032836914062,1.6647251844406128,0.2068088203668594
1783202831982830800,5.529830810546875,1.0376379978746175,-2.7526246376931667,-17.73054096479416,3.905182838439941,1.7778047323226929,0.1707888394594192
1783202831992767700,5.539767822265625,0.4823251054070889,-1.7117993880845606,-16.835282562375067,4.374629020690918,1.8846232891082764,0.1434632092714309
1783202832002706000,5.549705810546875,-0.3929325653821229,-0.7033063822820782,-15.79120956301689,4.678943634033203,2.079976797103882,0.0991311371326446
1783202832012642800,5.559642822265625,-1.2137173991624266,0.062108373388648,-14.624859260511398,4.859103202819824,2.2578365802764893,0.0195750631392002
1783202832022580700,5.569580810546875,-1.6981050631225107,0.5757223510287702,-13.726378973436354,4.975126266479492,2.459235429763794,-0.1263999491930008
1783202832032517600,5.579517578125,-2.0205285065174103,1.0648878238499164,-13.112088552951812,5.178535461425781,2.740058898925781,-0.3129546344280243
1783202832042455600,5.58945556640625,-2.2151246114224192,1.743970742240548,-12.817117764627932,5.542531967163086,3.078479766845703,-0.4386825263500213
1783202832052392700,5.599392822265625,-2.515208797237277,2.9183702034279704,-12.376568292546272,5.9942307472229,3.4818336963653564,-0.4619537591934204
1783202832062330600,5.60933056640625,-2.968416090840101,4.348636815302074,-11.20428392381668,6.4719743728637695,3.8501501083374015,-0.4152494370937347
1783202832072268800,5.619268798828125,-3.4777576518580315,6.0169292162239545,-9.441950426411628,6.977365970611572,4.056239128112793,-0.2906590402126312
1783202832082205700,5.629205810546875,-3.847301158346236,7.455748552387952,-7.4224033321470015,7.33283805847168,4.021986961364746,-0.1396595537662506
1783202832092143900,5.639143798828125,-4.346485482487083,8.6451798707515,-4.884995562583208,7.425427436828613,3.81416654586792,-0.0368026830255985
1783202832102080800,5.649080810546875,-4.903294312600791,9.77973919672072,-2.0827023463577032,7.355597972869873,3.4916625022888184,-0.0183556340634822
1783202832112019000,5.65901904296875,-5.366717587530613,10.426472335648535,0.5384989741802215,7.234287738800049,3.078293561935425,-0.0681551471352577
1783202832121955800,5.668955810546875,-5.4983332123875615,10.838242287969589,2.7871839098989963,7.022238254547119,2.563301086425781,-0.1515730023384094
1783202832131893800,5.678893798828125,-5.357904750999808,11.222025332212448,4.613373501142859,6.623477935791016,2.000324010848999,-0.2184447199106216
1783202832141832000,5.68883203125,-5.000483643981814,11.364025572961568,6.110124801793694,6.01581621170044,1.44215190410614,-0.2841264605522156
1783202832151768600,5.6987685546875,-4.723345741729438,11.221465360242128,7.224495326215028,5.299264430999756,1.0066221952438354,-0.3678871393203735
1783202832161706800,5.708706787109375,-4.537301776592433,11.09081653459072,7.897331459170579,4.54279088973999,0.7844575643539429,-0.489998459815979
1783202832171643600,5.7186435546875,-4.409669960674643,11.008014332741498,8.378981003403663,3.779851913452149,0.7525454163551331,-0.6359714269638062
1783202832181581800,5.728581787109375,-4.322333038005232,10.903673668301105,8.730258785361052,3.055990219116211,0.815416693687439,-0.790008544921875
1783202832191518700,5.738518798828125,-4.148261834734679,10.828873571121692,8.885358161658049,2.3865420818328857,0.8914198875427246,-0.928003430366516
1783202832201457000,5.748456787109375,-3.7791540893152353,10.83044242787361,8.956701396381854,1.777103304862976,0.9594293832778932,-1.0416203737258911
1783202832211394800,5.758394775390625,-3.371785002301633,10.919060622525215,9.07142492314875,1.2018487453460691,0.9401438236236572,-1.1033759117126465
1783202832221331700,5.768331787109375,-3.0941262910455465,10.989910520774126,9.105011550930142,0.6829656958580017,0.8467742204666138,-1.113518238067627
1783202832231270000,5.778269775390625,-2.722696532419324,11.080381649816037,9.19102745412886,0.2389701306819915,0.6604735851287842,-1.0524297952651978
1783202832241206800,5.788206787109375,-2.374221825183928,11.223819814413783,9.176158970820904,-0.1498764604330063,0.4229069650173187,-0.9267588257789612
1783202832251145000,5.79814501953125,-2.122033947531879,11.269953789079189,9.121552935886385,-0.4907821118831634,0.1489308029413223,-0.7425652742385864
1783202832261081600,5.80808154296875,-2.0331559329003093,11.343989331626892,9.10576090799272,-0.8094063401222229,-0.1531109064817428,-0.514352560043335
1783202832271019800,5.818019775390625,-1.9376962017908688,11.343437542963027,9.053327540922163,-1.1153417825698853,-0.4701493084430694,-0.2772659361362457
1783202832280956700,5.827956787109375,-1.9439058700859544,11.30697506748438,9.008049890825152,-1.428788423538208,-0.7580158710479736,-0.0516762696206569
1783202832290894800,5.837894775390625,-2.04137051127702,11.233393113923071,9.004701164919137,-1.7759274244308472,-0.9959934949874878,0.1551211178302765
1783202832300832800,5.847832763671875,-2.2164503070682287,11.154199750220776,9.052153820967671,-2.0966367721557617,-1.1966891288757324,0.3461404144763946
1783202832310770000,5.85777001953125,-2.4568217824593184,11.18423599204421,9.01853562900424,-2.4068758487701416,-1.3963944911956787,0.5151446461677551
1783202832320707800,5.867707763671875,-2.7624203477814797,11.11312072085738,8.973135813832283,-2.6816179752349854,-1.6309126615524292,0.6815962195396423
1783202832330644700,5.877644775390625,-3.1077868598684666,11.183849038553236,8.909511775183677,-2.947298288345337,-1.9394431114196775,0.8289923667907715
1783202832340583000,5.8875830078125,-3.55106458787024,11.414912879633905,8.784173915421961,-3.274186372756958,-2.300971746444702,0.9386661052703856
1783202832350519600,5.89751953125,-4.018559642283618,11.62795824894309,8.742762877625227,-3.6833112239837646,-2.6891958713531494,1.0199270248413086
1783202832360457700,5.907457763671875,-4.423559954339265,11.784036114883422,8.653765912789106,-4.2096943855285645,-3.0226666927337646,1.083549976348877
1783202832370395600,5.917395751953125,-4.784110591554642,12.077936059105395,8.449591247677802,-4.844562530517578,-3.2359421253204346,1.16742205619812
1783202832380332800,5.927332763671875,-5.01970038562715,12.306325128018855,8.137465326413512,-5.555927276611328,-3.3825719356536865,1.248592972755432
1783202832390270700,5.937270751953125,-5.24730677973032,12.435033340996505,7.505501886594295,-6.332118034362793,-3.607988357543945,1.298830270767212
1783202832400208000,5.947207763671875,-5.620411778092384,12.583937954306602,6.328733065927028,-7.117086887359619,-3.997372150421143,1.3235470056533811
1783202832410145800,5.957145751953125,-6.154376031452417,12.677648503661157,4.2400031298428775,-7.869365215301514,-4.426861763000488,1.3694803714752195
1783202832420082700,5.967082763671875,-7.13959702886939,12.257028889930249,1.446304723483324,-8.456727027893066,-4.8958611488342285,1.348866581916809
1783202832430020900,5.977020751953125,-8.246792547094822,11.217646094214915,-2.6679157254397867,-8.74475383758545,-4.937211036682129,1.2732192277908323
1783202832439958800,5.986958740234375,-9.030157093214989,9.393015422850846,-7.164128243535757,-8.535927772521973,-4.3764190673828125,1.0535577535629272
1783202832449896000,5.99689599609375,-8.994035393998026,7.379369077062607,-12.14055472010374,-7.830196857452393,-3.4757497310638428,0.7394658923149109
1783202832459833900,6.006833740234375,-7.238134559988975,5.15168718188405,-17.117335416936875,-6.72931718826294,-2.364094018936157,0.4763695299625397
1783202832469770800,6.016770751953125,-4.119365410596132,2.6416084410116074,-20.97028393352032,-5.381252765655518,-1.3653405904769895,0.4452728629112243
1783202832479708700,6.026708740234375,-1.2391883058317006,0.0274482711568474,-23.20205397479534,-4.089337348937988,-0.6714630722999573,0.5572022795677185
1783202832489645800,6.036645751953125,0.4831066111735999,-1.880304335530102,-23.616893836081022,-2.921638250350952,-0.3504626452922821,0.7911377549171448
1783202832499583700,6.046583740234375,0.9887165844477712,-3.055741907593608,-22.68502332057953,-2.5733284950256348,-0.3058682084083557,1.1259479522705078
1783202832509521000,6.05652099609375,0.7428013573244213,-3.945754226052761,-19.872493372499942,-3.048440933227539,-0.0187259092926979,1.3348177671432495
1783202832519458800,6.066458740234375,-0.2952550120927393,-4.626776880334317,-16.653414421617985,-2.3121490478515625,0.1704829335212707,1.2475929260253906
1783202832529396700,6.076396728515625,-1.1294970741435886,-4.56795001283437,-18.266590792256597,-1.917649745941162,0.104410707950592,1.2786004543304443
1783202832539334000,6.086333984375,-0.5035632698774337,-6.076773151811957,-17.078633053576944,-1.1496363878250122,-0.1540144234895706,1.3264877796173096
1783202832549271800,6.096271728515625,-0.0646878684878349,-6.851324861401319,-17.09912639102936,-0.4769991934299469,-0.4124438166618347,1.397640824317932
1783202832559209000,6.106208984375,0.1427053202785551,-7.133167288082838,-16.099804387545586,0.1513768881559372,-0.4500278234481811,1.4058068990707395
1783202832569147000,6.11614697265625,0.2010990570582449,-7.051353512749076,-14.187035998523234,0.8140483498573303,-0.2663914263248443,1.284218430519104
1783202832579083800,6.126083740234375,-0.1324915309086441,-6.37996173338294,-12.197863584256172,1.2966372966766355,-0.0256603993475437,1.0629003047943115
1783202832589021200,6.136021240234375,-0.4442625012554228,-5.659319893157482,-9.67305869115591,1.6942951679229736,0.1484653353691101,0.8575617671012878
1783202832598959000,6.145958984375,-0.4918978203944861,-4.794127543178201,-7.415906955865025,1.9036158323287964,0.2666913270950317,0.6423236727714539
1783202832608896300,6.155896240234375,-0.6283535787589848,-3.6753619986683126,-5.088638312774896,2.051795244216919,0.2689379751682281,0.468896746635437
1783202832618834200,6.165834228515625,-0.457366459108889,-2.7023329588264224,-3.2787709107786416,2.050597667694092,0.1886587589979171,0.3387130200862884
1783202832628771000,6.17577099609375,-0.2602266610704362,-1.8129732590571044,-1.6599872216522693,2.018036127090454,0.0832457914948463,0.2196177840232849
1783202832638709000,6.185708984375,-0.0898299085289239,-0.922172420568764,-0.5098603241950274,1.9551193714141848,-0.0278503317385911,0.1269724369049072
1783202832648646100,6.195646240234375,0.1630187711194157,-0.3241485136218369,0.3793593825817108,1.8839884996414185,-0.165969580411911,0.0685464069247245
1783202832658584000,6.205583984375,0.4108658430881798,0.1067712525881826,0.9724684833496808,1.8038396835327148,-0.2815107107162475,0.0180020723491907
1783202832668521200,6.215521240234375,0.5501277449145913,0.4924212597467005,1.5118804807215929,1.7273774147033691,-0.3498817682266235,-0.0359375923871994
1783202832678459100,6.225459228515625,0.5283784160517155,0.8707230960994958,1.9002941073745487,1.6297723054885864,-0.3790251910686493,-0.0851756706833839
1783202832688397000,6.23539697265625,0.4222985067285597,1.209074614857882,2.2523802831053734,1.4861096143722534,-0.3760536313056946,-0.1203461736440658
1783202832698334200,6.245334228515625,0.2953846298217773,1.501486074087769,2.5791753657132386,1.318633794784546,-0.3646034896373749,-0.1543558537960052
1783202832708272000,6.255272216796875,0.140480629966408,1.720163019543141,2.828867334896326,1.143049240112305,-0.3242653906345367,-0.191784992814064
1783202832718209000,6.265208984375,-0.0499786673948168,1.879196666549146,3.053243076515197,0.959696650505066,-0.266839861869812,-0.243871197104454
1783202832728147000,6.27514697265625,-0.2068557208888232,2.043746592758596,3.2671237276047465,0.7638230323791504,-0.2172054350376129,-0.2975804805755615
1783202832738084000,6.285083984375,-0.3399799967430532,2.2302271957471964,3.436857193931937,0.5501983165740967,-0.169087141752243,-0.3557413816452026
1783202832748022000,6.29502197265625,-0.4806747078515589,2.3781451361075043,3.60878670899868,0.3444036543369293,-0.0840881019830703,-0.4178750514984131
1783202832757959200,6.304959228515625,-0.637025545514375,2.5569755166038868,3.812846223297715,0.1574662178754806,-0.0110547775402665,-0.456818014383316
1783202832767897000,6.31489697265625,-0.6594320231117308,2.611706346961856,3.882116743400693,-0.0399352759122848,-0.0018343813717365,-0.4474591314792633
1783202832777834200,6.324834228515625,-0.5490381961122155,2.5634721851468085,3.927039588710665,-0.2514798939228058,-0.0552429631352424,-0.4090604484081268
1783202832787772200,6.334772216796875,-0.4916308400213718,2.579377902548015,4.011735641482472,-0.4812169671058655,-0.1747158318758011,-0.3539260923862457
1783202832797710000,6.3447099609375,-0.5075312967255712,2.575255854181945,4.00670466157794,-0.7167044878005981,-0.3279168605804443,-0.2904795110225677
1783202832807647200,6.354647216796875,-0.5227915558300912,2.4373896444976326,3.922712373161316,-0.9474011063575744,-0.4678420126438141,-0.2219273298978805
1783202832817585200,6.364585205078125,-0.573664687846601,2.301183769240976,3.7801959995836016,-1.1934798955917358,-0.5552195310592651,-0.1626563966274261
1783202832827522000,6.37452197265625,-0.627764819085598,2.131622298479825,3.631974692362547,-1.449839472770691,-0.6123568415641785,-0.1186127811670303
1783202832837460000,6.3844599609375,-0.6906281024947762,1.869598378729075,3.3850615402430293,-1.7109344005584717,-0.6176242828369141,-0.0925858095288276
1783202832847397000,6.394397216796875,-0.7632879727751016,1.5969271004967391,3.139823043337464,-1.967429518699646,-0.591935396194458,-0.084459975361824
1783202832857335000,6.4043349609375,-0.8241305640116333,1.286689623327553,2.8632798921078444,-2.203726053237915,-0.511860728263855,-0.1099653095006942
1783202832867272200,6.414272216796875,-0.8613833130851387,0.9482333290204406,2.6146704574644564,-2.4205355644226074,-0.3973376154899597,-0.161431685090065
1783202832877210000,6.424210205078125,-0.9511981701754032,0.5522346540659666,2.326235208389163,-2.6180691719055176,-0.2275619804859161,-0.2441312819719314
1783202832887147300,6.434147216796875,-1.0727307924352585,0.1927161363773047,2.0460615917027,-2.821014165878296,0.0299473144114017,-0.3292911648750305
1783202832897085200,6.444085205078125,-1.136739884878695,-0.2394563333075493,1.8093734809994697,-3.027853488922119,0.2647839784622192,-0.4226891994476318
1783202832907022300,6.454022216796875,-1.1306380608722566,-0.6655357468143105,1.417334065064788,-3.227567195892334,0.3593368530273437,-0.5435173511505127
1783202832916960300,6.463960205078125,-1.0773397475354374,-1.0304690560933203,0.7755185087949037,-3.390462875366211,0.298561155796051,-0.6853153705596924
1783202832926898200,6.473898193359375,-1.011817620180547,-1.4031319367110728,-0.1119698441445827,-3.4673683643341064,0.1335772424936294,-0.8157787919044495
1783202832936835000,6.4838349609375,-0.9301425226651132,-1.7278195256456732,-1.4891115995526314,-3.469076871871948,-0.0814155340194702,-0.8982070088386536
1783202832946773000,6.49377294921875,-1.1090336934380232,-1.962566146892309,-3.1454175023436544,-3.406113386154175,-0.2989081740379333,-0.9758387207984924
1783202832956710100,6.503710205078125,-1.574192706119269,-1.9253604518309235,-5.202310869184136,-3.2546286582946777,-0.450955331325531,-1.0596270561218262
1783202832966648000,6.51364794921875,-1.7995877077832816,-1.8311232482537627,-7.929643244710564,-2.953127861022949,-0.465935617685318,-1.0579473972320557
1783202832976585200,6.523585205078125,-1.247514235628396,-1.9892897570364176,-11.30706391481161,-2.451999425888061,-0.2385420650243759,-0.9113785028457642
1783202832986523100,6.533523193359375,-0.158108641115576,-2.2820833474516866,-14.663788418364524,-1.72047221660614,0.2732440233230591,-0.7167711853981018
1783202832996460300,6.543460205078125,0.8610406371273099,-2.201549967317283,-17.44097817299366,-0.7826797366142273,0.9904564023017884,-0.5454238057136536
1783202833006398200,6.553398193359375,1.6637569494493305,-1.7265139960050582,-19.280837977671624,0.19912651181221,1.8008592128753662,-0.4741483032703399
1783202833016335400,6.56333544921875,2.186237831895053,-0.6351895622588694,-20.14054809684753,1.073197603225708,2.555470943450928,-0.4330195188522339
1783202833026273300,6.573273193359375,2.489777418860793,0.6170996326863766,-19.976699596905707,1.7688477039337158,3.1658878326416016,-0.2849642932415008
1783202833036210200,6.583210205078125,2.920666497671604,1.3793139848805964,-18.98372550114393,2.3136210441589355,3.561335563659668,0.0120793636888265
1783202833046148000,6.593148193359375,3.192428259843588,1.7943297872550783,-17.459021194684503,2.776310920715332,3.7258923053741455,0.3882644474506378
1783202833056085000,6.6030849609375,3.025035803684592,2.0795875753380355,-15.565518647146224,3.186767816543579,3.594809055328369,0.7222948670387268
1783202833066023200,6.613023193359375,2.1234246712379155,2.5571163863793016,-13.87303317747116,3.5424253940582275,3.3293423652648926,0.9494758248329164
1783202833075960000,6.6229599609375,0.8113508696764707,3.0139883399695155,-12.253264568960669,3.898650884628296,3.0979115962982178,1.0828955173492432
1783202833085898200,6.632898193359375,-0.523776767475158,3.190489400735497,-10.846007076752183,4.257359027862549,2.958099365234375,1.104279398918152
1783202833095835100,6.642835205078125,-1.74274529209882,3.4400980755493045,-9.531377599358558,4.621771335601807,2.891632556915283,1.0350748300552368
1783202833105773300,6.652773193359375,-2.667195009949803,3.7650855242133137,-8.161286346983909,5.022539615631104,2.871058940887451,0.9209511876106262
1783202833115710200,6.662710205078125,-3.333509047660232,4.135828469619154,-6.901653949669004,5.454533576965332,2.888782024383545,0.7867865562438965
1783202833125648400,6.6726484375,-3.9881946068972343,4.809240648896992,-5.630889332965016,5.968657493591309,2.9139983654022217,0.6751787662506104
1783202833135585000,6.6825849609375,-4.424198252242803,5.70245994670391,-4.376249921631813,6.362199783325195,2.846069812774658,0.6066809296607971
1783202833145523000,6.69252294921875,-4.553014017248153,6.2811418781906365,-2.9251503650873896,6.563848972320557,2.7003936767578125,0.5549018979072571
1783202833155461000,6.702461181640625,-4.76091267131865,7.013904364320635,-1.2118196757823227,6.505222797393799,2.622577428817749,0.4577693045139313
1783202833165398000,6.71239794921875,-4.988267136487364,7.648010661387443,0.4863128598690032,6.395266056060791,2.6876981258392334,0.3025967478752136
1783202833175336200,6.722336181640625,-5.311911646109819,8.157149685570598,1.8820774826824664,6.241573810577393,2.808582305908203,0.1565779149532318
1783202833185273000,6.732273193359375,-5.41946601189971,8.639524621468782,2.985693388855457,5.961820602416992,2.905746936798096,0.0563317351043224
1783202833195211300,6.742211181640625,-5.438572278907895,8.944573736214638,4.266519965368509,5.639305114746094,2.873915910720825,-0.0077205207198858
1783202833205148200,6.752148193359375,-5.44714195433259,9.36274011157453,5.17878503216803,5.228601932525635,2.688960075378418,-0.0522283315658569
1783202833215086300,6.76208642578125,-5.431594256588816,9.594847324228288,6.134521576425433,4.778505325317383,2.408534049987793,-0.0691544190049171
1783202833225023000,6.77202294921875,-5.132020942905545,9.536244328612089,7.025918042719364,4.291174411773682,2.0884323120117188,-0.0707126334309578
1783202833234961200,6.781961181640625,-4.740114505700767,9.349418273186684,7.862103493922948,3.771140336990357,1.771481990814209,-0.08262849599123
1783202833244898000,6.79189794921875,-4.407865541601181,9.321759866410494,8.517934716063737,3.276484727859497,1.4811604022979736,-0.0947868973016738
1783202833254836000,6.8018359375,-4.051634521150588,9.32612799849212,9.032603317323328,2.8126120567321777,1.2438673973083496,-0.1156953498721122
1783202833264773000,6.811773193359375,-3.691279114246368,9.35941944271922,9.541951600342989,2.371318817138672,1.065024495124817,-0.1412800699472427
1783202833274711000,6.8217109375,-3.263899504861236,9.24013606069088,10.001770421040058,1.880342721939087,0.9002082347869873,-0.1447294503450393
1783202833284648200,6.831648193359375,-3.0107971427127715,9.206793763059377,10.515492681360245,1.31108295917511,0.7196214199066162,-0.1148988604545593
1783202833294586000,6.841586181640625,-2.731672742818296,9.318284299254415,11.09488480694294,0.669517993927002,0.4897574782371521,-0.0463037267327308
1783202833304523300,6.851523193359375,-2.524607909223437,9.34093744508922,11.56740178117156,0.0359780974686145,0.2643267512321472,0.0594967380166053
1783202833314461200,6.861461181640625,-2.3133049996674058,9.145497290575504,11.8690115691185,-0.5362107753753662,0.0929778888821601,0.1806829273700714
1783202833324398000,6.871398193359375,-2.403766776359081,8.981448884147404,11.960649403852225,-1.0578662157058716,-0.0650767236948013,0.2919490039348602
1783202833334335000,6.8813349609375,-2.5919565213531253,8.756009312689304,11.810029803317784,-1.4924814701080322,-0.2989715039730072,0.3907935619354248
1783202833344273200,6.891273193359375,-2.4597800477430223,8.71226310994327,11.845013438415526,-1.9180399179458616,-0.6347162127494812,0.4534393548965454
1783202833354210000,6.9012099609375,-2.663522166655957,8.434307169306278,11.858161673802137,-2.3054118156433105,-1.010451078414917,0.4774769842624664
1783202833364148200,6.911148193359375,-3.069339932574332,8.284084459134936,11.721609177064895,-2.630779981613159,-1.344279170036316,0.4887458682060241
1783202833374085000,6.921085205078125,-3.358152490529418,8.38387111353278,11.520185271966456,-2.898314952850342,-1.6196388006210327,0.509765088558197
1783202833384023300,6.931023193359375,-3.620937750041485,8.47581874486804,11.308361553406714,-3.111118793487549,-1.845041275024414,0.5478776097297668
1783202833393960200,6.940960205078125,-3.899371245062351,8.530434716674685,11.08458553124666,-3.2959609031677246,-2.0075576305389404,0.586181104183197
1783202833403898000,6.950898193359375,-4.271882953706384,8.818881071665883,10.98549854955077,-3.488180160522461,-2.236502170562744,0.6224920153617859
1783202833413835000,6.9608349609375,-4.704263147857785,9.17894597119093,10.72331943923831,-3.7579030990600586,-2.633286714553833,0.6065512299537659
1783202833423773000,6.97077294921875,-5.377057195237279,9.765167650532725,10.336392836272717,-4.198747634887695,-3.159991979598999,0.5713168382644653
1783202833433710000,6.9807099609375,-5.771358710885048,10.096177720487118,10.016327354180811,-4.838104724884033,-3.74825382232666,0.5314540266990662
1783202833443648000,6.99064794921875,-6.037725920537114,10.279956078779696,9.220692524552344,-5.584683895111084,-4.260909080505371,0.4841107428073883
1783202833453585200,7.000585205078125,-6.388129842269421,10.565178211027384,7.772219224858284,-6.277135372161865,-4.638381004333496,0.472128689289093
1783202833463523000,7.010523193359375,-6.533408081775903,10.693770688670874,5.532953859391808,-6.815721035003662,-4.7888007164001465,0.5412941575050354
1783202833473460200,7.020460205078125,-6.342769774585962,10.524666167896983,2.5011972230196,-7.09487247467041,-4.77701997756958,0.70297771692276
1783202833483398100,7.030398193359375,-6.151044256681203,10.005448232769966,-1.3479127383142708,-7.110125541687012,-4.618751525878906,0.8912767767906189
1783202833493335300,7.040335205078125,-6.028822483113408,9.096645289123058,-5.751891209349036,-6.81417179107666,-4.401571273803711,1.0204471349716189
1783202833503273200,7.050273193359375,-5.958146772387623,7.514683556437492,-10.415581523799895,-6.21007776260376,-4.068094730377197,1.0123335123062134
1783202833513210000,7.060210205078125,-5.805766591921448,5.370320580458641,-14.440040453255175,-5.371450901031494,-3.4703898429870605,0.8139941692352295
1783202833523148000,7.07014794921875,-5.373458878484368,3.216331113478541,-17.25470039910078,-4.423475742340088,-2.7105278968811035,0.5044488310813904
1783202833533085200,7.080085205078125,-4.352104491412639,1.2243318052224814,-18.933296459633112,-3.307114362716675,-2.1751489639282227,0.2613798379898071
1783202833543023000,7.090023193359375,-2.762884165900945,-0.2435044761871919,-20.153999114573,-3.812905550003052,-1.5192714929580688,0.2269845753908157
1783202833552960300,7.099960205078125,-1.3890281541652976,-1.2954008991800248,-17.718890274488924,-3.454312562942505,-0.6768365502357483,0.228290855884552
1783202833562898200,7.109898193359375,-1.033397876086831,-1.373590931058675,-19.174601124221084,-2.8654282093048096,-0.0911975502967834,0.342908501625061
1783202833572835300,7.11983544921875,-0.5103370017960668,-1.8007944532245397,-19.895105017280574,-2.540791749954224,0.1558598130941391,0.6504856944084167
1783202833582772200,7.129772216796875,0.2181435692310333,-3.0774244548305867,-18.724331053113936,-2.047116041183472,0.008404322899878,0.8274250626564026
1783202833592710100,7.139710205078125,0.3496715158045291,-3.805653389184177,-19.01371147408485,-1.6060937643051147,-0.1020146384835243,0.9364321827888488
1783202833602647300,7.149647216796875,0.422108683244884,-4.603245198099315,-17.791833930146694,-0.990405023097992,-0.0174014847725629,0.8674150705337524
1783202833612585200,7.159585205078125,0.1949833506569266,-4.953211020675301,-17.101851432079076,-0.248579517006874,0.2039725035429,0.7807478308677673
1783202833622522400,7.1695224609375,0.3147532010279595,-5.492793113917112,-15.79292571928501,0.4117957353591919,0.3941629528999328,0.7032487988471985
1783202833632460300,7.179460205078125,0.5323781532123685,-5.393180062520504,-13.820467123931646,1.0071966648101809,0.5143994688987732,0.623140275478363
1783202833642397400,7.1893974609375,0.6416128733046352,-4.971660285079479,-11.478356885540483,1.5237611532211304,0.5572145581245422,0.5181525945663452
1783202833652335400,7.19933544921875,0.470635252135247,-4.227033173632622,-9.163140499293805,1.9623212814331052,0.5519965887069702,0.4009670913219452
1783202833662272500,7.2092724609375,0.2195877766899764,-3.293298325563967,-6.877049085244536,2.280171155929565,0.4778139293193817,0.2963171005249023
1783202833672210400,7.21921044921875,0.0477750198706984,-2.360973344293237,-4.736604744014143,2.456977605819702,0.3329891860485077,0.2179512530565261
1783202833682147300,7.229147216796875,0.0216171538505703,-1.5703917064011097,-2.8395786985248326,2.4897944927215576,0.1649442464113235,0.1630957275629043
1783202833692085200,7.239085205078125,0.037690336773172,-0.8637075913142412,-1.1932499998688697,2.410232782363892,0.0490847639739513,0.1139026135206222
1783202833702022400,7.2490224609375,0.0353551718238741,-0.283140174874477,0.1368517719447612,2.2632477283477783,0.0319939255714416,0.042012445628643
1783202833711959300,7.258959228515625,-0.110663729982078,0.1930991443455219,1.2261346168607472,2.0612633228302,0.0838874876499176,-0.0662679523229599
1783202833721897500,7.2688974609375,-0.3307450623426586,0.5825553388539702,2.0178239237338302,1.8045114278793333,0.1507900953292846,-0.1526174843311309
1783202833731834400,7.27883447265625,-0.3700155809793621,0.7024203932277858,2.592750886601209,1.520616888999939,0.2352003157138824,-0.2474759966135025
1783202833741772300,7.288772216796875,-0.5084531608108431,0.9481841561164708,3.08361951007843,1.2516437768936155,0.3189136087894439,-0.3484569489955902
1783202833751709400,7.29870947265625,-0.6384331472899765,1.1618430542141198,3.4084804097533223,1.023293375968933,0.3858301639556885,-0.4483338594436645
1783202833761647400,7.3086474609375,-0.7456957635916769,1.3288469494469464,3.615830782291293,0.8287555575370789,0.4227378368377685,-0.5332902669906616
1783202833771584300,7.318584228515625,-0.8045217543087899,1.4827403109550474,3.770718561664224,0.6781109571456909,0.4317299425601959,-0.5943192839622498
1783202833781522200,7.328522216796875,-0.8223762676902114,1.6563323524065314,3.9366310083985327,0.5646547079086304,0.4028985798358917,-0.6370720863342285
1783202833791459300,7.338459228515625,-0.8329021917492151,1.7958771628275512,4.082681985843181,0.463711142539978,0.3410750031471252,-0.6515454649925232
1783202833801396500,7.348396484375,-0.8586882287822664,1.9575965417861936,4.22198056641817,0.371214747428894,0.237812265753746,-0.6283732652664185
1783202833811334400,7.35833447265625,-0.8401654607504606,2.08328569920361,4.375502902656794,0.2721261382102966,0.1057953089475631,-0.5757848620414734
1783202833821271300,7.368271240234375,-0.795226029631868,2.1468195753507318,4.519045696672797,0.1346042305231094,-0.0552223436534404,-0.502578616142273
1783202833831209500,7.37820947265625,-0.7802110505253076,2.236712758374214,4.651966558909416,-0.0496625117957592,-0.1887599527835846,-0.422549158334732
1783202833841146400,7.388146484375,-0.8144095265947282,2.350651418373733,4.769470071783662,-0.2649247348308563,-0.3017538785934448,-0.3408132791519165
1783202833851084500,7.39808447265625,-0.8425641924552619,2.37479100337401,4.733946922981739,-0.5125978589057922,-0.400309145450592,-0.2767277061939239
1783202833861021200,7.408021240234375,-0.8723564694549888,2.297624469324201,4.646043598601222,-0.7816900014877319,-0.468228280544281,-0.2299873679876327
1783202833870959400,7.41795947265625,-0.8838990962758659,2.212893345239013,4.4917415101617575,-1.0499897003173828,-0.5168108940124512,-0.2021751254796981
1783202833880896300,7.427896240234375,-0.8972080751821399,2.073449510974437,4.216389030021428,-1.3011656999588013,-0.556037425994873,-0.1947965770959854
1783202833890833400,7.43783349609375,-0.8812028429292141,1.9141633505120872,3.8412522335708137,-1.5438814163208008,-0.5753700733184814,-0.1990316808223724
1783202833900771300,7.447771240234375,-0.9138577428184448,1.8093546301685275,3.466367366054654,-1.779306173324585,-0.5631581544876099,-0.2203186005353927
1783202833910708500,7.45770849609375,-0.8919763120085,1.7019404035016894,3.021485417726636,-2.0050506591796875,-0.5469948649406433,-0.2176479697227478
1783202833920646400,7.467646484375,-0.6267130450103432,1.422397924325615,2.431867666205764,-2.209906816482544,-0.5367531776428223,-0.2049058228731155
1783202833930583300,7.477583251953125,-0.3729296417951583,1.130369619194418,1.728023231524229,-2.378129243850708,-0.5152453780174255,-0.2026441097259521
1783202833940521200,7.487521240234375,-0.2380719662770628,0.7972771900080144,0.9920458750009536,-2.524193286895752,-0.4973190724849701,-0.2158613801002502
1783202833950458400,7.497458251953125,-0.2229500927299261,0.4031552687108516,0.1927788263499736,-2.656759023666382,-0.4812446534633636,-0.2517707347869873
1783202833960395300,7.507395263671875,-0.2575580263830721,-0.064805065126717,-0.6641670888096094,-2.7521350383758545,-0.500164270401001,-0.3103885054588318
1783202833970333400,7.51733349609375,-0.3131106945179402,-0.5575729828866198,-1.8358248500734569,-2.7879605293273926,-0.537220299243927,-0.3688496649265289
1783202833980270300,7.527270263671875,-0.2318713580712676,-1.09466030017063,-3.53765507119894,-2.7783203125,-0.4983443021774292,-0.3870606422424316
1783202833990208500,7.53720849609375,-0.2611968212768435,-1.6155343319416045,-5.606963682976365,-2.683619260787964,-0.3049654960632324,-0.3184629082679748
1783202834000145400,7.5471455078125,-0.1649453552678227,-2.2927787828586994,-8.012058493068814,-2.4171414375305176,0.0206986032426357,-0.240355834364891
1783202834010083300,7.557083251953125,-0.1638029072344303,-2.828065370863676,-10.502207667851447,-1.980538010597229,0.3875665664672851,-0.222112700343132
1783202834020020200,7.567020263671875,-0.0828489636003971,-3.302347893460095,-12.77872052169442,-1.432639241218567,0.7188839912414551,-0.2842122912406921
1783202834029957400,7.576957275390625,0.0400821272805333,-3.4578546815142035,-14.617578455853462,-0.8285670876502991,0.9597150683403016,-0.4232862889766693
1783202834039895300,7.586895263671875,0.1123382390655577,-2.934490440362692,-16.23153340964913,-0.1483552306890487,1.175611972808838,-0.5318569540977478
1783202834049832400,7.59683251953125,0.4358080497082323,-2.1484511220753197,-17.739000165581704,0.6515580415725708,1.412394404411316,-0.5146755576133728
1783202834059770400,7.606770263671875,0.9735792210705576,-1.2432460567899049,-19.047793776428698,1.6171989440917969,1.7544499635696411,-0.3398949801921844
1783202834069707500,7.61670751953125,1.785045972211659,-0.4136959519475698,-19.55012955033779,2.696336030960083,2.0381691455841064,-0.0532652027904987
1783202834079645400,7.6266455078125,2.367940260696411,0.3256581144671887,-19.18629039297104,3.711848258972168,2.100950241088867,0.2329795956611633
1783202834089582300,7.636582275390625,2.384620031210035,1.3288251760065557,-17.927190495097637,4.525753498077393,1.9820477962493896,0.4961635172367096
1783202834099519200,7.646519287109375,2.106974471696466,2.1518423719488085,-16.07308706101179,5.135338306427002,1.8358666896820068,0.7305752038955688
1783202834109457200,7.65645703125,1.3959686209529638,2.68498405687958,-14.057358648252489,5.591712951660156,1.8205084800720213,0.8805594444274902
1783202834119394300,7.666394287109375,0.1938169006934389,3.1083558919280767,-12.065230891311169,5.908242702484131,1.8831374645233157,0.8882884383201599
1783202834129332200,7.676332275390625,-1.3072237311817705,3.670800389841199,-10.300475135195256,6.0880656242370605,1.9662084579467771,0.7466705441474915
1783202834139269400,7.686269287109375,-2.649163094174862,4.032140131607651,-8.642759950128196,6.1666340827941895,2.1321892738342285,0.4969611167907715
1783202834149207300,7.696207275390625,-3.496863626605272,4.054797076834738,-6.9332719077259295,6.182682514190674,2.3596835136413574,0.1975401043891906
1783202834159144400,7.70614453125,-4.2268741836786266,4.383514651937783,-5.258953378382325,6.184740543365479,2.6236345767974854,-0.1004268825054168
1783202834169081300,7.716081298828125,-4.83619412227422,4.961731596261263,-3.6036733115077015,6.294111251831055,2.8084633350372314,-0.3091753423213959
1783202834179019500,7.72601953125,-5.098918299248815,5.617684398955106,-2.2135995938122277,6.302345275878906,2.8050429821014404,-0.4570241868495941
1783202834188956200,7.7359560546875,-5.206206707578898,6.214468388843536,-0.5118611426234245,6.174952983856201,2.719956159591675,-0.539900541305542
1783202834198894300,7.745894287109375,-5.343318591764569,6.95587420015633,1.487881765496731,5.918829441070557,2.625751495361328,-0.6111659407615662
1783202834208831200,7.755831298828125,-5.482777915859222,7.6545988076061,3.2770120844125747,5.702460765838623,2.495681047439575,-0.6610062122344971
1783202834218768400,7.765768310546875,-5.505124187701941,8.15016815612018,4.807431261387468,5.50161600112915,2.2382633686065674,-0.6553955078125
1783202834228706300,7.775706298828125,-5.043263047522307,8.478826109990477,6.007564006507397,5.216830253601074,1.8266268968582156,-0.6375129222869873
1783202834238643500,7.7856435546875,-4.619381217125058,8.807467697247862,7.245366849330067,4.882243633270264,1.3202582597732544,-0.6198071241378784
1783202834248581400,7.795581298828125,-4.222375703215599,9.015850919964908,8.084663710552453,4.460070610046387,0.8358015418052673,-0.636451244354248
1783202834258518500,7.8055185546875,-3.868874984511733,9.096555857273936,8.813287197181582,3.994635581970215,0.4485510289669037,-0.6965764164924622
1783202834268455200,7.815455078125,-3.608473405265808,9.236803116875889,9.236306273269651,3.475292682647705,0.1794238239526748,-0.7739139199256897
1783202834278393300,7.825393310546875,-3.242094792549312,9.240739871802926,9.545482697078585,2.949167490005493,0.0303387343883514,-0.8521764874458313
1783202834288330200,7.835330322265625,-2.7713419053837653,9.301098771175742,9.690855044609307,2.458714723587036,-0.0236682333052158,-0.9229827523231506
1783202834298268400,7.845268310546875,-2.265762911769748,9.384173944747449,9.712587568467857,2.0254170894622803,-0.0503957159817218,-0.9505611062049866
1783202834308205300,7.855205322265625,-1.7157617158442735,9.475583815944194,9.668138185888528,1.6513159275054932,-0.0779505968093872,-0.9160972833633424
1783202834318142500,7.865142578125,-1.231782267358899,9.645034958198666,9.584176292610168,1.3239647150039673,-0.137266919016838,-0.8151448369026184
1783202834328080400,7.875080322265625,-0.8561375213861465,9.822813199293613,9.455290384978056,1.0061712265014648,-0.2166772037744522,-0.6600506901741028
1783202834338017500,7.885017578125,-0.5584960525482893,9.944405442786216,9.428599361929296,0.6910130977630615,-0.3179356753826141,-0.4702701270580292
1783202834347955500,7.89495556640625,-0.3876446881070733,10.13453638497591,9.381775066912171,0.3740308880805969,-0.4220519959926605,-0.250355988740921
1783202834357892400,7.904892333984375,-0.3012295564576983,10.287935971617696,9.315686683976647,0.0339036621153354,-0.5167459845542908,-0.0095529668033123
1783202834367829200,7.914829345703125,-0.2795747740104794,10.44692475656867,9.255721752357482,-0.3302411735057831,-0.5843406915664673,0.2408320009708404
1783202834377767400,7.924767333984375,-0.2940989739254117,10.494943229806422,9.138298318982123,-0.6651347279548645,-0.6382986903190613,0.4856660068035126
1783202834387704300,7.934704345703125,-0.339451442824304,10.427872850096223,8.873371955788135,-0.9540563821792604,-0.619030773639679,0.690332293510437
1783202834397642500,7.944642578125,-0.5628180074006319,10.411365951931476,8.640496096849441,-1.1607664823532104,-0.494911789894104,0.8530306220054626
