time,seconds_elapsed,ax,ay,az,gx,gy,gz
1783201249446416100,0.092416015625,-2.171963515087962,2.251181428709626,3.560583526843786,-0.1291388422250747,0.5274995565414429,-2.213824510574341
1783201249456353300,0.102353271484375,-2.162965677379072,2.2981544845476747,1.9619985761374237,-0.3925078213214874,0.3444070816040039,-2.551694393157959
1783201249466290200,0.112290283203125,-1.5984589862391352,2.0581787304759023,2.188895945188403,-0.9083858132362366,0.3193371593952179,-2.828892707824707
1783201249476227300,0.122227294921875,-1.8348118736386296,0.2824582204923033,2.9040099619030952,-0.9402324557304382,0.3512541353702545,-2.70729660987854
1783201249486163200,0.1321630859375,1.1469303664382546,-1.6160282529383896,2.451356795051694,-0.2151439934968948,-0.3064675629138946,-0.7491961121559143
1783201249496100000,0.14210009765625,13.446602247112988,-8.105759105551243,-7.163595744094252,-0.3642362952232361,0.8663582801818848,0.4176164865493774
1783201249506037200,0.152037353515625,8.195894719028473,-6.304750132793187,-0.7350695940285921,-0.7291131019592285,0.9775780439376832,0.8391645550727844
1783201249515974400,0.161974365234375,2.4907073931872845,-4.324708827225864,1.957573745432496,-0.9673807621002196,1.40514874458313,0.6302556991577148
1783201249525911000,0.1719111328125,-1.2992287869051098,-0.5373074263080955,2.209217433205247,-1.1192244291305542,1.832736849784851,0.1506336629390716
1783201249535847200,0.18184716796875,-1.9374721837766469,1.760317773668468,2.500343236538768,-1.133327603340149,2.029115915298462,-0.0294539090245962
1783201249545784300,0.191784423828125,-1.2581811755932866,1.882646076350659,0.7657879728972912,-0.9743201732635498,2.1781508922576904,-0.0188388135284185
1783201249555721200,0.20172119140625,-0.5538911891013384,0.6076772859551012,-0.4486661430418491,-0.8683236241340637,2.030444383621216,0.2160818725824356
1783201249565658000,0.211658203125,-0.7847899027481675,0.1136690492779016,-1.4897972437292335,-0.5936110615730286,1.6926850080490112,0.6299290657043457
1783201249575594200,0.22159423828125,-0.1821625936590135,-0.3501126837007701,-1.9769430472910403,-0.5561871528625488,1.0949366092681885,0.9260017275810242
1783201249585531100,0.23153125,0.2364665769070386,-0.2918132010757923,-2.393053659164905,-0.7220985889434814,0.2060078233480453,1.1924630403518677
1783201249595468300,0.24146826171875,0.0452159830376505,-0.0970648282185196,-1.834879093655944,-1.0402907133102417,-1.1320568323135376,1.4587215185165403
1783201249605405200,0.2514052734375,1.0110871139489113,-0.1250493982091546,-0.1494523103207349,-1.16701078414917,-1.742706060409546,1.5925192832946775
1783201249615342000,0.261342041015625,2.8125825550496577,-1.2026770227752626,0.2809375867962837,-0.8854466676712036,-1.109607219696045,1.3733290433883667
1783201249625278200,0.2712783203125,1.7030109553426502,-1.9187071314215656,-2.103862623286247,-0.6726648807525635,-0.3373677730560303,0.8730019330978394
1783201249635215400,0.28121533203125,-0.0940755832746624,-1.276698244536668,-2.5372943723171946,-0.4012295007705688,0.0494277700781822,0.4159847795963287
1783201249645152000,0.291152099609375,-1.1131433207139372,-1.0738463524617254,-3.6989082939505575,-0.3749957680702209,0.181678220629692,0.2210752218961715
1783201249655089200,0.301089111328125,-0.8367346095189452,-1.160172198392451,-3.043152475133538,-0.645132303237915,0.7748955488204956,0.2329162210226059
1783201249665025300,0.311025390625,-0.0558484362110495,-0.7396427471630275,-0.7110919215917587,-1.1474119424819946,1.2189719676971436,0.3130358159542084
1783201249674962200,0.320962158203125,0.3458895130477845,-0.3582115267433226,0.501602783459425,-1.6719611883163452,1.2030807733535769,0.3474506139755249
1783201249684899000,0.330899169921875,0.2103926628433167,-0.6115958476383239,0.3630132279366254,-2.094256401062012,0.7065088748931885,0.3257160186767578
1783201249694836200,0.340836181640625,-0.1247691199630498,-0.981854005201906,-0.1662356873393058,-2.3479957580566406,0.085130862891674,0.3066269755363464
1783201249704773000,0.350773193359375,-0.1643253236733377,-1.2712610219188034,-0.3943184667825699,-2.3462233543396,-0.4638585150241852,0.3630335032939911
1783201249714709200,0.360709228515625,0.1523842721194028,-1.4580031984530388,-0.7203320436239242,-2.1303727626800537,-0.987419366836548,0.3843964040279388
1783201249724646100,0.370646240234375,0.220041657937318,-1.3501121480546892,-1.192896948647499,-1.831534743309021,-1.4303948879241943,0.3542347550392151
1783201249734583000,0.3805830078125,-0.0311534092850983,-1.181515576802939,-1.1814835742294787,-1.7135440111160278,-1.9524184465408323,0.1251982152462005
1783201249744520200,0.390520263671875,-0.0795145584806799,-0.9455490583725272,-0.9672077863425016,-1.6322637796401978,-2.513100862503052,-0.1014431938529014
1783201249754457300,0.400457275390625,0.0824222626209259,-1.2241024534460156,-1.2321803267657756,-1.6729114055633545,-2.055938720703125,-0.3371474742889404
1783201249764393200,0.410393310546875,0.354219534497708,-1.603582612863183,0.8500953186124562,-1.7562949657440186,-1.6357707977294922,-0.615210235118866
1783201249774330000,0.420330078125,-0.2057858997002244,-1.197551423389837,1.608907022756338,-1.927831530570984,-0.4360442459583282,-0.8126579523086548
1783201249784267300,0.430267333984375,-0.2649577081803232,-0.4939878514762967,0.4878133275598287,-1.89983344078064,-0.2170572727918625,-1.0004502534866333
1783201249794204200,0.4402041015625,-0.9579140344269572,-0.2988542786937206,-1.0643880576342344,-1.7403032779693604,-0.1322352588176727,-1.0774469375610352
1783201249804141300,0.450141357421875,-2.828037898334861,-0.7376861332025378,-2.6350679333269595,-1.409856915473938,0.3811476230621338,-1.023424744606018
1783201249814077200,0.4600771484375,-2.0767479679979384,-0.8045316911809146,-1.5640356153726578,-0.9562954902648926,0.6471020579338074,-0.9468374848365784
1783201249824014000,0.47001416015625,-2.394386661334336,-0.5009479728125036,-2.571905082449317,-0.4972117841243744,0.7467695474624634,-0.8641807436943054
1783201249833951200,0.479951171875,-2.4174276374429464,-0.6563061461761593,-2.405126958796382,-0.0691067948937416,0.7062814831733704,-0.7786257863044739
1783201249843888400,0.489888427734375,-2.216173828214407,-1.1881802953891456,-1.9070903433859347,0.2321286797523498,0.4806143045425415,-0.818146824836731
1783201249853825000,0.499824951171875,-1.9530431162655355,-1.0250718001596628,-1.6310294227153062,0.533900797367096,0.0889287590980529,-0.911281406879425
1783201249863761200,0.50976123046875,-1.6960104289308189,-1.1180153106644748,-1.7081541634500026,0.8755390644073486,-0.2226206213235855,-0.9944543242454528
1783201249873698300,0.5196982421875,-1.433876326803863,-1.25863213423118,-1.5450257944762706,1.2507234811782837,-0.4001409709453583,-1.0881305932998655
1783201249883635200,0.52963525390625,-1.206240633540973,-1.015030298616737,-1.0619576156169177,1.6006513833999634,-0.5148379802703857,-1.1600987911224363
1783201249893572000,0.539572021484375,-0.9527486875530332,-0.6343512117385864,-0.6204916132122278,1.8765612840652464,-0.6477779150009155,-1.1898702383041382
1783201249903508200,0.54950830078125,-0.5844641681499779,-0.3598093173287808,-0.2758049000829458,2.0977134704589844,-0.962357461452484,-1.1328727006912231
1783201249913445000,0.559445068359375,-0.2386551729924976,-0.3203836811956018,-0.2521703419953584,1.9494574069976809,-0.5398324728012085,-1.0238354206085205
1783201249923382300,0.56938232421875,0.5871389403171837,-0.2079498728010803,0.4410147515058517,1.5802652835845947,-0.9756560921669006,-0.8253029584884644
1783201249933319200,0.579319091796875,0.107024021772854,-0.1555075735053978,0.1048912840604782,1.2676130533218384,-1.430955171585083,-0.4050655961036682
1783201249943256000,0.589256103515625,-0.0690082159049809,-0.5825692577814683,0.3959259019792079,1.0543100833892822,-1.5252896547317505,-0.0251230709254741
1783201249953192200,0.599192138671875,-0.0388624127598479,-0.7517812940504401,1.758902353912592,0.921066164970398,-1.3414323329925537,0.1285151690244674
1783201249963129300,0.60912939453125,-0.4035325410580262,-0.9490431840986012,2.5549317358165977,0.7927707433700562,-0.9778120517730712,0.0456948615610599
1783201249973066000,0.61906591796875,-0.6410232368484139,-0.7022531469020992,3.488179969412088,0.6781695485115051,-0.5810714960098267,-0.2261189371347427
1783201249983003100,0.629003173828125,-0.967310150738433,-0.5365008956981823,3.5399218470871445,0.6055558323860168,-0.3209810554981231,-0.563357412815094
1783201249992940300,0.638940185546875,-1.429548672863096,-0.7138806755274534,2.8742607203274964,0.5909448862075806,-0.3252512812614441,-0.6927958130836487
1783201250002876200,0.648876220703125,-1.2834382203161716,-1.739135284908116,2.197866018107533,0.4782667756080627,-0.5545603632926941,-0.7630025744438171
1783201250012812800,0.658812744140625,-1.2185353939034045,-1.9338259362287815,1.6195120034009218,0.2903643846511841,-0.8514532446861267,-0.9452638626098632
1783201250022750000,0.66875,-1.5968975821413098,-0.9763697285719216,0.6369020652651787,0.1725474745035171,-1.0457276105880735,-1.1464145183563232
1783201250032686800,0.678686767578125,-1.1369865531161427,-0.3371976360155269,-0.9678986912161112,0.2310257256031036,-1.1646664142608645,-1.280062198638916
1783201250042623700,0.688623779296875,-0.213038135850802,0.302259118701145,-3.265797447437048,0.513921320438385,-1.2246112823486328,-1.2359520196914673
1783201250052560000,0.698559814453125,0.9128570413433016,0.928047084755823,-5.642367004790902,1.003038763999939,-1.1776052713394165,-1.0522090196609497
1783201250062497000,0.7084970703125,1.9279383394949137,1.3399278770402072,-7.283718499556183,1.492432951927185,-0.9557554721832277,-0.8675265312194824
1783201250072434000,0.718433837890625,1.9689611086264247,2.4150565243974325,-7.727146741944551,1.8073264360427856,-0.6294233202934265,-0.7391968965530396
1783201250082370800,0.728370849609375,1.590247622732818,3.1499118911534545,-7.320814012241363,1.9784164428710935,-0.2323600947856903,-0.647926390171051
1783201250092307700,0.7383076171875,1.1796122273996472,3.1606659248799085,-6.448176606953144,2.058554649353028,0.0590700507164001,-0.4955626726150512
1783201250102243800,0.748243896484375,1.1285066018015146,1.764063243807107,-5.9014218456029885,2.053741455078125,0.1999091953039169,-0.4204990863800049
1783201250112181000,0.758180908203125,0.8159441157508641,0.9873796367555856,-5.550890498098731,2.0294134616851807,0.3627921044826507,-0.495290607213974
1783201250122117600,0.76811767578125,0.0796875769600272,1.1095223537378012,-4.603125663372874,1.994049906730652,0.5792894959449768,-0.6277347207069397
1783201250132054800,0.7780546875,-0.5249256452493369,0.949760100196302,-3.43073491165936,1.9328471422195437,0.7503225803375244,-0.7432466745376587
1783201250141992000,0.787991943359375,-0.8538389621201902,0.7113257303476334,-2.3957255087226628,1.847408652305603,0.8220391273498535,-0.8139528036117554
1783201250151928000,0.797927978515625,-1.0009077383052558,0.6895401611275971,-1.4653589680433272,1.7863075733184814,0.7885985970497131,-0.827871561050415
1783201250161864700,0.80786474609375,-0.9536238629523665,0.7613269018352031,-0.6722995418608189,1.8069918155670168,0.6482290029525757,-0.8040972352027893
1783201250171801900,0.8178017578125,-0.7501994316864758,0.9179866593167184,-0.2357341709792614,1.9106024503707888,0.4801259338855743,-0.7828486561775208
1783201250181738800,0.82773876953125,-0.61476424854137,1.1210431340530511,0.1368786599516868,2.0079736709594727,0.3565464615821838,-0.7914612889289856
1783201250191676000,0.837676025390625,-0.553893819449842,1.2642086191892623,0.7266226682007312,2.0351457595825195,0.2760546207427978,-0.7875016927719116
1783201250201611800,0.84761181640625,-0.5117867622129619,1.263828679960966,1.4020254367738962,1.984019875526428,0.2134154587984085,-0.7789047360420227
1783201250211549000,0.857548828125,-0.6043373278774321,1.2107885791689157,1.9414350960582492,1.864524483680725,0.1457976698875427,-0.7765911817550659
1783201250221485800,0.86748583984375,-0.885594209755957,1.474626562604308,2.3298300180107354,1.7337661981582642,0.0683611929416656,-0.7566605806350708
1783201250231423000,0.877423095703125,-0.7913307026937604,1.6816382047072052,2.6946324674516915,1.5876688957214355,0.0023744888603687,-0.732217013835907
1783201250241360000,0.88735986328125,-0.5499664168730378,1.7144833664715289,2.871984007567167,1.373919129371643,0.0024746237322688,-0.7363294363021851
1783201250251296800,0.897296875,-0.3113761258102953,1.730602434362471,3.0977777992904185,1.0942763090133667,0.0724460259079933,-0.7354323267936707
1783201250261233000,0.90723291015625,-0.1628356696374714,1.695900538815558,3.4391806684434414,0.797843873500824,0.1149916276335716,-0.7118942737579346
1783201250271169800,0.917169677734375,-0.0309470730580389,1.5954194724127648,3.4747850657880304,0.5108802318572998,0.0838255733251571,-0.6739053726196289
1783201250281107000,0.92710693359375,0.0733303168877959,1.4509583945080635,3.2193162667691704,0.2984159290790558,-0.0104753673076629,-0.6282082200050354
1783201250291043800,0.9370439453125,0.1484941328130662,1.3326990948304531,2.749214536988735,0.1882841438055038,-0.1097623482346534,-0.5825933814048767
1783201250300980700,0.946980712890625,0.19155175050674,1.205931494526565,2.341277294698357,0.1596008390188217,-0.1554637849330902,-0.5500684380531311
1783201250310916900,0.956916748046875,0.1687112836726009,1.040695631879568,2.023074683868885,0.1749388426542282,-0.1784565299749374,-0.5438514351844788
1783201250320854000,0.96685400390625,0.0997915497686713,0.9157251441255212,1.7136042455494402,0.2233157008886337,-0.2051877379417419,-0.5493969321250916
1783201250330790700,0.976790771484375,0.0343115810550749,0.7387400992348789,1.3547288480699062,0.2875949442386627,-0.2317350953817367,-0.5590843558311462
1783201250340727800,0.986727783203125,-0.0022071546554565,0.5013423789575696,1.027435752812028,0.3429956138134002,-0.2433025389909744,-0.5659230947494507
1783201250350665000,0.9966650390625,-0.0366903659503906,0.319288944761455,0.8814356287717818,0.4070481956005096,-0.2090070992708206,-0.5650699138641357
1783201250360600800,1.006600830078125,-0.0662975687067955,0.2662380303144455,0.9465554589360952,0.4889489114284515,-0.2815041840076446,-0.5696172118186951
1783201250370537700,1.016537841796875,0.1623458950928412,0.4037672631293535,1.1230436602205038,0.5129382014274597,-0.5631368160247803,-0.5561445951461792
1783201250380475000,1.026474853515625,0.4745091709591448,0.2702443433463573,0.2813239557653665,0.4886472225189209,-0.828701376914978,-0.5503923892974854
1783201250390411800,1.036411865234375,0.5959647824600338,0.0310904270514845,0.1260714347332716,0.4365204274654388,-0.9941635131835938,-0.5364764332771301
1783201250400349000,1.046348876953125,0.4667313034992665,-0.2576321145325899,0.1860626698374748,0.3762911558151245,-1.1923120021820068,-0.5312952399253845
1783201250410284800,1.056284912109375,0.2313286294966936,-0.3181082105442881,-0.2714911285370588,0.3525336980819702,-1.3768445253372192,-0.5519790053367615
1783201250420221700,1.0662216796875,-0.0919485811833292,-0.3336035935789346,-1.129667462274432,0.4247975051403045,-1.2277742624282837,-0.611105740070343
1783201250430158800,1.076158935546875,-0.4582344010498374,-0.2106242796421051,-1.952733904185891,0.5284307599067688,-0.7283638715744019,-0.6785675883293152
1783201250440096000,1.086095947265625,-0.8453764003317803,-0.1595832437127828,-2.4271195948958395,0.6202701330184937,-0.0947792455554008,-0.7175197601318359
1783201250450033000,1.096032958984375,-1.0487307620361446,-0.1694952736571431,-2.7966256919831034,0.7112975120544434,0.4582669734954834,-0.703194797039032
1783201250459969800,1.1059697265625,-1.0875756026066838,-0.0842737357065081,-2.599028651696444,0.8011869192123413,0.8020336627960205,-0.6140952706336975
1783201250469906000,1.115906005859375,-0.9899786402728408,0.1172279108032584,-1.834132659202814,0.8978619575500488,0.8619292378425598,-0.4898479580879211
1783201250479842800,1.1258427734375,-0.6577739537063986,0.4272632895290851,-0.8952619095504284,1.0061911344528198,0.6422669291496277,-0.2933918833732605
1783201250489780000,1.135780029296875,0.28181173928231,0.3333797216951847,-0.3093979576051235,1.079902172088623,0.2344734370708465,-0.1068048477172851
1783201250499716900,1.145716796875,0.994150738325715,-0.0053887073010206,0.06762509098351,1.0610121488571167,-0.2950130701065063,-0.0206774193793535
1783201250509653800,1.15565380859375,1.14869905661121,0.112388946339488,0.2491507019132375,0.9332234859466552,-0.6905899047851562,-0.0255153160542249
1783201250519590000,1.16558984375,0.9452797399118542,0.2019663414120674,0.7140630463570355,0.7366307973861694,-0.8600061535835266,-0.0564189031720161
1783201250529527000,1.175527099609375,0.6492110733486711,0.2216010162085294,1.2625462389349935,0.5131221413612366,-0.962353765964508,-0.1034134551882743
1783201250539463700,1.185463623046875,0.1568158978912979,0.4038292224496603,1.2791659498244523,0.3253791630268097,-0.9582279920578004,-0.1566479057073593
1783201250549400800,1.19540087890625,-0.2678784179326147,0.6120517016470431,1.1616419786840677,0.2151923328638076,-0.7471105456352234,-0.2190532237291336
1783201250559337700,1.205337646484375,-0.518389010022208,0.7649556137263774,1.5758961490362882,0.1924976706504821,-0.4586316049098968,-0.3017755150794983
1783201250569273900,1.21527392578125,-0.8454434742186218,0.8484721013247967,1.99169579526484,0.2121471017599105,-0.2137877345085144,-0.4077535271644592
1783201250579210800,1.225210693359375,-1.1432677522774786,0.8106143720954656,2.2737235153853894,0.2353536188602447,-0.0807633846998214,-0.5603236556053162
1783201250589148000,1.23514794921875,-1.317326461392641,0.8016565741360187,2.393573299124837,0.2268524169921875,-0.0933047235012054,-0.7830585241317749
1783201250599084800,1.245084716796875,-1.3501046954005955,0.8834031294524669,2.425437925419211,0.1756262481212616,-0.2539748251438141,-1.0124788284301758
1783201250609022000,1.25502197265625,-0.9109932202327996,0.976571242493391,2.3693676631510256,0.0873021632432937,-0.5411210656166077,-1.1661827564239502
1783201250618958800,1.264958740234375,-0.0758622465182095,1.0943307759553194,2.169352455806732,-0.0372528210282325,-0.861707329750061,-1.2132203578948977
1783201250628894700,1.274894775390625,0.6911650589156896,1.2856693403691053,1.9452707286983728,-0.1944362223148346,-1.1155484914779663,-1.1596057415008545
1783201250638831900,1.284831787109375,1.2513213728263974,1.503256444761157,1.739549418666959,-0.3712051510810852,-1.2121341228485107,-1.050773024559021
1783201250648769000,1.29476904296875,1.5660330728001892,1.6627578554093836,1.5501643264085054,-0.5456825494766235,-1.1125731468200684,-0.934285283088684
1783201250658706000,1.304705810546875,1.5960212376981973,1.7872043192893263,1.2954215035766363,-0.6471207737922668,-0.8583211302757263,-0.8068274855613708
1783201250668642800,1.314642822265625,1.3787363311231136,1.851467824885249,0.7421487386345863,-0.6866897940635681,-0.5221590399742126,-0.691888153553009
1783201250678579000,1.324578857421875,1.1339242429360747,1.8740993434101345,0.2568751586854457,-0.7014538645744324,-0.371388167142868,-0.5839332342147827
1783201250688515800,1.334515869140625,1.1408957624491305,1.8853285934329032,-0.5875549737721681,-0.6764252781867981,-0.368898332118988,-0.4884414970874786
1783201250698453000,1.344452880859375,1.3562588341161608,1.7206547485828398,-1.2873287980139254,-0.6000234484672546,-0.3906126916408539,-0.4353537857532501
1783201250708389600,1.3543896484375,1.5474087440900504,1.45218676725924,-1.7218991956859826,-0.4855773448944092,-0.3913161158561706,-0.4185628592967987
1783201250718326800,1.364326904296875,1.704427251881361,1.2417039419144391,-1.9651625931262968,-0.3953955173492431,-0.3965782523155212,-0.422871321439743
1783201250728264000,1.374263916015625,1.7817141974404451,1.1175444782823325,-2.188195103442669,-0.3723177015781402,-0.4065076410770416,-0.4157762825489044
1783201250738200000,1.384199951171875,1.842941696341336,1.0519763198286294,-2.359393966147304,-0.4001637101173401,-0.4349174499511719,-0.3955367803573608
1783201250748136700,1.39413671875,1.9256047819808124,0.9753285489559173,-2.5766134062707424,-0.441850870847702,-0.4601356089115143,-0.3391610980033874
1783201250758073900,1.404073974609375,2.111538418611139,0.8360551028221845,-2.833939815855026,-0.4443454444408417,-0.4374696910381317,-0.2506991326808929
1783201250768010800,1.4140107421875,2.31819730175361,0.7020294942140579,-3.13434724227488,-0.3900756537914276,-0.3549546897411346,-0.1656374037265777
1783201250777948000,1.423947998046875,2.1802377146974203,0.684293054254353,-3.5126626687616107,-0.2894691228866577,-0.2342991232872009,-0.0841510519385337
1783201250787883800,1.4338837890625,1.984797998575121,0.7402224467471241,-3.756230017584562,-0.1808726489543914,-0.1017094179987907,-0.0227994434535503
1783201250797821000,1.443821044921875,1.750506427619606,0.75791972374022,-3.8659459453225136,-0.0872327163815498,0.0487325452268123,0.0200079418718814
1783201250807757800,1.4537578125,1.550690688370168,0.6979866485640406,-3.7092017244279374,0.0092391092330217,0.2112142443656921,0.0570818036794662
1783201250817695000,1.463695068359375,1.3485744170933962,0.6291717632740735,-3.4000779075890777,0.0964464470744133,0.3785065412521362,0.0828452259302139
1783201250827631900,1.4736318359375,1.1418122197069227,0.591632013952732,-3.0090666656583545,0.1927294880151748,0.5132663249969482,0.1062822788953781
1783201250837568800,1.48356884765625,0.926939050448686,0.5722896001011133,-2.568274032470584,0.2872274816036224,0.5891832113265991,0.1316206604242324
1783201250847506000,1.493505859375,0.7878647801488637,0.5666986482262611,-2.0431220311194656,0.3723513185977936,0.6218544840812683,0.1447305828332901
1783201250857441800,1.50344189453125,0.6818553057134151,0.609787848368287,-1.4255541963994502,0.4291956722736358,0.6131638288497925,0.1549062579870224
1783201250867379000,1.51337890625,0.612996727412194,0.6995265714824199,-0.7735001547098159,0.4546771645545959,0.5814807415008545,0.1793400794267654
1783201250877315800,1.52331591796875,0.6018303134925663,0.8001227886974811,-0.2328559851944446,0.4522827267646789,0.5348698496818542,0.2121451646089553
1783201250887252700,1.533252685546875,0.544330529877916,0.8907014697670936,0.2413105098068714,0.4170981645584106,0.4968824386596679,0.2429490089416504
1783201250897190000,1.54318994140625,0.4741905334640294,0.9711807816267012,0.6675345194160938,0.3652618527412414,0.4618972837924957,0.2641456425189972
1783201250907126000,1.5531259765625,0.3727674369707703,0.9901759894758464,1.0556611458212135,0.3186447918415069,0.4445325434207916,0.2724523544311523
1783201250917062700,1.563062744140625,0.2977547930192202,0.9995417837142944,1.3967992265582083,0.2665863931179046,0.4426781833171844,0.2638881802558899
1783201250926999800,1.572999755859375,0.2636970405947417,1.0652753618627786,1.7383336131364109,0.194722980260849,0.4315692782402038,0.2531156837940216
1783201250936937000,1.58293701171875,0.3075774641796946,1.167812776273489,2.1182512141227723,0.0845722258090972,0.3830129206180572,0.2567490339279175
1783201250946873900,1.592873779296875,0.4184426350180059,1.2969564580589532,2.443043140214681,-0.0705373063683509,0.295859694480896,0.2783824205398559
1783201250956811000,1.60281103515625,0.5504824766363948,1.3804448886066674,2.664675720605254,-0.2400474995374679,0.1837811172008514,0.3187402188777923
1783201250966747000,1.612746826171875,0.7120504644256085,1.3502350437819957,2.6496394795149563,-0.3849653899669647,0.1044462770223617,0.371105819940567
1783201250976683800,1.622683837890625,0.8362124122757464,1.254002282473445,2.524839379891753,-0.4734526574611664,0.0937472954392433,0.4131233096122741
1783201250986621000,1.632620849609375,0.840985910287872,1.229559330612421,2.2650971413373946,-0.5042914152145386,0.1524954736232757,0.4424174129962921
1783201250996557800,1.642557861328125,0.8201186249565333,1.2556892126470804,2.053058318722248,-0.5005286335945129,0.2185847461223602,0.4880741238594055
1783201251006494700,1.65249462890625,0.9086465840414166,1.2182546772658824,1.8836919321417809,-0.4762278795242309,0.2194580882787704,0.5426793098449707
1783201251016431600,1.662431640625,0.9521562015525996,1.1057605169862508,1.624123881110549,-0.4584872126579284,0.1337234824895858,0.6180784106254578
1783201251026367500,1.672367431640625,0.9153485658980904,0.9107090695291756,1.3841548490405082,-0.4439146518707275,0.0079933702945709,0.6973573565483093
1783201251036304400,1.682304443359375,0.8110582434054464,0.6725187375694512,1.199424889111519,-0.433487057685852,-0.1425663083791732,0.7574383020401001
1783201251046241500,1.692241455078125,0.5690983297791332,0.4813596213757991,0.9891986688762904,-0.4112564027309418,-0.2634809613227844,0.7776127457618713
1783201251056178700,1.7021787109375,0.2680203836865722,0.3316179727196693,0.6717366472810506,-0.3872919380664825,-0.333814799785614,0.7602750062942505
1783201251066115600,1.712115478515625,-0.0276203215218149,0.2375610941454768,0.3515612750738859,-0.3764781951904297,-0.3473736345767975,0.7141281962394714
1783201251076052500,1.722052490234375,-0.1846554333880543,0.2459577510908246,0.0819330177992582,-0.4049772024154663,-0.3384270071983337,0.6651995778083801
1783201251085988600,1.731988525390625,-0.1874648282529786,0.3262245892435312,-0.1239823534995317,-0.4919900596141815,-0.3678023219108581,0.63847416639328
1783201251095925500,1.741925537109375,-0.0690678006051108,0.2983767973750829,-0.4198731792777776,-0.6117684245109558,-0.3912714123725891,0.6527258157730103
1783201251105862700,1.751862548828125,0.0520662507912144,0.1578515976145863,-0.792450354373455,-0.7153271436691284,-0.3727040290832519,0.6787554025650024
1783201251115799600,1.761799560546875,0.0713132779769599,0.0333484351113438,-1.270932374486327,-0.7629638910293579,-0.3241540789604187,0.7027071118354797
1783201251125736400,1.771736328125,0.1293815091293305,-0.0770771022006869,-1.9549767146766184,-0.7451483607292175,-0.218263030052185,0.720798134803772
1783201251135673600,1.781673583984375,0.1665643347717821,-0.1250596273422241,-2.517174544352293,-0.6675813794136047,-0.0743617787957191,0.735893726348877
1783201251145610500,1.791610595703125,0.0915742679782211,-0.1425190039262175,-2.886865934878588,-0.55295330286026,0.0674930587410926,0.7450354695320129
1783201251155546400,1.80154638671875,-0.0297886968031525,-0.1706169711634516,-3.10020005800128,-0.4017781913280487,0.1835389733314514,0.733154833316803
1783201251165483500,1.8114833984375,-0.2359145690474659,-0.2714607333987951,-3.188858584663272,-0.2295876294374466,0.2694327533245086,0.7169784903526306
1783201251175420400,1.82142041015625,-0.3383578754339367,-0.3791851950585841,-3.0780817496955395,-0.0599426813423633,0.3181057274341583,0.6873833537101746
1783201251185357600,1.831357666015625,-0.3203998286128044,-0.3852902339354157,-2.834708462139964,0.059001624584198,0.3644878566265106,0.6346243023872375
1783201251195294700,1.841294677734375,-0.3459471615191549,-0.2967117867723107,-2.4383564437031744,0.1196492612361908,0.417244553565979,0.5820039510726929
1783201251205231400,1.8512314453125,-0.38582543679066,-0.2480328037992119,-1.8769050484806296,0.1077384874224662,0.4832499325275421,0.5330826640129089
1783201251215167500,1.86116748046875,-0.4284930505197495,-0.2628752758830786,-1.359231420186162,0.0409599915146827,0.5494864583015442,0.4953275620937347
1783201251225104600,1.871104736328125,-0.463266476932913,-0.2158162953272461,-0.8969944324314594,-0.0542786791920661,0.5956945419311523,0.4673204123973846
1783201251235041500,1.88104150390625,-0.473128164929524,-0.14642156432271,-0.5128261882632971,-0.1443143039941787,0.622534990310669,0.4532122910022735
1783201251244978400,1.890978515625,-0.4510120120482519,-0.140000299103558,-0.2146843686878681,-0.2104014158248901,0.6504351496696472,0.4407545924186706
1783201251254915600,1.90091552734375,-0.4636651939269155,-0.0975400445148348,0.001879822397232,-0.2503304481506347,0.6778033971786499,0.4026460945606231
1783201251264852500,1.9108525390625,-0.479737280870974,0.044079380223155,0.1303425361812114,-0.2600802779197693,0.7143750190734863,0.3537440598011017
1783201251274788600,1.92078857421875,-0.4290010731071234,0.2005290020853281,0.2544020465701818,-0.253569632768631,0.7635893821716309,0.3270272314548492
1783201251284725500,1.9307255859375,-0.2649903683409094,0.2900686954960227,0.4548930547326802,-0.2312943488359451,0.7992781400680542,0.3204578161239624
1783201251294662400,1.940662353515625,-0.0478716851782053,0.4346642134353518,0.7137205165296793,-0.2176256775856018,0.7769590020179749,0.3309517204761505
1783201251304599600,1.950599609375,0.1406719147548079,0.6249246272236109,0.936658334299922,-0.2236939221620559,0.6862645149230957,0.3516585528850555
1783201251314536400,1.960536376953125,0.1819530608278699,0.7421934545591473,1.076115904828906,-0.23687045276165,0.5812065005302429,0.4117272198200226
1783201251324473600,1.9704736328125,0.3263112446136772,0.6765694742649794,1.2702847242325543,-0.2622302770614624,0.4543567895889282,0.5031144022941589
1783201251334410500,1.980410400390625,0.4261526248734444,0.5031444599434733,1.354960318738222,-0.2854050993919372,0.299634039402008,0.5915254950523376
1783201251344346600,1.9903466796875,0.2560726831961423,0.3833881997063755,1.2213339385807511,-0.2857842743396759,0.1903174221515655,0.6508092284202576
1783201251354283500,2.000283447265625,0.0895871127489954,0.3205620334371924,1.1652063931673764,-0.2647812664508819,0.1601834893226623,0.6772077679634094
1783201251364220700,2.010220703125,-0.0391354940801858,0.2180751801699399,1.180321544712782,-0.2372751533985138,0.1825300902128219,0.6856113076210022
1783201251374157300,2.0201572265625,-0.2112968268751166,0.0994607834443449,1.1272931343585253,-0.2067025899887085,0.2450121194124221,0.6670778393745422
1783201251384094500,2.030094482421875,-0.4169293809108436,0.0330243177235126,1.078973047825694,-0.1879442483186721,0.3101243078708648,0.6460552215576172
1783201251394031600,2.040031494140625,-0.5157930752448737,0.0255593886703252,0.9990303270608186,-0.2028867155313491,0.28190678358078,0.6337921619415283
1783201251403967700,2.0499677734375,-0.5520923960510641,0.0162222360044717,0.7532096463531255,-0.2332964688539505,0.1976962089538574,0.6513627171516418
1783201251413904400,2.059904296875,-0.4830684711202979,-0.0375634224578738,0.4730675938487053,-0.2486445158720016,0.1160516738891601,0.6909591555595398
1783201251423841500,2.069841552734375,-0.339043154284358,-0.1664426080882549,0.3487994091451168,-0.2586124241352081,0.0403402373194694,0.7263028621673584
1783201251433778400,2.0797783203125,-0.3235479904454201,-0.2352726909473538,0.2196615725785493,-0.2740228176116943,-0.027448397129774,0.7329820990562439
1783201251443715600,2.089715576171875,-0.3863529677961021,-0.2277773667559027,0.0809492674589157,-0.3002204895019531,-0.0827859491109848,0.7095126509666443
1783201251453652500,2.099652587890625,-0.4837112990684807,-0.2808656906038522,-0.1774450636178255,-0.3419724702835083,-0.1459116637706756,0.6703268885612488
1783201251463589400,2.10958935546875,-0.5629827695082873,-0.3630263796791434,-0.5289794506847858,-0.3814437985420227,-0.1912009418010711,0.6211631894111633
1783201251473525500,2.119525390625,-0.5439153001405298,-0.4385229346901178,-0.9556558802366256,-0.4167067110538482,-0.1533004194498062,0.5593189597129822
1783201251483462700,2.129462646484375,-0.6148735541347414,-0.5644716198265552,-1.2485118683636187,-0.4392761588096618,-0.0740337446331977,0.4724315404891968
1783201251493399300,2.1393994140625,-0.8230404306873679,-0.6241869605988264,-1.538646322572231,-0.4562724530696869,0.0436622649431228,0.3738429248332977
1783201251503336400,2.14933642578125,-0.9697623661961404,-0.5699968129888177,-1.802786503824592,-0.4416809678077698,0.2102606743574142,0.2865790724754333
1783201251513273600,2.159273681640625,-0.9318274070121348,-0.5105164500162005,-1.952503018039465,-0.3974296152591705,0.3973850309848785,0.2345643192529678
1783201251523210500,2.16921044921875,-0.829661017870903,-0.4417492032602429,-1.9786434214681383,-0.3571536540985107,0.5050603747367859,0.1996684521436691
1783201251533147600,2.179147705078125,-0.661745122359693,-0.2857236520290374,-2.057478473252058,-0.3198278546333313,0.5495985150337219,0.1724823713302612
1783201251543083500,2.18908349609375,-0.4160806551270186,-0.073764616651833,-2.018854435825348,-0.2731538414955139,0.5479543209075928,0.1702416241168975
1783201251553020400,2.1990205078125,-0.0711100104898214,0.0037631519258022,-1.9175994624406096,-0.213373064994812,0.4978674650192261,0.1952127516269683
1783201251562957600,2.20895751953125,0.1770160245507955,-0.025548575015366,-1.8339374288916588,-0.1490461081266403,0.3925552070140838,0.2317207008600235
1783201251572894500,2.21889453125,0.2706703319397754,0.0254658651679754,-1.881347414842248,-0.0774329006671905,0.275608628988266,0.254645437002182
1783201251582831400,2.228831298828125,0.2754181109887547,0.1664423158273101,-1.9477280587226151,0.0078547243028879,0.2174221724271774,0.2729177474975586
1783201251592768500,2.2387685546875,0.2596924811284989,0.3057198536142707,-1.9521160645484923,0.1049570366740226,0.2714630663394928,0.2933987975120544
1783201251602705400,2.248705322265625,0.2538476275578141,0.3468424298584461,-1.812816314929724,0.1918092221021652,0.4091486632823944,0.3234646320343017
1783201251612641500,2.2586416015625,0.2579576932251453,0.4120280187353491,-1.556630892074108,0.2607930898666382,0.5848147869110107,0.3669207692146301
1783201251622578400,2.268578369140625,0.2297118419498205,0.4974225751653313,-1.1682020678520202,0.3153020739555359,0.7318412065505981,0.4102925360202789
1783201251632515300,2.278515380859375,0.1569805138684809,0.5168769249588251,-0.7355915720760822,0.3461081683635711,0.8020471930503845,0.434120625257492
1783201251642452500,2.288452392578125,-0.001500321560353,0.5767901263907551,-0.2659463538914918,0.3603019714355469,0.8053869009017944,0.4287436008453369
1783201251652389600,2.2983896484375,-0.1174647152338176,0.6597706074163318,0.2603027950465679,0.376285970211029,0.7529844641685486,0.4291518628597259
1783201251662326500,2.308326416015625,-0.0232081493690609,0.6634194853127002,0.7093664129734039,0.3897582292556762,0.6738538146018982,0.4358548521995544
1783201251672263400,2.318263427734375,0.0749302080987952,0.5696969532594084,1.1093494813889264,0.3778088688850403,0.5712329149246216,0.4441010653972626
1783201251682199600,2.328199462890625,0.1578733710549771,0.5052782571017742,1.4412053545176982,0.3190308213233948,0.4721347093582153,0.4489342272281647
1783201251692136400,2.338136474609375,0.1307780049890279,0.549268497736752,1.7420073332130908,0.2035907804965973,0.4144085645675659,0.4445626437664032
1783201251702073600,2.348073486328125,-0.0002549976743757,0.5382666267290711,1.9854262134760616,0.0495426133275032,0.4175357818603515,0.4661860167980194
1783201251712010500,2.358010498046875,0.0140421154864132,0.4301517044469714,2.1608546765744685,-0.1132782548666,0.4617176353931427,0.5098600387573242
1783201251721947400,2.367947509765625,-0.0410021647348999,0.3672188629329204,2.268046638792753,-0.2530417442321777,0.5390398502349854,0.5523744225502014
1783201251731884500,2.377884521484375,-0.2525696800438687,0.3692693657219409,2.242182714217901,-0.3661025166511535,0.6283897161483765,0.5886823534965515
1783201251741821400,2.387821533203125,-0.3668723145175725,0.3406166872113942,2.279576917588711,-0.4412793219089508,0.658535897731781,0.6070060133934021
1783201251751757300,2.39775732421875,-0.3870459184963256,0.2675727860495448,2.2818448625206944,-0.4854339957237243,0.5984166264533997,0.6308215856552124
1783201251761694500,2.407694580078125,-0.3002594693165272,0.1107186750397086,2.157088602039218,-0.4987389147281647,0.4889785349369049,0.6622980237007141
1783201251771631400,2.41763134765625,-0.2330909629940986,-0.0564940406382083,2.096035875183344,-0.4898151457309723,0.3641189038753509,0.6709612607955933
1783201251781568500,2.427568603515625,-0.3330000747278333,-0.135253981359303,2.0025573810189963,-0.4499227404594421,0.2259598076343536,0.658311128616333
1783201251791505700,2.437505615234375,-0.4586758246744051,-0.2295753560885786,1.7615981688678264,-0.399126648902893,0.1118026077747345,0.6371163725852966
1783201251801442300,2.4474423828125,-0.4458380069438368,-0.3031000265046954,1.5621499477565288,-0.3550187349319458,0.0292325280606746,0.6114051342010498
1783201251811379500,2.45737939453125,-0.416036414126493,-0.3093661011621356,1.4745114117920397,-0.3343896269798279,-0.0080714337527751,0.610870897769928
1783201251821316600,2.467316650390625,-0.3509188855171203,-0.3181611097753047,1.4559908357173204,-0.3381280899047851,-0.0288870651274919,0.6212192177772522
1783201251831252500,2.47725244140625,-0.3683008860159665,-0.3242366302967071,1.4053934519022702,-0.3537134230136871,-0.084923967719078,0.6357166767120361
1783201251841189400,2.487189453125,-0.3914128815341741,-0.3550008941337466,1.1344728167295457,-0.364913135766983,-0.1263413876295089,0.6701087355613708
1783201251851126500,2.49712646484375,-0.2977189910534769,-0.4716349306970834,0.840989052093029,-0.3741718828678131,-0.1285376995801925,0.711798906326294
1783201251861063400,2.5070634765625,-0.296466159714479,-0.5174295904055237,0.6451414858222008,-0.3763708472251892,-0.1372393369674682,0.747348964214325
1783201251871000600,2.51700048828125,-0.4026622975621372,-0.4745020105659961,0.3556768936991691,-0.3865015208721161,-0.1651000082492828,0.7748109102249146
1783201251880937500,2.5269375,-0.4580596290048211,-0.4959329211294651,0.0354138432085514,-0.3968420326709747,-0.2004691809415817,0.7696412801742554
1783201251890874400,2.536874267578125,-0.6014288200195879,-0.6277145502030849,-0.1489350084483623,-0.3858338594436645,-0.2454909682273864,0.7237017154693604
1783201251900810500,2.546810546875,-0.7413288736190646,-0.7200310148507356,-0.3727981243699789,-0.3564060926437378,-0.2660733163356781,0.6469975113868713
1783201251910747600,2.55674755859375,-0.7614730323076248,-0.7026613623768091,-0.5926145952492952,-0.2936582565307617,-0.2721122801303863,0.5617707371711731
1783201251920684500,2.5666845703125,-0.7310808166533708,-0.6594266162842511,-0.8096241920143366,-0.2291982173919677,-0.2839853167533874,0.4979246258735657
1783201251930621400,2.576621337890625,-0.6816689162958413,-0.6476824024766683,-1.0530465794086457,-0.1911139488220214,-0.2909910380840301,0.4634076952934265
1783201251940558300,2.586558349609375,-0.645926571785286,-0.6646957888588308,-1.3338771986991167,-0.1620882749557495,-0.2885637283325195,0.459821879863739
1783201251950495500,2.59649560546875,-0.6514857402823865,-0.6962953344762325,-1.5931804613143206,-0.1446315199136734,-0.2586124837398529,0.4655926823616028
1783201251960432600,2.6064326171875,-0.6310322233837098,-0.7242942252531648,-1.7905238191008568,-0.1262670755386352,-0.1989899575710296,0.4683636128902435
1783201251970369500,2.61636962890625,-0.5475246497441083,-0.7612520830333233,-1.888303809851408,-0.1056089401245117,-0.1219785213470459,0.4617752432823181
1783201251980305400,2.626305419921875,-0.4734463640332221,-0.7881225543022156,-1.8950059378385544,-0.072830356657505,-0.0436244644224643,0.4490858614444732
1783201251990242600,2.63624267578125,-0.422558545904234,-0.7717255462527275,-1.883089874595404,-0.0352150723338127,0.050025325268507,0.4240172505378723
1783201252000179500,2.646179443359375,-0.3908072437912225,-0.6926829891979694,-1.799865063419938,0.0166773628443479,0.1402425915002823,0.3933088481426239
1783201252010116900,2.656116943359375,-0.3643680035464465,-0.5852987192779779,-1.6896563837289809,0.0893707424402237,0.2343738973140716,0.3702751696109772
1783201252020053800,2.6660537109375,-0.3059917110919021,-0.4659150917455554,-1.4949299304425716,0.1632998585700988,0.3352869153022766,0.3557944297790527
1783201252029990700,2.67599072265625,-0.1739027879010886,-0.3072773121893405,-1.1163678357183933,0.2264522016048431,0.3854283988475799,0.3408378660678863
1783201252039927800,2.685927734375,-0.0213137778566684,-0.0841439718469977,-0.7198860534220933,0.2714316844940185,0.3936857283115387,0.3330614566802978
1783201252049864000,2.695864013671875,0.1218097678339574,0.1291772917941212,-0.258407775080204,0.2947285175323486,0.3836168348789215,0.3326321840286255
1783201252059800800,2.70580078125,0.2720964740190655,0.3470879290521144,0.2786082670658826,0.3005281984806061,0.3576107025146484,0.3327837884426117
1783201252069737700,2.71573779296875,0.4142559969831257,0.5951981820017099,0.7850877166509628,0.2942668497562408,0.3334473073482513,0.3473289310932159
1783201252079674600,2.725674560546875,0.5743057622291148,0.8532508600339292,1.2110311557531357,0.2804507911205292,0.3244185447692871,0.3688857853412628
1783201252089611800,2.73561181640625,0.7708360500670969,1.0683023084685206,1.5850310571283102,0.2528471052646637,0.3357380330562591,0.4035827815532684
1783201252099549000,2.745548828125,0.9452522673830388,1.2901768809214234,1.9368781634062529,0.2051701545715332,0.3490647077560425,0.4524720013141632
1783201252109485800,2.75548583984375,1.0469951704151927,1.489725932058692,2.291075632202625,0.111083872616291,0.3357142806053161,0.5205551385879517
1783201252119422700,2.765422607421875,1.1307198939368128,1.660557715016603,2.633343009230494,-0.0361313074827194,0.2823433876037597,0.604694128036499
1783201252129358800,2.77535888671875,1.2220777426853775,1.7972288696974514,2.897147090396285,-0.2157095968723297,0.191784992814064,0.702944815158844
1783201252139295700,2.785295654296875,1.2988332117162644,1.872206661531329,3.0451141305953264,-0.4192353785037994,0.0805749148130416,0.8242805600166321
1783201252149233000,2.79523291015625,1.362450674493611,1.7819690489843487,3.0083991416603326,-0.633076548576355,-0.0433643460273742,0.961925208568573
1783201252159169800,2.805169677734375,1.2722590930454432,1.4506263860747215,2.709502704325318,-0.8148956894874573,-0.2000395804643631,1.0724431276321411
1783201252169106700,2.815106689453125,0.8836432218186556,1.0905407360225916,2.0683564256191254,-0.9258254170417786,-0.2925628423690796,1.137447714805603
1783201252179043800,2.8250439453125,0.5047408622894436,0.7664458522841334,1.5576806933879852,-0.9590641856193542,-0.3473231494426727,1.158743977546692
1783201252188980700,2.834980712890625,0.171660269671306,0.4613710185751318,1.050307509833574,-0.9422942996025084,-0.3845722675323486,1.1329967975616455
1783201252198918000,2.84491796875,-0.1936660575132817,0.2343549915805459,0.5230471380263567,-0.9061537384986876,-0.4052177667617798,1.0655986070632937
1783201252208853800,2.854853759765625,-0.5688768690481781,0.0065732409104704,0.065336687785387,-0.8788478374481201,-0.4117630124092102,0.976257622241974
1783201252218790700,2.864790771484375,-0.9267289878945796,-0.303374021140486,-0.45463235796988,-0.8568547368049622,-0.4128390848636627,0.8789659142494202
1783201252228727800,2.874727783203125,-1.196470423220098,-0.7011319608524441,-1.031380106523633,-0.8348916172981262,-0.385626882314682,0.7961589097976685
1783201252238665000,2.8846650390625,-1.396923145198822,-1.1124226052239536,-1.4874322681635617,-0.81171053647995,-0.3426668047904968,0.7200852632522583
1783201252248601600,2.8946015625,-1.5504155246905982,-1.4192624027788638,-1.9498142173469064,-0.7718411087989807,-0.2866099178791046,0.6518737077713013
1783201252258538800,2.904538818359375,-1.6474220468506215,-1.6413012258827686,-2.447071080556512,-0.7131036520004272,-0.1925664544105529,0.5878375172615051
1783201252268475600,2.9144755859375,-1.7314479452759026,-1.818300591559708,-2.785617975756526,-0.6387755870819092,-0.0645728036761283,0.5174067616462708
1783201252278412800,2.924412841796875,-1.783148906418681,-1.9103189500436184,-2.984412116873264,-0.5439870953559875,0.0830779820680618,0.4438776969909668
1783201252288348700,2.9343486328125,-1.81118199172616,-1.9720127512820065,-3.150677030307054,-0.4301654696464538,0.2064939141273498,0.37631756067276
1783201252298285800,2.944285888671875,-1.8131288880102336,-1.9908898857094344,-3.245156810468435,-0.2904592752456665,0.2703195512294769,0.310996949672699
1783201252308222700,2.95422265625,-1.8348071974635125,-1.9922930305056272,-3.2588322845995426,-0.1292722523212433,0.2991527915000915,0.2432128638029098
1783201252318160000,2.964159912109375,-1.8595805503226817,-1.9819310648366808,-3.0816561010509727,0.0704833194613456,0.2733543813228607,0.1635592877864837
1783201252328096800,2.9740966796875,-1.875017627298832,-1.9600550408542157,-2.9186364531487223,0.2891810238361358,0.2434108555316925,0.0651536285877227
1783201252338033700,2.98403369140625,-1.8813947611153128,-1.843927784769237,-2.654123346930742,0.4961693584918976,0.2582348585128784,-0.0644813403487205
1783201252347970800,2.993970703125,-1.8422154278934,-1.5960061862595378,-2.0898463728934527,0.6563734412193298,0.2752013206481933,-0.1986998617649078
1783201252357907700,3.00390771484375,-1.7790595912784335,-1.293466716247052,-1.531771760627627,0.748677134513855,0.2745329141616821,-0.3025834560394287
1783201252367843800,3.01384375,-1.604710740110278,-1.0315889269687235,-1.0311872143000365,0.7812913060188293,0.2819831073284149,-0.3707728981971741
1783201252377780700,3.02378076171875,-1.339325088841468,-0.774060565071553,-0.4653332002043723,0.754487931728363,0.276520162820816,-0.4143195152282715
1783201252387717600,3.033717529296875,-1.0951508601665496,-0.4869222239390015,0.0870838246911764,0.6649572253227234,0.2998188436031341,-0.4336623251438141
1783201252397654800,3.04365478515625,-0.854985355676338,-0.2557445472203195,0.5897393320739269,0.5374332070350647,0.3343269526958465,-0.4411343336105346
1783201252407592000,3.053592041015625,-0.6089351039964706,-0.0752612849503755,1.0926128661215304,0.3833562731742859,0.3598168492317199,-0.4413223564624786
1783201252417528800,3.06352880859375,-0.3886983618784695,0.0937393370576202,1.5067892950624229,0.2222763299942016,0.3794136941432953,-0.4361416399478912
1783201252427465700,3.0734658203125,-0.1856318772047758,0.2520996148467064,1.817892303019762,0.0698766708374023,0.364632099866867,-0.4208281934261322
1783201252437402600,3.083402587890625,0.0133167968865484,0.3726706985980272,2.074062528306245,-0.0576525963842868,0.3155437111854553,-0.4133363366127014
1783201252447339800,3.09333984375,0.1884624244555831,0.4885746673211455,2.1715683782905337,-0.1544334590435028,0.2525314688682556,-0.4095155000686645
1783201252457276000,3.10327587890625,0.3324463863678276,0.5575383134320377,2.1905635861396786,-0.2042192220687866,0.2038745433092117,-0.3955879807472229
1783201252467212800,3.113212890625,0.4762970042239874,0.5844222287043929,2.254364150398969,-0.2223225980997085,0.1584942787885666,-0.373466432094574
1783201252477149700,3.123149658203125,0.5363501986484974,0.595149374423921,2.2318349232047794,-0.2142523825168609,0.0953498855233192,-0.3282148540019989
1783201252487086800,3.1330869140625,0.5149272521957755,0.551375991410017,2.2136796733111144,-0.1849174052476883,0.0135237295180559,-0.2580623924732208
1783201252497023700,3.143023681640625,0.4620362775508314,0.4263357994206249,2.1822832490503785,-0.145720437169075,-0.1442765891551971,-0.1647564619779586
1783201252506961000,3.1529609375,0.3222883457731455,0.2548192490689456,1.9900000972628595,-0.1160397678613662,-0.3791562020778656,-0.1078644096851348
1783201252516897800,3.162897705078125,0.0481659919496625,0.0952314753115177,1.5913678589344025,-0.1048827245831489,-0.6558876633644104,-0.115856647491455
1783201252526834700,3.172834716796875,-0.2552870857764035,-0.0330678646042943,1.062760748693347,-0.136175125837326,-0.8873435258865356,-0.1758547276258468
1783201252536770800,3.182770751953125,-0.4803036825820803,-0.2256727956920862,0.595102904933691,-0.203112855553627,-1.0585280656814575,-0.2522499561309814
1783201252546708000,3.1927080078125,-0.6515184004429727,-0.4602117655374109,0.0495551812857389,-0.2769932150840759,-1.1119623184204102,-0.3363536596298218
1783201252556644600,3.20264453125,-0.7682886306066066,-0.6286912862807512,-0.615174217581749,-0.3447156250476837,-1.0382938385009766,-0.4236935377120971
1783201252566581800,3.212581787109375,-0.8820449197765439,-0.7912453624978661,-1.250960430559516,-0.3800709545612335,-0.8925070762634277,-0.5090092420578003
1783201252576518700,3.2225185546875,-1.026364616449177,-0.9761188225507736,-2.026165635621548,-0.3546240031719208,-0.711242139339447,-0.5873876214027405
1783201252586455800,3.232455810546875,-1.0759120528198778,-1.1076965996153652,-2.8323505008369683,-0.2751733958721161,-0.4727046191692352,-0.6536657214164734
1783201252596392700,3.242392822265625,-1.047574358542636,-1.1302158899374306,-3.293495601701736,-0.164821982383728,-0.2063071727752685,-0.6781305074691772
1783201252606329600,3.25232958984375,-0.9662602763593195,-1.118232022155076,-3.4449966612458227,-0.0398432984948158,0.0260437820106744,-0.6594955325126648
1783201252616266800,3.262266845703125,-0.877846225977689,-1.130536938585341,-3.4671629003465174,0.0926548466086387,0.1744329631328582,-0.6090967059135437
1783201252626203000,3.272202880859375,-0.8609314045991748,-1.1500862731859087,-3.3671962132066486,0.2203784584999084,0.2585544884204864,-0.5602501034736633
1783201252636139500,3.282139404296875,-0.941730815258622,-1.108661060733348,-3.1056220830500125,0.368183970451355,0.3005324900150299,-0.5527023077011108
1783201252646076700,3.29207666015625,-1.0688020746842026,-1.0567565398424863,-2.735913741388917,0.5255256295204163,0.309861809015274,-0.587358295917511
1783201252656013800,3.302013916015625,-1.1774307186421007,-1.0051716062948106,-2.3286440230965613,0.6733179092407227,0.2892994284629822,-0.6468133926391602
1783201252665950700,3.31195068359375,-1.1560350985877217,-0.868927883245796,-1.8581214375555517,0.7977290749549866,0.2569676041603088,-0.7140709757804871
1783201252675887900,3.321887939453125,-1.0766795300610363,-0.6789541774444282,-1.3611638495534657,0.877126932144165,0.2433279901742935,-0.7768856883049011
1783201252685824500,3.331824462890625,-0.973916855527088,-0.4207493775904178,-0.7754904517441987,0.902019202709198,0.2524807453155517,-0.8246020674705505
1783201252695761700,3.34176171875,-0.8647546892143786,-0.0906947086647152,-0.1357733290582895,0.8596751093864441,0.2857753932476043,-0.8613581657409668
1783201252705698800,3.35169873046875,-0.7298995709795504,0.1963525931835174,0.4618143784284591,0.7632021307945251,0.3421912789344787,-0.877627968788147
1783201252715635000,3.361635009765625,-0.5337412582591176,0.4229202918887138,1.0114011483341454,0.631629467010498,0.3988761007785797,-0.8834627866744995
1783201252725571600,3.371571533203125,-0.3498656501371413,0.6260705823883413,1.448783096295595,0.490943968296051,0.428486704826355,-0.8666366934776306
1783201252735508700,3.3815087890625,-0.1703788515586405,0.8415314884066581,1.7502379859417676,0.3638553917407989,0.430646687746048,-0.8413789868354797
1783201252745445600,3.391445556640625,0.0420128761474043,1.0071157260999082,2.015517400357127,0.257004052400589,0.423509418964386,-0.8070324659347534
1783201252755382800,3.4013828125,0.2541451491996646,1.1205012822613118,2.2677157994031907,0.1776750981807708,0.3546568751335144,-0.7652406692504883
1783201252765320000,3.41131982421875,0.4044453815866261,1.220967735616863,2.3903718727350234,0.1131496429443359,0.2306140214204788,-0.7369922995567322
1783201252775256600,3.421256591796875,0.5233189407050609,1.2818123726800084,2.4492700519055126,0.0565132945775985,0.0859156623482704,-0.7033987045288086
1783201252785193700,3.43119384765625,0.6919999753698706,1.331836340521276,2.58721078813076,-0.0134210493415594,-0.0992307588458061,-0.6677685379981995
1783201252795130600,3.441130615234375,0.8772020828552544,1.382243462461233,2.629325005760789,-0.0946638733148574,-0.3174587786197662,-0.6114236116409302
1783201252805066800,3.451066650390625,1.0375753809671848,1.3190072540864348,2.5538258204013107,-0.189377874135971,-0.5154938697814941,-0.5414959192276001
1783201252815003600,3.461003662109375,1.152066414152458,1.1710659328505395,2.4201000715225933,-0.2780798673629761,-0.6418053507804871,-0.47653928399086
1783201252824940800,3.47094091796875,1.0974684894591569,1.038757941815257,2.2051994297355413,-0.3352433145046234,-0.6890236735343933,-0.4383831024169922
1783201252834877700,3.480877685546875,0.9278045812368392,1.0053981085270642,1.890080171874165,-0.3592242300510406,-0.6240184307098389,-0.4195358753204345
1783201252844814800,3.49081494140625,0.7008817854836583,0.9563651975497602,1.619523109316826,-0.3691168129444122,-0.5791625380516052,-0.4083910882472992
1783201252854751700,3.500751708984375,0.5694760039851069,0.7894935503944754,1.2482593549072742,-0.4015296399593353,-0.6220066547393799,-0.391832172870636
1783201252864688600,3.510688720703125,0.4726264259524643,0.4930930215284228,0.722016635710001,-0.4440670013427734,-0.7080230116844177,-0.3639784455299377
1783201252874625800,3.520625732421875,0.3841648101020604,0.1455322142675519,0.1301958211869001,-0.477439135313034,-0.7652473449707031,-0.3450739085674286
1783201252884562700,3.530562744140625,0.2233071077403612,-0.1601195425465703,-0.4247591977536678,-0.4902960360050201,-0.7586549520492554,-0.3433529734611511
1783201252894498800,3.540498779296875,-0.0233884743720293,-0.3968254811674356,-1.007384898430109,-0.479469358921051,-0.7066632509231567,-0.3607165217399597
1783201252904435700,3.550435791015625,-0.285382145114988,-0.6033426177516579,-1.6237199764847754,-0.4445758163928985,-0.5884348750114441,-0.398988276720047
1783201252914372600,3.56037255859375,-0.5281998811470344,-0.7780866057172418,-2.090536693245173,-0.3914692103862762,-0.4250848889350891,-0.4536943733692169
1783201252924309800,3.570309814453125,-0.7907860013578086,-0.8828776442736387,-2.3501152656704187,-0.3409042954444885,-0.2777657508850097,-0.5152884721755981
1783201252934246700,3.58024658203125,-0.9929309872724116,-0.9811986100330948,-2.55921686578989,-0.2883391976356506,-0.1916408240795135,-0.557744026184082
1783201252944183800,3.590183837890625,-1.1387338351748884,-1.135215597920865,-2.825184262469411,-0.227442592382431,-0.1314073204994201,-0.588678240776062
1783201252954120700,3.60012060546875,-1.207576704450324,-1.3079235500141977,-3.047636342549324,-0.1250843703746795,-0.0638736560940742,-0.6276282668113708
1783201252964057600,3.6100576171875,-1.2397341031461953,-1.3733381253413854,-3.1857688019543886,0.0200872104614973,0.0226646978408098,-0.6731629967689514
1783201252973994800,3.619994873046875,-1.2620027797080575,-1.2858558028519154,-3.2437913673341274,0.1939266920089721,0.1295338571071624,-0.7204695343971252
1783201252983931000,3.629930908203125,-1.2591842151559889,-1.135657934860885,-3.0929905650138854,0.3684015572071075,0.215006947517395,-0.7576653957366943
1783201252993867500,3.639867431640625,-1.1787359560217707,-0.9565610123828052,-2.765733710113168,0.5259996056556702,0.2524544894695282,-0.778297483921051
1783201253003804700,3.6498046875,-1.0694500902641564,-0.7944915048122405,-2.334830602777004,0.6473063230514526,0.2500834763050079,-0.7756319642066956
1783201253013742300,3.659742431640625,-0.9433861812502146,-0.6484101322293281,-1.885722561186552,0.7244756817817688,0.2124175578355789,-0.7758526802062988
1783201253023679200,3.66967919921875,-0.8650125364329665,-0.5407470453679561,-1.4226929617494344,0.7725238800048828,0.155739888548851,-0.7728957533836365
1783201253033616400,3.679616455078125,-0.8272520570330322,-0.4455748990282416,-0.9931821855545044,0.7968667149543762,0.1185615286231041,-0.7710565328598022
1783201253043553300,3.68955322265625,-0.8172164737742393,-0.3511345740944147,-0.6146019706517457,0.8042133450508118,0.1010142266750335,-0.7975110411643982
1783201253053490400,3.699490478515625,-0.8680111337270587,-0.2232107894927263,-0.2326023026943206,0.7920461893081665,0.0948419868946075,-0.82968670129776
1783201253063427300,3.70942724609375,-0.9022858168378473,-0.0828556856021285,0.1091413427203893,0.7721867561340332,0.102331593632698,-0.8596621751785278
1783201253073364200,3.7193642578125,-0.8627343623679131,0.0514917023062706,0.4559481167435645,0.7310511469841003,0.1256245374679565,-0.88704514503479
1783201253083300400,3.72930029296875,-0.7755695083297789,0.1656429821431636,0.8514379653930664,0.6760560870170593,0.12347162514925,-0.8961606025695801
1783201253093237500,3.739237548828125,-0.6578100479330867,0.2759004694119095,1.195961012393236,0.6067019701004028,0.0917257517576217,-0.8950961828231812
1783201253103174400,3.74917431640625,-0.543732344789058,0.3513184062287211,1.4682155265182255,0.5422399044036865,0.0634203478693962,-0.8890995383262634
1783201253113111300,3.759111328125,-0.4557314783181995,0.3930263811454176,1.7909814997404814,0.4800545573234558,0.0204485431313514,-0.8859056830406189
1783201253123048200,3.769048095703125,-0.3810546421922743,0.4487289791449904,2.0289649109512564,0.4455280303955078,-0.0291565619409084,-0.8792288899421692
1783201253132985300,3.7789853515625,-0.2993982493773102,0.4824088381677865,2.250030505108833,0.4207714200019836,-0.1009679809212684,-0.8590272665023804
1783201253142922500,3.788922607421875,-0.1488951148293912,0.5256318938225507,2.4323528193742034,0.4155151546001434,-0.1704402565956115,-0.8194191455841064
1783201253152859400,3.798859375,-0.0046178690589964,0.5516235364302993,2.600494048073888,0.4054258167743683,-0.235317587852478,-0.770443320274353
1783201253162796300,3.80879638671875,0.0727943833801895,0.547582444345951,2.8450919089883566,0.3568359315395355,-0.3433889150619507,-0.7237657904624939
1783201253172733200,3.818733154296875,0.0769600334259681,0.5920572536274791,2.997601268792152,0.2558287978172302,-0.5012860894203186,-0.6817326545715332
1783201253182669300,3.82866943359375,0.0291420694626867,0.618723142234981,3.007745646187663,0.092970386147499,-0.6799564957618713,-0.6600468158721924
1783201253192606500,3.8386064453125,-0.0932449776694178,0.6351280413299799,2.9029058000534773,-0.0981746986508369,-0.8608826994895935,-0.6742660999298096
1783201253202543400,3.84854345703125,-0.2862082206755876,0.6601192747235298,2.549821845456957,-0.2777817547321319,-1.0022300481796265,-0.71832674741745
1783201253212480300,3.858480224609375,-0.3474227139644325,0.5766325977414846,2.0390625265955924,-0.4068754613399505,-1.072967290878296,-0.7878455519676208
1783201253222417400,3.86841748046875,-0.3173384682808071,0.5332248331695795,1.4023738118201494,-0.479912668466568,-0.974553406238556,-0.867697536945343
1783201253232354300,3.878354248046875,-0.3252036486979573,0.6129644325777888,0.85269936363101,-0.531223714351654,-0.8184917569160461,-0.940252959728241
1783201253242291500,3.88829150390625,-0.3601693828128278,0.6742214498341084,0.3295996186345815,-0.5763272643089294,-0.6967634558677673,-0.9900785684585572
1783201253252228400,3.898228271484375,-0.2934207093376666,0.6091574415102601,-0.4383925863087177,-0.6166974306106567,-0.6055333018302917,-0.9996001720428468
1783201253262165200,3.908165283203125,-0.1106055517877452,0.5035033563837409,-1.0300567489653825,-0.6406282782554626,-0.5287210941314697,-0.9851786494255066
1783201253272102400,3.918102294921875,0.1271536770120263,0.4712637592971325,-1.4434019877791404,-0.6326947212219238,-0.4590047001838684,-0.953203558921814
1783201253282038500,3.92803857421875,0.3253426187772303,0.4608458256572484,-1.80976452614367,-0.5868521332740784,-0.3942206501960754,-0.9089477062225342
1783201253291975200,3.93797509765625,0.5025395163202658,0.4562134896814823,-2.135594563111663,-0.5142954587936401,-0.338794082403183,-0.8663510680198669
1783201253301912300,3.947912353515625,0.6006521365586668,0.4913926473513245,-2.3304618861734867,-0.4433203041553497,-0.3150714337825775,-0.8160487413406372
1783201253311849500,3.957849365234375,0.6335280587874352,0.4697437101230025,-2.4417484242290257,-0.3813681304454803,-0.310297280550003,-0.7668835520744324
1783201253321786400,3.967786376953125,0.5836245755206794,0.3367234791651368,-2.5283354053139684,-0.3167923390865326,-0.303799957036972,-0.725001871585846
1783201253331723500,3.9777236328125,0.4440338070660829,0.1406537945762276,-2.5426170286446808,-0.2395954132080078,-0.2903258204460144,-0.7113634943962097
1783201253341660200,3.98766015625,0.2437785073556005,0.0022428104907274,-2.538308517795801,-0.1425727158784866,-0.2715393602848053,-0.723522424697876
1783201253351597300,3.997597412109375,0.0196847610158845,-0.0662090867057442,-2.478943305635452,-0.0228267535567283,-0.241676926612854,-0.7550593614578247
1783201253361534500,4.007534423828125,-0.1902536552539095,-0.0406631420388817,-2.325151504805684,0.105977825820446,-0.1846748888492584,-0.7994438409805298
1783201253371470300,4.01747021484375,-0.3548830033751204,0.0395762235850095,-2.106757175683975,0.2184953689575195,-0.1193025708198547,-0.8341415524482727
1783201253381407200,4.0274072265625,-0.4557942048234865,0.0953457493409514,-1.86694538000226,0.2844301760196686,-0.0420924723148345,-0.8538870215415955
1783201253391344400,4.037344482421875,-0.4848358826516196,0.1209291034087538,-1.5648697281092403,0.3006436228752136,0.0291152130812406,-0.8570582270622253
1783201253401281300,4.04728125,-0.4440018775578588,0.1447454478040337,-1.2444745756715536,0.2857240736484527,0.0849079042673111,-0.8499560952186584
1783201253411218400,4.057218505859375,-0.4148059590160846,0.1807005582824349,-0.9498609302222728,0.2570958137512207,0.1256048381328582,-0.8334338665008545
1783201253421155300,4.0671552734375,-0.4234071986228227,0.2302194992110133,-0.6504816778063773,0.235319122672081,0.1532375365495681,-0.8294095396995544
1783201253431092200,4.07709228515625,-0.4326440692519769,0.3141942519709467,-0.3607476210922002,0.2354611605405807,0.1710643619298935,-0.8161163926124573
1783201253441029400,4.087029296875,-0.3451120989345014,0.3610731997847556,-0.0960334393441677,0.242424800992012,0.1819337755441665,-0.7912190556526184
1783201253450966300,4.09696630859375,-0.1887985610747709,0.3511903959348798,0.1821697540521621,0.2445121556520462,0.1625158339738845,-0.7607081532478333
1783201253460903400,4.1069033203125,-0.0770671287959441,0.3430439143583178,0.4359703275978565,0.242861270904541,0.1321241110563278,-0.7363338470458984
1783201253470840300,4.11684033203125,-0.0323594240739941,0.3135463094562292,0.6483166087269783,0.2267810404300689,0.091005802154541,-0.7109832763671875
1783201253480776200,4.126776123046875,-0.0523160288677783,0.2164183528736233,0.8540566234588622,0.2022269666194915,0.0166530162096023,-0.6906359195709229
1783201253490713300,4.13671337890625,-0.1177470758391544,0.1361485921114683,0.9784674315035342,0.1804556250572204,-0.0484215915203094,-0.6799702048301697
1783201253500650500,4.146650390625,-0.1924365887835621,0.0911605726107954,1.124130286413431,0.1644090116024017,-0.0934204906225204,-0.6840137243270874
1783201253510587100,4.156587158203125,-0.2362774475431069,0.0672957128986716,1.3239537705779074,0.1524475067853927,-0.1298302412033081,-0.7031350135803223
1783201253520524300,4.166524169921875,-0.2962539965348318,0.0572699934467673,1.4009317963182926,0.1604550927877426,-0.1332840919494629,-0.7200572490692139
1783201253530461200,4.176461181640625,-0.3188510648008436,0.0064054831281304,1.5211469062387943,0.1617407649755478,-0.1255014240741729,-0.732563316822052
1783201253540398300,4.1863984375,-0.3763471220884472,-0.0897115428462624,1.6626503033816813,0.1573260426521301,-0.1479851603507995,-0.743619978427887
1783201253550335500,4.19633544921875,-0.5002248461697251,-0.1610275973021984,1.6857231359332798,0.1337262839078903,-0.1846274435520172,-0.7697542309761047
1783201253560272100,4.206272216796875,-0.6009788112297654,-0.1380202312022447,1.8035317692339417,0.0921937525272369,-0.2405996322631836,-0.8042275309562683
1783201253570209300,4.216209228515625,-0.599098185114935,-0.0820244954749941,1.9321663324534888,0.03293127566576,-0.3266882300376892,-0.8386512994766235
1783201253580145400,4.2261455078125,-0.5214771852958947,-0.0003577273964881,1.9482816009521484,-0.0409109890460968,-0.4154423475265503,-0.8543136119842529
1783201253590082300,4.236082275390625,-0.3527203454485162,0.0584407907918095,1.8982289915382864,-0.1176752597093582,-0.4861916005611419,-0.8424200415611267
1783201253600019200,4.246019287109375,-0.183631533700414,0.0778176914349198,1.7983406303316354,-0.1915819644927978,-0.5684744715690613,-0.8269180059432983
1783201253609956400,4.255956298828125,-0.0923320640755817,0.1913601917237043,1.6009353132247923,-0.2815635800361633,-0.6715696454048157,-0.8226556181907654
1783201253619893200,4.265893310546875,-0.1808467252874746,0.3337275122195482,1.2381640773504972,-0.3656928241252899,-0.7758907675743103,-0.8354939222335815
1783201253629830400,4.275830322265625,-0.3924157019011676,0.3196107240617275,0.7225456280201673,-0.4245238602161407,-0.7861853241920471,-0.8814094066619873
1783201253639767300,4.285767333984375,-0.5451380103358998,0.2726514044880866,0.2838525974601507,-0.4545267820358276,-0.706556499004364,-0.9581350684165956
1783201253649704200,4.2957041015625,-0.6572491261146962,0.3617877777948975,-0.0878068782687187,-0.4483722746372223,-0.579471230506897,-1.0350548028945925
1783201253659641300,4.305641357421875,-0.6887146700888872,0.4891507136434316,-0.5447153644770384,-0.4149530529975891,-0.444227933883667,-1.0839695930480957
1783201253669578200,4.315578125,-0.5345315318539738,0.6061576751723885,-1.0031430230766534,-0.3878696262836456,-0.3221367001533508,-1.088631510734558
1783201253679515400,4.325515380859375,-0.1687288375956006,0.6890788272261619,-1.2478525276720522,-0.3796497583389282,-0.2633684575557709,-1.0502336025238037
1783201253689451300,4.335451171875,0.2443766011129133,0.7352355982452631,-1.496607508265972,-0.3909378051757812,-0.2476566582918167,-0.9826074242591858
1783201253699388200,4.34538818359375,0.5606538516366854,0.7830252311632037,-1.7034522693693637,-0.4083911180496216,-0.2159930169582367,-0.8949267864227295
1783201253709325300,4.3553251953125,0.7287985509350895,0.8029033593267202,-1.8150883515149356,-0.4098723232746124,-0.1736456304788589,-0.8070719838142395
1783201253719262500,4.365262451171875,0.8200473863512278,0.7656380430325865,-2.0030513020157814,-0.370075911283493,-0.1236764714121818,-0.7386891841888428
1783201253729199400,4.375199462890625,0.82295940134041,0.7438415140271186,-2.236106609174609,-0.2877709865570068,-0.0529955402016639,-0.6902347803115845
1783201253739136300,4.38513623046875,0.7997850081104785,0.7573419238522648,-2.3497364954859017,-0.1629869937896728,0.0436535030603408,-0.6526777744293213
1783201253749073200,4.3950732421875,0.8099513781420886,0.772765118433535,-2.3248335248976946,-0.0177199896425008,0.122660331428051,-0.6173952221870422
1783201253759010300,4.40501025390625,0.7935024937748909,0.804988641168177,-2.20132288056314,0.1199342757463455,0.164241075515747,-0.5800822377204895
1783201253768947500,4.414947509765625,0.8067533127531409,0.8136176455646753,-1.9631617746979,0.2231822907924652,0.1637719273567199,-0.543899655342102
1783201253778884400,4.42488427734375,0.831761935672909,0.7951996530815959,-1.650526734867692,0.2916899919509887,0.1644920408725738,-0.5057740807533264
1783201253788821200,4.4348212890625,0.7942921097826212,0.7289271457508206,-1.2516285390794275,0.3185823261737823,0.1790102273225784,-0.4669955372810364
1783201253798757400,4.44475732421875,0.7545783774230629,0.6579945376545191,-0.8364291968315839,0.3136866390705108,0.1864865124225616,-0.4442689120769501
1783201253808694300,4.4546943359375,0.6332691155903041,0.5908353106170893,-0.4897176998764276,0.2805865705013275,0.1905320286750793,-0.4403844475746155
1783201253818631400,4.46463134765625,0.4872455010766163,0.5406678426519036,-0.1642635104835033,0.235805481672287,0.195114254951477,-0.4318495690822601
1783201253828568300,4.474568359375,0.4258748673779889,0.499456126819551,0.1221779344260692,0.196122333407402,0.2029209733009338,-0.4161354005336761
1783201253838505200,4.484505126953125,0.424126781601645,0.4433037392258643,0.3919382936477661,0.1618434488773346,0.2072044014930725,-0.3964594304561615
1783201253848442400,4.4944423828125,0.4330447224747389,0.4044514460012317,0.6385989323109388,0.1350589096546173,0.2094445377588272,-0.370496392250061
1783201253858379300,4.504379150390625,0.4510186609847471,0.3625988019168377,0.8851789069533348,0.1187774091958999,0.2091225683689117,-0.3459649384021759
1783201253868316400,4.51431640625,0.529384999278374,0.3011886399254203,1.15645317786932,0.1038494035601615,0.1910834908485412,-0.3155049383640289
1783201253878253300,4.52425341796875,0.6811911427162587,0.2101031783774495,1.4316197800487278,0.1000109910964965,0.1547939181327819,-0.2809927463531494
1783201253888190200,4.534190185546875,0.8631479846701026,0.120322661948204,1.622833256778121,0.1018452644348144,0.0889580249786377,-0.2402899414300918
1783201253898126300,4.544126220703125,1.012073713833466,0.0189943310663104,1.7978519700318574,0.09623584151268,0.0098027493804693,-0.1969677656888961
1783201253908063500,4.5540634765625,1.0415748258668929,-0.0675558251395821,1.9985954916507005,0.0454255491495132,-0.1071978509426117,-0.1810887455940246
1783201253918000000,4.564000244140625,0.8751995839264244,-0.0691828418195247,2.14458860142827,-0.0358871519565582,-0.2383923679590225,-0.1845415383577346
1783201253927937300,4.573937255859375,0.6713561235308647,-0.0580731265231967,2.1553081483632326,-0.12366334348917,-0.3505281507968902,-0.1936256289482116
1783201253937874400,4.58387451171875,0.5977787365468219,-0.1320943482846021,2.122934403502941,-0.1775497496128082,-0.4156501889228821,-0.201243057847023
1783201253947811300,4.593811279296875,0.6434439611893147,-0.2679544788435101,2.037422942695021,-0.1962837129831314,-0.4204764366149902,-0.1988153159618377
1783201253957748500,4.60374853515625,0.8257590419963001,-0.4251382601991295,2.058020909565687,-0.1925235986709594,-0.4267343282699585,-0.1884420365095138
1783201253967685000,4.61368505859375,0.9756673524562268,-0.5275748445838689,2.0459417647153137,-0.187110349535942,-0.4788201749324798,-0.1815638691186905
1783201253977622300,4.623622314453125,1.018822822767496,-0.4875070380896329,1.9773866994053124,-0.2132268995046615,-0.5789268612861633,-0.1883394867181778
1783201253987559400,4.633559326171875,0.9589970804233104,-0.3206561414614319,1.9219746087849137,-0.261305034160614,-0.7125202417373657,-0.1917335987091064
1783201253997496300,4.643496337890625,0.9165997350029648,-0.2117000921800732,1.7397306204527616,-0.3422443568706512,-0.8559134006500244,-0.1881553679704666
1783201254007433500,4.65343359375,0.8988589111290871,-0.1784320288285613,1.4811901589035987,-0.4227111637592315,-1.0164098739624023,-0.1766440570354461
1783201254017369300,4.663369384765625,0.9486896214205772,-0.1467430513620376,1.0954489663302898,-0.4906420111656189,-1.176478147506714,-0.1609553694725036
1783201254027306200,4.67330615234375,1.061286438357085,-0.1502744403585791,0.616744243377447,-0.5514180064201355,-1.331762194633484,-0.151940569281578
1783201254037243100,4.6832431640625,1.138586754854396,-0.1008536991074681,0.1249526598364114,-0.6318371891975403,-1.495395541191101,-0.1666478812694549
1783201254047180300,4.69318017578125,1.0442550779268145,0.0485071335375308,-0.4940636201262474,-0.7443512082099915,-1.630497932434082,-0.2097716480493545
1783201254057117200,4.7031171875,0.8332880492616445,0.2319964457556605,-1.2117144618421791,-0.874610424041748,-1.6310924291610718,-0.2879346311092376
1783201254067054300,4.713054443359375,0.5364454026512802,0.291357712393254,-1.8641940354675053,-0.9905988574028016,-1.4842169284820557,-0.367980033159256
1783201254076991200,4.7229912109375,0.1026142790392041,0.2036918500304222,-2.4569968467652794,-1.040913462638855,-1.1569461822509766,-0.4100542366504669
1783201254086928100,4.73292822265625,-0.0432364996582269,0.142385732935369,-3.136975837212801,-1.0273747444152832,-0.7459738850593567,-0.4309068918228149
1783201254096865300,4.742865234375,-0.1176330575380474,0.1694385750338435,-3.492020862749219,-0.965376615524292,-0.44198739528656,-0.4257627129554748
1783201254106802200,4.75280224609375,-0.11369067658782,0.3969206121049821,-4.178245469588041,-0.8493868112564087,-0.2029239982366562,-0.3887926042079925
1783201254116739300,4.7627392578125,0.2144100087258964,0.4743970888867974,-4.457627059113979,-0.6761007905006409,0.0092223398387432,-0.3269194066524505
1783201254126675200,4.77267529296875,0.6324683206014334,0.4452729934722185,-4.425463742133974,-0.4577565193176269,0.149064689874649,-0.2689012289047241
1783201254136612000,4.782612060546875,0.8965187046784907,0.5187674148805439,-4.28889780139327,-0.2413501888513565,0.218276247382164,-0.229420930147171
1783201254146549200,4.79254931640625,1.0130202739685774,0.657469490867108,-4.064554793000221,-0.047717485576868,0.2389442175626754,-0.1822672486305236
1783201254156486400,4.802486328125,1.1041160377148538,0.7253057403832673,-3.718476917773485,0.1074428036808967,0.226853996515274,-0.1334909200668335
1783201254166423300,4.81242333984375,1.1523045337572693,0.7249664254263043,-3.431951886233687,0.2250602394342422,0.240005761384964,-0.0871561765670776
1783201254176360200,4.822360107421875,1.1411170039843768,0.7356685828350484,-3.027005057930946,0.3250219821929931,0.2616671025753021,-0.0505270659923553
1783201254186297000,4.832297119140625,1.0997854611646385,0.807133544242382,-2.6965321635931727,0.4234914183616638,0.322175532579422,-0.0148774404078722
1783201254196234200,4.842234130859375,1.0938285985868423,0.8546009594686329,-2.356507597056031,0.5324323177337646,0.3847712576389313,0.0335785076022148
1783201254206171400,4.85217138671875,1.1618235457960515,0.868070828025043,-1.9723212327092885,0.6393189430236816,0.4328259825706482,0.0778200849890708
1783201254216108300,4.8621083984375,1.2630801996812224,0.92631112780869,-1.540461263039708,0.7262764573097229,0.4560029506683349,0.1196410357952117
1783201254226045200,4.872045166015625,1.3463371595606206,0.9765183432623744,-1.101334517237544,0.797420859336853,0.4488151669502258,0.1631154268980026
1783201254235982000,4.881982177734375,1.4009490397140385,0.9979333256043492,-0.6764677674561739,0.8472957015037537,0.4228525459766388,0.2001517415046692
1783201254245918200,4.891918212890625,1.4280746547877787,1.0447283945269883,-0.2614046188086271,0.8962067365646362,0.3759187757968902,0.2356276512145996
1783201254255855400,4.90185546875,1.436547007317841,1.1340703734084965,0.1368757373422384,0.9399025440216064,0.3239858150482178,0.2750557363033294
1783201254265792300,4.911792236328125,1.4508065649472175,1.256293900541961,0.5645107827931642,0.9821704030036926,0.294087290763855,0.3160935044288635
1783201254275729200,4.921729248046875,1.466461668588221,1.3826535045668482,1.0030109211295843,0.9997243285179138,0.2782886028289795,0.3593336641788482
1783201254285666300,4.931666259765625,1.4928747514784335,1.5173565740451216,1.4846914450228212,0.9919373989105223,0.2810763120651245,0.4081408977508545
1783201254295603200,4.941603271484375,1.522499782152474,1.6206588353484868,1.908987116917968,0.9530126452445984,0.2948565781116485,0.4632920324802398
1783201254305540400,4.951540283203125,1.528091903071105,1.6778458266869187,2.2344296158730983,0.8936226963996887,0.2692725360393524,0.5105446577072144
1783201254315477200,4.961477294921875,1.4423632923811671,1.6844319270789625,2.414617840719223,0.8191987872123718,0.2439597398042678,0.5588280558586121
1783201254325414100,4.9714140625,1.3616910882979631,1.6431126592189074,2.60017314555645,0.7475612759590149,0.2235553860664367,0.6060268878936768
1783201254335351300,4.981351318359375,1.2824978707261383,1.6355343329191208,2.827808765754104,0.6766804456710815,0.1650097668170929,0.6517941355705261
1783201254345288200,4.9912880859375,1.2077390554051846,1.6789593408867716,2.91185249209702,0.6155694127082825,0.0744082033634185,0.6949740052223206
1783201254355225300,5.001225341796875,1.1648667859494686,1.7094295902132988,2.864925321227312,0.5621253848075867,-0.0239814836531877,0.7326316237449646
1783201254365161200,5.0111611328125,1.1065000102419404,1.755964254634082,2.8183237290501597,0.5018707513809204,-0.128308817744255,0.762461245059967
1783201254375098000,5.02109814453125,1.0361233555279672,1.8398130429267885,2.770810282725096,0.4234212040901184,-0.2545029819011688,0.779714822769165
1783201254385035300,5.03103515625,0.8548957776967435,1.9430852013528344,2.623312029081583,0.3265217244625091,-0.3986169099807739,0.7823677062988281
1783201254394972400,5.040972412109375,0.6927322351671755,1.994658152201772,2.3103864818722006,0.2116223126649856,-0.4946973621845245,0.7945801615715027
1783201254404909000,5.050908935546875,0.6644006053045391,1.890096246226132,2.07812027926445,0.0887194946408271,-0.5453464388847351,0.8064877986907959
1783201254414846200,5.06084619140625,0.5643806536074727,1.8138968036428091,1.791302986779809,-0.0453301891684532,-0.592657744884491,0.7986264228820801
1783201254424783000,5.070783203125,0.3764372115246951,1.7833213403761383,1.3602823905438184,-0.1973386406898498,-0.6580080389976501,0.7601829171180725
1783201254434720300,5.08072021484375,0.1778989448651671,1.7607570418685674,0.8016974906682968,-0.3648538589477539,-0.7211827635765076,0.7034466862678528
1783201254444657400,5.090657470703125,0.0020559096165001,1.6872405547589062,0.1238712943404912,-0.5363423824310303,-0.7057058811187744,0.6427538394927979
1783201254454594000,5.100593994140625,-0.0974668331481516,1.4541291334986686,-0.5794429789870977,-0.6545100212097168,-0.5730812549591064,0.5912975668907166
1783201254464531200,5.11053125,-0.1847632776767015,1.169427225732803,-1.372694712871313,-0.6925460696220398,-0.3424358069896698,0.5499316453933716
1783201254474468400,5.12046826171875,-0.3448598777391016,1.0050547019168734,-2.166282546842098,-0.6621271967887878,-0.0573348104953765,0.5266566872596741
1783201254484404200,5.130404296875,-0.4431022253043949,1.0133610502302646,-2.759022814297676,-0.5870586633682251,0.2350657433271408,0.5119885206222534
1783201254494341000,5.140341064453125,-0.4526879459038376,1.0529556862547993,-3.1201649876654147,-0.4902653098106384,0.4939377903938293,0.5145584940910339
1783201254504278300,5.1502783203125,-0.3691979079209267,1.058541961954534,-3.316308322012424,-0.3936752080917358,0.6934738755226135,0.5346750020980835
1783201254514215200,5.160215087890625,-0.1906486824534833,0.9510051318213344,-3.406744379740953,-0.3113752603530884,0.8323177695274353,0.570944607257843
1783201254524152300,5.17015234375,-0.025355171335116,0.7975465084686875,-3.3978421113610264,-0.2165281176567077,0.9273742437362672,0.6113647818565369
1783201254534089200,5.180089111328125,0.0317803090117871,0.6852987241655588,-3.315063290387392,-0.0995610132813453,1.0173791646957395,0.6602768898010254
1783201254544026000,5.190026123046875,0.052910044671595,0.5800289621815085,-3.060855889606476,0.0340544544160366,1.101816177368164,0.6950539350509644
1783201254553963300,5.19996337890625,0.0473535065229982,0.4675780565217137,-2.601259771749377,0.1706956624984741,1.134090542793274,0.7123035192489624
1783201254563900200,5.209900146484375,-0.0509923014167696,0.3914809052690863,-2.15827868860662,0.2779697775840759,1.1098264455795288,0.7029024958610535
1783201254573837300,5.21983740234375,-0.0912521233517676,0.3204439600154757,-1.7266618800431488,0.3473682999610901,1.0320250988006592,0.691650927066803
1783201254583774200,5.229774169921875,-0.045491658173874,0.2342155831098556,-1.305688630568981,0.385901927947998,0.9482428431510924,0.6853281259536743
1783201254593711000,5.239711181640625,0.0149952514927834,0.1476835470825433,-0.943857305893302,0.4162971377372741,0.8888764381408691,0.683168888092041
1783201254603647200,5.249647216796875,-0.0171968531902879,0.1542789998248219,-0.6079051033616065,0.4321298003196716,0.8541044592857361,0.6924582719802856
1783201254613584400,5.25958447265625,-0.1088818515339866,0.1960956958130001,-0.267555542653799,0.4277155995368957,0.8385465145111084,0.702663779258728
1783201254623521000,5.26952099609375,-0.14102474678047,0.18709727358222,0.047397126469016,0.401475042104721,0.8160269260406494,0.7146259546279907
1783201254633458200,5.279458251953125,-0.1314445791389793,0.182720081411302,0.3195744837045669,0.3514278531074524,0.7806326746940613,0.7212809324264526
1783201254643395000,5.28939501953125,-0.1292107191396877,0.232124163788557,0.6429740786552429,0.2937779724597931,0.7326290607452393,0.729092538356781
1783201254653332200,5.299332275390625,-0.1236274756472557,0.3079822455883026,0.9964134225606918,0.2412217855453491,0.65203857421875,0.7335394620895386
1783201254663269400,5.309269287109375,-0.0815746876145713,0.4109104128822684,1.2962988709330558,0.1936875581741333,0.5221309065818787,0.751358151435852
1783201254673206000,5.3192060546875,0.0421129207220859,0.5196177480995655,1.5439660562902688,0.1418075859546661,0.3355493247509002,0.784249484539032
1783201254683143200,5.32914306640625,0.2086413987291976,0.551946484774351,1.6350363202691076,0.0908720046281814,0.1163258850574493,0.827659547328949
1783201254693080000,5.339080078125,0.352303325612843,0.5455594140857458,1.61418116376698,0.0619538091123104,-0.0842935144901275,0.8736704587936401
1783201254703017200,5.349017333984375,0.3916766470368951,0.6253565889000893,1.5772200911164282,0.0692038461565971,-0.2366866469383239,0.909657657146454
1783201254712954400,5.358954345703125,0.276927876230888,0.7583546080261468,1.4606769477069377,0.1058870255947113,-0.3145358860492706,0.9444920420646667
1783201254722890200,5.36889013671875,0.142100157459639,0.8848132885113358,1.4042442818671463,0.1454389989376068,-0.3204351365566253,0.9765067100524902
1783201254732827100,5.3788271484375,0.0682214859740808,0.9566071896120906,1.440166659119725,0.1639271974563598,-0.3090658485889435,1.0016299486160278
1783201254742764300,5.388764404296875,-0.0007965206725522,0.9912012408703564,1.433456347826123,0.138287752866745,-0.330681562423706,1.0254472494125366
1783201254752701200,5.398701171875,-0.0717417325221002,0.9377952293753624,1.2560861030101775,0.0757095888257026,-0.3721488416194916,1.0504995584487915
1783201254762638000,5.40863818359375,-0.1702110207110643,0.7273246789902448,0.9798439805537462,-0.0009392499923706,-0.3974347114562988,1.0702083110809326
1783201254772575200,5.4185751953125,-0.3526847992110997,0.5313394578143954,0.6898731924742459,-0.0667819082736969,-0.3833673596382141,1.0652166604995728
1783201254782512000,5.42851220703125,-0.62094432541579,0.4439101806864142,0.4117138382196426,-0.0965766683220863,-0.2985863983631134,1.0395387411117554
1783201254792449300,5.43844921875,-0.8111178646381944,0.433677248224616,0.2375689851909875,-0.0963135510683059,-0.1493340581655502,0.999602198600769
1783201254802386200,5.44838623046875,-0.8814405972078442,0.4312541127309203,0.157535079011321,-0.0840414389967918,-0.009058971889317,0.9394078850746156
1783201254812323000,5.458322998046875,-0.9071591950278728,0.4054237981647253,0.0652174453198909,-0.0813987851142883,0.0583866462111473,0.8689968585968018
1783201254822260200,5.46826025390625,-0.8976508505135774,0.4006131830126047,-0.1053834514915943,-0.0903753116726875,0.0575833208858966,0.7961865067481995
1783201254832197000,5.478197021484375,-0.8292195577137171,0.4490080883473157,-0.3386205449581146,-0.1057396233081817,0.0658676177263259,0.7397903203964233
1783201254842134300,5.48813427734375,-0.6344680430512875,0.4161848461538553,-0.4642413133144378,-0.1200783103704452,0.0760994106531143,0.7095330953598022
1783201254852070100,5.498070068359375,-0.4648374525766819,0.4004249669641256,-0.6374550229728222,-0.139351338148117,0.0891036242246627,0.6911211013793945
1783201254862007000,5.508007080078125,-0.4822773207426071,0.5261828057035803,-0.8697755861163139,-0.1738192737102508,0.1264452338218689,0.6854901909828186
1783201254871944200,5.517944091796875,-0.5952725624121725,0.5888491052359343,-1.1209779598623513,-0.2104856818914413,0.2283588051795959,0.6855469346046448
1783201254881881300,5.52788134765625,-0.631704642752558,0.4435290724143386,-1.3014134374678137,-0.2318415641784668,0.3940615057945251,0.6893765926361084
1783201254891818200,5.537818359375,-0.6487396564446389,0.249853004963696,-1.372352183043957,-0.2227013260126114,0.6119869351387024,0.6699722409248352
1783201254901755100,5.547755126953125,-0.7558812767151742,0.1634536554053425,-1.413741593530774,-0.1809564679861068,0.8188045024871826,0.6392096281051636
1783201254911692000,5.557692138671875,-0.8985924422126262,0.1434367032930255,-1.4090221637934446,-0.1160118207335472,0.9601174592971802,0.6033227443695068
1783201254921629200,5.567629150390625,-0.9239628111168742,0.1517646789163351,-1.3272586573421954,-0.0328135602176189,1.014853835105896,0.5779786705970764
1783201254931566300,5.57756640625,-0.8098986981067806,0.1092903958022594,-1.1828431721448898,0.0553855411708354,1.0097941160202026,0.570608913898468
1783201254941503200,5.587503173828125,-0.6223016583088785,0.0390992537230253,-0.9709674311369656,0.1411276906728744,0.9536398649215698,0.5779460072517395
1783201254951440100,5.597440185546875,-0.4812097645763307,-0.0196069100067019,-0.7155547462195158,0.210533395409584,0.8445426225662231,0.584639310836792
1783201254961377000,5.607376953125,-0.3940905032455921,-0.0789028563231229,-0.5478466482400893,0.2495611011981964,0.7128762006759644,0.5896713733673096
1783201254971313200,5.617313232421875,-0.3519530508704483,-0.105865097528696,-0.4181885871917009,0.265499860048294,0.5944473147392273,0.6007445454597473
1783201254981250300,5.627250244140625,-0.2890344205448403,-0.1638017381906509,-0.3765717976897955,0.2728259563446045,0.5170468091964722,0.6183463931083679
1783201254991187200,5.637187255859375,-0.3068620459193363,-0.2481418171316385,-0.4042617686480284,0.2783067524433136,0.5001354813575745,0.6371427178382874
1783201255001124000,5.6471240234375,-0.4316843573743477,-0.2826818001151084,-0.3864022868305444,0.2745871841907501,0.5269288420677185,0.6562548875808716
1783201255011061200,5.657061279296875,-0.5686417451180518,-0.2871107224732637,-0.3197071701735258,0.2600106596946716,0.5762768983840942,0.674086332321167
1783201255020998000,5.666997802734375,-0.6631655105516314,-0.3257148861557245,-0.2341062775164842,0.2441966533660888,0.6047585606575012,0.6756417751312256
1783201255030935000,5.67693505859375,-0.7654653898794204,-0.3571142330259084,-0.2293383324623107,0.2385909706354141,0.6517090201377869,0.6660407781600952
1783201255040872000,5.686871826171875,-0.8361765372447669,-0.3254132728606462,-0.1099567507565021,0.2317471802234649,0.6889759302139282,0.6524909138679504
1783201255050808800,5.696808837890625,-0.8810504288464784,-0.2579217451289296,0.0820896696656942,0.231724351644516,0.6837092041969299,0.6377030611038208
1783201255060746000,5.70674609375,-0.9320851811654866,-0.1623798886939883,0.2200572938978671,0.2281126528978347,0.6505927443504333,0.6254239678382874
1783201255070683000,5.716682861328125,-0.9934602718435228,-0.0318625804677605,0.4478390445679426,0.2270926535129547,0.6094897985458374,0.6011955738067627
1783201255080620000,5.7266201171875,-1.0580566626556218,0.2053852099448442,0.764042590534687,0.2391638755798339,0.5631316304206848,0.5682353973388672
1783201255090557000,5.736556884765625,-1.085125359910354,0.4882756843745708,1.11667237162292,0.2625219225883484,0.5055319666862488,0.5343871712684631
1783201255100493000,5.7464931640625,-0.9811256178621202,0.7727887915700674,1.4623989491939544,0.2906644940376282,0.4003931283950805,0.5031393766403198
1783201255110430000,5.756429931640625,-0.7748678628664464,1.011517760451138,1.6866116092056036,0.3107500374317169,0.2742991149425506,0.4903588593006134
1783201255120367000,5.7663671875,-0.5480410017684102,1.2385539534509182,1.8466332443356512,0.3041436672210693,0.1539860218763351,0.48322194814682
1783201255130303700,5.7763037109375,-0.3561765137843787,1.401260882142186,2.0927409252911806,0.2344809472560882,0.0396056622266769,0.510509192943573
1783201255140241000,5.786240966796875,-0.2080724762674421,1.416653681585193,2.221067445474863,0.0810460895299911,-0.1028347611427307,0.5882684588432312
1783201255150178000,5.796177978515625,-0.0402007852241396,1.222227964811027,2.1536744096815585,-0.1333953738212585,-0.2873867750167846,0.7032549977302551
1783201255160115000,5.806114990234375,-0.0538069113129284,1.0134525279060005,1.762074554207921,-0.3676154315471649,-0.4414091110229492,0.8044390082359314
1783201255170052000,5.816052001953125,-0.3096345428399741,0.90401483258754,1.29614163454473,-0.5526337027549744,-0.530714750289917,0.8583608269691467
1783201255179988700,5.82598876953125,-0.6450684936512261,0.8187588078454137,0.7145604744851589,-0.6628380417823792,-0.5281338095664978,0.8504533767700195
1783201255189926000,5.83592578125,-0.9579775281172244,0.7354600546509027,0.0703226595044136,-0.6847209930419922,-0.4359677135944366,0.8005936741828918
1783201255199863000,5.845863037109375,-1.2294253289692103,0.6134484167024493,-0.5429565381109714,-0.6312429308891296,-0.2854417562484741,0.7332575917243958
1783201255209800000,5.855800048828125,-1.4212012618869545,0.4377975430250168,-1.1695113968849182,-0.5146902203559875,-0.0815464034676551,0.6608486175537109
1783201255219737000,5.865737060546875,-1.5254361278653144,0.3306231164634227,-1.659587993201613,-0.3756010830402374,0.1338215917348861,0.6003477573394775
1783201255229673000,5.8756728515625,-1.519251740141958,0.3309235607147217,-1.9326947402417656,-0.2328313887119293,0.2926346659660339,0.5634571313858032
1783201255239609900,5.88560986328125,-1.3865829529702662,0.4124798541560769,-2.1356565224319697,-0.1045820266008377,0.3565247356891632,0.5640760064125061
1783201255249547000,5.895547119140625,-1.065427337554097,0.4722708905130624,-2.2786083648175,0.0018570655956864,0.3616401255130768,0.6122552156448364
1783201255259484200,5.905484130859375,-0.724883496383205,0.5041925076916813,-2.3051813144445417,0.0782189518213272,0.3400643467903137,0.6815295219421387
1783201255269420800,5.9154208984375,-0.5237344261707738,0.5376636923998594,-2.323799505674839,0.1396080106496811,0.3404441177845001,0.7628923058509827
1783201255279358000,5.92535791015625,-0.4648837394038215,0.5424103024050593,-2.3296301115244624,0.2011171281337738,0.3797056674957275,0.8493171334266663
1783201255289294800,5.935294921875,-0.5323386249195784,0.5123401583120226,-2.256813881638646,0.2686980068683624,0.4409493207931518,0.9191537499427797
1783201255299232000,5.94523193359375,-0.6765642866332083,0.5287567478448152,-2.113249460312724,0.3232797682285309,0.4935936033725738,0.9664503931999208
1783201255309169200,5.955169189453125,-0.8827566482424736,0.5729612157523631,-1.9078537289738653,0.3688049018383026,0.4915941059589386,0.9944298267364502
1783201255319105800,5.965105712890625,-1.0537920640137046,0.5190542689979076,-1.743143059244752,0.3986659646034241,0.4376552402973175,0.9973072409629822
1783201255329043000,5.97504296875,-1.179972585144639,0.4543278220653534,-1.6286147627890109,0.4329834580421448,0.3886895775794983,0.9852732419967652
1783201255338979800,5.984979736328125,-1.2261527370393277,0.3148863258883357,-1.5232424172133203,0.4991557598114013,0.374833196401596,0.9635381698608398
1783201255348917000,5.9949169921875,-1.2194726016882806,0.132834937518835,-1.4071516937464474,0.5892763137817383,0.4236553311347961,0.9274845719337464
1783201255358854100,6.004854248046875,-1.2262844005949796,0.0614674451366066,-1.2379565720796584,0.6708300113677979,0.5249581336975098,0.895875871181488
1783201255368790000,6.0147900390625,-1.16289183261469,0.0899880217000842,-0.8775883056938648,0.7181088328361511,0.6301072239875793,0.8886110186576843
1783201255378727000,6.024726806640625,-1.0570656788568944,0.0965375894740223,-0.4526765477269888,0.7144272923469543,0.6838273406028748,0.914341926574707
1783201255388664000,6.0346640625,-0.97827738882415,0.0147667764991521,-0.0317173267781734,0.6686667203903198,0.6806456446647644,0.9676368832588196
1783201255398601000,6.04460107421875,-0.920463790019974,-0.14300854100883,0.3467635194033384,0.6126856803894043,0.6462931632995605,1.0259621143341064
1783201255408537900,6.054537841796875,-0.9091679045017808,-0.2739548883020877,0.7436632348507642,0.5611559152603149,0.5728825926780701,1.0643622875213623
1783201255418475000,6.06447509765625,-1.0275142979409546,-0.3770011290177703,1.044653429594636,0.5184875130653381,0.4731515347957611,1.0607662200927734
1783201255428412000,6.074411865234375,-1.1998629882678389,-0.4598541842713952,1.2748317200124264,0.4793305099010467,0.3674330711364746,1.0130761861801147
1783201255438349000,6.08434912109375,-1.3730612080961464,-0.4743573413982987,1.492765445885062,0.4329464733600616,0.2829456925392151,0.929301619529724
1783201255448286000,6.094285888671875,-1.494799435930699,-0.4857862056463956,1.6572528282523151,0.3663716912269592,0.1955740451812744,0.8239762187004089
1783201255458222800,6.104222900390625,-1.5712468619257212,-0.4270040540710091,1.7172727049291132,0.2906667590141296,0.088052213191986,0.7134397029876709
1783201255468160000,6.114159912109375,-1.559985024807602,-0.277175311653316,1.5962047775715589,0.2446247041225433,0.0472139678895473,0.6373260021209717
1783201255478097000,6.124096923828125,-1.360505093383789,-0.1960147395312786,1.605412166377902,0.2036123424768448,0.0466199778020381,0.5870723724365234
1783201255488034000,6.134033935546875,-1.1687594094738365,-0.0846434458017349,1.7202455832600592,0.142343670129776,0.0200368370860815,0.5641960501670837
1783201255497970000,6.143969970703125,-1.0708708437822758,0.0507362077638506,1.6193430765748025,0.0577206425368785,-0.0277373902499675,0.5699037909507751
1783201255507906800,6.15390673828125,-0.952425227752328,-0.0283183319896459,1.3966986887931825,-0.0337576083838939,-0.06134594976902,0.5904860496520996
1783201255517844000,6.163843994140625,-0.8888526270300149,-0.1880909607946872,1.216755963140726,-0.1078813076019287,-0.0825257450342178,0.5891141295433044
1783201255527781000,6.173781005859375,-0.9954844711475074,-0.2456540919691324,1.0580787283569573,-0.152196317911148,-0.1066723614931106,0.5639688372612
1783201255537718000,6.183718017578125,-1.1624158126007764,-0.2190384722441434,0.8516413790106773,-0.1666332632303238,-0.1632885187864303,0.4989224076271057
1783201255547655000,6.193655029296875,-1.3250674309082329,-0.1252022506833076,0.5800508817523717,-0.1622744649648666,-0.2534290850162506,0.4146173894405365
1783201255557591800,6.203591796875,-1.389988231369108,-0.0172296594813466,0.292882291612029,-0.1704794913530349,-0.3617688715457916,0.3234844207763672
1783201255567529000,6.213529052734375,-1.3990838303640485,0.103311905914545,-0.0142073890507221,-0.2301452159881591,-0.4463074505329132,0.215996578335762
1783201255577466000,6.223466064453125,-1.473822991136461,0.2434901919335126,-0.3160112382650375,-0.3263721168041229,-0.4721473157405853,0.1024936661124229
1783201255587403000,6.233403076171875,-1.5256486015722155,0.3226134130090475,-0.702003190729022,-0.4286143481731415,-0.3938109874725342,-0.003548878012225
1783201255597340000,6.24333984375,-1.4351095218606291,0.261289175735414,-1.0604600705355405,-0.5081056952476501,-0.2261325418949127,-0.0973445624113082
1783201255607276800,6.25327685546875,-1.2940123674310744,0.1841907384857535,-1.4161819724202156,-0.5356467962265015,-0.0031537800095975,-0.1665555834770202
1783201255617214000,6.2632138671875,-1.1424424804344773,0.1328945587515831,-1.7242676783829929,-0.5200929641723633,0.2352050989866256,-0.2102281898260116
1783201255627151000,6.273151123046875,-1.014841351915896,0.161608319799602,-1.8543547784984111,-0.4614671468734741,0.4405499994754791,-0.2129755169153213
1783201255637087000,6.2830869140625,-0.8649068110361695,0.2888295090898871,-1.874933456146717,-0.3730483651161194,0.5596953630447388,-0.156976968050003
1783201255647023900,6.29302392578125,-0.6620943741887807,0.358416840057075,-1.8547955080032348,-0.2727513313293457,0.5688883662223816,-0.0630395486950874
1783201255656961000,6.3029609375,-0.5477042440947145,0.4033338401481509,-1.8492782058864832,-0.1575827598571777,0.5147947669029236,0.0518160685896873
1783201255666898000,6.31289794921875,-0.50685025565885,0.365170113709569,-1.728728164923191,-0.0237538553774356,0.464245855808258,0.1582469046115875
1783201255676835000,6.3228349609375,-0.4750727231260389,0.2553355280280113,-1.4502444010198114,0.1256958097219467,0.4232780635356903,0.2489942759275436
1783201255686772000,6.33277197265625,-0.4775786780649796,0.1374298640936613,-1.1408990503847598,0.2481050789356231,0.3800954222679138,0.2982774078845978
1783201255696708900,6.342708984375,-0.6143962920118123,0.1401256790488958,-0.8667085997611284,0.3242713809013366,0.3457835018634796,0.3171679377555847
1783201255706646000,6.35264599609375,-0.7948026896532624,0.1525520299017429,-0.5302525393605232,0.3591827750205993,0.336603581905365,0.3279931545257568
1783201255716583000,6.3625830078125,-0.9332271908074616,0.0644438305988907,-0.1120528462529182,0.3646879196166992,0.329936683177948,0.3225093483924866
1783201255726520000,6.37252001953125,-1.0900336632832883,-0.04437777864784,0.3328267639875412,0.3454548418521881,0.299743115901947,0.2985835373401642
1783201255736457000,6.38245703125,-1.280535192351043,-0.0624462270408868,0.7216454643100499,0.3130289614200592,0.2496176958084106,0.2607359886169433
1783201255746393900,6.392393798828125,-1.337908061650395,-0.0834659264549613,1.0603209543257952,0.2977714538574219,0.2378419935703277,0.2226570397615432
1783201255756331000,6.4023310546875,-1.1575059017926457,-0.1487517608359456,1.3815806146383285,0.307483047246933,0.2284758687019348,0.2003363817930221
1783201255766268000,6.412267822265625,-0.932366774585843,-0.1863686670467257,1.6661708787232636,0.3201866149902344,0.1852573007345199,0.1851670145988464
1783201255776203800,6.422203857421875,-0.8496453828878701,-0.0202051681607961,1.9539719215482472,0.3230207562446594,0.1325455009937286,0.1782268732786178
1783201255786141000,6.432140869140625,-0.8446490359053015,0.1952767806455493,2.289496838578582,0.3045322895050049,0.0568270310759544,0.1705130338668823
1783201255796078000,6.442078125,-0.9067043639324605,0.3494885604530572,2.626116565108299,0.2486504465341568,-0.0591267272830009,0.1362814605236053
1783201255806015000,6.452014892578125,-1.003050376357138,0.5965890518382191,2.84816240247488,0.1488468796014785,-0.1702886521816253,0.0778530314564704
1783201255815952100,6.4619521484375,-0.9980861780785024,0.782084735442698,2.9709347956627608,0.0123789682984352,-0.2419553250074386,0.015856334939599
1783201255825888800,6.471888671875,-0.880378959325701,0.8627470026537776,3.0358839454352853,-0.1421946287155151,-0.2715489268302917,-0.0495610199868679
1783201255835826000,6.481825927734375,-0.7414882288992405,0.8067346080526709,2.894050877946615,-0.2920255959033966,-0.2337744832038879,-0.1119914203882217
1783201255845763000,6.49176318359375,-0.548049623466283,0.7865338238060474,2.7413001106023787,-0.4207540154457092,-0.1480790227651596,-0.1561122685670852
1783201255855700000,6.501699951171875,-0.3730390935190021,0.9020207361608744,2.6836715129762885,-0.5384377837181091,-0.0428513139486312,-0.1816027164459228
1783201255865637000,6.51163720703125,-0.2288145825828425,1.0667527409389614,2.7318746951311823,-0.6478034257888794,-0.0030607595108449,-0.1767240762710571
1783201255875573800,6.52157373046875,-0.0827490103572607,1.2103916888058184,2.6489333770722148,-0.752152681350708,-0.0533069483935833,-0.1541416347026825
1783201255885511000,6.531510986328125,0.1124530976168811,1.3032330541104078,2.4349223776012656,-0.8432354927062988,-0.1962950080633163,-0.1125616952776908
1783201255895448000,6.541447998046875,0.3016788345951586,1.3065423247888683,2.111985723987221,-0.9166573882102966,-0.3890498280525207,-0.0554081201553344
1783201255905385000,6.551385009765625,0.4404129496878012,1.195079261122644,1.7206056487441062,-0.972604274749756,-0.5813623070716858,0.0123554840683937
1783201255915320800,6.56132080078125,0.5008078336894511,0.9950362889885902,1.2103051795661448,-1.0084340572357178,-0.7242723107337952,0.0942394733428955
1783201255925258000,6.571258056640625,0.5446702832262963,0.6743345548197627,0.633119039595127,-1.0102570056915283,-0.7692075967788696,0.1879017651081085
1783201255935195000,6.58119482421875,0.4897675669001415,0.3488482167229056,0.1381961722910404,-0.9763622879981996,-0.721937894821167,0.2647152543067932
1783201255945132000,6.591132080078125,0.285013019541651,0.1124447681799531,-0.2903700165301561,-0.9250548481941224,-0.6383599042892456,0.3019150793552398
1783201255955069200,6.601069091796875,0.005868161381036,-0.0980196447253227,-0.7080506541997194,-0.880476713180542,-0.5597158670425415,0.3040633201599121
1783201255965005800,6.611005859375,-0.2612427062451839,-0.3531535127013921,-1.0907383044213057,-0.8461687564849854,-0.4961185157299042,0.2707378268241882
1783201255974943000,6.62094287109375,-0.492473062999174,-0.6579676496475935,-1.4796902757346628,-0.8279179930686951,-0.4344004392623901,0.2302162200212478
1783201255984879900,6.6308798828125,-0.6320213074862957,-0.9495406122267246,-1.8070903384983537,-0.8178824186325073,-0.3769195675849914,0.1752594858407974
1783201255994817000,6.640817138671875,-0.6794385268952697,-1.213535978180915,-2.1142858176231383,-0.7825278043746948,-0.3246792554855346,0.1256396472454071
1783201256004754200,6.650754150390625,-0.6400950891528279,-1.4869325019478796,-2.414064883011579,-0.7226876020431519,-0.2792188227176666,0.0690820962190628
1783201256014691600,6.660691650390625,-0.6107694067515432,-1.7014041046679018,-2.6207880635619163,-0.6322138905525208,-0.2461990118026733,0.0067619024775922
1783201256024628700,6.670628662109375,-0.6350096025820822,-1.831376053971052,-2.756514046347141,-0.5370575785636902,-0.2202291935682296,-0.0751593261957168
1783201256034565600,6.680565673828125,-0.6650573887128383,-1.8385696187369525,-2.8520371980816126,-0.4414843022823334,-0.2099979072809219,-0.1619857400655746
1783201256044502500,6.69050244140625,-0.6413803797230124,-1.738787786644697,-2.9262013354450462,-0.360590785741806,-0.1862736642360687,-0.2373585253953933
1783201256054439400,6.700439453125,-0.4974253516443073,-1.6588390745304524,-2.8962235458105803,-0.2834450304508209,-0.1342063844203949,-0.2875761985778808
1783201256064375600,6.71037548828125,-0.2961590482603758,-1.5517917814798652,-2.78749429102242,-0.2163043469190597,-0.0584447793662548,-0.3093944191932678
1783201256074312700,6.720312744140625,-0.0672022624615579,-1.394312085917592,-2.5545693322449923,-0.1503483206033706,0.002244149101898,-0.3061255216598511
1783201256084249600,6.73024951171875,0.0789322285480797,-1.208949088782072,-2.252175115922093,-0.0849962085485458,0.0368029251694679,-0.2933303415775299
1783201256094186500,6.7401865234375,0.1659050671454519,-1.002905268798023,-1.968189247471094,-0.021444259211421,0.0602015554904937,-0.2876976430416107
1783201256104123600,6.75012353515625,0.2902129993375391,-0.8219691481940448,-1.6795166825085877,0.0667202249169349,0.0993870347738266,-0.2801286876201629
1783201256114060500,6.760060546875,0.3978433529730886,-0.6419602254375815,-1.3532307184666394,0.1665653884410858,0.1467127799987793,-0.279233306646347
1783201256123997700,6.769997802734375,0.4149022589974105,-0.4311619044028222,-0.9234703514248132,0.2608298361301422,0.1831456273794174,-0.2827042043209076
1783201256133934600,6.7799345703125,0.4051875051908195,-0.1753413693368434,-0.4052969569146633,0.3472347557544708,0.2227830439805984,-0.2817734181880951
1783201256143871500,6.78987158203125,0.4387104200862348,0.021534224807471,0.2241658982604742,0.3930107653141022,0.2312420457601547,-0.2681928873062134
1783201256153808600,6.79980859375,0.5313768672153354,0.1800656213797628,0.8771288714885711,0.3870532810688019,0.2071819603443145,-0.2304584085941314
1783201256163745500,6.80974560546875,0.7170539718013257,0.2164073930881917,1.4071850114941595,0.3446983695030212,0.1405635178089141,-0.1542232930660247
1783201256173682700,6.8196826171875,0.9654042440518736,0.1412466459028422,1.7908873917162418,0.276473730802536,0.06256914883852,-0.0546236895024776
1783201256183619600,6.82961962890625,1.1754347955845297,-0.0032952421531081,2.086882262390852,0.2282342910766601,0.0102745182812213,0.0694308802485466
1783201256193556500,6.839556396484375,1.286412267690897,-0.126623661788553,2.4607927319169045,0.197546973824501,-0.0204334035515785,0.191534161567688
1783201256203492600,6.84949267578125,1.175054783290997,-0.1368544022932648,2.858441804426908,0.1636899411678314,-0.1081723123788833,0.2795050144195556
1783201256213429800,6.8594296875,0.8189673360295593,-0.0202237267307937,3.132042472463846,0.1193067207932472,-0.2345734983682632,0.3398413360118866
1783201256223366400,6.869366455078125,0.4370402949169278,-0.0554350331045687,3.204460058420896,0.046023454517126,-0.4261844754219055,0.3571127355098724
1783201256233303600,6.879303466796875,0.0408768578547984,-0.265354817739129,3.1068507480621337,-0.0718151628971099,-0.6785256266593933,0.3066966235637665
1783201256243240700,6.88924072265625,-0.290982376274839,-0.4598647056654095,2.7831583076447246,-0.2217849493026733,-0.9448577165603638,0.2006995975971222
1783201256253177600,6.899177490234375,-0.4607005719676613,-0.7009611343301833,2.328531210371852,-0.3814952969551086,-1.1710865497589111,0.0677426606416702
1783201256263114800,6.90911474609375,-0.553293223208189,-0.9761676301285624,1.7507143712818622,-0.5322131514549255,-1.3351536989212036,-0.0595897287130355
1783201256273051400,6.919051513671875,-0.60288654454723,-1.1906804416418075,0.9415566277354956,-0.6659999489784241,-1.3729759454727173,-0.1735970377922058
1783201256282988500,6.928988525390625,-0.5893035710051655,-1.2873776055917143,0.1818319003999233,-0.7663273215293884,-1.297232747077942,-0.2650121748447418
1783201256292925700,6.93892578125,-0.5726242388829589,-1.3102445403076708,-0.6626508390277623,-0.8203959465026855,-1.1002789735794067,-0.329641193151474
1783201256302862600,6.948862548828125,-0.5392435089372098,-1.388454738191515,-1.5543156008690595,-0.8208207488059998,-0.7796276807785034,-0.381081223487854
1783201256312799700,6.9587998046875,-0.5716263138867914,-1.450528770919144,-2.2645658109396694,-0.760746955871582,-0.3971106112003326,-0.4202784299850464
1783201256322736400,6.968736328125,-0.6071143913753331,-1.420457750043273,-2.752095645383,-0.6605843901634216,-0.0554323494434356,-0.4445052146911621
1783201256332673500,6.978673583984375,-0.6476856173470616,-1.3144094049021602,-3.1112662264168263,-0.5381092429161072,0.1816585958003997,-0.4608052968978882
1783201256342609700,6.988609619140625,-0.6148574067175387,-1.2023447220809758,-3.3147230986475944,-0.3927009105682373,0.2947659790515899,-0.4672072529792785
1783201256352546800,6.998546875,-0.4471330882556736,-1.177573561178893,-3.392330069941282,-0.2235660851001739,0.3371714055538177,-0.4773801565170288
1783201256362483500,7.0084833984375,-0.2254348952829837,-1.2008040685102344,-3.309249635672569,-0.0370361618697643,0.3550910055637359,-0.4932896196842193
1783201256372420600,7.018420654296875,-0.0678536390423774,-1.2013707624822854,-3.077756171002984,0.1496408581733703,0.3400881290435791,-0.5097761750221252
1783201256382357500,7.028357421875,-0.0007411737561225,-1.0983739138662814,-2.7818419643491503,0.3204046189785003,0.3050736784934997,-0.5148172974586487
1783201256392294700,7.038294677734375,0.0554686431132257,-1.002020302657038,-2.4449147793054578,0.4595298767089844,0.2942156195640564,-0.5090538263320923
1783201256402231800,7.048231689453125,0.1063403138250112,-0.9492712937660516,-1.9846318482279777,0.5530246496200562,0.3097359836101532,-0.5005108714103699
1783201256412168400,7.05816845703125,0.1496222600601613,-0.8926540651395917,-1.469753403609991,0.5993070602416992,0.3233678638935089,-0.493419885635376
1783201256422105600,7.068105712890625,0.1686957938425242,-0.8120623789466918,-1.023189201283455,0.6083357334136963,0.3417511284351349,-0.4774547517299652
1783201256432042500,7.07804248046875,0.1811123539537191,-0.7301398825414478,-0.5292810639798641,0.6050665974617004,0.3701522052288055,-0.4592950940132141
1783201256441979600,7.087979736328125,0.1811930179744958,-0.650211920954287,0.0218459211051464,0.6068602800369263,0.3993596136569977,-0.4414777755737304
1783201256451916800,7.097916748046875,0.1709698762543499,-0.5669251504585147,0.5392804799467324,0.6327815055847168,0.4120597541332245,-0.4279669225215912
1783201256461853400,7.107853515625,0.1961056326851248,-0.4511028686694801,1.0489607713997364,0.6726857423782349,0.4013921916484833,-0.4164178669452667
1783201256471790600,7.11779052734375,0.2648110662512481,-0.3137238579802215,1.4829840565830468,0.7191594243049622,0.3777765035629272,-0.4162125885486603
1783201256481727500,7.1277275390625,0.3168784495536237,-0.1702545675918459,1.9104536823391916,0.7321164608001709,0.3352018892765045,-0.4289270639419555
1783201256491663600,7.13766357421875,0.2710438962262124,5.87444499135e-05,2.391262099573016,0.6994912028312683,0.2216774970293045,-0.4544116258621216
1783201256501600500,7.1476005859375,0.2173634517040103,0.1951265585198998,2.7319606198489663,0.5933673977851868,0.0445426702499389,-0.4790213704109192
1783201256511537700,7.15753759765625,0.2627711579214781,0.3179422063276171,2.951984011477232,0.4033164978027344,-0.2037792652845382,-0.4686400890350342
1783201256521474600,7.167474609375,0.4546755395244807,0.234364051669836,2.852282697275281,0.1382760405540466,-0.523756206035614,-0.4134982824325561
1783201256531411700,7.17741162109375,0.7075123095393181,-0.0638069940000772,2.390931844705343,-0.1513679921627044,-0.8270032405853271,-0.3269022703170776
1783201256541348600,7.1873486328125,0.8405899697728455,-0.4663146124571561,1.680450748488307,-0.3988915085792541,-1.0092278718948364,-0.246681198477745
1783201256551285500,7.197285400390625,0.6902953634090722,-0.7538239788591862,1.0147504587620495,-0.5524729490280151,-1.0376206636428833,-0.2250851243734359
1783201256561222700,7.20722265625,0.3723179396376013,-0.8679954247012734,0.3402560372054576,-0.6069710850715637,-0.9670860171318054,-0.2445850521326065
1783201256571159600,7.21715966796875,0.0262196061447262,-1.0640838139906523,-0.55802843503654,-0.5668478012084961,-0.8085896372795105,-0.3057830333709717
1783201256581096700,7.2270966796875,-0.293470759024471,-1.3607321801379322,-1.3658476234555244,-0.4502128064632416,-0.5945111513137817,-0.3824445009231567
1783201256591033600,7.23703369140625,-0.6126087510079145,-1.6131775396823882,-2.095126943644881,-0.2759706974029541,-0.3692066669464111,-0.4781275689601898
1783201256600970500,7.246970458984375,-0.8691885800085961,-1.7684307913668451,-2.6894939355194567,-0.0631905347108841,-0.1857375204563141,-0.5714665651321411
1783201256610907600,7.25690771484375,-1.008145653669536,-1.8018359251014888,-3.119681588062644,0.1647846847772598,-0.0507826022803783,-0.6533022522926331
1783201256620844500,7.266844482421875,-1.0277006873585284,-1.735087763082981,-3.341588893741369,0.384829968214035,0.0522258058190345,-0.7218930721282959
1783201256630781700,7.27678173828125,-0.9330714157238602,-1.5704899060785769,-3.220325736072659,0.5495672821998596,0.1248492896556854,-0.7775834202766418
1783201256640717600,7.286717529296875,-0.7754113951586187,-1.3598086355522274,-2.9115514633238315,0.6489534974098206,0.1373267322778701,-0.8150849938392639
1783201256650654500,7.296654541015625,-0.6160936705142259,-1.192240530565381,-2.582946116423607,0.7046610116958618,0.1137375608086586,-0.832331657409668
1783201256660591600,7.306591552734375,-0.4529354909241199,-1.10201314715147,-2.368348256975412,0.7410398125648499,0.0982366278767585,-0.8362792730331421
1783201256670528800,7.31652880859375,-0.3468751630842685,-0.9937503408312796,-2.114945158314705,0.7740352153778076,0.1236389130353927,-0.8436369895935059
1783201256680465700,7.326465576171875,-0.3354251099176705,-0.8235892967417836,-1.7723381740689277,0.8061712980270386,0.1701829731464386,-0.8677255511283875
1783201256690402600,7.336402587890625,-0.3888885506883263,-0.6131611241936683,-1.4503490304380655,0.826799213886261,0.221475139260292,-0.9031174182891846
1783201256700339500,7.34633935546875,-0.4728551201418042,-0.4053276443138718,-1.148817568424344,0.8187106251716614,0.2701686322689056,-0.9412858486175536
1783201256710276600,7.356276611328125,-0.505783868536353,-0.2463675009354949,-0.7996049023032188,0.7878501415252686,0.2934702634811401,-0.9654303789138794
1783201256720213800,7.3662138671875,-0.4394260940749198,-0.1403115570098161,-0.4677507827401161,0.7564666867256165,0.3089336454868316,-0.978001832962036
1783201256730150700,7.376150634765625,-0.3263878169812262,-0.0249073545023798,-0.1450929460674524,0.7326120138168335,0.3159042000770569,-0.9738205671310424
1783201256740087600,7.386087646484375,-0.2232686571598053,0.1161564821794629,0.197905083322525,0.7361941933631897,0.3156349658966064,-0.9461159706115724
1783201256750024400,7.3960244140625,-0.1032667515985667,0.2183922832950949,0.5045201322108507,0.7719125151634216,0.3035547137260437,-0.9068378806114196
1783201256759961600,7.405961669921875,0.006583835369721,0.3356415291473269,0.8002326788127422,0.8291382789611816,0.3017637431621551,-0.8615508675575256
1783201256769898800,7.415898681640625,0.0519751749742776,0.5018512052625418,1.1816887414127588,0.8885213732719421,0.3004552125930786,-0.8180823922157288
1783201256779835600,7.425835693359375,0.0271696003459393,0.6806403769657016,1.6931056474000217,0.9337096214294434,0.2917144298553467,-0.7797890305519104
1783201256789771500,7.435771484375,-0.0785451289266347,0.8811474594801664,2.232761390399933,0.9173530340194702,0.2079095989465713,-0.7744569182395935
1783201256799708700,7.445708740234375,-0.3128204793997108,1.2027972881540656,2.680961669495701,0.7903058528900146,0.094354011118412,-0.8382044434547424
1783201256809645600,7.4556455078125,-0.5180723452884703,1.7066583719342947,3.044066082847118,0.5734525322914124,0.0273268520832061,-0.9353023171424866
1783201256819582700,7.465582763671875,-0.5127376331970095,2.022880330340564,3.270347950348258,0.3008524477481842,-0.0010890760459005,-1.0305674076080322
1783201256829519600,7.47551953125,-0.3565433012701571,2.1509753798559306,3.290338598975539,0.0381534956395626,-0.0166924428194761,-1.0906883478164673
1783201256839456500,7.48545654296875,-0.0786161483362317,2.342691253149509,3.1386779649555683,-0.1587893813848495,-0.0055825342424213,-1.092210292816162
1783201256849393700,7.4953935546875,0.28604060902372,2.6167642148733137,2.9161931516498325,-0.2711288034915924,0.0618651323020458,-1.031141757965088
1783201256859330600,7.50533056640625,0.6472966180294751,2.8315798087254165,2.898385107758641,-0.3168664872646332,0.1598273813724517,-0.9194810390472412
1783201256869267700,7.515267822265625,0.8804702908709645,3.0157804840832947,2.978110970902443,-0.3371885418891907,0.210424929857254,-0.789800763130188
1783201256879204600,7.52520458984375,0.9911512642487884,3.2103119993194937,2.9765339308440684,-0.3857504725456238,0.1436648070812225,-0.6616920828819275
1783201256889141500,7.5351416015625,1.0765093611259011,3.401218017534912,2.822162868821621,-0.4673002064228058,-0.0139720719307661,-0.5210066437721252
1783201256899078700,7.54507861328125,1.195467675918341,3.3568566054999827,2.618388016682863,-0.5536332130432129,-0.2510418593883514,-0.3593692481517792
1783201256909015600,7.555015625,1.3334469905883073,2.9213442508026954,2.265413952201605,-0.6119771599769592,-0.509770929813385,-0.187023639678955
1783201256918952400,7.564952392578125,1.468202813167125,2.4466706830620764,1.7839222288787364,-0.6238967180252075,-0.7398776412010193,-0.0276832394301891
1783201256928889600,7.5748896484375,1.4208730528458953,2.035311065107584,1.3634937538057563,-0.5955936312675476,-0.9259896278381348,0.1029450371861457
1783201256938826500,7.584826416015625,1.258797115534544,1.517812501119077,0.8404349253416061,-0.5648040175437927,-1.0304752588272097,0.2021065056324005
1783201256948762600,7.5947626953125,1.000905107956752,0.951430663757026,0.3060182520389556,-0.5787220597267151,-1.044061541557312,0.2544496953487396
1783201256958699500,7.604699462890625,0.6108889414779841,0.3857300866574049,-0.2128039617687463,-0.6327871680259705,-0.99436217546463,0.2470144182443618
1783201256968636400,7.614636474609375,0.1605642175741493,-0.2374374677658081,-0.8334300150156021,-0.7031480073928833,-0.911759316921234,0.202229231595993
1783201256978573600,7.624573486328125,-0.206490029381588,-0.802517574879527,-1.480838861247897,-0.7349964380264282,-0.8188298940658569,0.1219895333051681
1783201256988510700,7.6345107421875,-0.3896079510040581,-1.27403238632828,-2.146498818963766,-0.7074666619300842,-0.6743959188461304,0.0042214319109916
1783201256998447600,7.644447509765625,-0.4362900610715151,-1.6535431600794197,-2.6911153992414474,-0.6277568936347961,-0.4803782403469085,-0.1435078382492065
1783201257008384500,7.654384521484375,-0.5111279329780489,-1.7470540952086449,-3.1512399248868226,-0.5324446558952332,-0.2698880434036255,-0.2984943091869354
1783201257018321200,7.664321044921875,-0.549588742667064,-1.6261612321570516,-3.486700544509292,-0.4369280338287353,-0.0653008371591568,-0.3901222348213196
1783201257028258300,7.67425830078125,-0.3795016405966133,-1.646593194811046,-3.6604736416161057,-0.3505126237869262,0.0929491966962814,-0.3882777988910675
1783201257038195200,7.6841953125,-0.0858648773554712,-1.7748115784451364,-3.8021751916795967,-0.2418338060379028,0.1853576898574829,-0.3102402687072754
1783201257048132000,7.694132080078125,0.1005756128184497,-1.864332274894416,-3.9302714102387424,-0.0848595649003982,0.2657561898231506,-0.2060047388076782
1783201257058069200,7.7040693359375,0.0670602967076003,-1.8549933686628937,-4.014173682284355,0.1489958018064499,0.3491091430187225,-0.1089013442397117
1783201257068006400,7.71400634765625,-0.1319912532363087,-1.7547215610966085,-4.003119204306603,0.4569890201091766,0.4082722961902618,-0.0399156212806701
1783201257077943300,7.723943359375,-0.431815107614547,-1.557147901685536,-3.886874167060852,0.8007466197013855,0.4532562792301178,-0.0309817846864461
1783201257087880200,7.733880126953125,-0.7224081192456185,-1.3546747797951102,-3.512300849711895,1.115770936012268,0.4941695928573608,-0.0640223324298858
1783201257097816300,7.74381640625,-0.895701250815764,-1.1498130092024803,-2.901017794349789,1.3839176893234253,0.5141127109527588,-0.1098513454198837
1783201257107753200,7.753753173828125,-1.0046172603476793,-0.9845245395854116,-2.238294474607706,1.583157658576965,0.5108475685119629,-0.1595766842365265
1783201257117690400,7.7636904296875,-1.1457675332039594,-0.771360804593563,-1.5113696085900068,1.703795075416565,0.518604576587677,-0.2106707692146301
1783201257127627000,7.773626953125,-1.257157239373028,-0.4572513082966208,-0.702892833045125,1.767774224281311,0.5432002544403076,-0.2622835040092468
1783201257137564200,7.783564208984375,-1.3114460250519215,-0.1001034652620554,0.0783341165244579,1.7805795669555664,0.5951957702636719,-0.3102989494800567
1783201257147501300,7.793501220703125,-1.2782719235941766,0.1808031418740749,0.8086994783848523,1.7535080909729004,0.6556785106658936,-0.3566985726356506
1783201257157438200,7.803438232421875,-1.1725326444022357,0.4036909830227494,1.4708581499814986,1.7116775512695312,0.7395992279052734,-0.4728129208087921
1783201257167375400,7.813375244140625,-1.0749814209062605,0.5055734406560659,2.0293986261934043,1.647027611732483,0.742405891418457,-0.500557541847229
1783201257177312300,7.823312255859375,-1.0764702712245284,0.8329296642780304,2.356839605489373,1.489834547042847,0.7238202095031738,-0.5163453221321106
1783201257187249200,7.833249267578125,-0.923474443078041,1.3071551959902048,2.840359619769454,1.2764523029327393,0.6024937033653259,-0.5028369426727295
1783201257197186300,7.843186279296875,-0.9051216978508978,1.5472028462544083,3.0245822146981958,1.0244972705841064,0.3705371916294098,-0.481905072927475
1783201257207123200,7.853123291015625,-0.9155212921164928,1.7671569720387457,3.005088994199037,0.744659423828125,0.1150256544351577,-0.4815843403339386
1783201257217060400,7.863060302734375,-0.7846322279684245,1.9712334374725815,3.0692835262119766,0.4484338760375976,-0.1872833371162414,-0.5112916827201843
1783201257226997200,7.872997314453125,-0.6276176656998693,1.8943027580052612,2.8044986173152924,0.1331899315118789,-0.5271487236022949,-0.5852066874504089
1783201257236934100,7.88293408203125,-0.4321794108822941,1.607428182375431,2.176439199197292,-0.1629381328821182,-0.8275425434112549,-0.6871353983879089
