time,seconds_elapsed,ax,ay,az,gx,gy,gz
1783201762704800300,0.09680029296875,-0.3715500240050256,0.1329249538898468,1.6186054099500178,-0.2030459493398666,0.0376561023294925,-0.3041529357433319
1783201762714737200,0.106737060546875,-0.2077066751623526,0.2351288985624909,1.6106915680855511,-0.2379433363676071,-0.0645345970988273,-0.2890304923057556
1783201762724674300,0.11667431640625,0.082973722491227,0.2913789013117551,1.4100310485750436,-0.2323762625455856,-0.1834559291601181,-0.2481589466333389
1783201762734611000,0.12661083984375,0.3458387692412361,0.3403969069808721,1.2175871532678604,-0.1809494346380233,-0.2938728332519531,-0.2025924921035766
1783201762744548000,0.136548095703125,0.4740250407040119,0.4046963606730103,1.1082798063308,-0.1168916225433349,-0.4085605442523956,-0.1715698540210724
1783201762754485200,0.1464853515625,0.4677135194696485,0.4686711124554276,0.9955389778137208,-0.083626203238964,-0.5155840516090393,-0.1598133146762848
1783201762764422100,0.156422119140625,0.394716380058974,0.5133084188222885,0.9352560662865638,-0.1111196130514144,-0.618637204170227,-0.1562036573886871
1783201762774358000,0.16635791015625,0.3600656301774084,0.4803671032071113,1.0053770657390355,-0.2090306282043457,-0.688692569732666,-0.1433424949645996
1783201762784295200,0.176295166015625,0.3112007692433893,0.3830483002275228,1.2006903790026902,-0.3622153699398041,-0.7422087788581848,-0.114710584282875
1783201762794232000,0.186232177734375,0.1640770480006933,0.3507803538292646,1.4208394428372382,-0.5520258545875549,-0.7581745982170105,-0.0770396515727043
1783201762804169200,0.196169189453125,-0.0550122776478528,0.3126540367916226,1.7129419822484253,-0.775802493095398,-0.6844383478164673,-0.0427048467099666
1783201762814106000,0.206106201171875,-0.2212209308497607,0.2132832697182893,2.198185751581192,-1.0388509035110474,-0.5639170408248901,-0.0309996660798788
1783201762824043000,0.21604296875,-0.4559845032311975,0.0244210322901606,2.511749012172222,-1.3267425298690796,-0.4250400960445404,-0.0525057576596736
1783201762833980200,0.225980224609375,-0.6786807673305273,-0.3488382798507809,2.576256847918033,-1.6083624362945557,-0.3464536070823669,-0.0901034250855445
1783201762843917000,0.2359169921875,-0.6930402782030404,-0.7987544229537248,2.163946212849021,-1.8466567993164065,-0.2957454025745392,-0.1303358078002929
1783201762853854200,0.245854248046875,-0.5406191812045872,-1.2647189067989586,1.5656868897110223,-2.0225601196289062,-0.2171232551336288,-0.130302682518959
1783201762863790000,0.2557900390625,-0.6068117551669479,-1.6454542539089918,1.2282973478525876,-2.132661819458008,-0.157705470919609,-0.1258719712495803
1783201762873727000,0.26572705078125,-0.980589684354514,-1.867139441269636,0.8818126453906298,-2.1938393115997314,-0.1452393531799316,-0.1401816457509994
1783201762883664100,0.2756640625,-1.4310245906345544,-1.9296841602489352,0.4921820441633462,-2.206204652786255,-0.2167947590351104,-0.2121597081422805
1783201762893601300,0.285601318359375,-1.810158932288736,-1.927558254136145,-0.0834638806283473,-2.161893844604492,-0.3124361336231231,-0.3201814889907837
1783201762903538200,0.2955380859375,-1.9983599293291567,-2.0132187680259346,-0.8775111488044262,-2.0429489612579346,-0.3416986763477325,-0.4440086185932159
1783201762913475000,0.30547509765625,-2.0565283329203723,-2.140094943270832,-1.6461106719911098,-1.833067536354065,-0.3266249001026153,-0.587104320526123
1783201762923412000,0.315411865234375,-2.2425990399338303,-2.037573310951144,-2.440060325011611,-1.5200337171554563,-0.2425829768180847,-0.7365939617156982
1783201762933349000,0.32534912109375,-2.3623799962207674,-1.7778776880174874,-3.10997209495306,-1.118671417236328,-0.1307371407747268,-0.8743842840194702
1783201762943286300,0.335286376953125,-2.2805260350070893,-1.5196831172965466,-3.545154487043619,-0.6726669669151306,-0.0576224513351917,-0.9850189089775084
1783201762953222100,0.34522216796875,-2.0461565765097736,-1.272891837991029,-3.843260066261888,-0.2257770746946334,-0.077401302754879,-1.0573269128799438
1783201762963159000,0.355158935546875,-1.636231375272572,-1.0416220990747214,-4.0418963864684105,0.1884286254644394,-0.1696604043245315,-1.0948535203933716
1783201762973096200,0.36509619140625,-1.2201830149799584,-0.8206691715113819,-4.124291176560521,0.5569471120834351,-0.2722816467285156,-1.1035929918289185
1783201762983033000,0.375033203125,-0.8455607439227402,-0.6492379613555967,-4.042983597183227,0.876664400100708,-0.3307604193687439,-1.09019136428833
1783201762992970200,0.38497021484375,-0.5274131512161344,-0.5258035971276461,-3.7503544035494327,1.1451531648635864,-0.3701952397823334,-1.0653653144836426
1783201763002907100,0.3949072265625,-0.323497027443163,-0.350151116015017,-3.331266237169504,1.3707304000854492,-0.3774544894695282,-1.0199410915374756
1783201763012844000,0.404843994140625,-0.1896616989764384,-0.1708623242266476,-2.820267264333367,1.562472581863403,-0.3673282563686371,-0.950280785560608
1783201763022781200,0.41478125,-0.0791178142480552,-0.0479372246950864,-2.2750749299943447,1.7614916563034058,-0.3386276364326477,-0.8679047226905823
1783201763032718000,0.424718017578125,-0.0162485394895076,0.1031670906163752,-1.760508035543561,1.960904717445373,-0.3043478727340698,-0.7792059779167175
1783201763042654000,0.434654052734375,0.0191079657749272,0.3327083983048796,-1.1868500696986912,2.1773324012756348,-0.2761569619178772,-0.7044097781181335
1783201763052591000,0.444591064453125,0.0348527021944522,0.5510913292497396,-0.5819225208431482,2.401134729385376,-0.2995470762252807,-0.6387966871261597
1783201763062528300,0.4545283203125,0.0084771748356521,0.7949956549420952,-0.0038005613267421,2.5296502113342285,-0.4062261283397674,-0.6354951858520508
1783201763072465200,0.464465087890625,-0.2573592889405787,1.3065607372283934,0.5611480283617973,2.4760353565216064,-0.5079203248023987,-0.7027638554573059
1783201763082402300,0.47440234375,-0.5356415389224887,2.099664587074518,1.2955536055237054,2.225726366043091,-0.5568292737007141,-0.7784106731414795
1783201763092339000,0.4843388671875,-0.4611155094441026,2.504839086653292,2.005079008451104,1.789370059967041,-0.5978021025657654,-0.8131598830223083
1783201763102276000,0.494276123046875,-0.1533853389207273,2.437626668123901,2.3731331531643867,1.2262680530548096,-0.6532158255577087,-0.8112756609916687
1783201763112213200,0.504213134765625,0.281350807239674,2.2597017120346425,2.4265771585822105,0.6261295080184937,-0.6753432154655457,-0.7930554747581482
1783201763122150100,0.514150146484375,0.7523356399975717,2.084535699264705,2.318670326092839,0.0715507268905639,-0.6177496910095215,-0.770646333694458
1783201763132087300,0.52408740234375,1.1017368144281208,1.92765148537755,1.9919354492396115,-0.3752767443656921,-0.4630164802074432,-0.7246690988540649
1783201763142023200,0.534023193359375,1.2454989502832292,1.7678630744814872,1.592612306037545,-0.7122608423233032,-0.2968096733093261,-0.661958634853363
1783201763151960000,0.5439599609375,1.1879615380719304,1.6210536798849702,1.0840905369699,-0.9552499651908876,-0.1282963901758194,-0.5915783047676086
1783201763161897200,0.553897216796875,1.0063613275360317,1.402853704291582,0.5538093560367823,-1.1016687154769895,0.0315872766077518,-0.529098391532898
1783201763171834000,0.563834228515625,0.8662427358150482,1.0572802714556455,0.0890291135400533,-1.144688844680786,0.1690040081739425,-0.478026807308197
1783201763181771000,0.57377099609375,0.7147239944837988,0.6941629986226558,-0.4118149605065584,-1.0954264402389526,0.2615177035331726,-0.4523755013942718
1783201763191708200,0.583708251953125,0.5181194723658263,0.4667471586555242,-0.8118629108518362,-0.9632017612457277,0.3046213686466217,-0.4714553654193878
1783201763201645000,0.59364501953125,0.3854416981700808,0.4630933123230933,-1.1874357606321573,-0.7776601314544678,0.2953791320323944,-0.5122365951538086
1783201763211582200,0.603582275390625,0.3575976326286793,0.5555848412767053,-1.45149703142941,-0.5573168992996216,0.2416267096996307,-0.5128741264343262
1783201763221519000,0.61351904296875,0.4261499945249408,0.5128624286204576,-1.7072224355578425,-0.3199563324451446,0.1811122298240661,-0.4583741128444671
1783201763231455000,0.623455078125,0.5512498077470809,0.3028866760149598,-1.9311890118539328,-0.0703119859099388,0.1622832715511322,-0.3726745843887329
1783201763241392000,0.63339208984375,0.5196927130319178,0.230173321981728,-2.0123738416343926,0.1731595247983932,0.1743468642234802,-0.3045330643653869
1783201763251329300,0.643329345703125,0.2479386957749724,0.3586524023786187,-2.092626359000802,0.3916976153850555,0.2710045278072357,-0.269711822271347
1783201763261266200,0.65326611328125,0.0208539874583482,0.3732590198799967,-1.9916683227360248,0.5705443024635315,0.4110380709171295,-0.2588333487510681
1783201763271203000,0.663203125,-0.0499770599596202,0.2926087353676557,-1.7287322565764187,0.6970285773277283,0.5406322479248047,-0.2615568935871124
1783201763281140000,0.673139892578125,-0.1034159508109092,0.2915761774495244,-1.525823081356287,0.7714759111404419,0.6397127509117126,-0.2826712429523468
1783201763291077000,0.6830771484375,-0.2332835629567503,0.3132914579123258,-1.368826931527257,0.7976595759391785,0.7281805872917175,-0.3204603791236877
1783201763301014300,0.69301416015625,-0.3904928440798074,0.3784571730449795,-1.1904957327246666,0.7670446634292603,0.8145610094070435,-0.369196206331253
1783201763310951200,0.702951171875,-0.4400236215766519,0.5241694200545549,-0.956557797512412,0.6914646625518799,0.8694722056388855,-0.4077099859714508
1783201763320888000,0.71288818359375,-0.2997035524668172,0.6888482333406806,-0.7906091104209423,0.5903859734535217,0.8583502769470215,-0.429026186466217
1783201763330824200,0.72282421875,-0.0464105265844613,0.8474129476606845,-0.7311690794587135,0.4767882525920868,0.855028510093689,-0.4291648864746094
1783201763340761000,0.732760986328125,0.244092322545126,0.9946680401980876,-0.5787696097701788,0.3653940856456756,0.8578062057495117,-0.408536821603775
1783201763350698200,0.7426982421875,0.5256920995771884,1.0682619764581325,-0.4474164352416992,0.2568495571613312,0.8994085192680359,-0.3624788522720337
1783201763360635100,0.75263525390625,0.6876816737793385,1.078346148099005,-0.2589911279261112,0.1569197624921798,0.9666272401809692,-0.3004972338676452
1783201763370572000,0.762572021484375,0.7782895078781992,1.0878718090742825,-0.0190945765703916,0.0605696216225624,0.9621583819389344,-0.2323780208826065
1783201763380509200,0.77250927734375,0.8624617559716105,1.0976277716740963,-0.0347889893084764,-0.0200743600726127,0.8883051872253418,-0.1485193371772766
1783201763390446000,0.782446044921875,0.9030574587974696,0.9996265393882988,-0.0907277341514825,-0.0539805963635444,0.8331388235092163,-0.0485261008143425
1783201763400383200,0.79238330078125,0.9035397624216972,0.8525883044719695,0.0381289473861455,-0.0200806874781847,0.7656643390655518,0.0045158127322793
1783201763410320100,0.802320068359375,1.0639357838220893,0.6835588947609067,0.8710264629602432,0.0146837448701262,0.3182983100414276,0.027996227145195
1783201763420257000,0.812257080078125,1.090970432676747,0.3595540273934602,0.1528852073788642,0.0378905311226844,-0.0901086181402206,0.0367633551359176
1783201763430194200,0.822194091796875,0.7893614484474063,0.0022998013749718,-0.0841121154040098,0.0908035635948181,-0.2884208261966705,0.0476404428482055
1783201763440130300,0.83213037109375,0.32729923273772,-0.0831108294069767,0.0835047971606254,0.1617192924022674,-0.3251223862171173,0.0251151584088802
1783201763450067000,0.84206689453125,-0.1359611067153513,0.11805471701622,-0.0494032055944204,0.2416187226772308,-0.2356512695550918,-0.0367091372609138
1783201763460004000,0.852004150390625,-0.4629432363279163,0.1357441029638051,-0.1824625995188951,0.3253365457057953,-0.0879425033926963,-0.1313280612230301
1783201763469941200,0.861941162109375,-0.5542731741562485,0.0535965656310319,-0.4026707000643014,0.4279795289039612,0.0887989327311515,-0.2307104170322418
1783201763479878100,0.871878173828125,-0.5025668061859906,0.0189531222730875,-0.5249550174742936,0.5318723917007446,0.3255664706230163,-0.3093993663787842
1783201763489815300,0.881815185546875,-0.4401023128360509,0.1392681854367256,-0.2627642167240381,0.6175822615623474,0.5099015235900879,-0.3391816318035126
1783201763499752000,0.891751953125,-0.4189060878112912,0.2839662869676947,0.0679267042785883,0.6694387793540955,0.5886057019233704,-0.3111231029033661
1783201763509689000,0.901689208984375,-0.2677113177374005,0.2886120669469237,0.4598135600000619,0.6695518493652344,0.4683495759963989,-0.2341405302286148
1783201763519625700,0.911625732421875,-0.0055018122866749,0.1999351278454065,0.6288040990054607,0.628178596496582,0.1767344921827316,-0.1251932680606842
1783201763529562600,0.921562744140625,0.1996203628078103,0.0827554400980472,0.6697358288526535,0.5610480308532715,-0.1837526559829712,-0.0198804251849651
1783201763539499500,0.93149951171875,0.2835261419847607,-0.1394338973924517,0.6374111838310956,0.4938471913337707,-0.4703032076358795,0.034817174077034
1783201763549436700,0.941436767578125,0.1720804678447544,-0.4417883662268519,0.5534738404721021,0.4603875875473022,-0.6076590418815613,0.0340757146477699
1783201763559372500,0.95137255859375,-0.1238048049755394,-0.6329656025990843,0.4829834231853485,0.4574264287948608,-0.6295976638793945,-0.0228221919387578
1783201763569309700,0.961309814453125,-0.5067454070448875,-0.6589677666008472,0.3927542862057686,0.4665483832359314,-0.5733916163444519,-0.1045431271195411
1783201763579246600,0.97124658203125,-0.8748567618381231,-0.6421279832199216,0.2702379136055707,0.4876624643802643,-0.4435886442661285,-0.1969867795705795
1783201763589183500,0.98118359375,-1.1885168338671326,-0.6653887395590543,0.3341162192761898,0.5064337253570557,-0.2740152180194855,-0.2850993871688843
1783201763599120600,0.99112060546875,-1.3904840520620343,-0.6500313036903739,0.5434861149430275,0.5041823387145996,-0.1374400556087494,-0.3566271066665649
1783201763609057800,1.001057861328125,-1.4683905908241868,-0.5992118015572429,0.7914537445515394,0.4838036894798279,-0.0865073874592781,-0.4061726331710815
1783201763618994700,1.01099462890625,-1.3651641712360083,-0.6397855117470026,0.9437199432492256,0.4634507596492767,-0.1284867972135543,-0.4266627132892608
1783201763628931600,1.020931640625,-1.146845245438069,-0.7530424730926751,1.0671797341793774,0.4657324552536011,-0.2354286015033722,-0.4145829677581787
1783201763638868500,1.030868408203125,-0.8938523350134492,-0.8551128545135259,1.1543646811574697,0.5039900541305542,-0.3999898731708526,-0.3853196203708648
1783201763648805600,1.0408056640625,-0.6840458014950156,-0.8716355347692966,1.2243711143195628,0.5847713947296143,-0.620684027671814,-0.3480350971221924
1783201763658742800,1.05074267578125,-0.5614249456070364,-0.7907529028058051,1.184528933274746,0.7224658727645874,-0.8239015936851501,-0.311441421508789
1783201763668679700,1.0606796875,-0.5410844606287777,-0.6429138729006052,1.1507529204010962,0.8654239773750305,-0.978026270866394,-0.2939116358757019
1783201763678615600,1.070615478515625,-0.6421526792697608,-0.3082525869622826,1.2781190711200237,0.9683263897895812,-1.1189522743225098,-0.3018422722816467
1783201763688552700,1.080552734375,-0.7787023995280266,0.1265910746932029,1.379035606330633,1.011608362197876,-1.2263941764831543,-0.3116255104541778
1783201763698489600,1.090489501953125,-0.7656864852841943,0.434783163639903,1.4644441912859678,1.0018600225448608,-1.2841286659240725,-0.3134383261203766
1783201763708426800,1.1004267578125,-0.5424250615827739,0.56905076431036,1.616616866481304,0.9529315233230592,-1.2968299388885498,-0.3109656870365143
1783201763718363600,1.11036376953125,-0.2456285191364586,0.5828215155094861,1.6730068622231482,0.893464207649231,-1.280975341796875,-0.3087413907051086
1783201763728300500,1.120300537109375,0.047617198960483,0.5977110416054725,1.6021563794523477,0.8521408438682556,-1.2658308744430542,-0.3048229813575744
1783201763738237700,1.13023779296875,0.3108917032942175,0.7135404837876558,1.4927689530164003,0.8207102417945862,-1.252691388130188,-0.2881305515766144
1783201763748174600,1.140174560546875,0.4856257543876767,0.9834504806131124,1.462541572535038,0.7814165949821472,-1.238080978393555,-0.2614468336105346
1783201763758111700,1.15011181640625,0.5628818664170802,1.3267927933961152,1.4608376912266017,0.7020160555839539,-1.2234467267990112,-0.223338320851326
1783201763768048600,1.160048583984375,0.6466032289378345,1.618392643982172,1.4970979221314191,0.5493655800819397,-1.2335559129714966,-0.1584492921829223
1783201763777985500,1.169985595703125,0.7774849865622818,1.67348850826025,1.4851801053225993,0.3135094046592712,-1.278813123703003,-0.0499614253640174
1783201763787922700,1.179922607421875,0.9526438389390708,1.4732009137153623,1.3778770839452743,0.0103858709335327,-1.3510100841522217,0.0545131340622901
1783201763797859600,1.189859619140625,0.95682258592844,1.1758680724352597,1.1097831966310738,-0.3401830792427063,-1.3975399732589722,0.1169237866997718
1783201763807795500,1.19979541015625,0.7920681501228362,0.8851099333703517,0.835347246813774,-0.691836953163147,-1.4188162088394165,0.1435497999191284
1783201763817732600,1.209732666015625,0.5783655590139329,0.5827145480036735,0.5695569602668284,-1.0210474729537964,-1.4097920656204224,0.1339437216520309
1783201763827669500,1.21966943359375,0.355775641365908,0.3135053929239511,0.2233002213418483,-1.2901490926742554,-1.372382402420044,0.1049931272864341
1783201763837606700,1.229606689453125,0.110100543141365,0.1335106448233127,-0.2488034959107637,-1.4887259006500244,-1.2579998970031738,0.0782792270183563
1783201763847543800,1.239543701171875,-0.1355733495067805,0.0313736279070377,-0.5966337677627802,-1.617977499961853,-1.1000645160675049,0.0736807137727737
1783201763857480400,1.24948046875,-0.3495932629365473,-0.0372375515043735,-0.9047042761564256,-1.6955335140228271,-0.9380413889884948,0.056093193590641
1783201763867417600,1.25941748046875,-0.5473732585746794,-0.1102197856068611,-1.2584814737141132,-1.7394641637802124,-0.8109207153320312,0.0148366540670394
1783201763877354500,1.2693544921875,-0.7696851995315402,-0.2388394435182213,-1.6146224777936935,-1.7667666673660278,-0.7037093043327332,-0.0590205267071723
1783201763887291600,1.279291748046875,-1.0822967854209244,-0.4496534005135297,-1.9066133735239503,-1.7954882383346558,-0.579277515411377,-0.1770742535591125
1783201763897228800,1.289228759765625,-1.4912797373719513,-0.667092036345601,-2.015281253513693,-1.8091480731964111,-0.4046982824802398,-0.3405816555023193
1783201763907165400,1.29916552734375,-1.8851697496093809,-0.8954349280297755,-2.0190543423116205,-1.8134846687316892,-0.1481398791074752,-0.5448341369628906
1783201763917102600,1.3091025390625,-2.1445456390693782,-1.1169190398603677,-1.952857238304615,-1.7875322103500366,0.1123955696821212,-0.7811702489852905
1783201763927039700,1.319039794921875,-2.171943349082768,-1.2448717582955957,-1.9516028543293475,-1.7088963985443115,0.2837773859500885,-1.008956789970398
1783201763936976600,1.3289765625,-1.900857001954317,-1.2806813228234648,-2.226930784550309,-1.5625114440917969,0.3540084064006805,-1.1768478155136108
1783201763946912500,1.33891259765625,-1.4195312828481197,-1.2523445783942937,-2.559166012385488,-1.351575255393982,0.3605381548404693,-1.268850326538086
1783201763956849700,1.348849609375,-1.0230764616239816,-1.1067799231618642,-2.7061118928432464,-1.0908664464950562,0.3144348561763763,-1.2926377058029177
1783201763966786600,1.35878662109375,-0.7741226705223322,-0.8455462770059704,-2.7368302717119453,-0.7822723984718323,0.2106832414865493,-1.2706520557403564
1783201763976723700,1.3687236328125,-0.607817571208626,-0.6486138381078839,-2.783086411452293,-0.4429396092891693,0.0719501227140426,-1.2285051345825195
1783201763986660600,1.37866064453125,-0.5631177209995687,-0.5600114255473018,-2.7379508001744743,-0.093081921339035,-0.0731095224618911,-1.203807711601257
1783201763996597500,1.388597412109375,-0.7270541914857923,-0.5670049376964569,-2.5401778187990187,0.2289302051067352,-0.1684203296899795,-1.234609603881836
1783201764006534700,1.39853466796875,-0.975492361215502,-0.61491118273139,-2.196878760635853,0.488419771194458,-0.2169398069381714,-1.337668538093567
1783201764016471600,1.408471435546875,-1.3299889590889216,-0.600444265961647,-1.8098527889490128,0.6800174713134766,-0.2248382270336151,-1.472156643867493
1783201764026408700,1.41840869140625,-1.60443206929937,-0.6299421631246804,-1.4384879122525454,0.8206402063369751,-0.2105066478252411,-1.620421051979065
1783201764036345600,1.428345703125,-1.684334311923385,-0.6807263016834855,-1.039020976665616,0.9045841097831726,-0.2036245167255401,-1.754900336265564
1783201764046282500,1.438282470703125,-1.6946587220609186,-0.6061117902040482,-0.5824111811429262,0.9360441565513612,-0.2057336866855621,-1.8582723140716555
1783201764056219600,1.4482197265625,-1.665626542713493,-0.5027545838430524,-0.1466547885566949,0.937848687171936,-0.2195536345243454,-1.9296064376831052
1783201764066156500,1.458156494140625,-1.571511942602694,-0.4929524440139531,0.1907312461704015,0.9070539474487304,-0.2050501555204391,-1.985095500946045
1783201764076093700,1.46809375,-1.6037544622987507,-0.5235509958952665,0.4849140989869833,0.8696927428245544,-0.1439399272203445,-2.0553410053253174
1783201764086030800,1.47803076171875,-1.7193407433748245,-0.577290184867382,0.7957745303601026,0.8370972871780396,-0.0504211150109767,-2.1515932083129883
1783201764095967500,1.487967529296875,-1.77922954101786,-0.5234776383981108,1.070099421018362,0.8201337456703186,0.0580904483795166,-2.241687536239624
1783201764105903600,1.497903564453125,-1.7636843274921177,-0.3489607371866702,1.379867380979657,0.8489968180656433,0.1327646970748901,-2.31768536567688
1783201764115840800,1.5078408203125,-1.720354304331541,-0.153944945564866,1.6866379126906397,0.9315636157989502,0.1282298564910888,-2.3573808670043945
1783201764125777700,1.517777587890625,-1.6679137768678367,0.103634561997652,1.869346011403203,1.0597926378250122,0.041712500154972,-2.3496761322021484
1783201764135714600,1.527714599609375,-1.5203041718043386,0.4827186347693205,2.0827520307183263,1.2202491760253906,-0.0928490385413169,-2.2984445095062256
1783201764145651500,1.5376513671875,-1.301286742348224,0.8965800064116716,2.3005472249031067,1.3637094497680664,-0.2143705487251281,-2.2132954597473145
1783201764155588600,1.547588623046875,-1.0955189628265798,1.3251377196654677,2.708346520027518,1.441299557685852,-0.3649760484695434,-2.1266860961914062
1783201764165525800,1.55752587890625,-0.9295549320355058,1.8869135245367883,3.1450907546073195,1.4067437648773191,-0.5458424687385559,-2.0450305938720703
1783201764175462700,1.567462646484375,-0.7395563840538263,2.436820320177078,3.565837794110178,1.2303035259246826,-0.7463894486427307,-1.9551770687103271
1783201764185399600,1.577399658203125,-0.419598453989625,2.7466549156337976,3.9713703133463856,0.915394365787506,-0.9736256003379822,-1.8561745882034304
1783201764195336700,1.587336669921875,0.0317018369480967,2.725152108877897,4.143229101264477,0.4353779852390289,-1.2184960842132568,-1.775274395942688
1783201764205273600,1.597273681640625,0.4893886505851522,2.6825381250321865,4.102954958543181,-0.1994916945695877,-1.4747419357299805,-1.6421363353729248
1783201764215210800,1.607210693359375,1.1693667277172206,2.7205612739562985,3.852835703858733,-0.9499694108963012,-1.716023087501526,-1.452430009841919
1783201764225147600,1.617147705078125,1.664635778110474,2.250571187856793,3.5046810223579405,-1.740932822227478,-1.95884907245636,-1.2355741262435913
1783201764235084500,1.62708447265625,2.0288835162781176,2.043934224285185,3.026017215937376,-2.4878647327423096,-2.239011526107788,-1.0614434480667114
1783201764245021700,1.637021728515625,2.1223346840441226,2.3007176130339504,2.053770850905776,-3.099853515625,-2.4254634380340576,-0.9247420430183412
1783201764254958600,1.64695849609375,2.0062397227935493,2.528865566667914,0.9007926556706428,-3.4831604957580566,-2.455737829208374,-0.8207616209983826
1783201764264895700,1.656895751953125,1.9092264786317945,2.6380516253128645,-0.5574591107159853,-3.606229543685913,-2.164073944091797,-0.7137384414672852
1783201764274831600,1.66683154296875,1.5978063675493002,2.711505860841274,-1.8929799849689009,-3.518256902694702,-1.614864945411682,-0.6077366471290588
1783201764284768500,1.6767685546875,1.2584554624900222,3.0071050101965664,-2.877585480836033,-3.289994239807129,-1.0151972770690918,-0.500226616859436
1783201764294705700,1.68670556640625,0.986218410956487,3.443384549874067,-3.933367622688413,-2.9617812633514404,-0.5898457169532776,-0.3672361075878143
1783201764304642600,1.696642578125,0.9197898362811654,3.6357159247174855,-5.109805603966117,-2.538569211959839,-0.3631334602832794,-0.1916004866361618
1783201764314579700,1.706579833984375,1.1434236004263163,3.4265243082270023,-6.239848913815617,-2.0388362407684326,-0.2983733713626861,0.0048675616271793
1783201764324516600,1.7165166015625,1.4939634234979748,3.1089655482590195,-7.069333990597724,-1.4778369665145874,-0.3150851428508758,0.1568923741579055
1783201764334453500,1.72645361328125,1.8096724639460444,2.948343609148264,-7.606361723181605,-0.8930854201316833,-0.3212625980377197,0.2440959960222244
1783201764344390700,1.736390625,2.0626228504031894,2.8681583117991685,-7.763598111507296,-0.3186618089675903,-0.2607609629631042,0.2878328263759613
1783201764354327600,1.74632763671875,2.2725813596129414,2.7945237512677905,-7.66308606544435,0.1973629295825958,-0.1008748859167099,0.2995267510414123
1783201764364264700,1.7562646484375,2.371094048552215,2.785905560526252,-7.22245826742947,0.6288942694664001,0.1134829595685005,0.3166912198066711
1783201764374201600,1.76620166015625,2.366245001085848,2.90228562232852,-6.620059360268711,0.9420449733734132,0.3366047143936157,0.3846111595630646
1783201764384138500,1.776138427734375,2.3529531194448468,2.962696836410463,-5.848641272529959,1.1371159553527832,0.5147119164466858,0.4985832273960113
1783201764394075600,1.78607568359375,2.2302830175876616,3.0900042426794765,-5.063203427267075,1.2372266054153442,0.6304779648780823,0.6449180841445923
1783201764404012800,1.7960126953125,2.090839037192613,3.2534891700059174,-4.283204558187723,1.254724383354187,0.7222382426261902,0.7999445796012878
1783201764413949700,1.80594970703125,1.8988041610777375,3.427604504679143,-3.5280051993221044,1.2135090827941897,0.8279891610145569,0.9532784819602966
1783201764423886600,1.815886474609375,1.6939229551322756,3.554529341371357,-2.781449750161171,1.1204513311386108,0.9512871503829956,1.1020077466964722
1783201764433823500,1.825823486328125,1.55267367888093,3.585897416320443,-2.109869754746556,0.9947366118431092,1.082384467124939,1.2481521368026731
1783201764443760600,1.8357607421875,1.409989547520876,3.5321564737826585,-1.547058177086711,0.8337705135345459,1.2187221050262451,1.3814901113510132
1783201764453697800,1.84569775390625,1.2188733206208795,3.460413426086306,-1.0441022254526615,0.6473417282104492,1.3618830442428589,1.5087568759918213
1783201764463634700,1.855634765625,1.029982733881101,3.356948959958553,-0.5399596943825483,0.4514438211917877,1.5081015825271606,1.6327638626098633
1783201764473570600,1.865570556640625,0.8454594755053519,3.139266870759428,-0.1293389120966196,0.2434669137001037,1.6421464681625366,1.7495474815368652
1783201764483507700,1.8755078125,0.5723237580990418,2.969085952925682,0.2349368831217289,0.0327343195676803,1.7574036121368408,1.8453247547149656
1783201764493444600,1.885444580078125,0.2950750889485701,2.823688763214648,0.627921470952034,-0.1505848914384842,1.8339735269546509,1.9207342863082888
1783201764503381800,1.8953818359375,0.0926994726158678,2.5562638612031936,0.9807277776509524,-0.2790414988994598,1.8497107028961184,1.9883835315704343
1783201764513318700,1.905318603515625,-0.0793401882944628,2.2053759553462267,1.169013384234905,-0.3312863111495971,1.8320504426956177,2.0370352268218994
1783201764523255600,1.915255615234375,-0.2569104857271537,1.9112416178464888,1.399871473610401,-0.3026332557201385,1.7863035202026367,2.05115818977356
1783201764533192400,1.9251923828125,-0.4374393772371113,1.7692440074458715,1.7170149307757614,-0.215314045548439,1.711782932281494,2.0332813262939453
1783201764543129300,1.93512939453125,-0.5926213903162628,1.6671394314944743,2.067379689541459,-0.099515326321125,1.5813277959823608,1.9983619451522827
1783201764553066500,1.94506640625,-0.7025502301525324,1.569203081138432,2.4436995582967995,0.0143427997827529,1.4035834074020386,1.9623607397079468
1783201764563003600,1.955003662109375,-0.7795558014869689,1.4200892089918256,2.8392858530581,0.0954371616244316,1.2103909254074097,1.946510434150696
1783201764572940500,1.9649404296875,-0.7922837656348943,1.1806366020113228,3.243923469281196,0.1242006346583366,0.9865480065345764,1.951879382133484
1783201764582877400,1.97487744140625,-0.7565352836444974,0.8897896156191826,3.566455049225688,0.1137003973126411,0.7459989786148071,1.985599994659424
1783201764592814300,1.984814453125,-0.7383548262443393,0.5956339430704712,3.75310048738718,0.0639442950487136,0.5337985754013062,2.024005889892578
1783201764602751500,1.99475146484375,-0.8252543073445558,0.3269406285583973,3.89679934874773,-0.0199178513139486,0.3735436499118805,2.0375492572784424
1783201764612688600,2.004688720703125,-1.0432988001152872,0.1902405400440096,4.12306192702651,-0.132916048169136,0.2383874207735061,1.994807243347168
1783201764622625500,2.01462548828125,-1.3459867386877535,0.1832128333643078,4.214813743528723,-0.2597737908363342,0.0982512757182121,1.9088774919509888
1783201764632562400,2.0245625,-1.6487243616208431,0.1365998430103063,4.187542290243506,-0.401946097612381,-0.0369510203599929,1.8080315589904783
1783201764642499300,2.034499267578125,-1.84056503033787,-0.0229360544294118,3.999806718757749,-0.5620092153549194,-0.1481123119592666,1.7195353507995603
1783201764652436500,2.0444365234375,-1.8169607212580736,-0.2590346748068928,3.7480771062672136,-0.7318395376205444,-0.3013735115528106,1.6492058038711548
1783201764662373600,2.05437353515625,-1.6972656896889209,-0.3473080015435815,3.181107824406028,-0.8997161388397217,-0.5235022306442261,1.5857454538345337
1783201764672310500,2.064310546875,-1.726162552218884,-0.320844357509911,2.288196277374029,-1.0400618314743042,-0.75782710313797,1.5260543823242188
1783201764682247400,2.074247314453125,-1.901291593979299,-0.3352209656476974,1.3877730395376682,-1.1142220497131348,-0.9576281309127808,1.4477617740631104
1783201764692183600,2.08418359375,-1.982696057859808,-0.3369873907983303,0.4613391621321439,-1.0844180583953855,-1.079327940940857,1.338619351387024
1783201764702120400,2.094120361328125,-1.8410621662050484,-0.2231397700831293,-0.5728828898191451,-0.9671914577484132,-1.1819065809249878,1.2083346843719482
1783201764712057600,2.1040576171875,-1.7690207200840111,0.110066933132708,-1.7963807284355162,-0.8149622678756714,-1.2467052936553955,1.0885107517242432
1783201764721994500,2.113994384765625,-1.6660151036396622,0.4951610599741339,-3.047520022693276,-0.6777657866477966,-1.2235841751098633,1.0265350341796875
1783201764731931400,2.123931396484375,-1.305241179062426,0.5956397882893681,-3.991441041472554,-0.5781161785125732,-1.086653232574463,1.0441699028015137
1783201764741868500,2.13386865234375,-0.7786600216910242,0.4403368522442877,-4.712575633651018,-0.5107829570770264,-0.8548421263694763,1.1090757846832275
1783201764751805400,2.143805419921875,-0.2490058135498315,0.1940409552402794,-5.310523406621813,-0.4545899629592895,-0.5331969857215881,1.1879833936691284
1783201764761742600,2.15374267578125,0.1822872429519891,-0.0654386868551373,-5.749600468063354,-0.3756295144557953,-0.1374618411064148,1.239414095878601
1783201764771679500,2.163679443359375,0.3559522765744477,-0.1809004647687077,-5.966629938572645,-0.254047155380249,0.299949049949646,1.2448557615280151
1783201764781616400,2.173616455078125,0.2222198787592351,0.0047881110593676,-5.884097785836458,-0.0744144022464752,0.7170161604881287,1.2349175214767456
1783201764791553500,2.183553466796875,0.0232609755348414,0.3112291185550391,-5.487900665700435,0.1540757715702057,1.0267740488052368,1.2301619052886963
1783201764801490400,2.193490478515625,-0.1563260685477405,0.6230499193929135,-4.900447983258962,0.4139270484447479,1.2142788171768188,1.2317694425582886
1783201764811427600,2.203427490234375,-0.2534049983568489,0.9632966042481362,-4.109474131178856,0.6800692081451416,1.285603642463684,1.24347186088562
1783201764821364500,2.213364501953125,-0.3151674809172749,1.267214669137448,-3.2228374266326427,0.9183162450790404,1.268502116203308,1.2788480520248413
1783201764831301400,2.22330126953125,-0.2771219740308821,1.475548645885289,-2.284421435010433,1.0982125997543335,1.1953567266464231,1.3388880491256714
1783201764841238500,2.233238525390625,-0.1947863302474841,1.565210212109983,-1.466038182479143,1.1858973503112793,1.1126285791397097,1.423564076423645
1783201764851175400,2.243175537109375,-0.1223855127621442,1.5268775588452814,-0.7561953841656446,1.1832735538482666,1.0743831396102903,1.5185039043426514
1783201764861112600,2.253112548828125,-0.0691002050373703,1.3629992482870816,-0.0218804078966379,1.0979489088058472,1.0880224704742432,1.6047368049621582
1783201764871049500,2.263049560546875,-0.1473723622415214,1.1733289093464612,0.6516577358484268,0.9392065405845642,1.1447666883468628,1.6684197187423706
1783201764880986400,2.272986328125,-0.3328426922090351,1.046213518518209,1.2465695021241905,0.7511043548583984,1.2297968864440918,1.718280792236328
1783201764890923500,2.282923583984375,-0.4996500419564544,0.9070818189427255,1.7917606674194335,0.5688636898994446,1.327270746231079,1.7526178359985352
1783201764900860700,2.292860595703125,-0.6514348138127476,0.8070715849220752,2.231018346124887,0.4173933863639831,1.4151500463485718,1.7857271432876587
1783201764910797600,2.302797607421875,-0.7494589885827153,0.7427133867800235,2.63238088620007,0.3073936402797699,1.4502720832824707,1.8120125532150269
1783201764920734500,2.312734375,-0.8666270589575171,0.7574334015280008,2.9535493610978123,0.2179581522941589,1.4298572540283203,1.8227064609527588
1783201764930671400,2.32267138671875,-1.0040098690390586,0.8290931548550724,3.267209067800641,0.131554290652275,1.3550207614898682,1.8273738622665403
1783201764940608500,2.3326083984375,-1.0779947773780674,0.8112579306960105,3.559795006814599,0.0290060192346572,1.2062865495681765,1.834242343902588
1783201764950545700,2.342545654296875,-1.0880531569905578,0.6902165990844369,3.732490245556831,-0.0804997012019157,0.99772310256958,1.8289802074432373
1783201764960482600,2.352482666015625,-1.0500836379498242,0.4778258942916989,3.7686259732991454,-0.2032637894153595,0.8135807514190674,1.8131722211837769
1783201764970418400,2.36241845703125,-1.041619176465273,0.2425976270079612,3.918535964259505,-0.3269524574279785,0.6448732614517212,1.764535427093506
1783201764980355600,2.37235546875,-1.076394575639814,0.0850318605974316,4.097562744110823,-0.4473889470100403,0.4687795341014862,1.68365478515625
1783201764990292500,2.38229248046875,-1.1024214356914162,0.000206920748949,4.072212614277005,-0.5533977150917053,0.2964421212673187,1.5833532810211182
1783201765000229600,2.392229736328125,-1.1131129255756735,-0.0481289478749036,4.046609970986843,-0.6455586552619934,0.1522385478019714,1.494802951812744
1783201765010166500,2.40216650390625,-1.101885575249046,-0.1089154250100254,3.998922337138653,-0.764319658279419,0.0048727970570325,1.4510695934295654
1783201765020103400,2.412103515625,-1.041777289636433,-0.2602674314722418,3.868927006959915,-0.9250544309616088,-0.1365451663732528,1.4748538732528689
1783201765030040600,2.42204052734375,-0.9412857018396258,-0.5272784919857979,3.641248132142424,-1.1222244501113892,-0.284976452589035,1.552783489227295
1783201765039977500,2.4319775390625,-0.9701417939677834,-0.8165455157101154,3.2605455182582137,-1.3340749740600586,-0.4506510198116302,1.640858769416809
1783201765049914600,2.44191455078125,-1.2298894393496214,-1.0778718085855246,2.698350026670098,-1.5125744342803955,-0.6132354140281677,1.6953917741775513
1783201765059851500,2.4518515625,-1.5868787308216097,-1.2652386928893624,2.023826379019022,-1.6354650259017944,-0.7199118137359619,1.699508547782898
1783201765069788400,2.461788330078125,-1.945009739674628,-1.3210928281888366,1.3427607623785731,-1.6823407411575315,-0.7488305568695068,1.652948975563049
1783201765079725600,2.4717255859375,-2.2343517283312977,-1.2469865584924815,0.6478513293027878,-1.6402686834335327,-0.7256298065185547,1.5699546337127686
1783201765089662500,2.481662353515625,-2.4942507648825645,-1.123942801017314,-0.0622299539417028,-1.5244996547698977,-0.698104977607727,1.4655683040618896
1783201765099599600,2.491599609375,-2.663193957614898,-1.0306029846712943,-0.7474246332108974,-1.3607521057128906,-0.6461800336837769,1.368565320968628
1783201765109536500,2.50153662109375,-2.692708513651788,-1.05502489374429,-1.2779291015058756,-1.1948864459991455,-0.5757918357849121,1.283677101135254
1783201765119473400,2.511473388671875,-2.6280638997837897,-1.1174525622151792,-1.6261778910309077,-1.0529468059539795,-0.5692287087440491,1.2092453241348269
1783201765129410600,2.52141064453125,-2.440273529370874,-1.2075585112065077,-2.142773076438904,-0.9393126964569092,-0.6286025643348694,1.1435632705688477
1783201765139347500,2.531347412109375,-2.1959522934406994,-1.368644122306257,-2.6869658783465624,-0.8200801014900208,-0.7115598320960999,1.084391474723816
1783201765149284600,2.54128466796875,-1.918594026435912,-1.5211983441650867,-3.0739450882822275,-0.688562273979187,-0.8054048418998718,1.0180939435958862
1783201765159221500,2.551221435546875,-1.7007994167730212,-1.5304986719518898,-3.3896319168984888,-0.56192946434021,-0.8957529067993164,0.9197930693626404
1783201765169158400,2.561158447265625,-1.6196695320501922,-1.4755797716759145,-3.8068531203627582,-0.4339081048965454,-0.9365668892860411,0.7869657874107361
1783201765179095600,2.571095458984375,-1.579459832867235,-1.6020783457800745,-4.217671471047401,-0.3076693117618561,-0.9007362723350524,0.6269610524177551
1783201765189032400,2.581032470703125,-1.659205277494341,-1.815160539968312,-4.571083342424035,-0.1809854209423065,-0.7865273952484131,0.4523200392723083
1783201765198969600,2.590969482421875,-1.8459546144217247,-1.948252374857664,-4.847737552812696,-0.0554731115698814,-0.5851282477378845,0.2471314817667007
1783201765208906500,2.600906494140625,-2.087463131018728,-1.998263337086886,-4.93571920312643,0.0756066143512725,-0.2941296398639679,0.0574276037514209
1783201765218843400,2.610843505859375,-2.2513353040970863,-2.0024413534238934,-4.871989366015792,0.2083815932273864,-0.0136108305305242,-0.0889795273542404
1783201765228780500,2.620780517578125,-2.326264288353175,-2.0906791704557834,-4.843446577620506,0.3381763398647308,0.1072079986333847,-0.2600109279155731
1783201765238717400,2.630717529296875,-2.643379250076413,-1.72035605789721,-5.083227393642067,0.4730865657329559,0.2548685073852539,-0.4327359497547149
1783201765248654600,2.640654541015625,-2.7565964639335867,-1.2751907625831662,-4.863139704605937,0.6462618112564087,0.4341514706611633,-0.5795003175735474
1783201765258591500,2.650591552734375,-2.688525675009191,-1.0296585434280334,-4.512039617303014,0.8488872647285461,0.5893983244895935,-0.6920939683914185
1783201765268528400,2.6605283203125,-2.537051795732975,-0.8817582848548888,-4.2134471313506365,1.0728967189788818,0.6929489374160767,-0.7655969262123108
1783201765278465500,2.670465576171875,-2.247824519497156,-0.8212741516672074,-3.8049066624701022,1.2777036428451538,0.7054111361503601,-0.8284674882888794
1783201765288402400,2.68040234375,-1.971548787032068,-0.6549953558385372,-3.386675989702344,1.4496266841888428,0.656333327293396,-0.887826144695282
1783201765298339600,2.690339599609375,-1.7910228546641769,-0.4555933119565248,-2.98223827996552,1.5822237730026243,0.5879545211791992,-0.9520216584205629
1783201765308275500,2.700275390625,-1.6410218244194985,-0.3172773126780986,-2.561739662265777,1.661787509918213,0.5512332320213318,-1.0279557704925537
1783201765318212600,2.710212646484375,-1.5278889278449117,-0.2015374484755098,-2.118103330084681,1.7005109786987305,0.5499944090843201,-1.1181939840316772
1783201765328149500,2.7201494140625,-1.4693268487609925,-0.0914189312860369,-1.6845575992852448,1.6983311176300049,0.590121328830719,-1.2214460372924805
1783201765338086700,2.730086669921875,-1.407553844806552,0.0377604063346981,-1.2466864065021277,1.6603639125823977,0.6716938018798828,-1.33575177192688
1783201765348023300,2.740023193359375,-1.3550924206852912,0.2402998714596033,-0.7346154205203056,1.5755890607833862,0.7691274285316467,-1.4612151384353638
1783201765357960400,2.74996044921875,-1.2918119347773491,0.4132786033183336,-0.0866419261425733,1.4445616006851196,0.8307843208312988,-1.6009361743927002
1783201765367897600,2.759897705078125,-1.2353420056670903,0.5680415872678161,0.570247865140438,1.2699702978134155,0.8406798243522644,-1.7378859519958496
1783201765377834500,2.76983447265625,-1.1636631092481315,0.7502648250728845,1.2195634217768907,1.049140453338623,0.7936179041862488,-1.857483386993408
1783201765387771600,2.779771728515625,-1.0405005476988851,0.9481573411747812,1.8102163615643976,0.780205249786377,0.6755706667900085,-1.9251573085784912
1783201765397708300,2.789708251953125,-0.8212155533477663,1.059709836690128,2.143113268178701,0.5020070672035217,0.5135415196418762,-1.920598387718201
1783201765407645400,2.7996455078125,-0.4396687437243759,1.0400906517237425,2.250694521975517,0.2477822601795196,0.3528503775596618,-1.842349410057068
1783201765417582600,2.80958251953125,-0.0413171489682048,0.9279679551050066,2.26061093583405,0.0448639392852783,0.1929854601621627,-1.7279905080795288
1783201765427519500,2.81951953125,0.2207095472615212,0.881470700085163,2.166769453576207,-0.082643948495388,0.0039079445414245,-1.607804536819458
1783201765437456600,2.82945654296875,0.2529091411313042,1.0262129330188037,1.942839702159166,-0.1371961236000061,-0.1525720655918121,-1.503506064414978
1783201765447393500,2.8393935546875,0.0536236728336662,1.2194622994899749,1.952030724352598,-0.1450279355049133,-0.2715463936328888,-1.417807936668396
1783201765457330400,2.849330322265625,-0.3549838334010913,1.3862342856630685,2.0094272667884825,-0.1499860137701034,-0.3791666328907013,-1.375456929206848
1783201765467267600,2.859267578125,-0.8254414274144918,1.4499635382518172,1.941724434393644,-0.1695740967988968,-0.4135720133781433,-1.372530460357666
1783201765477204500,2.86920458984375,-1.1902315288305283,1.3679504409536718,1.9900199710071085,-0.2053303569555282,-0.3907807767391205,-1.4079993963241575
1783201765487141600,2.8791416015625,-1.4268629409104585,1.270637775453925,2.117474384531379,-0.2561152279376983,-0.3856515288352966,-1.477523922920227
1783201765497078500,2.88907861328125,-1.6089628445968032,1.2399965534746646,2.1028478932857517,-0.3262478411197662,-0.426576167345047,-1.5719783306121826
1783201765507015400,2.899015380859375,-1.6179238574266432,1.279178517045081,1.918925158086419,-0.410995215177536,-0.5266278982162476,-1.65183687210083
1783201765516953000,2.908953125,-1.4656246332421898,1.3401511644020676,1.512499489402771,-0.5377814769744873,-0.5829843878746033,-1.7092794179916382
1783201765526889700,2.9188896484375,-1.2917653191566467,1.2763941470235585,1.1362117693513631,-0.7111083269119263,-0.549236536026001,-1.7735203504562378
1783201765536827000,2.928826904296875,-1.0799719957351683,1.0585744029194115,0.5969295358389616,-0.9454752802848816,-0.4526963829994201,-1.8395142555236816
1783201765546763800,2.938763671875,-0.9096503542564808,0.902608765181899,-0.007680033108592,-1.1823248863220217,-0.3170077800750732,-1.9062436819076536
1783201765556701000,2.948700927734375,-1.0018293101295828,0.8251523082748055,-0.6087351244449615,-1.3659746646881104,-0.087614893913269,-1.950627326965332
1783201765566638000,2.95863818359375,-1.2471937715023755,0.7168919861726463,-0.9958972897320986,-1.4311577081680298,0.1716110706329345,-1.9698807001113887
1783201765576574700,2.96857470703125,-1.4093496421821414,0.6564554915189743,-1.3718530013501644,-1.3876625299453735,0.3602940440177917,-1.9838197231292725
1783201765586512000,2.978511962890625,-1.4517179807037115,0.7395483468778431,-1.8664543816149235,-1.2445162534713743,0.424938827753067,-1.988831043243408
1783201765596449000,2.988448974609375,-1.4683166488051411,0.7156083761028945,-2.2163287265151737,-1.0145272016525269,0.3495179414749145,-2.0043745040893555
1783201765606386000,2.998385986328125,-1.5024702628195286,0.5626327139616012,-2.625020002043247,-0.6917373538017273,0.2083536237478256,-2.040169239044189
1783201765616323000,3.008322998046875,-1.554901437932998,0.3623842823833227,-2.9283640664368864,-0.2791009545326233,0.0703859329223632,-2.111480951309204
1783201765626259700,3.018259765625,-1.6114108222708106,0.2848540295876562,-3.0458354306071995,0.1751821190118789,-0.0246228724718093,-2.2216567993164062
1783201765636196900,3.02819677734375,-1.659321451219916,0.3889109086506068,-3.0195500657498835,0.6191236972808838,-0.0509560033679008,-2.3648293018341064
1783201765646134000,3.038134033203125,-1.643665032404661,0.5545956841088832,-2.761480144321918,1.0044807195663452,-0.0469985455274581,-2.502610921859741
1783201765656071000,3.04807080078125,-1.5628163027107715,0.7200999884337186,-2.3472715666770934,1.3271087408065796,-0.0614238753914833,-2.606755018234253
1783201765666008000,3.058008056640625,-1.4271034716680646,0.8520617963798344,-2.0076386298060416,1.5893603563308716,-0.0711223110556602,-2.6534109115600586
1783201765675944700,3.06794482421875,-1.2828778099544345,0.8683126739569008,-1.5847878960222004,1.805357575416565,-0.0677327290177345,-2.6716153621673584
1783201765685881900,3.0778818359375,-1.2253690393157302,0.8849773930318653,-1.1043003813058136,2.001694917678833,-0.0496096536517143,-2.673545360565185
1783201765695819000,3.087819091796875,-1.2090876204699277,0.954996831806004,-0.610561755350232,2.1896350383758545,-0.090692825615406,-2.6664061546325684
1783201765705756000,3.097755859375,-1.1736620868235823,0.9722472418144344,-0.1590823084533214,2.377926111221313,-0.2299753427505493,-2.649982690811157
1783201765715693000,3.107693115234375,-1.0812851241603494,0.937777109196782,0.1735930643647909,2.567542314529419,-0.5096126794815063,-2.641931772232056
1783201765725629700,3.117629638671875,-1.1658566737696527,1.0486395766213537,0.3466197270184755,2.7363030910491943,-0.9004312753677368,-2.692169427871704
1783201765735566800,3.12756689453125,-1.5135384770616889,1.489632408556342,0.5124427419036627,2.850076675415039,-1.2757304906845093,-2.807562351226806
1783201765745504000,3.13750390625,-1.8536406388796864,2.021626823148132,0.7640858451545238,2.88538146018982,-1.526721477508545,-2.935453414916992
1783201765755441000,3.14744091796875,-1.9525493413992223,2.3941186580479146,1.0512065044999122,2.823324680328369,-1.673172950744629,-3.051546812057495
1783201765765378000,3.1573779296875,-1.9254547059856355,2.6257918631985784,1.214208616745472,2.647879123687744,-1.770316243171692,-3.1601204872131348
1783201765775314000,3.16731396484375,-1.865816814363748,2.8212150665774938,1.3150737140297888,2.382495403289795,-1.7830581665039062,-3.2542731761932373
1783201765785251800,3.177251953125,-1.6757438859716056,2.9590391906857487,1.4625000714808702,2.0495381355285645,-1.7442066669464111,-3.302652359008789
1783201765795189000,3.18718896484375,-1.451597276933491,3.18806012776196,1.5208020383238792,1.6771674156188965,-1.6406694650650024,-3.2757158279418945
1783201765805126000,3.1971259765625,-1.1842789040364323,3.480058037754893,1.5002397272884844,1.2916572093963623,-1.482606053352356,-3.165264129638672
1783201765815061800,3.207061767578125,-0.7699199581354856,3.5652103098616004,1.540293505257368,0.9140608906745912,-1.3558001518249512,-2.9904122352600098
1783201765824999000,3.2169990234375,-0.3256272078722715,3.442131627203524,1.4763006332963704,0.5626533031463623,-1.3566888570785522,-2.7743520736694336
1783201765834935800,3.226935791015625,-0.012545885579288,3.229209592013061,1.1819500226974486,0.233126625418663,-1.4626466035842896,-2.5512490272521973
1783201765844873000,3.236873046875,0.145075848802179,3.047932695147395,0.811212337988615,-0.0512206777930259,-1.5487849712371826,-2.334632396697998
1783201765854809900,3.246809814453125,0.3039215720206499,2.8570702238127588,0.5085989259570837,-0.2865070402622223,-1.5602244138717651,-2.1437652111053467
1783201765864746800,3.256746826171875,0.4715631075698882,2.678346226300299,0.2542138305217027,-0.4634506404399872,-1.5113143920898438,-1.9834911823272705
1783201765874684000,3.266683837890625,0.5945913752149791,2.51741332154423,-0.0946276641994714,-0.5731150507926941,-1.3850271701812744,-1.8470467329025269
1783201765884620800,3.276620849609375,0.7122158841203898,2.40790986751318,-0.4675222346812486,-0.6245284676551819,-1.2133686542510986,-1.7372950315475464
1783201765894558000,3.286557861328125,0.8001752495370805,2.418842472676933,-0.6715928548961877,-0.6395114660263062,-1.067063570022583,-1.6364260911941528
1783201765904494800,3.296494873046875,0.9022662353545426,2.4636440296947955,-0.795550073954463,-0.6161275506019592,-0.9540256857872008,-1.5247342586517334
1783201765914431700,3.306431640625,1.0828097764443605,2.387958966374397,-0.8648246857106685,-0.5749923586845398,-0.8828569650650024,-1.389605164527893
1783201765924369000,3.316368896484375,1.3265081312358378,2.229296344637871,-0.8971651128232478,-0.5170883536338806,-0.8445740342140198,-1.246158480644226
1783201765934305800,3.326305908203125,1.4516927001319824,2.1280849181339145,-0.932795813652873,-0.4521095156669616,-0.8101840615272522,-1.1148861646652222
1783201765944243000,3.336242919921875,1.4210818732909858,2.0447969785943627,-0.9157575850903988,-0.3913790583610534,-0.7286474108695984,-1.0180506706237793
1783201765954179800,3.346179931640625,1.3024357662528752,1.949884359973669,-0.8915005111902952,-0.3482548296451568,-0.5891945362091064,-0.9516634941101074
1783201765964116700,3.35611669921875,1.0731238834060728,1.9521981898739933,-0.7804682401567697,-0.3471147119998932,-0.4450725615024566,-0.9186853170394896
1783201765974054000,3.366053955078125,0.8656059722814708,1.944872669291496,-0.7135597730100155,-0.3692661821842193,-0.350898802280426,-0.9123727083206176
1783201765983990800,3.37599072265625,0.7324230981077998,1.875526453603804,-0.798261671000719,-0.3981793224811554,-0.2303981930017471,-0.9155440330505372
1783201765993928000,3.385927978515625,0.6150285255007445,1.7756264019593595,-1.0226602089732886,-0.3889090418815613,-0.0186866261065006,-0.9103163480758668
1783201766003864800,3.39586474609375,0.459297865562886,1.816531536060572,-1.192957154402137,-0.3451253473758697,0.2638276219367981,-0.8787413835525513
1783201766013801700,3.4058017578125,0.384413158839941,1.9051473926246163,-1.311214700514078,-0.2546701431274414,0.5446234345436096,-0.8082252144813538
1783201766023739000,3.41573876953125,0.5613175397098064,1.8982333754524587,-1.3944354200363158,-0.1420991569757461,0.7659550309181213,-0.7005141973495483
1783201766033676000,3.425676025390625,0.9601194355167448,1.7292995350703595,-1.4970394699424503,-0.0228651799261569,0.9070382118225098,-0.559191107749939
1783201766043613000,3.435613037109375,1.4525580847896635,1.4457836222186684,-1.5604817222833631,0.0803387016057968,0.9590678811073304,-0.4063992202281952
1783201766053549800,3.4455498046875,1.9337430802509188,1.2044818802401422,-1.452992822945118,0.1603770405054092,0.8740490674972534,-0.2581953704357147
1783201766063486700,3.45548681640625,2.2023606991782785,1.0991764624208211,-1.355858144360781,0.2326214164495468,0.6952260136604309,-0.1272139102220535
1783201766073424000,3.465423828125,2.286665122283995,1.087365613117814,-1.294918230229616,0.2883806526660919,0.5207036733627319,0.0039163269102573
1783201766083361000,3.475361083984375,2.171381185155362,1.1657540901780128,-1.116489416271448,0.3231357038021087,0.3663098514080047,0.1212259083986282
1783201766093298000,3.4852978515625,1.810210954736918,1.3983774356603622,-0.9735860892027616,0.3201471269130707,0.2868884801864624,0.2246712297201156
1783201766103234800,3.49523486328125,1.3934996004909277,1.6620777641907334,-0.7943605719089507,0.2514815032482147,0.3150559365749359,0.3577805459499359
1783201766113171700,3.505171630859375,1.2204992413222788,1.650326828381419,-0.5117524215519428,0.091403916478157,0.3663786649703979,0.5360862612724304
1783201766123108900,3.51510888671875,1.292351156220585,1.3605527319177984,-0.4087847990304231,-0.1586581170558929,0.3789407908916473,0.7221754193305969
1783201766133046000,3.5250458984375,1.4501462013423445,0.956604267002642,-0.5003577518343926,-0.4530242383480072,0.4297159910202026,0.8932997584342957
1783201766142983000,3.53498291015625,1.5097351392559706,0.527929064849019,-0.5214379492640495,-0.7513611316680908,0.5391541123390198,1.023963451385498
1783201766152919800,3.544919921875,1.3990470054849982,0.231663560539484,-0.491882184433937,-1.0022165775299072,0.6716351509094238,1.1281216144561768
1783201766162856700,3.554856689453125,1.1930186753310263,0.1081251514151692,-0.5910773026794195,-1.161380410194397,0.7970359921455383,1.20872163772583
1783201766172793900,3.5647939453125,0.8980594313144683,0.153950498522818,-0.7669447417169809,-1.2312167882919312,0.903735101222992,1.2836849689483645
1783201766182731000,3.57473095703125,0.6937611398234963,0.3126560826182365,-0.9506769227802752,-1.2196849584579468,0.9945081472396852,1.3540318012237549
1783201766192668000,3.58466796875,0.6260837341308594,0.4831377369642257,-1.04794662592113,-1.1705981492996216,1.0575069189071655,1.4349191188812256
1783201766202604800,3.594604736328125,0.6475472317896783,0.7214394203439355,-1.1112912631064653,-1.106603741645813,1.1046757698059082,1.5284823179244995
1783201766212541700,3.604541748046875,0.8141621277049184,0.9710817051663996,-1.1588017868220806,-1.0403498411178589,1.1667044162750244,1.6570698022842407
1783201766222478800,3.614478759765625,1.116683477538824,1.0597235729545351,-1.171077915549278,-0.9644684195518494,1.2664004564285278,1.8150548934936523
1783201766232416000,3.624416015625,1.4667948460653424,1.074224099732935,-1.125225095912814,-0.8855629563331604,1.33888041973114,1.987861394882202
1783201766242353000,3.634352783203125,1.788862607890367,1.0679816982120276,-1.0871446638435125,-0.8094013929367065,1.3681150674819946,2.155911445617676
1783201766252289800,3.644289794921875,2.002799811472744,1.071373386476934,-1.094844570696354,-0.7490226626396179,1.384376883506775,2.3420276641845703
1783201766262227000,3.65422705078125,2.131209187634289,1.0711319789364933,-1.0018617510944603,-0.7283746600151062,1.37964129447937,2.532597541809082
1783201766272163800,3.664163818359375,2.154379489210993,1.1145306834191082,-0.8860825777947902,-0.7348462343215942,1.3386090993881226,2.711146831512451
1783201766282101000,3.67410107421875,2.064754455604404,1.1098469095170498,-0.8168149803012609,-0.7463217973709106,1.3128111362457275,2.868285655975342
1783201766292038000,3.684037841796875,1.9459145795598625,0.950274479459226,-0.7708288896739482,-0.7280185222625732,1.355956792831421,2.991563081741333
1783201766301974800,3.693974853515625,1.7904146596379578,0.759650493055582,-0.653279784092307,-0.6866021156311035,1.4595623016357422,3.087348699569702
1783201766311912000,3.703911865234375,1.6131725712463258,0.6455711094111204,-0.4181885871917009,-0.621300995349884,1.5712774991989136,3.168278455734253
1783201766321848800,3.713848876953125,1.4271391275033354,0.5656745658755302,-0.1025444286733865,-0.5156320929527283,1.657757043838501,3.2593936920166016
1783201766331786000,3.723785888671875,1.240122517941892,0.439460507801175,0.1758615938186645,-0.3750959634780884,1.7207165956497192,3.331516027450561
1783201766341723000,3.733722900390625,0.9090385059684516,0.3111591220587492,0.5240729739427566,-0.2135523408651352,1.7331490516662598,3.366159439086914
1783201766351659800,3.74365966796875,0.4925996850535273,0.2272694172337651,0.9797627320110798,-0.0288254655897617,1.6766468286514282,3.3447484970092773
1783201766361597000,3.753596923828125,-0.0664022711902856,0.1257084466397762,1.4264239649713035,0.1487040519714355,1.570697784423828,3.246155261993408
1783201766371533800,3.763533935546875,-0.7964198425263166,-0.1002984033122658,2.0326152501523493,0.2623054087162018,1.3968706130981443,3.03762149810791
1783201766381471000,3.773470947265625,-1.6889391753703356,-0.2335609185934066,2.8256302526712416,0.2242698669433593,1.1295422315597534,2.735185384750366
1783201766391407900,3.783407958984375,-2.5764114539578555,-0.2074003491595387,3.586844341781735,0.0344596952199935,0.8098726272583008,2.402162790298462
1783201766401344800,3.7933447265625,-3.1331048409983517,-0.2570014154136181,4.175294803088903,-0.2780715525150299,0.5153533816337585,2.0850815773010254
1783201766411282000,3.803281982421875,-3.38183439489007,-0.4149193562626838,4.481334097915887,-0.6546691060066223,0.3175997734069824,1.797710657119751
1783201766421218800,3.81321875,-3.3434768994450565,-0.5047340672224759,4.435180834028125,-1.0329549312591553,0.2502553462982178,1.5650957822799685
1783201766431156000,3.823156005859375,-2.943452037714421,-0.5910293718844651,4.05808530472517,-1.3371200561523438,0.2668387293815613,1.3880338668823242
1783201766441092900,3.8330927734375,-2.311168572160601,-0.7221481531351804,3.3833898076385256,-1.5212502479553225,0.2849269211292267,1.2636685371398926
1783201766451029800,3.84302978515625,-1.5995722081780432,-0.7735781883820891,2.4230501534998417,-1.5789785385131836,0.2376204133033752,1.2092618942260742
1783201766460967000,3.852966796875,-0.9810133165940642,-0.6766852095991372,1.4378174656450748,-1.5241025686264038,0.1138750463724136,1.2285122871398926
1783201766470903800,3.86290380859375,-0.5545879391938447,-0.4624620286822318,0.4967366387277841,-1.3885986804962158,-0.0746826827526092,1.2973856925964355
1783201766480841000,3.872841064453125,-0.3087146515160799,-0.1864864482074975,-0.3052875996768474,-1.1903833150863647,-0.2993940711021423,1.393425226211548
1783201766490777900,3.88277783203125,-0.142284902909398,0.0393961908429861,-1.1276380022734402,-0.9433863162994384,-0.4669098854064941,1.498490333557129
1783201766500714800,3.89271484375,-0.0139012457109987,0.0533563271343708,-1.8125690621703865,-0.6726975440979004,-0.5491512417793274,1.5738931894302368
1783201766510652000,3.90265185546875,0.0533719630949199,-0.0948608884334564,-2.2981448399364948,-0.4090743362903595,-0.5351738333702087,1.599393606185913
1783201766520588800,3.9125888671875,0.0005732698433101,-0.2285068500742316,-2.661333424440026,-0.1688875555992126,-0.4335278570652008,1.5889908075332642
1783201766530525700,3.922525634765625,-0.1983398214779794,-0.211581141975522,-2.8476322411209343,0.0139970006421208,-0.2452478855848312,1.5610876083374023
1783201766540462800,3.932462890625,-0.4042098923303187,-0.1013181017488241,-2.768907079452276,0.1329785138368606,-0.0247408151626586,1.5428460836410522
1783201766550399700,3.942399658203125,-0.608652122336626,0.0074690207064151,-2.481867668649554,0.2087506353855133,0.1568313539028167,1.5338387489318848
1783201766560337000,3.9523369140625,-0.8303354100011289,0.1550704424634575,-2.2214900548011065,0.3017261326313019,0.3177845478057861,1.5385336875915527
1783201766570273800,3.962273681640625,-0.917376564594358,0.2143710649549961,-1.8994687624663116,0.4344839453697204,0.4459141194820404,1.5230305194854736
1783201766580210700,3.972210693359375,-0.8662024038046597,0.2156707493767142,-1.514640593084693,0.5948941707611084,0.5159429907798767,1.4809560775756836
1783201766590147800,3.98214794921875,-0.7322464994318783,0.2767754986807704,-1.1355278787404297,0.7476257085800171,0.5533169507980347,1.4269537925720217
1783201766600084700,3.992084716796875,-0.5655129455730319,0.335441914921999,-0.6715431705355643,0.87092125415802,0.523788332939148,1.368274211883545
1783201766610022000,4.00202197265625,-0.5220620725117624,0.4585404713243245,-0.2576712774991989,0.9545921683311462,0.5009048581123352,1.3009512424468994
1783201766619958800,4.011958740234375,-0.5460797846980393,0.6616039603233337,0.2166010159641504,1.0146578550338743,0.5246961712837219,1.2219491004943848
1783201766629895700,4.021895751953125,-0.4711683360986411,0.8387482874289155,0.7813736645638942,1.0394474267959597,0.5829048752784729,1.154609203338623
1783201766639832800,4.031832763671875,-0.2892420354135334,0.931311420314014,1.2728642193317412,1.0107684135437012,0.6408592462539673,1.107370138168335
1783201766649769700,4.041769775390625,0.0022448563173413,0.9841501533150672,1.680152057802677,0.9150606393814088,0.7209522128105164,1.1016604900360107
1783201766659707000,4.051706787109375,0.4577721173003315,0.995797336488962,2.1011223846673963,0.7590963840484619,0.8263617157936096,1.1556496620178225
1783201766669643800,4.061643798828125,0.9843051977463066,0.9489470302477478,2.546749598404765,0.5541948676109314,0.9236818552017212,1.283888816833496
1783201766679580700,4.07158056640625,1.4756947763577102,0.9076847532719372,2.904040357041359,0.324232280254364,0.959848940372467,1.4862490892410278
1783201766689517800,4.081517822265625,1.850275254099816,0.8735673796147108,3.1215339379310607,0.1020386889576911,0.915211260318756,1.757194995880127
1783201766699454700,4.091454833984375,2.097834741298854,0.8221814757704734,3.242249398589134,-0.1228327825665474,0.7451836466789246,2.067711591720581
1783201766709392000,4.101391845703125,2.1430314351141453,0.797176213851571,3.2065374492168424,-0.3561612069606781,0.4478893578052521,2.3918936252593994
1783201766719328800,4.111328857421875,1.977443690289557,0.7832175388649105,3.054943450692296,-0.5934248566627502,0.0886827260255813,2.6933393478393555
1783201766729265700,4.121265625,1.690825427508354,0.6803557148054242,2.9341888270676133,-0.8122305274009705,-0.2622360587120056,2.9265990257263184
1783201766739202800,4.131202880859375,1.2608936494223772,0.5979585866257549,2.730446708154678,-1.0110349655151367,-0.5796190500259399,3.067305088043213
1783201766749139700,4.1411396484375,0.6471338286831975,0.6192097567081452,2.498258831480145,-1.1467289924621582,-0.8656761646270752,3.1262009143829346
1783201766759076900,4.151076904296875,0.0998643958091735,0.6285369725018739,1.9512673387646675,-1.1996697187423706,-0.995485544204712,3.112536907196045
1783201766769013800,4.161013671875,-0.5519605132997035,0.5786164650350809,1.4413415481179952,-1.1912380456924438,-0.973152756690979,3.038696527481079
1783201766778950700,4.17095068359375,-1.1834197299238294,0.6036676119223237,1.1101719036877156,-1.15459144115448,-0.8719350695610046,2.913140058517456
1783201766788887800,4.1808876953125,-1.625237103049457,0.7124357374161482,0.5910621051102877,-1.1069589853286743,-0.7363531589508057,2.7608776092529297
1783201766798824700,4.19082470703125,-1.8486789248190816,0.5983697977751493,0.0020218612164258,-1.055445432662964,-0.5865013599395752,2.613309383392334
1783201766808761900,4.200761962890625,-1.8393536087214943,0.2579401575684547,-0.5917851586878299,-0.9951863288879396,-0.5250312685966492,2.4970648288726807
1783201766818699000,4.210698974609375,-1.741379410573095,-0.1969376995950937,-1.2887456790745258,-0.9032719135284424,-0.6324679851531982,2.4159276485443115
1783201766828635600,4.2206357421875,-1.7058777429506182,-0.7680150012969971,-2.27450560567379,-0.7690277695655823,-0.7806506752967834,2.355930805206299
1783201766838572800,4.23057275390625,-1.7999359366990624,-1.2159317872762678,-3.02944076064527,-0.616550624370575,-0.8621599078178406,2.2637414932250977
1783201766848509700,4.240509765625,-1.9799737932890653,-1.3502426425665617,-3.2758430406332013,-0.4346148669719696,-0.840175449848175,2.116047143936157
1783201766858446800,4.25044677734375,-2.253088577505201,-1.3023688384965062,-3.3559617024868724,-0.2299551963806152,-0.737066924571991,1.911600112915039
1783201766868384000,4.260384033203125,-2.592906077162921,-1.115529046806693,-3.355758873391151,-0.0081725372001528,-0.5716599225997925,1.6710106134414673
1783201766878320600,4.270320556640625,-2.93579860035181,-0.9213590583592652,-3.2184903373390434,0.2022936195135116,-0.3832823038101196,1.400647759437561
1783201766888257800,4.2802578125,-3.2185479127451777,-0.7908347358703612,-3.0178660581856964,0.373177170753479,-0.1952102035284042,1.1296366453170776
1783201766898194700,4.290194580078125,-3.426047630625963,-0.7736021537795662,-2.7472517124831675,0.468697041273117,-0.0716595128178596,0.881618082523346
1783201766908131800,4.3001318359375,-3.513548803946376,-0.8908721501588821,-2.4962533368766304,0.4797329604625702,-0.0011484757997095,0.6693893671035767
1783201766918069000,4.310069091796875,-3.5033588338434694,-1.167346327805519,-2.2278215959101915,0.4444255530834198,0.0965780839323997,0.4554599821567535
1783201766928005600,4.320005615234375,-3.451139401784539,-1.4094155470252037,-1.8364198933571576,0.4027956128120422,0.228219673037529,0.2368936389684677
1783201766937942800,4.32994287109375,-3.409066685208678,-1.4638006326854227,-1.487368555277586,0.3809417188167572,0.3803271949291229,-0.0187114998698234
1783201766947879700,4.339879638671875,-3.4837408179208635,-1.4049837020576,-1.2523147677779196,0.3974390923976898,0.5533721446990967,-0.3023308217525482
1783201766957816800,4.34981689453125,-3.6351100677788257,-1.430437292265892,-1.008494905498624,0.4396685659885406,0.7262429594993591,-0.6022525429725647
1783201766967754000,4.35975390625,-3.780480661743879,-1.5483897179514168,-0.8817354885011911,0.5000070929527283,0.8865837454795837,-0.9080426692962646
1783201766977690600,4.369690673828125,-3.9109403945639727,-1.6889882752090692,-0.7280880645781755,0.5546005368232727,0.9925082921981812,-1.2216997146606443
1783201766987627800,4.379627685546875,-4.035596701802313,-1.7658464739620685,-0.555907789620757,0.5878533124923706,1.0554325580596924,-1.5412553548812866
1783201766997564700,4.389564697265625,-4.092703029119968,-1.856729690936208,-0.2743880190223455,0.6102970838546753,1.0665546655654907,-1.8486323356628416
1783201767007501800,4.399501708984375,-3.979261358857155,-1.856393298588693,0.1238473289430141,0.6378198266029358,1.0212554931640625,-2.148645639419556
1783201767017439000,4.40943896484375,-3.775568339782953,-1.6013269428908825,0.4774094224452972,0.6899653077125549,0.9023990631103516,-2.423130989074707
1783201767027375600,4.419375732421875,-3.446374963861704,-1.129776183345914,0.7550777783125638,0.7833884954452515,0.6896090507507324,-2.6447880268096924
1783201767037312800,4.429312744140625,-2.9905621639356017,-0.6304679405644535,0.8246329605758189,0.9203476905822754,0.4273960888385772,-2.77794885635376
1783201767047250000,4.43925,-2.438722354406118,-0.2165489935159683,0.8901461739718913,1.0888582468032837,0.1228060126304626,-2.834713935852051
1783201767057186800,4.449186767578125,-1.8754501734972,0.1463540520444512,0.9775830498844384,1.2377865314483645,-0.2102268189191818,-2.8382232189178467
1783201767067124000,4.4591240234375,-1.3143934766806662,0.4788093523710965,1.0236468819230795,1.3354244232177734,-0.5252416133880615,-2.8110313415527344
1783201767077060600,4.469060546875,-0.749239500613138,0.6302092896282673,1.1904320198386906,1.3292392492294312,-0.7682704925537109,-2.7635786533355717
1783201767086997800,4.478997802734375,-0.2290871341802179,0.693207889854908,1.4626339269936084,1.197649598121643,-0.9655791521072388,-2.702296495437622
1783201767096935000,4.488934814453125,0.181754158988595,0.7443216987594962,1.7503963913738727,0.9614018797874452,-1.088342308998108,-2.639490127563477
1783201767106871800,4.498871826171875,0.4478151522357017,0.8515621762946247,2.0260914013415574,0.6527721285820007,-1.1141284704208374,-2.56160569190979
1783201767116809000,4.50880908203125,0.5979108019612729,1.0185399141728877,2.2880887253463267,0.3238722383975982,-1.0879147052764893,-2.4849741458892822
1783201767126745600,4.51874560546875,0.7008128119006752,1.2445534861266612,2.377814004456997,0.0073451255448162,-1.0220822095870972,-2.395857572555542
1783201767136682800,4.528682861328125,0.805109929460287,1.4608300924420357,2.382511222362518,-0.2744998931884765,-0.9441402554512024,-2.293445348739624
1783201767146620000,4.538619873046875,0.998543858718127,1.5813877321898937,2.403257657793164,-0.5037903189659119,-0.884534478187561,-2.1716525554656982
1783201767156556800,4.548556884765625,1.2167102973680943,1.650304324288666,2.316358542019129,-0.6769751310348511,-0.8530497550964355,-2.0193238258361816
1783201767166494000,4.558493896484375,1.40388304733932,1.6982237210661173,2.2678946631014347,-0.8033022880554199,-0.8930937051773071,-1.858434081077576
1783201767176430600,4.5684306640625,1.5238918210327623,1.7704805635035037,2.1161416746228934,-0.8977102637290955,-0.9941257834434508,-1.6920925378799438
1783201767186367700,4.57836767578125,1.5831642403431236,1.955777509665489,1.860197659307718,-0.9598587155342102,-1.1135860681533811,-1.5267585515975952
1783201767196305000,4.588304931640625,1.6560718017742038,2.129647929666936,1.5307961935937404,-0.9917868375778198,-1.2161213159561155,-1.3393937349319458
1783201767206241800,4.59824169921875,1.842950464169681,2.185319255745411,1.214773264890909,-0.9832369685173036,-1.2784931659698486,-1.1256190538406372
1783201767216179000,4.608178955078125,2.03653943785876,2.165541957607865,0.8145774305075406,-0.9531845450401306,-1.2911365032196045,-0.8996149897575378
1783201767226115600,4.618115478515625,2.1841130948260425,2.105043065242469,0.4637292721390724,-0.9106395840644836,-1.2743821144104004,-0.6870381832122803
1783201767236052700,4.628052734375,2.25825633553192,2.042235603673756,0.0923375074356794,-0.891407310962677,-1.2472492456436155,-0.5145087838172913
1783201767245990000,4.637989990234375,2.0906191108316183,1.933094553214312,-0.3154056735873222,-0.92289799451828,-1.204190969467163,-0.3971452414989471
1783201767255926800,4.6479267578125,1.748166001973301,1.6964692786142228,-0.7708709752500057,-1.0062857866287231,-1.1709153652191162,-0.3408105969429016
1783201767265864000,4.657864013671875,1.5092863725751635,1.2902151671051978,-1.3274334293872116,-1.0877554416656494,-1.122384786605835,-0.3079147636890411
1783201767275800800,4.66780078125,1.3220349313445388,0.8540113230124116,-2.013978938743472,-1.1019549369812012,-0.9944599270820618,-0.2452599108219146
1783201767285737700,4.67773779296875,1.1203007912531495,0.5241483772665262,-2.6627824542045597,-0.9927390813827516,-0.8163724541664124,-0.1554924994707107
1783201767295675000,4.6876748046875,0.7661020072825253,0.3443465213894844,-3.2633471316754816,-0.7672390937805176,-0.6161221861839294,-0.0626411288976669
1783201767305611800,4.69761181640625,0.3587157499384135,0.2680062090307474,-3.652871934440732,-0.4399823546409607,-0.4095191359519958,0.0174878668040037
1783201767315549000,4.707548828125,0.0861615039481781,0.2266632680341601,-3.8746751952230927,-0.0539371743798255,-0.241725891828537,0.061834555119276
1783201767325485800,4.71748583984375,-0.107848526430875,0.1338859078764915,-3.9265392379730937,0.3498553037643432,-0.1647732108831405,0.0486634634435176
1783201767335422700,4.727422607421875,-0.36459238688685,-0.0206651868879795,-3.787795368671417,0.7059425115585327,-0.1779747605323791,-0.013615358620882
1783201767345360000,4.73735986328125,-0.700526103913784,-0.2082312470257282,-3.40434491738379,0.9753310084342957,-0.2405873090028762,-0.1222118064761161
1783201767355296800,4.747296875,-1.0830250266302377,-0.4307569768637418,-2.748547597512603,1.1328489780426023,-0.3151251971721649,-0.2756852507591247
1783201767365234000,4.75723388671875,-1.4411067164488136,-0.6561588466599583,-2.046716840741038,1.167702555656433,-0.3657586872577667,-0.4704424440860748
1783201767375170800,4.7671708984375,-1.7801520626902578,-0.8860147732555865,-1.3911539141476152,1.091213941574097,-0.3461199998855591,-0.6958691477775574
1783201767385107700,4.777107666015625,-2.0256699610590934,-1.1791229825779794,-0.6975982337683438,0.9280554056167604,-0.3128487467765808,-0.919568657875061
1783201767395044900,4.787044921875,-2.112187384039164,-1.3393550455883143,-0.052775896897912,0.6949619650840759,-0.3271049261093139,-1.1305817365646362
1783201767404981800,4.796981689453125,-2.2075066837646067,-1.4210685754179957,0.4960825587332248,0.4643409252166748,-0.3942390084266662,-1.3116602897644043
1783201767414919000,4.8069189453125,-2.3651786870285867,-1.7038447758182882,0.9292454276949168,0.2659724354743957,-0.4060242772102356,-1.4642338752746582
1783201767424856800,4.81685693359375,-2.3973279754832384,-1.953027041913569,1.2351426837027073,0.1356451362371444,-0.3684022128582001,-1.5954220294952393
1783201767434793700,4.826793701171875,-2.3196523228675128,-1.8841098652929067,1.443286836966872,0.0424736440181732,-0.3062799870967865,-1.7307270765304563
1783201767444731000,4.83673095703125,-2.12612589302063,-1.461386849541962,1.5931056425124406,-0.0283004101365804,-0.2690173089504242,-1.8588451147079468
1783201767454667800,4.846667724609375,-1.7562128225676714,-1.006696623905003,1.684402700984478,-0.0815961211919784,-0.2759186327457428,-1.9496797323226929
1783201767464605000,4.85660498046875,-1.286406422472,-0.7867994890049099,1.7129390596389769,-0.1222293823957443,-0.3805473148822784,-2.0002264976501465
1783201767474541800,4.866541748046875,-0.8566362646885216,-0.708304921221733,1.6594184818536042,-0.1735500991344452,-0.5832330584526062,-2.0342743396759038
1783201767484478700,4.876478759765625,-0.4918933634150773,-0.5990951894402503,1.6831839728444813,-0.2305505275726318,-0.8466436862945557,-2.102009057998657
1783201767494416000,4.886415771484375,-0.2701279869576916,-0.4540072118088603,1.867233549293876,-0.3240123093128204,-1.1255536079406738,-2.217426061630249
1783201767504352800,4.896352783203125,-0.2354761776302009,-0.2301239298820495,2.195054467818141,-0.4701546132564544,-1.3955544233322144,-2.362910032272339
1783201767514290000,4.9062900390625,-0.1929001877073198,0.0760617876783013,2.485688688242435,-0.679884135723114,-1.6230541467666626,-2.4858994483947754
1783201767524227000,4.91622705078125,-0.0309743811900727,0.3416705801784992,2.7479864564985035,-0.9607263803482056,-1.7897793054580688,-2.566204309463501
1783201767534164200,4.926164306640625,0.1435896653650328,0.616492606703937,3.0138866331607104,-1.2914806604385376,-1.919166088104248,-2.572324275970459
1783201767544101000,4.93610107421875,0.1985614283394068,0.838836842495203,3.224498637843132,-1.6047061681747437,-2.069409847259521,-2.4367403984069824
1783201767554038300,4.946038330078125,0.4910136214384809,0.5500348059341311,2.975346182364225,-1.9011859893798828,-2.1670520305633545,-2.2256429195404053
1783201767563975400,4.955975341796875,0.4219895869098603,0.429367276071012,2.5867566146224736,-2.167255401611328,-2.091339349746704,-1.9883780479431152
1783201767573912000,4.965912109375,0.300275689798966,0.6293997268110514,2.725326296401024,-2.407233238220215,-1.8268322944641116,-1.7818158864974976
1783201767583849200,4.97584912109375,0.1068963402725756,0.9078729693204164,2.724427886256576,-2.632931709289551,-1.4348443746566772,-1.635501742362976
1783201767593786000,4.9857861328125,-0.0754281294172629,1.234897622900456,2.7437328907072542,-2.814827442169189,-1.0664530992507937,-1.5416260957717896
1783201767603723300,4.99572314453125,-0.0957746057448908,1.6857641985960303,2.495111765626073,-2.914225816726685,-0.8871778845787048,-1.483493089675903
1783201767613660400,5.005660400390625,-0.0049270080734044,2.151658247553557,1.9058248534947635,-2.8734846115112305,-0.9915367960929872,-1.4331371784210205
1783201767623597000,5.01559716796875,0.1214892945747822,2.3125568116486077,0.8741787895113229,-2.685919761657715,-1.2168766260147097,-1.294377088546753
1783201767633534200,5.0255341796875,0.579778932943195,1.5360533834695815,-0.2565659466058015,-2.424700260162353,-1.462954878807068,-1.1506366729736328
1783201767643471400,5.035471435546875,0.9025371612504124,0.6709305185299367,-1.1221493417292832,-2.158758640289306,-1.6627476215362549,-1.0955767631530762
1783201767653408300,5.045408203125,0.7744561402603983,0.6958629344083368,-1.681876981899142,-1.929153680801392,-1.7386881113052368,-1.1240392923355105
1783201767663345400,5.055345458984375,0.5066583132833242,0.96496081113331,-2.002629277211428,-1.7409625053405762,-1.6614543199539185,-1.158548355102539
1783201767673282000,5.065281982421875,0.2671944542564451,1.134912084929645,-2.266273199379444,-1.559664607048035,-1.53356671333313,-1.1177726984024048
1783201767683219200,5.07521923828125,0.1840795331962406,1.12972014230974,-2.82317116908133,-1.3288805484771729,-1.393897533416748,-0.9601561427116394
1783201767693156400,5.08515625,0.2460616498567163,0.9452788631290197,-3.830463128530979,-1.0722951889038086,-1.187630295753479,-0.7807483077049255
1783201767703093200,5.09509326171875,0.1342870360232889,0.9284751739747822,-4.441705851882696,-0.815314769744873,-0.8785498738288879,-0.6051146984100342
1783201767713030400,5.105030517578125,0.0835061123348772,0.7355700908966362,-4.608630106008053,-0.5987257361412048,-0.7353489995002747,-0.5225705504417419
1783201767722967000,5.114967041015625,-0.3789981480538845,0.7660900976490229,-5.009677588784695,-0.4130856692790985,-0.6154626607894897,-0.5568572878837585
1783201767732904200,5.124904296875,-1.1319259087257088,1.005242991030589,-5.053439573621749,-0.2174580991268158,-0.3977116644382477,-0.6401673555374146
1783201767742841300,5.13484130859375,-1.631645070395619,0.8530798143159598,-4.636635718786716,0.0151997935026884,-0.1865050792694091,-0.7560526728630066
1783201767752778200,5.1447783203125,-2.151671837687492,0.7172819353383034,-4.384986770316958,0.2478436827659607,-0.0341605469584465,-0.8932449221611023
1783201767762715400,5.15471533203125,-2.5623119091957807,0.545539394211024,-4.141420590537786,0.4470077753067016,0.1239233911037445,-1.045201063156128
1783201767772652000,5.164652099609375,-2.7864354296192526,0.2764638937146402,-3.760230485397577,0.5752858519554138,0.3336769044399261,-1.155408263206482
1783201767782589200,5.174589111328125,-2.772196768647432,-0.075549454241991,-3.2061645242512222,0.6010282635688782,0.5783905386924744,-1.2236772775650024
1783201767792526300,5.1845263671875,-2.634406839069724,-0.3845188842367381,-2.6657863121956584,0.5427839159965515,0.83566814661026,-1.2132245302200315
1783201767802463200,5.194463134765625,-2.408309680485725,-0.7490282690152525,-2.211816217526793,0.4200432300567627,1.062400460243225,-1.1498181819915771
1783201767812400400,5.204400390625,-2.1359511214643714,-1.225205373186618,-1.9135621697485443,0.2788650691509247,1.19887113571167,-1.07130765914917
1783201767822337000,5.2143369140625,-2.101837401068956,-1.7143799060970544,-1.788740442815423,0.173566535115242,1.2648627758026123,-1.0288344621658323
1783201767832274200,5.224274169921875,-2.3363695027820763,-2.047084505009651,-1.6775065117299557,0.140787273645401,1.273391842842102,-1.0847547054290771
1783201767842211300,5.23421142578125,-2.697629895702004,-2.2056771302498874,-1.5703642338722943,0.1892515122890472,1.280040979385376,-1.2534480094909668
1783201767852148200,5.244148193359375,-3.0460423513561485,-2.305990000478923,-1.5987112074345349,0.3313729763031006,1.3273756504058838,-1.5003105401992798
1783201767862085400,5.25408544921875,-3.220620627366006,-2.3610832344084978,-1.635054440447688,0.540907084941864,1.4295964241027832,-1.7759937047958374
1783201767872022300,5.264022216796875,-3.233683230295777,-2.22941880197376,-1.6438018105268477,0.7881885170936584,1.541702389717102,-2.048848390579224
1783201767881959200,5.273959228515625,-3.0307413218498227,-1.931388918340206,-1.663839220905304,1.035959243774414,1.6533769369125366,-2.2901320457458496
1783201767891896300,5.283896240234375,-2.5648516568064688,-1.5081117758378386,-1.4920920766681431,1.299713134765625,1.735175609588623,-2.469730854034424
1783201767901833200,5.293833251953125,-1.935978145826608,-0.9315143224749712,-1.3353215522885322,1.6052137613296509,1.7957621812820437,-2.5482068061828613
1783201767911770400,5.303770263671875,-1.0515794294655323,-0.2621180277749896,-1.236743104636669,1.940101981163025,1.796834945678711,-2.530601024627685
1783201767921707300,5.313707275390625,-0.0600648483296856,0.3696175946377217,-1.0539040730208158,2.249281883239746,1.7342084646224976,-2.4545910358428955
1783201767931644200,5.32364404296875,0.7464345992602407,0.932791283608228,-0.6182149004518985,2.467446804046631,1.6168410778045654,-2.345655918121338
1783201767941581300,5.333581298828125,1.3515927420012652,1.435357943663746,0.1848281596064567,2.553773164749145,1.409946084022522,-2.217154026031494
1783201767951518200,5.343518310546875,1.799475479580462,1.86088929483369,1.100209897121787,2.4828989505767822,1.1220964193344116,-2.067388772964477
1783201767961455400,5.353455322265625,2.166180255511403,2.0354978198513387,1.9791700756907464,2.271455764770508,0.7805010676383972,-1.8823403120040891
1783201767971392300,5.363392333984375,2.4171686942458157,1.8969670087784527,2.762984703665972,1.9458407163619995,0.4198659360408783,-1.6662778854370115
1783201767981329200,5.3733291015625,2.497353407073021,1.6304884477064012,3.4036645339041947,1.561259150505066,0.1026098504662513,-1.4328398704528809
1783201767991266300,5.383266357421875,2.3918708791211247,1.4177747945696115,3.901303089907765,1.1785290241241455,-0.1166607141494751,-1.2164734601974487
1783201768001203200,5.393203125,2.1810070916347204,1.2998688383743169,4.343214497992396,0.8615641593933105,-0.340280681848526,-1.0498206615447998
1783201768011140400,5.403140380859375,1.8990727488860488,1.265361880877614,4.613507356655598,0.6315293908119202,-0.5985817909240723,-0.9407452940940856
1783201768021077200,5.4130771484375,1.5330080244243145,1.3602549180150032,4.923552379992604,0.4295336306095123,-1.0084140300750732,-0.844229519367218
1783201768031014100,5.42301416015625,1.0742911736197769,1.6066154046878218,5.092642287719249,0.1968878805637359,-1.3603028059005735,-0.7765820622444153
1783201768040951300,5.432951416015625,1.0445531110253183,1.825912527868152,5.280455600616335,-0.0520766004920005,-1.736918568611145,-0.6544751524925232
1783201768050888200,5.44288818359375,1.3946136992126703,1.861591159492731,5.138456528910994,-0.2890492081642151,-2.086035251617432,-0.4102246463298797
1783201768060825300,5.452825439453125,1.629224419119954,1.5478221471965312,4.480604614597559,-0.5117510557174683,-2.369035243988037,-0.1006697192788124
1783201768070762200,5.46276220703125,1.6601272146448491,1.4510259067863225,3.948517845547199,-0.7435347437858582,-2.583390712738037,0.1753184497356414
1783201768080699100,5.47269921875,1.308205435695499,1.69166275511533,3.477838608139753,-1.0168557167053225,-2.654019832611084,0.3531228005886078
1783201768090636300,5.48263623046875,1.0251641546182333,1.86914610491693,3.1538679353028534,-1.3229172229766846,-2.627113103866577,0.4807143211364746
1783201768100574200,5.49257421875,0.8389295622799545,1.9007681546270847,2.7904660003095865,-1.653835654258728,-2.5611298084259038,0.6087106466293335
1783201768110511400,5.502511474609375,0.6424893638782203,1.8491072332337497,2.1871137379467487,-1.9519528150558472,-2.4752469062805176,0.7779862284660339
1783201768120448300,5.5124482421875,0.5655033740270883,1.5694158471062778,1.3245616733431815,-2.168398141860962,-2.305002450942993,0.9764824509620668
1783201768130385200,5.52238525390625,0.4538707259476184,1.1400509091228246,0.4907832832813262,-2.276232957839966,-2.0795557498931885,1.104747295379639
1783201768140322300,5.532322265625,0.017855390164256,1.0828165715113285,-0.1242979953199625,-2.289189577102661,-1.8501102924346924,1.1058118343353271
1783201768150259200,5.54225927734375,-0.5847330482192337,1.2305027489423752,-0.7205792963832617,-2.214273691177368,-1.619704008102417,1.0064218044281006
1783201768160196400,5.5521962890625,-1.0526491045236588,1.2373667894929647,-1.2857301306456326,-2.065470933914185,-1.4089707136154177,0.8639505505561829
1783201768170133200,5.56213330078125,-1.4431722706764936,1.2275783859282732,-1.834720103701949,-1.841053128242493,-1.1996076107025146,0.7161480784416199
1783201768180070100,5.572070068359375,-1.7479808546647428,1.2603700639396904,-2.386631517162919,-1.537960648536682,-0.962161123752594,0.5688155889511108
1783201768190007300,5.58200732421875,-1.908053489329666,1.1887589720599352,-2.953752190193533,-1.1807482242584229,-0.6539322137832642,0.426989734172821
1783201768199944200,5.591944091796875,-2.012457866656035,1.1862852754227815,-3.387064112237096,-0.8156723976135254,-0.3086418509483337,0.2640745043754577
1783201768209881300,5.60188134765625,-2.192079982051998,1.479595290927589,-3.539887360295653,-0.4724830687046051,0.017477910965681,0.0796977430582046
1783201768219818200,5.611818359375,-2.382509761057794,1.906106885306537,-3.558979014256596,-0.1853220164775848,0.2874503433704376,-0.103635087609291
1783201768229755100,5.621755126953125,-2.406614859266579,2.2053151650696994,-3.548926991319656,0.0409492030739784,0.5156962871551514,-0.2845931649208069
1783201768239692300,5.6316923828125,-2.307016420917213,2.4114434484668075,-3.509666409555077,0.2340342253446579,0.7587934732437134,-0.4486522078514099
1783201768249629200,5.641629150390625,-2.046747820401192,2.586037652698159,-3.299236775702238,0.4248494505882263,0.980345606803894,-0.5829277038574219
1783201768259566300,5.65156640625,-1.7044202376186848,2.8192788378179072,-3.1571313210129737,0.6483811736106873,1.1519184112548828,-0.6706684231758118
1783201768269503200,5.661503173828125,-1.3440462721444666,2.9986192136630416,-3.1385435249209404,0.9122607707977296,1.2954881191253662,-0.7143916487693787
1783201768279440100,5.671440185546875,-1.0294394938498734,3.2302900807261463,-3.0222715996682643,1.2087336778640747,1.4607075452804563,-0.7211728096008301
1783201768289377300,5.681377197265625,-0.7929575732432306,3.625038171097636,-2.822847343954444,1.5108357667922974,1.7136335372924805,-0.6488816142082214
1783201768299314200,5.691314208984375,-0.4572773195207119,4.103151942420006,-2.509803723323345,1.8118083477020264,2.0100462436676025,-0.4642461538314819
1783201768309251300,5.701251220703125,0.0513974481515586,4.494834507741034,-2.206866486164927,2.0814788341522217,2.1728525161743164,-0.1537079811096191
1783201768319188500,5.7111884765625,0.7229057665694505,4.6519645130828025,-2.116964681443572,2.287504911422729,2.198988437652588,0.2311933189630508
1783201768329125000,5.721125,1.467565830437839,4.619533777338266,-2.0561346574276684,2.4268085956573486,2.19394326210022,0.6541690230369568
1783201768339062300,5.731062255859375,2.119902196200192,4.52403926717639,-1.737161646747589,2.5167407989501958,2.2066094875335693,1.0998462438583374
1783201768348999200,5.740999267578125,2.4287425199225545,4.4366003454372285,-1.282749069008231,2.5596461296081543,2.253610610961914,1.5178637504577637
1783201768358936300,5.750936279296875,2.456619537885487,4.343226480691135,-0.8732043915212154,2.568084716796875,2.387985944747925,1.911728024482727
1783201768368873500,5.76087353515625,2.3607576557159424,4.238475189623236,-0.3841302502453327,2.525477647781372,2.61929702758789,2.2644917964935303
1783201768378810000,5.77081005859375,2.1939279480062424,4.152327476738393,0.1300391693204641,2.424001693725586,2.882781505584717,2.567542791366577
1783201768388747300,5.780747314453125,1.9949388688392933,4.048024513959884,0.4938496851146221,2.284339189529419,3.1275017261505127,2.834859609603882
1783201768398684200,5.79068408203125,1.83767880737707,3.9003754536688326,0.5753244377523661,2.131537437438965,3.3572747707366943,3.0882534980773926
1783201768408621300,5.800621337890625,1.6281903998970984,3.69708546243757,0.660948711284995,1.9745087623596191,3.474743127822876,3.328361749649048
1783201768418558500,5.810558349609375,1.267051733660698,3.611203122490645,0.8828963489741086,1.784669280052185,3.4790096282958984,3.549705743789673
1783201768428495000,5.8204951171875,0.9305186625011264,3.66545522942096,1.162612869542837,1.5850608348846436,3.403520345687866,3.778719902038574
1783201768438432300,5.830432373046875,0.6886037570603192,3.5845512624084948,1.4699462958335876,1.421767234802246,3.2316317558288574,4.003632068634033
1783201768448369200,5.840369140625,0.4836952247165143,3.3115503138303755,1.6883680974841118,1.3425116539001465,3.072303533554077,4.148053169250488
1783201768458306300,5.850306396484375,0.5001286192536354,3.1785289138287305,1.924568716931343,1.3198299407958984,2.73001480102539,4.245769500732422
1783201768468243500,5.860243408203125,0.2018034059353172,3.225277513261139,1.863968994539976,1.3306735754013062,2.308232069015503,4.2931084632873535
1783201768478180000,5.87018017578125,-0.3382398750774562,3.1622254292815923,1.8656804746329785,1.3709008693695068,1.949101567268372,4.283427238464356
1783201768488117200,5.8801171875,-0.5794932478696108,2.93639656624496,2.037680716848373,1.400768756866455,1.7605828046798706,4.2640156745910645
1783201768498054100,5.89005419921875,-0.6596268150314688,2.673274622124433,2.4417279659628868,1.3877118825912476,1.72313129901886,4.245598793029785
1783201768507991300,5.8999912109375,-0.694268431758508,2.484794369751215,2.714644158867001,1.3195704221725464,1.7927812337875366,4.218211174011231
1783201768517928400,5.909928466796875,-0.7085463287621736,2.349382275220752,2.84499195574522,1.1936912536621094,1.9134811162948608,4.133616924285889
1783201768527865600,5.919865478515625,-0.7720548512723296,2.4348738622844217,2.9105267964512107,1.0403006076812744,2.051323890686035,4.026868343353272
1783201768537803800,5.9298037109375,-0.7666885019335895,2.4305320336878298,2.936542112195492,0.8610695600509644,2.1491363048553467,3.944594860076904
1783201768547740700,5.93974072265625,-0.461685418286547,1.9744839637011289,2.9338550650686024,0.6694854497909546,2.1269805431365967,3.865402221679688
1783201768557677800,5.949677734375,-0.3588062047008424,1.5993343077689408,2.9159979213386773,0.4488452076911926,1.913765788078308,3.750813007354736
1783201768567614500,5.959614501953125,-0.5038824188292026,1.3189520167678594,2.9300469049572944,0.1333043128252029,2.350147485733032,3.633342504501343
1783201768577551600,5.969551513671875,-0.3702246206201612,1.4098521848767995,3.0860452759206294,-0.1015959680080413,1.5774646997451782,3.580396175384521
1783201768587488800,5.97948876953125,-1.0000658075883984,1.455213421604037,2.2306676329910755,-0.3165479600429535,1.0564099550247192,3.536501169204712
1783201768597425700,5.98942578125,-1.4173662137687206,0.8915899430394172,2.660328046789765,-0.4773723483085632,0.8849255442619324,3.4588897228240967
1783201768607362800,5.99936279296875,-1.0834170216225087,0.5556488464236259,3.248511966115236,-0.5756248831748962,0.8135003447532654,3.356142997741699
1783201768617299500,6.009299560546875,-1.4641319104664028,0.3746960669457912,2.629645908278227,-0.6434491872787476,1.0358738899230957,3.262453317642212
1783201768627236600,6.019236572265625,-1.653566248694062,0.2362199086695909,2.7701468503803013,-0.7465598583221436,1.2203483581542969,3.1979403495788574
1783201768637173800,6.029173828125,-1.997079095738381,0.1283352880120277,2.5081664775103327,-0.9333622455596924,1.1605989933013916,3.1601650714874268
1783201768647110700,6.039110595703125,-2.204007443471998,-0.1337199036598205,1.5805542039752003,-1.2146764993667605,0.8459369540214539,3.107806921005249
1783201768657047800,6.0490478515625,-2.417321108328551,-0.4852928691715001,0.5278559996128082,-1.529466986656189,0.3345679044723511,3.038017511367798
1783201768666984400,6.058984375,-2.655620015229285,-0.7976496765822172,-0.6004033494293689,-1.8206714391708372,-0.1459774225950241,2.9308197498321533
1783201768676921600,6.068921630859375,-2.893189292681217,-1.0930495039731265,-1.5245891556471585,-2.0223634243011475,-0.4162166118621826,2.7782886028289795
1783201768686858800,6.078858642578125,-3.152353439086676,-1.3480641294836997,-2.036068020954728,-2.110222578048706,-0.4198648929595947,2.600112199783325
1783201768696795600,6.088795654296875,-3.323351226261258,-1.4046633840620515,-2.19343417313993,-2.0917510986328125,-0.2098802328109741,2.38174057006836
1783201768706732500,6.098732666015625,-3.42317265971154,-1.4817203202575444,-2.1232804404616354,-1.992069959640503,0.0875604972243309,2.1072235107421875
1783201768716669400,6.10866943359375,-3.453073876978457,-1.5502794772207735,-2.039679197189212,-1.7783030271530151,0.2509252429008484,1.8231569528579712
1783201768726606600,6.118606689453125,-3.424762559251487,-1.4203519515812395,-2.282530506697297,-1.506808876991272,0.208152487874031,1.556728720664978
1783201768736543700,6.128543701171875,-3.3061955087989565,-1.3498305546343323,-2.657303146010637,-1.2705718278884888,0.0634795501828193,1.305616855621338
1783201768746480600,6.138480712890625,-3.039808133141696,-1.5456453876793383,-2.855888612812757,-1.0787312984466553,-0.1224642246961593,1.1181361675262451
1783201768756417500,6.14841748046875,-2.6329499182596803,-1.7515172120973468,-2.8849761756092307,-0.9084874987602234,-0.2873431146144867,1.002728819847107
1783201768766354700,6.158354736328125,-2.1207858471669256,-1.915275403407216,-2.8272230748206377,-0.6577772498130798,0.0021249041892588,0.9368491172790528
1783201768776291600,6.16829150390625,-1.8633980627842248,-1.983463973492384,-2.629904266953468,0.1622776389122009,1.952800989151001,-0.0458412207663059
1783201768786228700,6.178228759765625,-9.500887768548726,0.7503335063949227,-4.872006901672482,0.4665141999721527,1.879992246627808,-2.1667165756225586
1783201768796165600,6.18816552734375,-19.825787735426424,2.320009758003056,-5.262138438159227,0.7406149506568909,3.716638803482056,-3.112101554870605
1783201768806102500,6.1981025390625,-12.557473141229153,-2.900282465812564,-1.9639982255220407,0.6737110018730164,3.9131133556365967,-2.626033306121826
1783201768816039700,6.208039794921875,-5.031009715148806,-6.475013760474324,-4.288921766790748,0.5959956049919128,1.4205182790756226,-2.0127170085906982
1783201768825976600,6.2179765625,1.856071227027476,-4.999974525415897,-10.779441723954678,0.7846845984458923,-0.8617434501647949,-1.6559031009674072
1783201768835913700,6.227913818359375,2.7603625384688377,-2.616359141203761,-5.474728464916348,1.2185933589935305,-2.1852989196777344,-1.597462177276611
1783201768845850600,6.2378505859375,2.495085462141037,-2.2756159050032494,-0.5554536161124706,1.4824254512786863,-3.3723039627075195,-1.52462899684906
1783201768855787500,6.24778759765625,3.38069516172707,-2.20604114125669,0.1586521003425121,1.4037870168685913,-4.329231262207031,-1.2693874835968018
1783201768865724700,6.257724609375,3.2344933776348825,-1.602195542418957,0.8953414045274257,1.0378859043121338,-4.739727020263672,-1.027953028678894
1783201768875661600,6.26766162109375,3.092141546969116,-1.5091165689662098,2.3797984562724825,0.5687211751937866,-4.711289882659912,-0.7606501579284668
1783201768885599500,6.277599609375,3.015696605192125,-1.3676374294817446,3.9722663854032754,0.1000226736068725,-4.147404193878174,-0.4123619198799133
1783201768895536600,6.28753662109375,3.1204958270549774,-0.5171694781646132,4.613715446448325,-0.4913655817508697,-2.5904908180236816,0.1502812206745147
1783201768905473800,6.297473876953125,4.405362034347653,0.7150535186991095,5.652817671656608,-1.2748297452926636,-0.5498527884483337,1.0867493152618408
1783201768915410400,6.307410400390625,4.337867291745543,2.187816333258152,7.007411495169997,-1.6884980201721191,0.9038283228874208,1.7655606269836426
1783201768925347600,6.31734765625,3.728190210275352,3.2223300616323947,6.729220576733351,-1.739029884338379,1.5019294023513794,1.967557430267334
1783201768935284700,6.32728466796875,2.429778584972024,3.609358079145848,5.535066321501136,-1.5513492822647097,1.6382275819778442,1.91352641582489
1783201768945221600,6.3372216796875,1.0743429038070142,3.4519556866034864,4.744976266518235,-1.1584352254867554,1.6103293895721436,1.691128492355347
1783201768955158800,6.34715869140625,0.001997311297059,3.59734440074712,4.1523979116261005,-0.9890437722206116,1.34135901927948,1.376410961151123
1783201768965095400,6.357095458984375,-0.4662124672569334,4.236249038006365,2.8492636417150496,-1.8792121410369875,0.270262598991394,1.0261272192001345
1783201768975032600,6.367032470703125,-1.0346461225822567,4.993018714928627,-1.4532488435328006,-2.6775710582733154,-0.3943041861057281,0.6831256151199341
1783201768984969700,6.3769697265625,-1.627133584320545,3.76664999705106,-2.2750971418261527,-2.8785884380340576,-0.6986076235771179,0.4548109769821167
1783201768994906600,6.38690673828125,-2.052536194544285,1.4691519305855034,-0.5528296973496675,-2.98079252243042,-0.5094318985939026,0.3292323350906372
1783201769004843800,6.39684375,-1.4658369608186184,0.2889393992051482,0.663921589615941,-3.191037893295288,-0.0427107736468315,0.2351300865411758
1783201769014780400,6.406780517578125,-0.477618681281805,-0.1458940333172678,0.7975041306316852,-3.3803927898406982,0.2164466381072998,0.1883935630321502
1783201769024717600,6.416717529296875,0.4787174363039433,-0.2788543507814407,0.0438286203324794,-3.399211168289185,0.1634145677089691,0.1193340718746185
1783201769034654700,6.42665478515625,1.2247228503666818,-0.5263454489193856,-0.8311129702448844,-3.2668607234954834,0.1266534477472305,-0.0265459865331649
1783201769044591600,6.436591552734375,1.6085522179692984,-0.8902610325232148,-1.533066476613283,-3.151210308074951,0.4634445309638977,-0.1743911057710647
1783201769054528800,6.44652880859375,1.832481238733977,-1.2423555376909672,-1.7977847500145434,-3.0441765785217285,1.2231022119522097,-0.3628159761428833
1783201769064465400,6.45646533203125,2.050924813824892,-1.751936314292252,-1.583628789114952,-2.858736038208008,2.282181739807129,-0.3962724804878235
1783201769074402600,6.466402587890625,2.0180121397823094,-2.28911719161123,-1.7878554766744374,-2.2625443935394287,3.3305647373199463,-0.3798853158950805
1783201769084339700,6.476339599609375,1.769259643406421,-2.4991332762271163,-2.7920062154889105,-1.4719091653823853,3.863668441772461,-0.3288002908229828
1783201769094276600,6.486276611328125,1.9160468261711296,-2.2072681988336145,-3.9804263109833,-1.0023998022079468,2.742503881454468,-0.1341109126806259
1783201769104213800,6.4962138671875,2.0073533831238746,-1.5926912164926528,-7.551333663442731,-0.3565102517604828,3.0175323486328125,0.3503332734107971
1783201769114150400,6.506150390625,3.690701314358413,-1.6261244072780012,-6.504167374244332,0.6421545743942261,2.55474066734314,0.8112151026725769
1783201769124087600,6.516087646484375,5.11582325682044,-1.2984800143644213,-5.461469170370697,1.782970666885376,2.253294944763184,1.3866496086120603
1783201769134024700,6.526024658203125,5.377359977576137,-1.1547288382947445,-8.2907176135391,2.7769601345062256,1.8405917882919312,1.8906779289245603
1783201769143961600,6.535961669921875,5.992884323769808,-1.2906558966100214,-5.897582705831527,3.706782341003418,1.254958152770996,2.338693857192993
1783201769153898800,6.545898681640625,5.236751483446359,-0.7269773268572985,-6.209415781629085,4.464729309082031,0.840543270111084,2.672163486480713
1783201769163835600,6.555835693359375,5.183856344082951,0.4855585343703627,-4.559188906490802,4.938812255859375,0.5666795372962952,2.8651607036590576
1783201769173772500,6.5657724609375,4.59839512771964,1.086869646294415,-3.538430731746554,5.134421348571777,0.4300738275051117,2.8950788974761963
1783201769183709700,6.575709716796875,3.703705172838271,1.195942599953711,-3.259542478695512,5.104587554931641,0.3202229738235473,2.778247833251953
1783201769193646600,6.585646484375,2.8705864157289267,1.4717036608949303,-3.4889100372523068,4.834821701049805,0.0647617429494857,2.613733530044556
1783201769203584800,6.595584716796875,2.300166408891976,2.0020751504600045,-3.3904099155336618,4.442938327789307,-0.2820396423339844,2.4180564880371094
1783201769213521700,6.605521728515625,1.6520507295645772,2.117931772910058,-2.9714836617171763,4.0475616455078125,-0.6178156733512878,2.233806133270264
1783201769223458600,6.61545849609375,1.6189754123061897,1.487319747699797,-2.3351170185029506,3.699697256088257,-1.0321359634399414,2.038116455078125
1783201769233395500,6.6253955078125,1.4659050576187669,1.7022142520070076,-1.970651838192344,3.455352306365967,-1.4382904767990112,1.795967698097229
1783201769243332600,6.63533251953125,1.0194679888032376,2.1768524561733007,-1.5915256798446178,3.332202196121216,-1.6746386289596558,1.5073859691619873
1783201769253269800,6.645269775390625,0.6606104192413389,2.3176807305336,-1.0564601872444153,3.305145502090454,-1.6127442121505735,1.271373987197876
1783201769263206700,6.65520654296875,0.5307919069342315,2.3702707494705915,-0.2140992622762918,3.346174955368042,-1.3050545454025269,1.1187061071395874
1783201769273143600,6.6651435546875,0.2591807322140783,2.198165293315053,0.4839502223908901,3.3828866481781006,-0.9832860231399536,1.0241187810897827
1783201769283080700,6.675080810546875,0.1145160214960575,2.1178888105511664,0.9008394174218176,3.357734680175781,-1.33225679397583,0.902466118335724
1783201769293017600,6.685017578125,0.1613821098282933,2.659336113142967,-0.1352653795361519,3.2247347831726074,-1.2902171611785889,0.7622866034507751
1783201769302954800,6.694954833984375,0.8094644714079797,3.252220757505297,0.6628419776856899,2.9852454662323,-0.9041480422019958,0.635935366153717
1783201769312891600,6.7048916015625,1.1867385721482335,2.757769599366188,2.922733367073536,2.712790012359619,-0.6026991605758667,0.546754002571106
1783201769322828500,6.71482861328125,0.8430490533627569,2.3486107063263653,3.1291128487527367,2.364417552947998,-0.3271471858024597,0.6220391392707825
1783201769332765700,6.724765625,0.1752934385418891,1.9059885196238755,2.6430852355659007,1.9519519805908203,0.0748494714498519,0.8189284801483154
1783201769342702600,6.73470263671875,-0.5980098784215748,0.6929051075160503,2.015062057805061,1.5578033924102783,0.6417549252510071,1.0386810302734375
1783201769352639700,6.7446396484375,-1.0060063035532831,-0.5787327848911286,1.6225573624461889,1.2780736684799194,1.138178825378418,1.236072063446045
1783201769362576600,6.75457666015625,-1.078283311995864,-1.076115904828906,0.9870610723257064,1.116264820098877,1.3512245416641235,1.4308618307113647
1783201769372513500,6.764513427734375,-1.3377619311779736,-0.9921434901565312,0.018881226080656,1.0379042625427246,1.3148995637893677,1.512319564819336
1783201769382450700,6.77445068359375,-1.980459969370812,-0.4963982005536556,-0.715354839733243,1.017255425453186,1.262281060218811,1.4277859926223757
1783201769392387600,6.7843876953125,-2.7455606906563044,0.0179705409765243,-1.103663836967945,1.0514466762542725,1.444247484207153,1.2333039045333862
1783201769402324700,6.79432470703125,-3.28221520601362,0.3935398836255073,-1.2838929783463475,1.1280696392059326,1.9068942070007324,1.123461365699768
1783201769412261600,6.80426171875,-2.9668612626135347,0.5048889655232429,-0.9973474885404108,1.1678372621536257,2.3649139404296875,1.1927475929260254
1783201769422198500,6.814198486328125,-2.1588434828825296,-0.1704442449450492,-0.811311122187972,1.1236425638198853,2.6070003509521484,1.3443092107772827
1783201769432135700,6.8241357421875,-1.0745507013387978,-0.939976080545783,-1.2742699944764375,1.0435642004013062,2.735101222991944,1.5187853574752808
1783201769442072600,6.834072509765625,0.3923619258873164,-0.9999608859091996,-1.849196372821927,1.1014498472213743,3.0337133407592773,1.665140151977539
1783201769452009700,6.844009765625,1.90019824578464,-1.0633376717984675,-2.1990233714491128,1.1360446214675903,2.729300737380981,1.8758251667022705
1783201769461946600,6.853946533203125,2.7733944539994,-0.4708575165838002,-3.0302684436410665,1.1429808139801023,2.3621366024017334,2.053729057312012
1783201769471883500,6.863883544921875,2.792758495160937,0.9672399350464344,-3.5210745232760905,1.3651281595230105,2.125350952148437,2.0719916820526123
1783201769481820700,6.873820556640625,2.7742472714364528,1.3063818735301491,-3.16905615208447,1.6795060634613037,1.7861523628234863,2.1838178634643555
1783201769491757600,6.883757568359375,3.0670237645864487,1.6902087569147348,-3.358140800091624,1.8639551401138303,1.1305216550827026,2.337015151977539
1783201769501695700,6.89369580078125,2.90316298968494,2.013407860857248,-3.590798632365465,2.02166748046875,0.3873364329338074,2.3787646293640137
1783201769511632600,6.903632568359375,2.875337994170189,2.5305472361445425,-3.131062229254842,2.096507787704468,-0.2900934815406799,2.3842480182647705
1783201769521568800,6.91356884765625,2.98735781493634,2.929186488735676,-2.422185645624995,2.068694829940796,-0.719868540763855,2.469264030456543
1783201769531506000,6.923505859375,3.0128011760115623,2.9776375081717967,-1.720634290316701,2.008545398712158,-0.7158452272415161,2.6475753784179688
1783201769541442800,6.93344287109375,2.7032398445382717,2.31989957562685,-1.2890963922083376,1.9390031099319456,-0.5313256978988647,2.649420738220215
1783201769551379700,6.943379638671875,0.9131941643431782,1.0520488005429505,-1.2725780958667396,1.7618389129638672,-0.6245615482330322,2.066401481628418
1783201769561316600,6.953316650390625,-2.882185668107867,-0.5317547606170178,-0.7818336832910776,1.4898436069488523,-0.325941801071167,1.6118301153182983
1783201769571253800,6.963253662109375,-3.1889263892024755,-0.2324532496124506,-0.1270508011594414,1.2597724199295044,-0.0204840898513793,1.5097049474716189
1783201769581191000,6.97319091796875,1.164241055266559,2.270773433408141,0.0818123140290379,1.2100205421447754,-0.1596233397722244,1.2280367612838743
1783201769591127800,6.9831279296875,0.394077643764019,1.9334172092974184,-0.8986497984230518,1.1415446996688845,-0.3575919866561889,0.9661880731582642
1783201769601064700,6.993064697265625,-0.011975099954009,1.7382289837181568,-1.3078829257428646,1.013947367668152,-0.5347840785980225,0.6963049173355103
1783201769611001900,7.003001953125,0.6879214738845825,1.9999141730338332,-1.0021227401182056,0.8288678526878357,-0.603726863861084,0.402139663696289
1783201769620938800,7.012938720703125,1.056229008837044,1.9765122546583411,-0.6259469560086727,0.641290009021759,-0.4207458794116974,0.2114879339933395
1783201769630876000,7.0228759765625,1.254444181022048,1.2313970674335957,-0.0222597626030445,0.4579580426216125,-0.0873692631721496,0.3402401804924011
1783201769640812800,7.032812744140625,1.4067425284236668,0.2421662498533725,0.8493219961524009,0.3575654029846191,0.3524014353752136,0.582637369632721
1783201769650749700,7.042749755859375,1.5908067179203031,-0.2285252625137567,1.347651457029581,0.3420734107494354,0.8716977834701538,0.7094871997833252
1783201769660686800,7.052686767578125,1.7304387682333588,-0.0945481692224741,1.5807956115156412,0.3305696249008178,1.4835398197174072,0.8131289482116699
1783201769670623700,7.062623779296875,2.127496304591,0.2212169853270053,1.8412819464355703,0.345660924911499,1.9951624870300293,0.8449575901031494
1783201769680561000,7.072560791015625,1.6540929029166698,0.2484329090327024,1.9101441779986024,0.4297089576721191,1.903573989868164,0.7122003436088562
1783201769690497500,7.08249755859375,-0.1917135352060198,0.6793418615877628,1.4385039866045115,0.61882483959198,1.3027838468551636,0.7767983675003052
1783201769700434700,7.0924345703125,-1.0250535338506102,0.9695628250360488,0.2586860074996948,0.8474036455154419,0.4102159142494201,1.1718177795410156
1783201769710371800,7.102371826171875,-0.7796446488142013,1.0732166762560604,-0.7800923925817013,1.051373839378357,-0.5145663619041443,1.4571566581726074
1783201769720308700,7.112308837890625,-0.999162136746943,1.2324883698016404,-0.9844146494701504,1.092673897743225,-0.8149666786193848,1.4092453718185425
1783201769730246000,7.122245849609375,-0.912532485564053,1.5234686271846294,0.2542769588857889,0.9113876223564148,-0.7868587374687195,1.2815611362457275
1783201769740182500,7.1321826171875,-1.2275398074835535,1.4593302092730998,1.8310531056270003,0.7083807587623596,-0.7304236888885498,1.3028876781463623
1783201769750119700,7.14211962890625,-1.102390163770318,1.3357494223117827,2.320976849469542,0.5239927172660828,-0.5949205160140991,1.3912919759750366
1783201769760056800,7.152056884765625,-0.2220651265889406,1.6885779408425092,2.563765907396376,0.3780663907527923,-0.4104563891887665,1.4516493082046509
1783201769769993700,7.16199365234375,0.047244273994863,1.535063787910342,2.5735373598262665,0.3188046216964721,-0.1203367188572883,1.5461822748184204
1783201769779931000,7.171930908203125,0.2668924025699496,0.86685473023355,2.7712355223998424,0.3303049504756927,0.1988950818777084,1.5667728185653689
1783201769789867500,7.181867431640625,-0.4921668465942144,1.4232003267496824,3.043127048431337,0.3257800638675689,0.4484706819057464,1.5405758619308472
1783201769799804700,7.1918046875,-0.6607295155763626,1.791017155575752,3.018883126273751,0.2824469804763794,0.6933152675628662,1.4606237411499023
1783201769809741800,7.201741943359375,-0.9525269345611334,1.6951017896533012,3.1135297874346373,0.211537629365921,0.9690407514572144,1.3677033185958862
1783201769819678700,7.2116787109375,-1.549995399582386,1.8026760291874409,3.2503426886737343,0.1119849309325218,1.2841728925704956,1.2890524864196775
1783201769829615900,7.221615966796875,-1.4384931729495525,1.9802654697120188,3.1245892338484524,0.0549743101000785,1.4042518138885498,1.205604910850525
1783201769839552800,7.231552734375,-1.189161269250512,1.886108345633745,2.4459277557402848,0.0721024274826049,1.2557848691940308,1.1181015968322754
1783201769849490700,7.24149072265625,-1.1648773073434828,1.8975111986577509,1.5713865626573562,0.0811906903982162,0.8561762571334839,1.0561195611953735
1783201769859427600,7.251427490234375,-0.8410276305377483,1.979319713294506,0.8683996215879917,-0.0259072668850421,-0.1584350913763046,0.8227478265762329
1783201769869364700,7.26136474609375,0.0020423194825649,2.4099808285683397,-2.0761165382266045,-0.177820086479187,-0.2874224185943603,0.7208260297775269
1783201769879302000,7.271302001953125,-0.8959019610196352,1.9224042323738333,1.2911243909046053,-0.2305948734283447,-0.3349169790744781,0.5909783244132996
1783201769889238800,7.28123876953125,-0.5144996744334698,1.753269900983572,2.3604084038868547,-0.3725706338882446,-0.1530716121196746,0.5139974355697632
1783201769899175700,7.29117578125,-0.5500041185349226,1.726198938706517,2.7450512798294424,-0.5328662991523743,0.2251883447170257,0.3400805592536926
1783201769909112600,7.301112548828125,-0.6976940953582524,1.6842822894752023,3.5966309917807577,-0.727574348449707,0.7123090028762817,0.231249064207077
1783201769919049700,7.3110498046875,-0.6549374881714582,1.6486626945614813,3.780996210050583,-0.951204001903534,1.168977975845337,0.1757911145687103
1783201769928987000,7.32098681640625,-0.5642518395960331,1.553435895425081,3.0638667618602518,-0.9301745295524596,1.7037683725357056,-0.0041779289022088
1783201769938923800,7.330923828125,-0.367784680122137,1.600035149514675,2.4920155531764028,-0.7872381210327148,1.8196899890899656,-0.1037721633911132
1783201769948860700,7.340860595703125,-0.1456166776806116,1.3810527913719417,0.4335530373230576,-0.6238942742347717,1.5876859426498413,-0.1778984367847442
1783201769958797600,7.350797607421875,0.0524468110740184,1.192326455283165,-1.620338809613883,-0.5772774815559387,1.148224949836731,-0.1971224695444107
1783201769968734700,7.360734619140625,0.1763391482025385,1.3496475992828607,-2.476763623508811,-0.6634310483932495,0.6988912224769592,-0.2205391824245453
1783201769978671900,7.370671875,0.3110106534987688,1.188133679768443,-2.6950258506834506,-0.8168219327926636,0.3432407081127167,-0.21476411819458
1783201769988608800,7.38060888671875,0.3009562924742698,0.7284884620726109,-2.6198174649640915,-0.944422960281372,0.0306689850986003,-0.1786539554595947
1783201769998545700,7.390545654296875,0.2827308999538421,0.3766372641414404,-2.8301825091481208,-1.0593279600143433,-0.1964014619588852,-0.1650553345680236
1783201770008482800,7.40048291015625,0.2961877628982067,0.2406651976406574,-3.207736303612589,-1.1537715196609497,-0.2815153002738952,-0.1553185880184173
1783201770018419700,7.410419677734375,0.3072305504381656,-0.0513899954974651,-3.6436277207553385,-1.1741948127746582,-0.3051239550113678,-0.1345416754484176
1783201770028356900,7.42035693359375,0.5374257919907569,-0.2812140656501055,-4.268431644208729,-1.1278609037399292,-0.3729085326194763,-0.0394675098359584
1783201770038293800,7.430293701171875,0.6515612897366285,-0.6089876379013062,-5.156830389991402,-0.9504794478416444,-0.4004943668842315,0.0195433441549539
1783201770048230700,7.440230712890625,0.7569535090565681,-0.681745415598154,-5.845466734147071,-0.7184202075004578,-0.4344434738159179,0.0240436419844627
1783201770058167800,7.450167724609375,0.8278273727029561,-0.3612912264496087,-6.279654269981384,-0.5423221588134766,-0.5102706551551819,-0.0535835102200508
1783201770068104700,7.460104736328125,0.7740238863229751,0.0556768790364265,-6.815038911533355,-0.2429790943861007,-0.3578875660896301,-0.1601379662752151
1783201770078041900,7.470041748046875,0.3831137666791677,0.2861573672711849,-6.565414162367582,0.1102623119950294,-0.2100166380405426,-0.2566322982311249
1783201770087978800,7.479978759765625,0.0918266353040933,0.2956856585949659,-6.51588294647932,0.5358902812004089,-0.0451042465865612,-0.2793587744235992
1783201770097915600,7.48991552734375,0.0994470471799373,0.1644271766126155,-6.559893937641382,1.019827127456665,0.0823069736361503,-0.1971451044082641
1783201770107852800,7.499852783203125,0.2747989379107952,-0.0549018030107021,-6.304799817153811,1.49115788936615,0.1971040517091751,-0.0457368865609169
1783201770117789700,7.509789794921875,0.5054910230696201,-0.3736883512079715,-5.783605613517761,1.920937776565552,0.3378236293792724,0.0753903314471244
1783201770127726800,7.519726806640625,0.8180079894781113,-0.4059937070071697,-4.986016727212071,2.264526605606079,0.4738893210887909,0.1660125404596328
1783201770137663700,7.529663818359375,1.1269453438341617,-0.2880535562813281,-4.130452037277817,2.5042874813079834,0.5343308448791504,0.231582224369049
1783201770147600600,7.5396005859375,1.413213770264387,-0.0798790078788995,-3.242980635473132,2.5817556381225586,0.4032594561576843,0.2771341800689697
1783201770157537800,7.549537841796875,1.4953408493310212,-0.0474018026441335,-2.479540394745767,2.4234838485717773,0.0380625873804092,0.3069898188114166
1783201770167474700,7.559474609375,1.361737850049138,-0.182617497819662,-1.7012404385387896,2.0306029319763184,-0.4770669639110565,0.3313962817192077
1783201770177411800,7.569411865234375,1.3426900352299214,-0.3030430356204509,-0.6600578999251127,1.5033570528030396,-1.0113370418548584,0.3660708963871002
1783201770187348700,7.5793486328125,1.5312883610248564,-0.518811107891798,0.3525041088819504,0.9927191734313964,-1.4424679279327393,0.4463964998722076
1783201770197285600,7.58928564453125,2.0280103867053985,-0.7239116556763648,1.210629589214921,0.5978458523750305,-1.6971193552017212,0.565062403678894
1783201770207222800,7.599222900390625,2.472317750015854,-0.8511322604447603,1.9120950198054312,0.3716026246547699,-1.7434741258621216,0.7244274020195007
1783201770217159700,7.60915966796875,2.7838042043328284,-0.8209417048424482,2.401739654445648,0.322211891412735,-1.580245852470398,1.02089524269104
1783201770227096800,7.619096923828125,3.666052903053164,-0.9476508529573678,2.6592893513917923,0.3005864322185516,-1.1631076335906982,1.240182638168335
1783201770237033700,7.62903369140625,3.4885897192567583,-0.3948135568231344,3.4178199005067347,0.3924095630645752,-0.7838287949562073,1.3805477619171145
1783201770246970600,7.638970703125,2.5998358764261007,-0.269051334169507,3.4444884194627403,0.5380299687385559,-0.4129227995872497,1.5248682498931885
1783201770256907800,7.64890771484375,2.49847393553555,-0.412880543911457,3.1802111678272484,0.6615553498268127,-0.0324274115264415,1.6477563381195068
1783201770266844700,7.6588447265625,2.348189266043901,-0.0483200865328311,3.3065432993233204,0.7322405576705933,0.3011497557163238,1.7158547639846802
1783201770276781800,7.66878173828125,1.896905633980036,0.2650111188679933,3.5140734123423694,0.7381786108016968,0.5659017562866211,1.6972721815109253
1783201770286717700,7.6787177734375,1.244691433292627,0.3650689914226532,3.788036191689968,0.6999289393424988,0.8328588604927063,1.6264642477035522
1783201770296655600,7.688655517578125,0.6711784288764,0.4496037161529064,4.116745583486557,0.6600872278213501,1.1121459007263184,1.5597440004348757
1783201770306591700,7.698591796875,0.5302133763939142,0.4080062158733606,4.308959469430149,0.5903490781784058,1.3095730543136597,1.522563934326172
1783201770316529000,7.70852880859375,0.6935235316753388,0.3346113093167543,4.316626058535277,0.4745844304561615,1.4142893552780151,1.523024559020996
1783201770326465800,7.7184658203125,1.051945340168476,0.3986901059955358,4.299124011853337,0.338833212852478,1.4307630062103271,1.5476417541503906
1783201770336402700,7.728402587890625,1.4320511572033163,0.4342652772456407,4.1916926879212255,0.1957796216011047,1.4166053533554075,1.6094694137573242
1783201770346339600,7.738339599609375,1.719022763466835,0.3727577923595905,4.148083555558324,0.0567712821066379,1.402031421661377,1.700350999832153
1783201770356276700,7.74827685546875,1.9243331546097997,0.3047925096362829,4.262807374586164,-0.0873222425580024,1.4149724245071411,1.8058102130889893
1783201770366214000,7.7582138671875,2.035128109756112,0.3453612513899803,4.477491743274033,-0.2247332632541656,1.4718599319458008,1.910199761390686
1783201770376150800,7.76815087890625,2.0939701748251918,0.4911047703206538,4.715872629369796,-0.3494198322296142,1.5522876977920532,1.9920650720596316
1783201770386087700,7.778087646484375,2.112059958267212,0.7777665799826383,4.89080921729803,-0.4517161548137665,1.6807215213775637,2.047308921813965
1783201770396024600,7.788024658203125,2.0124258640825747,1.018703580302,5.022140764516592,-0.5293079018592834,1.8467106819152832,2.085335254669189
1783201770405961700,7.797961669921875,1.9170856676995756,1.1438824501097202,5.12951159043312,-0.6297818422317505,2.0873963832855225,2.055837154388428
1783201770415899000,7.80789892578125,1.7301298484146594,1.375420922964811,5.032911164855957,-0.8917548656463623,2.356215238571167,2.01944637298584
1783201770425835800,7.817835693359375,1.7352023293733596,1.400682789993286,5.704852394798397,-1.3111153841018677,2.648146390914917,1.9740766286849976
1783201770435772700,7.827772705078125,1.731215305563807,1.2621627925753591,5.964992108237743,-1.9031275510787964,2.922266721725464,1.8998050689697263
1783201770445709800,7.837709716796875,1.600509196767211,1.1912044655159115,6.064418112629651,-2.572660446166992,3.2002615928649902,1.8302048444747925
1783201770455646700,7.847646728515625,1.7404858227342366,1.3714420824617146,5.661391438734531,-3.164133310317993,3.413612127304077,1.7907434701919556
1783201770465583900,7.857583984375,2.028638163214922,1.485288534133136,4.426432879427075,-3.565293312072754,3.5659518241882324,1.81246817111969
1783201770475520800,7.867520751953125,2.4935271267831323,1.7616706495821477,2.628007493421435,-3.729261636734009,3.663177013397217,1.870482444763184
1783201770485457700,7.877457763671875,2.962212560024857,2.1012305212169884,0.7237181789308786,-3.6741459369659424,3.732088565826416,1.939315915107727
1783201770495394800,7.887394775390625,3.38241307156086,2.404996318154037,-1.07778705291152,-3.39546537399292,3.825753688812256,2.0446810722351074
1783201770505331700,7.897331787109375,3.729180098095536,2.329615206216276,-2.6230273669213053,-2.937687397003174,3.902866363525391,2.1867995262146
1783201770515268900,7.907268798828125,3.8717631071686736,1.8543227759249508,-4.087404922711849,-2.368759632110596,3.902738332748413,2.324304342269897
1783201770525206500,7.91720654296875,3.800596982577443,1.584449457848072,-5.238226816695928,-1.7730833292007446,3.8291189670562735,2.4668970108032227
1783201770535143700,7.927143798828125,3.48349561098814,1.3442895793810483,-5.903632507389784,-1.2722777128219604,3.743769884109497,2.5488715171813965
