time,seconds_elapsed,ax,ay,az,gx,gy,gz
1783201993893016800,0.091016845703125,-0.1767958059288561,0.3082026103407144,0.292576586663723,-0.2533381581306457,-0.0189351607114076,-0.2996704578399658
1783201993902954000,0.1009541015625,-0.1820038959659635,0.3512809968277812,0.342534503531456,-0.2904801964759826,-0.0096780136227607,-0.3197168707847595
1783201993912889600,0.1108896484375,-0.1770628593672066,0.3864060862228274,0.3725912036210298,-0.3067909777164459,0.0227150805294513,-0.3381704688072204
1783201993922826800,0.12082666015625,-0.2014114840082824,0.4017003937274217,0.3826882347434759,-0.2978730797767639,0.0528042539954185,-0.3555267453193664
1783201993932764000,0.130763916015625,-0.2613790459759533,0.3783922911152243,0.3535702768087387,-0.2792381346225738,0.0858796462416648,-0.3699094355106354
1783201993942699800,0.14069970703125,-0.3225826525446027,0.3396010804280638,0.2654956875145435,-0.2596248686313629,0.1027185693383216,-0.392389178276062
1783201993952636700,0.15063671875,-0.3356704629808664,0.2971522240161895,0.1158972467213869,-0.2536804378032684,0.0763239786028862,-0.4226618409156799
1783201993962572800,0.16057275390625,-0.2677573488362133,0.267663679203391,0.0643354017883539,-0.2560018599033355,0.0382165871560573,-0.4591082334518432
1783201993972510000,0.170510009765625,-0.2023117938488721,0.2297805232718587,0.0912497121989727,-0.2782501876354217,0.0118259917944669,-0.4937767088413238
1783201993982446600,0.180446533203125,-0.1179645545147359,0.1315460667520761,0.1580313380956649,-0.3066844344139099,-0.0022221854887902,-0.5131710171699524
1783201993992382700,0.1903828125,-0.0634366993829607,0.009787526781857,0.2141074455827474,-0.3507898449897766,-0.0207058545202016,-0.5226539969444275
1783201994002320000,0.20031982421875,0.0089803020521998,-0.0509995348751544,0.3191401839405298,-0.4051452875137329,-0.028893968090415,-0.5327816009521484
1783201994012255700,0.210255859375,0.0210553552493453,-0.0709448830559849,0.4742559268504381,-0.4638592004776001,-0.003948934841901,-0.5456295013427734
1783201994022192600,0.220192626953125,0.0449015102609992,-0.0984463457047939,0.5498942284196615,-0.5089232325553894,0.0443905666470527,-0.5492427349090576
1783201994032128800,0.230128662109375,0.1351763860784471,-0.2081228182151913,0.4058282873123884,-0.5331902503967285,0.0635988861322403,-0.5237981081008911
1783201994042066000,0.24006591796875,0.268931068790704,-0.3566641511708497,0.1199532441139221,-0.5417237877845764,0.0349301807582378,-0.4865846931934356
1783201994052002600,0.25000244140625,0.468799122749269,-0.4642658632338047,-0.1878273414224386,-0.5403578877449036,-0.032065100967884,-0.4473123848438263
1783201994061938700,0.259938720703125,0.5737237245574593,-0.5183256624624133,-0.3620779929131269,-0.533703625202179,-0.0748963356018066,-0.4171551167964935
1783201994071875800,0.269875732421875,0.5592326962597668,-0.5311357519358396,-0.4778782090008258,-0.5020415782928467,-0.0622068978846073,-0.3905719816684723
1783201994081811700,0.279811767578125,0.5497466366425157,-0.518160242767632,-0.5923936459749937,-0.4413953125476837,-0.0173131544142961,-0.3722839951515198
1783201994091748600,0.28974853515625,0.4520218832105397,-0.5032417828381062,-0.7450263398975133,-0.3513746261596679,0.0123097188770771,-0.3463256359100342
1783201994101685800,0.299685791015625,0.4012719391822815,-0.4387868463233113,-0.9885229615718124,-0.2357852011919021,0.0231487676501274,-0.326996237039566
1783201994111622000,0.309621826171875,0.3280632028475403,-0.3321919732153415,-1.1967734978199005,-0.1095212697982788,0.0083344001322984,-0.3163201808929443
1783201994121558800,0.319558837890625,0.2516409112937748,-0.2338859127640724,-1.2785516173183915,0.0136741250753402,-0.0172721371054649,-0.3131670355796814
1783201994131494700,0.32949462890625,0.1687248738065362,-0.1298676121458411,-1.305062023103237,0.1240991652011871,-0.0367885828018188,-0.3183956146240234
1783201994141431800,0.339431884765625,0.1276212945237755,-0.0093675478041172,-1.324372288250923,0.2223943322896957,-0.0602447800338268,-0.3216192424297333
1783201994151369000,0.349368896484375,0.112467272272706,0.0459527728796005,-1.3450135097414255,0.2997945845127105,-0.1025432348251342,-0.326419323682785
1783201994161304800,0.359304931640625,0.1291933661460876,0.0543301406025886,-1.336937170791626,0.3576997816562652,-0.1612331867218017,-0.3280093371868133
1783201994171241700,0.36924169921875,0.1740501604825258,0.0191094818785786,-1.279028587180376,0.3904768824577331,-0.2409280091524124,-0.3201982676982879
1783201994181177900,0.379177734375,0.2334673950910568,-0.0047051089510321,-1.1576900261878966,0.4164736866950989,-0.3145448267459869,-0.2972971200942993
1783201994191114800,0.38911474609375,0.2666463188543915,0.003233867354691,-1.023921607211232,0.4312595725059509,-0.3775826394557953,-0.2745846211910248
1783201994201051600,0.3990517578125,0.244382756859064,0.0565147911652922,-0.823304926842451,0.4486813843250274,-0.415425032377243,-0.2636577785015106
1783201994210987800,0.40898779296875,0.2015077839896082,0.1077981114178895,-0.6102414373546838,0.4735435843467712,-0.4469398260116577,-0.25955730676651
1783201994220925000,0.418925048828125,0.0904002557627856,0.198981188121438,-0.4635837261885404,0.4920219779014587,-0.4681659638881683,-0.2681776881217956
1783201994230860800,0.42886083984375,0.013542641531676,0.3183963798359036,-0.2653700153082609,0.5054123997688293,-0.47117879986763,-0.287725031375885
1783201994240797700,0.438797607421875,-0.1005848190382123,0.4179050940752029,-0.0329991832822561,0.5220696330070496,-0.4567768275737762,-0.3276190459728241
1783201994250734800,0.44873486328125,-0.2243222578659653,0.5160957114532589,0.1735907262772321,0.5449478030204773,-0.4257390201091766,-0.3776398599147796
1783201994260670700,0.458670654296875,-0.3318085268557071,0.6197206288397312,0.3358627706825733,0.5713152289390564,-0.3723210394382477,-0.4418544769287109
1783201994270607600,0.468607666015625,-0.4639560666322708,0.6842416163280606,0.4663718956023454,0.6062540411949158,-0.2917201817035675,-0.5127843022346497
1783201994280544800,0.478544677734375,-0.5465196374200284,0.72522624540627,0.5799480058997869,0.6452173590660095,-0.1908229440450668,-0.5829290151596069
1783201994290481000,0.48848095703125,-0.5717617768347263,0.7310875386551022,0.6428554207116365,0.6702670454978943,-0.1013804078102111,-0.6451764106750488
1783201994300417500,0.49841748046875,-0.5918064937368035,0.7752817774295806,0.7179752513647079,0.6624097228050232,-0.0308281406760215,-0.7137134075164795
1783201994310353700,0.508353759765625,-0.585026332077384,0.8326397414207458,0.7416378665030002,0.6138099431991577,0.0224028546363115,-0.8089296817779541
1783201994320290800,0.518290771484375,-0.4663830015182494,0.8291729420930146,0.7167179447799921,0.5365061163902283,0.0437154397368431,-0.8966208696365356
1783201994330228000,0.52822802734375,-0.2350184239253401,0.7946867351233958,0.6080518183559179,0.4461897909641266,0.0014683846384286,-0.9675368666648864
1783201994340163600,0.53816357421875,-0.0001502221256494,0.7590022582799196,0.4387175804793834,0.3370223045349121,-0.0959385856986045,-1.0313786268234253
1783201994350100700,0.548100830078125,0.264406577103585,0.7155448093473911,0.3589858721166848,0.2195958197116851,-0.2071002423763275,-1.07087242603302
1783201994360038000,0.558037841796875,0.5536790076553821,0.5196496045425534,0.4506061711937189,0.1177882850170135,-0.2760904431343078,-1.097466230392456
1783201994369973800,0.567973876953125,0.6753108525060116,0.3718906541362404,0.6217822375446558,0.0422186851501464,-0.3045614957809448,-1.109183430671692
1783201994379910700,0.57791064453125,0.7222216567628085,0.2352209607601165,0.7433347335487603,0.0068726590834558,-0.2502380907535553,-1.0732496976852417
1783201994389846800,0.5878466796875,0.6984795466475189,-0.0204538822248578,0.7316799515902995,-0.0080346520990133,-0.1462078243494033,-0.9980322122573853
1783201994399784000,0.597783935546875,0.6669764471419155,-0.2537801152795553,0.6523217527151107,-0.010847165249288,-0.0563854537904262,-0.8944487571716309
1783201994409720600,0.607720458984375,0.6354371072791516,-0.5368082446143031,0.5125812735915184,-0.0213562659919261,0.0041865473613142,-0.7558658123016357
1783201994419656700,0.61765673828125,0.5771922774508595,-0.7995926273435354,0.3035597529709339,-0.0377877242863178,0.0369589328765869,-0.5952287912368774
1783201994429593900,0.62759375,0.4814794483631849,-0.9824933260187506,0.1065431429207325,-0.0648132115602493,0.0153314024209976,-0.4414342045783996
1783201994439530800,0.63753076171875,0.3329471754968166,-1.0568258056864142,-0.1639537138819694,-0.0867579653859138,-0.049655757844448,-0.3191048800945282
1783201994449466600,0.647466552734375,0.2215599535457789,-1.106281910511851,-0.5934761805146932,-0.0937223955988884,-0.150739774107933,-0.2225618213415146
1783201994459403800,0.65740380859375,0.1838239509999752,-1.0614230703487992,-1.0346341398835182,-0.0610674656927585,-0.2799596190452575,-0.1574047654867172
1783201994469340000,0.66733984375,0.1989750506415963,-0.9342068494945764,-1.464452959114313,0.0118631981313228,-0.4192357361316681,-0.1240545436739921
1783201994479276500,0.677276611328125,0.309030439466983,-0.7712596823066472,-1.774929944127798,0.1008351594209671,-0.5628817677497864,-0.1209864318370819
1783201994489213700,0.687213623046875,0.5809159741491079,-0.593155862519145,-1.809641192024946,0.1731951236724853,-0.748872697353363,-0.1436350047588348
1783201994499149800,0.69714990234375,0.8538263218343257,-0.4880971129372716,-1.545780412235856,0.2132884114980697,-0.8848133683204651,-0.1601158529520034
1783201994509086700,0.707086669921875,1.0010814143717288,-0.4915867086187004,-1.086429793572426,0.2369050681591034,-0.9085367918014526,-0.1644003540277481
1783201994519023600,0.717023681640625,1.020166784722358,-0.528887680748105,-0.4817582653045654,0.2924259006977081,-0.8836246728897095,-0.127150222659111
1783201994528959700,0.726959716796875,0.8258928975090384,-0.6033206981807947,0.4304541945248842,0.3369555473327636,-0.5780855417251587,-0.0781129002571106
1783201994538897000,0.73689697265625,0.5903522032752633,-0.628133944658935,0.884452930766344,0.391473114490509,-0.2439764142036438,-0.0251858793199062
1783201994548833800,0.746833740234375,0.6408284449286759,-0.5547077661812305,0.9643488897800444,0.4499851763248443,-0.048132337629795,0.023758228868246
1783201994558769700,0.756769775390625,0.7184132043905556,-0.3628361178040504,0.882699949619174,0.4995103776454925,0.0668516531586647,0.0729368031024932
1783201994568706800,0.766706787109375,0.6037818859517574,-0.119565413840115,0.930645357620716,0.5327823758125305,0.154238224029541,0.093174435198307
1783201994578643000,0.776642822265625,0.3779286191262304,0.0556730796441435,0.9887263751894236,0.5322403907775879,0.1863399446010589,0.0863496884703636
1783201994588579600,0.78657958984375,0.2085658858075738,0.1305284141421318,0.8543161511778831,0.5034558773040771,0.1628042608499527,0.0717664882540702
1783201994598516700,0.796516845703125,0.0666657444320619,0.1250613809078931,0.7738987986385821,0.4421216547489166,0.1181657761335372,0.0723155662417411
1783201994608452900,0.806452880859375,-0.0360161930158734,0.0921224033802747,0.8016717717051506,0.3262903988361358,0.070083200931549,0.0715509727597236
1783201994618389800,0.8163896484375,-0.1170252278380095,-0.0017477204501628,0.877682998239994,0.1697133034467697,0.014731335453689,0.0864940732717514
1783201994628326700,0.82632666015625,-0.2040776344776153,-0.0717459703058004,0.9426292254030704,0.0050244890153408,-0.0211188066750764,0.0970846638083458
1783201994638262800,0.8362626953125,-0.287508343488723,-0.0412672454118728,0.991179613560438,-0.1489911675453186,0.0115346191450953,0.0808758810162544
1783201994648199700,0.84619970703125,-0.3344130102656781,-0.012851590527594,0.9895552272289992,-0.2675971984863281,0.1008716896176338,0.0770289450883865
1783201994658136800,0.85613671875,-0.2315374499417841,-0.033862814374268,0.8578069159030913,-0.3230037093162536,0.2039806991815567,0.0996109470725059
1783201994668072700,0.86607275390625,-0.0379426310338079,-0.0414987160801887,0.6012298633813857,-0.3236327469348907,0.2652363181114197,0.1386819183826446
1783201994678009900,0.876009765625,0.0284720612466335,-0.0287093771338462,0.3820563665807246,-0.2987764179706573,0.3032506704330444,0.1664003431797027
1783201994687946800,0.88594677734375,0.0575708760894835,0.0060842883497476,0.2683522459894418,-0.2620708644390106,0.3612095713615417,0.2027136087417602
1783201994697882600,0.895882568359375,0.089985537482053,0.0242985749542713,0.1992541598439216,-0.2208866775035858,0.4050812721252441,0.2360211163759231
1783201994707819800,0.90581982421875,0.0306171104513108,0.0454775565832853,0.0524374587237834,-0.1743117123842239,0.3987940847873688,0.2538446187973022
1783201994717756700,0.915756591796875,0.0198563547231256,0.0758811704143881,-0.1213514204740524,-0.1577567160129547,0.3670355677604675,0.2520267367362976
1783201994727692800,0.92569287109375,-0.0302436009638011,0.1176256779491901,-0.1437058756232261,-0.1725572347640991,0.3440317213535309,0.2345609068870544
1783201994737629700,0.935629638671875,-0.0809564278520643,0.1724094075381755,-0.0874503199160098,-0.2152370363473892,0.3231813609600067,0.2055869102478027
1783201994747566300,0.94556640625,-0.1093799737818539,0.1949456489950418,0.0005132102191448,-0.2730835676193237,0.3209917247295379,0.1736968755722046
1783201994757502200,0.955502197265625,-0.1492776844061911,0.1964773886069655,0.1246171442717313,-0.3380657732486725,0.3484923541545868,0.1476585566997528
1783201994767439400,0.965439453125,-0.0949662485040724,0.1947445734649896,0.2270639577895402,-0.382077157497406,0.3859643638134002,0.1142143160104751
1783201994777376300,0.975376220703125,-0.0659723553404212,0.1581976345732808,0.2621680043965578,-0.4114777445793152,0.4099995195865631,0.1003637462854385
1783201994787312400,0.9853125,-0.0255874457210302,0.1138505433246493,0.2501677700012922,-0.4300279915332794,0.418671041727066,0.1037550121545791
1783201994797249300,0.995249267578125,0.027158056038618,0.116019996318221,0.293410114878416,-0.446316123008728,0.4037676155567169,0.1171598359942436
1783201994807186400,1.0051865234375,0.0346760304532945,0.133929747018218,0.4146200810551643,-0.4848238229751587,0.4031393826007843,0.1329867392778396
1783201994817122300,1.015122314453125,0.0526524166487157,0.1469844589024782,0.6026777241021395,-0.5568974614143372,0.4012991786003113,0.1470976173877716
1783201994827059200,1.02505908203125,0.154626644218713,0.1863391486912965,0.9113865303993224,-0.6772811412811279,0.3979537189006805,0.1653139144182205
1783201994836996400,1.034996337890625,0.291795080897212,0.2558803024291992,1.2476871079772711,-0.8497706055641174,0.3765973448753357,0.1933638900518417
1783201994846932200,1.04493212890625,0.4885847503237426,0.3212929780602455,1.4977736294358968,-1.0613839626312256,0.3241913914680481,0.2286984473466873
1783201994856869000,1.054869140625,0.7104140223301947,0.3752402568250894,1.657982896092534,-1.3130521774291992,0.2401186525821685,0.2888204455375671
1783201994866806300,1.06480615234375,0.81655545258224,0.3323760976105928,1.7535165692210195,-1.608886480331421,0.1559009850025177,0.3895148336887359
1783201994876742400,1.074742431640625,0.6877845496319234,0.2347469135075807,1.7027175253540277,-1.9249271154403689,0.0974934622645378,0.529863715171814
1783201994886679300,1.08467919921875,0.4732365206748247,0.3192185098737478,1.4916273817658423,-2.233631134033203,0.0467503890395164,0.6469253301620483
1783201994896616200,1.0946162109375,0.2013191295497119,0.6443991430222987,1.175472351115942,-2.513869285583496,-0.0036297310143709,0.7203837633132935
1783201994906552300,1.10455224609375,0.0361998790197074,1.004072412881255,0.9448200134456156,-2.777275800704956,-0.0008320799097418,0.7816154360771179
1783201994916489500,1.114489501953125,-0.0250140297472476,1.38426357011199,0.7992243785530329,-3.0397093296051025,0.051947433501482,0.8655248284339905
1783201994926426000,1.124426025390625,-0.0020367665246129,1.7366119039103387,0.3936924438387155,-3.290012836456299,0.0778336226940155,0.9826029539108276
1783201994936362200,1.1343623046875,-0.1777459462605416,2.0565967219814656,-0.3558241932153702,-3.481240510940552,-0.0185123570263385,1.0860239267349243
1783201994946299400,1.14429931640625,-0.5672653421983123,2.378146597412228,-1.2513105591714382,-3.574787139892578,-0.2128008753061294,1.1301370859146118
1783201994956236300,1.154236328125,-1.0724237723127006,2.6690859382629397,-2.057450416201353,-3.5501081943511963,-0.4714582860469818,1.054386854171753
1783201994966172200,1.164172119140625,-1.6728434883549808,2.899783576379716,-2.746670113202929,-3.403210401535034,-0.7759321928024292,0.8535867929458618
1783201994976109300,1.174109375,-2.225063675504177,2.972032527771592,-3.195859403336048,-3.168792963027954,-1.0666263103485107,0.5500882863998413
1783201994986046200,1.184046142578125,-2.68554344432801,2.906245758131146,-3.241504717701673,-2.864262580871582,-1.2921491861343384,0.2018189430236816
1783201994995982000,1.193982177734375,-3.019166619390249,2.645109434869885,-2.9680221230864525,-2.5126538276672363,-1.4010757207870483,-0.1612127423286438
1783201995005919200,1.203919189453125,-3.136983728258312,2.2863249305441973,-2.460012395194173,-2.131484031677246,-1.3728622198104858,-0.4982642829418182
1783201995015856400,1.2138564453125,-3.0405817478626966,1.8087261230066416,-1.8722586839795112,-1.747334122657776,-1.2538673877716064,-0.7885468602180481
1783201995025792300,1.223792236328125,-2.6434137368679047,1.207955182373896,-1.331962889510393,-1.401308536529541,-1.0668617486953735,-0.9767841100692748
1783201995035729200,1.233729248046875,-2.094413973069936,0.6110151616735383,-0.8042144419252872,-1.1109706163406372,-0.857182502746582,-1.0967974662780762
1783201995045666300,1.243666259765625,-1.503479732123017,0.1552225277526304,-0.374689052683115,-0.8757147192955017,-0.6574432849884033,-1.1735790967941284
1783201995055603200,1.253603271484375,-0.8706202933121472,-0.265406109534949,-0.0166407536774873,-0.7124379873275757,-0.4761129319667816,-1.219873309135437
1783201995065539300,1.263539306640625,-0.2886420967590064,-0.6381474622163921,0.151956986618042,-0.5993106365203857,-0.3372309505939483,-1.2405377626419067
1783201995075476200,1.273476318359375,0.2484405443498864,-0.8593998841829598,0.235939922684431,-0.5186663269996643,-0.2544958889484405,-1.2409319877624512
1783201995085413000,1.2834130859375,0.6316329657558352,-1.0514148865535855,0.2833160063654184,-0.4580708742141723,-0.2308179885149002,-1.242218017578125
1783201995095349200,1.293349365234375,0.940059594110772,-1.254962359677255,0.3830991536319255,-0.4234218895435333,-0.2056855857372284,-1.24992573261261
1783201995105286400,1.303286376953125,1.1867001398339867,-1.4458523035407065,0.5837421374857426,-0.409322053194046,-0.1488577276468277,-1.2515779733657837
1783201995115223300,1.313223388671875,1.3411864987991748,-1.7166405445054171,0.7726344777911901,-0.3887441456317901,-0.0859171599149704,-1.254872441291809
1783201995125159200,1.3231591796875,1.5181623374700546,-2.045689251258969,0.9130699534416198,-0.3542061448097229,-0.0139721222221851,-1.232568383216858
1783201995135096300,1.333096435546875,1.7586273363634943,-2.330960483345389,1.0768290215343237,-0.3080516159534454,0.0889161825180053,-1.1769235134124756
1783201995145033500,1.343033447265625,2.0029034179776906,-2.525021750721335,1.2374211500287056,-0.2551063597202301,0.2224563956260681,-1.0907015800476074
1783201995154969000,1.352968994140625,2.1690596103399997,-2.6377789458513257,1.3644032698661088,-0.1929839104413986,0.3960403203964233,-0.9847192764282228
1783201995164906200,1.36290625,2.198440164733678,-2.6672838572770354,1.383161161828041,-0.1180963441729545,0.5827252268791199,-0.880311906337738
1783201995174843400,1.372843505859375,2.140482919675112,-2.4851325156643984,1.3353355808138847,-0.0380187816917896,0.7592121362686157,-0.7956948280334473
1783201995184779300,1.382779296875,2.0391466977477077,-2.1033438601091503,1.2509820578694344,0.0260936263948678,0.9362140893936156,-0.7391330599784851
1783201995194716200,1.392716064453125,2.0303531504392622,-1.6362787215456365,1.0828513505637645,0.0718088895082473,1.1057474613189695,-0.6914209127426147
1783201995204653300,1.4026533203125,1.968883367215097,-1.3019360000371931,0.771388861644268,0.0929993912577629,1.2175575494766235,-0.6527592539787292
1783201995214590200,1.412590087890625,1.8357883174553515,-1.170883050564304,0.1425876852482557,0.1040093302726745,1.2497587203979492,-0.5825492143630981
1783201995224526000,1.422526123046875,1.8574691111266608,-1.2880842925563454,-0.6366857921659946,0.1045835092663765,1.19694721698761,-0.4425529539585113
1783201995234463200,1.432463134765625,1.978488523167372,-1.506385682697594,-1.517812793380022,0.0917287021875381,1.036632776260376,-0.2276439517736435
1783201995244400400,1.442400390625,2.122653248474002,-1.532436069755256,-2.2473832054704426,0.0539014302194118,0.779434323310852,0.023447398096323
1783201995254336300,1.452336181640625,2.1907925725899635,-1.4107457727156578,-2.8063743480592964,0.0012173745781183,0.4931972920894623,0.2716982066631317
1783201995264273200,1.462273193359375,2.0697990256428715,-1.203301657479629,-3.203039085707068,-0.0562139600515365,0.2469499856233596,0.4953176975250244
1783201995274210300,1.472210205078125,1.805053571973741,-0.8550795367658138,-3.419025769165158,-0.0811557620763778,0.0652189031243324,0.6673464775085449
1783201995284147200,1.482147216796875,1.540524245273322,-0.5268053215160966,-3.605478899624944,-0.0273713637143373,-0.080172374844551,0.7748130559921265
1783201995294083300,1.492083251953125,1.2317657546155154,-0.1894582305599003,-3.753348324668407,0.119711235165596,-0.1903420239686966,0.8318002820014954
1783201995304020200,1.502020263671875,0.8502484633475541,0.1705797078929841,-3.80196359475553,0.3456128239631653,-0.2661068439483642,0.8306772112846375
1783201995313957000,1.51195703125,0.4358157215580344,0.4708651153683662,-3.680966394546628,0.6053368449211121,-0.290114164352417,0.7778685688972473
1783201995323893200,1.521893310546875,0.1344632693730294,0.6627526919670402,-3.3148189602375027,0.8608274459838867,-0.2577551603317261,0.6832376718521118
1783201995333830400,1.531830322265625,-0.0238856102392077,0.690226682087034,-2.789289942267537,1.0781035423278809,-0.1823145300149917,0.5792672038078308
1783201995343767000,1.54176708984375,-0.0370703782439231,0.5525450717220083,-2.246207731950283,1.2597692012786863,-0.0935425907373428,0.4920428693294525
1783201995353703200,1.551703125,0.0420733010977506,0.3562060321398079,-1.7388322103083134,1.4165202379226685,-0.0262671932578086,0.4379941523075104
1783201995363640300,1.561640380859375,0.2210524424150586,0.1761189661132171,-1.2431336824566126,1.5396053791046145,0.0287409294396638,0.4077044129371643
1783201995373577500,1.571577392578125,0.4228976416654884,0.0127462258904008,-0.7260761402338742,1.6297311782836914,0.0829149931669235,0.3963945209980011
1783201995383514000,1.58151416015625,0.5756194751761853,-0.1628225178949534,-0.1916997989416122,1.698886513710022,0.1505853831768036,0.4171773195266723
1783201995393450200,1.5914501953125,0.6724798668637871,-0.2845145685002208,0.3450456095695495,1.7426676750183103,0.2370354086160659,0.4540446996688843
1783201995403387400,1.601387451171875,0.7240387891873716,-0.3622197029387578,0.8907757040470838,1.7583550214767456,0.3590902090072632,0.503752589225769
1783201995413324300,1.61132421875,0.7772513239368796,-0.3919642318066209,1.4363929857999085,1.7426632642745972,0.5148488879203796,0.5654547214508057
1783201995423260200,1.62126025390625,0.7888216424822807,-0.412809816762805,1.9162088848650451,1.688198208808899,0.6723220944404602,0.631186306476593
1783201995433197300,1.631197265625,0.7586785792835057,-0.4172551057338714,2.2827812665879725,1.5922166109085083,0.8124845623970032,0.7029159069061279
1783201995443134200,1.64113427734375,0.8402915713481605,-0.4212994126886129,2.636109551334381,1.428650140762329,0.93084317445755,0.7926931977272034
1783201995453071400,1.6510712890625,1.026418246332556,-0.505508997117728,3.0238398718982933,1.186087727546692,1.0081148147583008,0.8941242098808289
1783201995463007200,1.66100732421875,1.155015984673053,-0.603178367100656,3.348848071089386,0.8737048506736755,1.0323203802108765,1.0036426782608032
1783201995472944400,1.6709443359375,1.2223292332284152,-0.5870348954208194,3.581373216894269,0.4949429631233215,1.0108771324157717,1.1132004261016846
1783201995482881300,1.68088134765625,1.2351077585197985,-0.4696723984524607,3.7686318185180414,0.0838840529322624,0.9580664038658142,1.2213917970657349
1783201995492818400,1.690818359375,1.1233489267773926,-0.3525159454502165,3.733297470286488,-0.3289274275302887,0.8765079975128174,1.3065155744552612
1783201995502754300,1.70075439453125,0.9848125627465546,-0.2591208917856216,3.581272094607353,-0.7279749512672424,0.7524715065956116,1.3736876249313354
1783201995512691200,1.710691162109375,0.87476696466282,-0.1238053894974291,3.3848020125240086,-1.1037681102752686,0.5863479971885681,1.4269229173660278
1783201995522628400,1.72062841796875,0.9179667855724692,0.1005069314964115,3.291897518855333,-1.4796403646469116,0.4111585617065429,1.4656695127487185
1783201995532564200,1.730564208984375,1.0119875699199736,0.341007878486067,3.378798972716927,-1.8449530601501465,0.2595767378807068,1.4923820495605469
1783201995542501000,1.740501220703125,1.0813627194412052,0.4949532624423504,3.39442265830636,-2.1863937377929688,0.1355554610490799,1.5051051378250122
1783201995552438300,1.750438232421875,0.9729043905489146,0.6722485423259437,3.260327491593361,-2.4714596271514893,0.1037661284208297,1.5062485933303833
1783201995562375400,1.76037548828125,0.5343798484236002,0.7908331284351646,2.9326737463295456,-2.664219617843628,0.1874482333660125,1.479521870613098
1783201995572311000,1.77031103515625,-0.1076170557625591,0.8938996812865138,2.388917582273483,-2.743948221206665,0.3580962419509887,1.4139554500579834
1783201995582248200,1.780248291015625,-0.7385263103537261,1.0297053782444447,1.559329629638791,-2.71273136138916,0.6074879765510559,1.3261507749557495
1783201995592185300,1.790185302734375,-1.3545917776867746,1.1019123901907355,0.5667652837216853,-2.556640148162842,0.8627844452857971,1.2085261344909668
1783201995602122200,1.800122314453125,-1.8729411132857203,1.103780960541591,-0.6460410650104284,-2.2892911434173584,1.0138487815856934,1.069311499595642
1783201995612058000,1.81005810546875,-2.1326947500169275,1.114567362167686,-1.9021926344722508,-1.9415340423583984,1.11867094039917,0.959417760372162
1783201995621995300,1.819995361328125,-2.1766563490793107,1.1781920584034171,-2.9697488007485866,-1.547049045562744,1.2017163038253784,0.8684992790222168
1783201995631932200,1.82993212890625,-2.1094512370735408,1.2112703713364898,-3.738715403681993,-1.1500784158706665,1.2887612581253052,0.7553848624229431
1783201995641868300,1.839868408203125,-2.0155483800172806,1.2063710549876092,-4.206862492263316,-0.7771049737930298,1.3847967386245728,0.6171175241470337
1783201995651805200,1.84980517578125,-1.650650068986416,1.3721210046365857,-4.5814059989959,-0.4289737343788147,1.36761474609375,0.4926800727844238
1783201995661742300,1.859742431640625,-0.8957561228081583,1.4438283964976668,-5.093402750697732,-0.1199458539485931,1.1951212882995603,0.4025227427482605
1783201995671679200,1.86967919921875,0.072104866746068,1.3467197291374209,-5.499159141817689,0.1304042637348175,0.92109477519989,0.3801900446414947
1783201995681615400,1.879615478515625,1.0225567485988138,1.137832648551464,-5.584641961053014,0.3169451057910919,0.592570960521698,0.4138526618480682
1783201995691552300,1.88955224609375,1.6242688425391911,0.8072425575748086,-5.553972682023048,0.4636184871196747,0.236146941781044,0.4788437187671661
1783201995701489200,1.8994892578125,1.9294655490621924,0.4938542882245034,-5.358408608868718,0.5973919630050659,-0.11866495013237,0.5682220458984375
1783201995711426300,1.90942626953125,1.9282114573478697,0.2361620410025119,-5.142224357011914,0.7510893940925598,-0.459595263004303,0.6779550909996033
1783201995721362400,1.919362548828125,1.7582430132210254,0.1240149405948817,-4.788428454753756,0.9337902665138244,-0.7144472599029541,0.7678375244140625
1783201995731299000,1.929299072265625,1.4876999791890382,0.1679440621597692,-4.164447830381989,1.140109896659851,-0.8568552136421204,0.8137211203575134
1783201995741236200,1.939236328125,1.2745318602830171,0.1459035317979753,-3.414628410989046,1.3640652894973757,-0.9035246968269348,0.8363649249076843
1783201995751172900,1.9491728515625,1.145548337495327,0.1167963875181972,-2.6238871986210346,1.6011579036712646,-0.8882960677146912,0.8453361988067627
1783201995761109800,1.95910986328125,0.9423311192393302,0.0693738526132889,-1.935118752518296,1.8299198150634768,-0.829872727394104,0.8474643230438232
1783201995771047000,1.969046875,0.8212444871813058,0.0250348533395677,-1.2945955741465092,2.038067102432251,-0.7460635304450989,0.8533389568328857
1783201995780983800,1.97898388671875,0.833922474707663,0.0204056957015767,-0.6738648914813995,2.1969339847564697,-0.6805673837661743,0.9008753299713136
1783201995790919700,1.988919677734375,0.9277350231319664,-0.0061250587515532,0.0131944126158952,2.289057493209839,-0.6209179759025574,1.0023508071899414
1783201995800856800,1.99885693359375,1.0818635085701942,-0.037735052697733,0.7642717231154441,2.3000710010528564,-0.5702870488166809,1.1411787271499634
1783201995810794000,2.0087939453125,1.1851041028141975,0.0493185960508883,1.5105845956921575,2.2351880073547363,-0.5088639855384827,1.286296844482422
1783201995820730600,2.018730712890625,1.1335255990073083,0.2503358200445771,2.234153721541166,2.1084506511688232,-0.4455718398094177,1.4150854349136353
1783201995830666800,2.028666748046875,0.8975428600944578,0.4975158064067363,2.8529250868320464,1.913187384605408,-0.3816286623477936,1.4885213375091553
1783201995840604000,2.03860400390625,0.5121700624421238,0.8172890275537967,3.3969700047016143,1.6533327102661133,-0.3250556588172912,1.4911813735961914
1783201995850540800,2.048540771484375,0.0336545784510672,1.160888676098734,3.797717627748847,1.3318225145339966,-0.244614765048027,1.4468637704849243
1783201995860477700,2.058477783203125,-0.3766032157413661,1.4801628616824745,4.125998565000296,0.9743198156356812,-0.1545964777469635,1.3488608598709106
1783201995870413800,2.068413818359375,-0.7486927534505724,1.6706315113939345,4.308738812416792,0.6007996201515198,-0.1102605909109115,1.2041469812393188
1783201995880350700,2.078350830078125,-1.1029134569920598,1.797414455397427,4.372216136071086,0.2199058085680008,-0.0556969530880451,1.041231393814087
1783201995890287900,2.088287841796875,-1.3887372083947065,1.9215964231222864,4.427514244922995,-0.15387524664402,0.016210027039051,0.8593446016311646
1783201995900224800,2.098224853515625,-1.6557830479606983,1.975720227497816,4.359977416744828,-0.504135012626648,0.1218642815947532,0.6606091260910034
1783201995910161000,2.108160888671875,-1.909946463469416,1.9893733436666428,4.213342501932383,-0.8142126202583313,0.2737185657024383,0.4470403492450714
1783201995920097800,2.118097900390625,-2.0655226634979247,2.000848531274497,3.964123995479941,-1.0597304105758667,0.4548049867153168,0.2352697700262069
1783201995930035000,2.128034912109375,-2.170690280281752,1.9475456878930328,3.471606435751915,-1.2300448417663574,0.6731247901916504,0.0430535376071929
1783201995939971600,2.1379716796875,-2.069733120799809,1.829105624821037,2.7974633118510246,-1.3189911842346191,0.9433477520942688,-0.1115821078419685
1783201995949907700,2.14790771484375,-1.697976176045835,1.59640819118917,1.9392285259246824,-1.3249534368515017,1.200411319732666,-0.2171793580055236
1783201995959844900,2.157844970703125,-1.203594576011598,1.0876644499339163,0.7334533910036086,-1.2554014921188354,1.3586540222167969,-0.25959312915802
1783201995969781800,2.16778173828125,-0.6775003253743052,0.5445426382586359,-0.4859218147248029,-1.157807469367981,1.409285306930542,-0.2325091958045959
1783201995979718700,2.17771875,0.021124913354218,0.1003460418462753,-1.4585563022911547,-1.0501617193222046,1.3551565408706665,-0.1326617002487182
1783201995989654800,2.18765478515625,0.7076178157404065,-0.3714133920133113,-2.419959201747179,-0.9277527928352356,1.174154281616211,0.0114774219691753
1783201995999592000,2.197592041015625,1.198165536700189,-0.6512913867540657,-3.185909671729803,-0.8110208511352539,0.8696146607398987,0.1551512330770492
1783201996009528800,2.20752880859375,1.4871794624462722,-0.7359124745935202,-3.7008062365263696,-0.6874369382858276,0.5297437906265259,0.254404067993164
1783201996019465700,2.2174658203125,1.5661118371248244,-0.7494463482968509,-3.9758687938094135,-0.5583063960075378,0.2350314706563949,0.2942963540554046
1783201996029401900,2.22740185546875,1.4756906847044824,-0.7929384301513434,-4.019459513732791,-0.4114381074905395,0.0166142173111438,0.287063717842102
1783201996039338800,2.2373388671875,1.4047472629532216,-0.927287133233994,-3.814740658742189,-0.2411867380142212,-0.1210163459181785,0.26953986287117
1783201996049276000,2.24727587890625,1.3867743838891389,-1.1542673582628369,-3.466128881123662,-0.0399926826357841,-0.1813382059335708,0.3030427992343902
1783201996059212800,2.257212890625,1.4919427313253282,-1.4323349425807594,-2.9294980389028784,0.1762530654668808,-0.1693944633007049,0.3911976814270019
1783201996069148700,2.267148681640625,1.6853996030673384,-1.6325453802362084,-2.290460715174675,0.3922211825847626,-0.1254339814186096,0.524158239364624
1783201996079085800,2.2770859375,1.8797633605211967,-1.7302780247136949,-1.6760522212684152,0.590675950050354,-0.0757801458239555,0.6893423795700073
1783201996089023000,2.28702294921875,1.976345081397891,-1.687684791395068,-1.030182421171665,0.7475346922874451,-0.0373344644904136,0.878955066204071
1783201996098959600,2.296959716796875,1.96723618452996,-1.523746421212703,-0.353023164319992,0.852744996547699,0.0189762115478515,1.0623936653137207
1783201996108895700,2.306895751953125,1.900051530790329,-1.2763947315454482,0.2577431736916303,0.9154474139213562,0.0673999115824699,1.2245104312896729
1783201996118833000,2.3168330078125,1.6785004912033676,-0.9916923853881656,0.7805226006925106,0.9331217408180236,0.0799636393785476,1.35957133769989
1783201996128769800,2.326769775390625,1.3718489096969366,-0.6377357396103441,1.2318535790294407,0.9069552421569824,0.0648581832647323,1.450563907623291
1783201996138706700,2.336706787109375,1.0487553119555115,-0.2061765064530074,1.6418512609809637,0.8449166417121887,0.0403605587780475,1.4907935857772827
1783201996148643800,2.346643798828125,0.6911708310693502,0.2019695562824607,2.0469231769680976,0.7298216223716736,0.035570353269577,1.4711170196533203
1783201996158579700,2.356579833984375,0.3129904291391372,0.4625350939184427,2.445727849254012,0.5581483840942383,0.0604115203022956,1.4005464315414429
1783201996168516900,2.366516845703125,-0.0534001662760973,0.5608357475422322,2.7377064700245857,0.3483588099479675,0.1170310676097869,1.2875126600265503
1783201996178453800,2.376453857421875,-0.3705301794379949,0.4975830264240503,2.8908184718966483,0.1323604881763458,0.1993981152772903,1.162243127822876
1783201996188390700,2.386390625,-0.5040031225994229,0.3276762493565678,2.83680455763638,-0.0682016387581825,0.306214302778244,1.0825855731964111
1783201996198326800,2.396326904296875,-0.5031117267176508,0.2009656399369239,2.6137615259259936,-0.2388900369405746,0.3972736299037933,1.0595500469207764
1783201996208264000,2.406263916015625,-0.4464771085649728,0.1840472383618354,2.2212416329979896,-0.3642152547836303,0.474917471408844,1.0719270706176758
1783201996218200600,2.41620068359375,-0.3500286586791277,0.2386526887744665,1.797994008851051,-0.4501927495002746,0.5344489812850952,1.1106765270233154
1783201996228137700,2.4261376953125,-0.1435372410580515,0.3900152166306972,1.4136135832369328,-0.5099211931228638,0.5732632279396057,1.1666744947433472
1783201996238073900,2.436073974609375,-0.0243368611380457,0.6211597217321395,1.0887842477440834,-0.5441166758537292,0.6355777382850647,1.2285256385803225
1783201996248010800,2.4460107421875,-0.1341930741295218,0.8649025732524692,0.680667557233572,-0.5517046451568604,0.732746422290802,1.279409885406494
1783201996257947600,2.45594775390625,-0.3653632981941104,1.181181814803928,0.1565209335327148,-0.5342627763748169,0.8288663029670715,1.3077374696731567
1783201996267884800,2.465884765625,-0.628605946084857,1.5782310217246411,-0.3960457289665937,-0.4903649389743805,0.8857988119125366,1.3115394115447998
1783201996277821700,2.47582177734375,-0.9206853968814016,2.020777512842417,-1.1256208172321318,-0.4078050851821899,0.8579325675964355,1.254969596862793
1783201996287757800,2.4857578125,-1.197766600510478,2.5370389362514016,-1.7879454930454493,-0.3050066530704498,0.7726846933364868,1.1582756042480469
1783201996297694700,2.49569482421875,-1.5222297330394383,2.9910192600533363,-2.3050398601472377,-0.1931693255901336,0.651543915271759,1.0196691751480105
1783201996307631600,2.505631591796875,-1.8026751524046063,3.407787166792154,-2.702330036216974,-0.0767943412065506,0.4932415783405304,0.8391183614730835
1783201996317568800,2.51556884765625,-2.052696499672532,3.7331539701625696,-2.9464322225689887,0.0153864556923508,0.3109114468097687,0.5997965931892395
1783201996327505000,2.5255048828125,-2.3109540526270864,3.911897549158335,-3.026283757919073,0.0725394785404205,0.1602625399827957,0.3111209273338318
1783201996337441800,2.53544189453125,-2.515588151943684,3.933229967783391,-2.9604385360896583,0.0911842733621597,0.0251539852470159,0.0019622556865215
1783201996347378700,2.545378662109375,-2.6537711724922057,3.8059953344896433,-2.86257905036211,0.0966404899954795,-0.106728047132492,-0.2831062972545624
1783201996357315800,2.55531591796875,-2.660249720856547,3.5289527093052864,-2.786178532248736,0.1175047531723976,-0.2378612905740738,-0.5282390713691711
1783201996367252000,2.565251953125,-2.5299025085002183,3.2412057347550984,-2.756844885736704,0.1609219461679458,-0.3861683309078216,-0.7315376996994019
1783201996377188600,2.575188720703125,-2.3315882598549127,3.0282191098958253,-2.657085119345784,0.2283561080694198,-0.5344718098640442,-0.9161109924316406
1783201996387125800,2.585125732421875,-2.111072116273641,2.9108786786288023,-2.446669514018297,0.3058846592903137,-0.6668016314506531,-1.1019114255905151
1783201996397062700,2.595062744140625,-1.9277239660918712,2.8198899554535743,-2.151896294093132,0.3831008672714233,-0.773201584815979,-1.2920055389404297
1783201996406999800,2.604999755859375,-1.8105767193093896,2.7238363501042127,-1.7921721708297729,0.4526908099651336,-0.842393696308136,-1.482069969177246
1783201996416935700,2.614935791015625,-1.7476175743103026,2.582999600176513,-1.42484634039104,0.5123709440231323,-0.8693525791168213,-1.6625715494155884
1783201996426872800,2.624872802734375,-1.7098484001472591,2.4665675159260627,-1.0858534549891947,0.5619562864303589,-0.8733097314834595,-1.8488715887069704
1783201996436809700,2.634809814453125,-1.706025334727764,2.3860130930036303,-0.7595259898930787,0.5998458862304688,-0.855553388595581,-2.044284582138061
1783201996446747000,2.644746826171875,-1.6557085214197635,2.325959752448648,-0.4197305559366941,0.6243687272071838,-0.8157192468643188,-2.2319509983062744
1783201996456682800,2.654682861328125,-1.522315950018167,2.240801927383989,-0.1070844101905822,0.6207806468009949,-0.7879645824432373,-2.396413803100586
1783201996466619600,2.66461962890625,-1.230051790304482,2.131306802789867,0.1900724900007248,0.5828315019607544,-0.792111337184906,-2.523196220397949
1783201996476556800,2.674556884765625,-0.8356891921192408,1.9557630427487196,0.4008189347177743,0.5019888877868652,-0.8253837823867798,-2.612532138824463
1783201996486494000,2.684493896484375,-0.4192711217314004,1.6820894556060433,0.6015618718147278,0.3794246613979339,-0.8824602365493774,-2.670839309692383
1783201996496430800,2.694430908203125,-0.0066711483269929,1.373834968947619,0.7218845337629318,0.2275895774364471,-0.9449316263198853,-2.704033851623535
1783201996506366700,2.70436669921875,0.4533338425919413,1.0422788094177842,0.8731295727193356,0.0422299616038799,-0.980606198310852,-2.7013885974884038
1783201996516304000,2.714303955078125,1.0834954936861991,0.6125942840911448,0.9925368733882904,-0.1543286442756652,-1.0146770477294922,-2.6542365550994877
1783201996526240800,2.72424072265625,1.7980685353919863,0.0956106838874518,1.123108542150259,-0.3489942252635956,-1.0189054012298584,-2.5435094833374023
1783201996536178000,2.734177978515625,2.419549159641564,-0.4545071241550147,1.2099912913113833,-0.514265775680542,-1.0024422407150269,-2.3646721839904785
1783201996546113800,2.74411376953125,2.8373639450848103,-0.9456050263434648,1.150220420959592,-0.631774365901947,-0.9635284543037416,-2.147449254989624
1783201996556050700,2.75405078125,3.026659605494141,-1.3537794383905828,0.9741431385636328,-0.6764129400253296,-0.9162030220031738,-1.9039127826690676
1783201996565987800,2.76398779296875,3.0622675099700687,-1.6420973446965217,0.7490601254582404,-0.6528631448745728,-0.8819646239280701,-1.662037014961243
1783201996575925000,2.773925048828125,2.939856935831904,-1.8585349867925047,0.463912812012434,-0.5812379717826843,-0.8322855234146118,-1.4491093158721924
1783201996585861600,2.783861572265625,2.7445862926661966,-1.9960836549602448,0.3003320230960846,-0.493497222661972,-0.7330771088600159,-1.2719019651412964
1783201996595797800,2.7937978515625,2.5968594909638165,-2.0668537659712136,0.1330026953011751,-0.3988420963287353,-0.6176770329475403,-1.120401382446289
1783201996605735000,2.80373486328125,2.645906138205528,-2.209685781369358,-0.0136836574375629,-0.3174104988574981,-0.5187687873840332,-0.9744975566864014
1783201996615671800,2.813671875,2.781123002424836,-2.3962787586912517,-0.1081733744710683,-0.2346844524145126,-0.4128399789333343,-0.797825276851654
1783201996625608700,2.823608642578125,3.002783932127058,-2.595986215260625,-0.1364379304468631,-0.1599258184432983,-0.295983076095581,-0.581383228302002
1783201996635544800,2.833544921875,3.182252318266034,-2.752537543931603,-0.1880810239225626,-0.0613182783126831,-0.171168178319931,-0.3587379157543182
1783201996645481700,2.843481689453125,3.117462158447504,-2.786932273225486,-0.2770020009130239,0.075781226158142,-0.0221317894756793,-0.1239633783698082
1783201996655419000,2.8534189453125,2.88910056206286,-2.666374341216683,-0.4209720804303884,0.2517980635166168,0.137547880411148,0.0916083306074142
1783201996665355800,2.863355712890625,2.4928318379953502,-2.359388267058879,-0.5738882674694061,0.458959698677063,0.2844147086143493,0.2691885828971863
1783201996675292700,2.873292724609375,2.0577074597023426,-1.947814275701344,-0.7268845340073108,0.6736373901367188,0.4045909345149994,0.3880619704723358
1783201996685228800,2.883228759765625,1.63042561160326,-1.4916957708269356,-0.8263257359683513,0.8772872686386108,0.4785488843917846,0.4642928838729858
1783201996695166000,2.893166015625,1.2465262475043537,-1.01383144422099,-0.8394511750012635,1.0459383726119995,0.5068111419677734,0.510443389415741
1783201996705102600,2.9031025390625,0.9071857177086174,-0.6178351073540747,-0.7911649907380343,1.163647174835205,0.4814465045928955,0.5442993640899658
1783201996715039700,2.913039794921875,0.5263917722791434,-0.2670399943470954,-0.694433047735691,1.219205021858215,0.4184654057025909,0.5502714514732361
1783201996724977000,2.922976806640625,0.0951958194762468,0.0963113795027136,-0.5640846663355827,1.208031177520752,0.3369067013263702,0.5246406197547913
1783201996734912800,2.932912841796875,-0.2358417230069637,0.4550768868669867,-0.4015151002883911,1.1428948640823364,0.2402321100234985,0.4765594005584717
1783201996744849700,2.942849609375,-0.5651192700803279,0.7795517098337411,-0.244282219094038,1.0321656465530396,0.1318183094263076,0.3969959020614624
1783201996754786000,2.9527861328125,-0.871459593680501,1.048196070637554,-0.1137140574634075,0.9025053977966307,0.0386516079306602,0.2943829596042633
1783201996764723000,2.962722900390625,-1.1484712392047047,1.2969944519817829,0.0026186580657958,0.7674589157104492,-0.0405761003494262,0.1748552471399307
1783201996774660000,2.97266015625,-1.388575588092208,1.4625418647959827,0.1114987195014953,0.6391968131065369,-0.0900174155831337,0.0530904605984687
1783201996784596000,2.982595947265625,-1.5635945936068891,1.5579828912049531,0.1857102031379938,0.5314658880233765,-0.1154100373387336,-0.0667816624045372
1783201996794533000,2.992533203125,-1.7010089678704738,1.6381123667135833,0.2094727715194225,0.4566201567649841,-0.1185664162039756,-0.1894047856330871
1783201996804470000,3.002469970703125,-1.8109291860088703,1.700393174059689,0.0862912130087614,0.4176384210586548,-0.1243498027324676,-0.3211823403835296
1783201996814407200,3.0124072265625,-1.8683657681941983,1.783232785309851,-0.1185533141881227,0.4051713645458221,-0.1321976035833358,-0.4661898612976074
1783201996824344000,3.022343994140625,-1.886757457192242,1.8434119442015888,-0.2728080563545227,0.4286393523216247,-0.1298541575670242,-0.6077681183815002
1783201996834280000,3.032280029296875,-1.892671649672091,1.8585349867925047,-0.3761638014107942,0.4601599872112274,-0.1158571168780326,-0.7518400549888611
1783201996844217000,3.042217041015625,-1.8736907626092436,1.8374959981560703,-0.384129665723443,0.5020018219947815,-0.1002000272274017,-0.8913368582725525
1783201996854154000,3.052154052734375,-1.8607903645038604,1.7996353463172912,-0.3554308099836111,0.5399976968765259,-0.0660870671272277,-1.0315179824829102
1783201996864091100,3.062091064453125,-1.826872020550072,1.7528832397535443,-0.3091413524955511,0.562724769115448,-0.0261629521846771,-1.1662945747375488
1783201996874027000,3.072027099609375,-1.7235925556004046,1.693440286181867,-0.2912789480686187,0.5786019563674927,-0.0100889103487133,-1.289359211921692
1783201996883964200,3.081964111328125,-1.4946125350564718,1.631577411986887,-0.3411410033464431,0.5937351584434509,-0.0422745794057846,-1.4015172719955444
1783201996893901000,3.091901123046875,-1.2526356702953576,1.5742162331253289,-0.4046995755434036,0.5979272127151489,-0.0808723047375679,-1.5115760564804075
1783201996903838200,3.101838134765625,-1.0679299680247902,1.487610839600861,-0.3439484619826078,0.5944575071334839,-0.0947854742407798,-1.608184576034546
1783201996913774800,3.11177490234375,-0.7747264816343784,1.326910866817832,-0.1875830112725496,0.5711655020713806,-0.0763406902551651,-1.6521658897399902
1783201996923711000,3.1217109375,-0.2641737912610173,0.9847694542571902,-0.0095721304655075,0.5263815522193909,-0.0275039784610271,-1.6406733989715576
1783201996933648100,3.131648193359375,0.1861462564677,0.4813476386770606,0.1477934371978044,0.4615439772605896,0.0327327288687229,-1.5702471733093262
1783201996943585300,3.141585205078125,0.5814665937691926,0.0025318565651774,0.2162023720353841,0.3915612399578094,0.0830492153763771,-1.4513521194458008
1783201996953522000,3.15152197265625,0.9539508298844098,-0.3435480644881725,0.1024865610063076,0.3393038809299469,0.1023747101426124,-1.2826416492462158
1783201996963459000,3.161458984375,1.237817163608968,-0.585447772359848,-0.1001467198818922,0.3082782626152038,0.0501044131815433,-1.092676281929016
1783201996973395200,3.171395263671875,1.4336530394420026,-0.6851403187334537,-0.2911597056031227,0.2855793535709381,-0.0378219783306121,-0.9112271666526794
1783201996983332000,3.18133203125,1.5490639639511703,-0.687317955033481,-0.3647749769121408,0.2558232843875885,-0.1085820198059082,-0.7494657039642334
1783201996993269000,3.19126904296875,1.551974006178975,-0.6896797157287597,-0.3191466136813163,0.2183539420366287,-0.1414821743965149,-0.6205660104751587
1783201997003206000,3.201205810546875,1.490173091304302,-0.8032888515129685,-0.2847270422071218,0.1901688128709793,-0.1222960129380226,-0.4956303834915161
1783201997013143000,3.21114306640625,1.3488026728913187,-0.8919161062538623,-0.4514718481123447,0.2016401141881942,-0.0784878134727478,-0.3830535113811493
1783201997023079200,3.2210791015625,1.1524585552752018,-0.8317381164059042,-0.6960720471143722,0.2652286887168884,-0.0764486342668533,-0.2893192768096924
1783201997033016000,3.23101611328125,0.9475333640575409,-0.6289031754657626,-0.9694313076108694,0.3607653379440307,-0.1198917105793953,-0.2304583638906479
1783201997042953000,3.240952880859375,0.7625432918876409,-0.350246100822091,-1.0874392628759144,0.4525348842144012,-0.1661084741353988,-0.2055288404226303
1783201997052890000,3.25089013671875,0.5658776872321963,-0.0860819541722536,-1.0797603988111018,0.5268991589546204,-0.2051970213651657,-0.2121638506650924
1783201997062827000,3.260826904296875,0.3647419514253735,0.1111681723728775,-0.9595002807050944,0.572658121585846,-0.239063948392868,-0.2407776266336441
1783201997072763000,3.270762939453125,0.2118219649940729,0.2166016004860401,-0.7591647553652524,0.579968273639679,-0.2667680084705353,-0.2750623822212219
1783201997082700000,3.280699951171875,0.1201964052200317,0.2380149753928184,-0.571655978372693,0.5584375262260437,-0.3040773570537567,-0.3108070194721222
1783201997092637200,3.29063720703125,0.0580471152991056,0.1995569421827793,-0.4163146100133657,0.5281552672386169,-0.3480453491210937,-0.3341240584850311
1783201997102574000,3.300573974609375,0.0387841964244842,0.1496782280310988,-0.298770180606842,0.4940202236175537,-0.4091921746730804,-0.3383064866065979
1783201997112511200,3.31051123046875,0.0266232185095548,0.1443634627491235,-0.1808358750998973,0.4488548636436462,-0.4786277115345001,-0.342410683631897
1783201997122447000,3.320447021484375,-0.0232888133898377,0.1528515973702073,-0.0014244798451662,0.3937606811523437,-0.5373237133026123,-0.3460337817668915
1783201997132384000,3.330384033203125,-0.0884843391388654,0.1475058524280786,0.1769616640150547,0.3359855115413666,-0.5909589529037476,-0.3623762726783752
1783201997142321200,3.340321044921875,-0.1166381282165646,0.1738853253096342,0.3417798857718706,0.2833271026611328,-0.6275004744529724,-0.3882347643375397
1783201997152258000,3.350258056640625,-0.1435319803610444,0.2157435223519802,0.5643932938933373,0.2326684743165969,-0.6494798064231873,-0.4205506145954132
1783201997162195000,3.36019482421875,-0.1543947351589799,0.2517266898810863,0.8052847015053033,0.1809985488653183,-0.6499283909797668,-0.4639898240566253
1783201997172132000,3.370132080078125,-0.1763680820360779,0.2714376447841525,1.0544956091731783,0.1293976753950119,-0.6150484681129456,-0.5064464807510376
1783201997182068200,3.380068115234375,-0.1949772131770849,0.2741130014732479,1.322296651020646,0.0897859036922454,-0.5378339290618896,-0.5634281635284424
1783201997192005000,3.390005126953125,-0.1650210508525371,0.2740168476223945,1.4291601119369268,0.0885371416807174,-0.4711068868637085,-0.6216342449188232
1783201997201942000,3.39994189453125,-0.0338929172515869,0.2734720732212066,1.4232225385814905,0.1096143648028373,-0.4542365670204162,-0.6727105975151062
1783201997211879000,3.40987890625,-0.0037722120150923,0.2278483861654996,1.5553770926207302,0.1223671734333038,-0.4183408617973327,-0.7188453674316406
1783201997221816000,3.419816162109375,0.0755079531878232,0.1020186512336134,1.730831859204173,0.1130221635103225,-0.3513579666614532,-0.7566270232200623
1783201997231752200,3.429752197265625,0.1995727242738008,-0.0579018616095185,1.9517688585460184,0.0615880042314529,-0.2584770321846008,-0.7670069932937622
1783201997241689000,3.439689208984375,0.3434019340157508,-0.2460822542533278,2.214247244066,-0.0333659164607524,-0.1365283578634262,-0.7527830004692078
1783201997251626000,3.4496259765625,0.537858338189125,-0.4825865328222513,2.371507013267278,-0.1618660986423492,-0.0087706670165061,-0.6985059380531311
1783201997261563100,3.459563232421875,0.7468363119289279,-0.7721054854810238,2.264703173583746,-0.2983215153217315,0.1077110767364502,-0.6090336441993713
1783201997271500000,3.4695,0.8929705837428569,-1.0228267977118493,1.958919899344444,-0.4199203848838806,0.2150463163852691,-0.5001844167709351
1783201997281436000,3.479435791015625,0.9871838219225406,-1.1447732614696025,1.4548434192478656,-0.5061572790145874,0.327760100364685,-0.3962686955928802
1783201997291373000,3.489373046875,1.1149243589118123,-1.14018096524328,0.7858610391110181,-0.5375836491584778,0.3921063244342804,-0.3007288575172424
1783201997301310000,3.49931005859375,1.251124096688628,-1.0753092646211384,0.0335772754311561,-0.5114352703094482,0.3952338397502899,-0.2120808660984039
1783201997311247000,3.5092470703125,1.3651809762403369,-0.9584984101861714,-0.6509785214126109,-0.4477026760578155,0.3628692328929901,-0.1347711533308029
1783201997321184300,3.519184326171875,1.4489108143284917,-0.8291551141753792,-1.2431640775948762,-0.3493416309356689,0.3343348801136017,-0.0506104454398155
1783201997331120000,3.5291201171875,1.439989841248095,-0.7424465525373816,-1.746415212783217,-0.2213319987058639,0.2953629791736603,0.0317464806139469
1783201997341057000,3.53905712890625,1.3502499490901827,-0.6643789779946208,-2.220106491488218,-0.0825624763965606,0.2189954966306686,0.1094537079334259
1783201997350994200,3.548994140625,1.137482227678597,-0.5371469750493765,-2.591908590558171,0.0702675506472587,0.1034662425518035,0.1761464625597
1783201997360931000,3.55893115234375,0.8520327164158225,-0.361880132253468,-2.804406262856722,0.2205281406641006,-0.0508374273777008,0.2160683125257492
1783201997370868000,3.568867919921875,0.530167199164629,-0.15078560475111,-2.770547247874737,0.3487734496593475,-0.2003443539142608,0.2215930372476577
1783201997380805000,3.57880517578125,0.202851015292108,0.0875081875830888,-2.5229361766189333,0.444109559059143,-0.3206374645233154,0.2099281251430511
1783201997390741000,3.588740966796875,-0.0515817186772823,0.319576237270236,-2.1243477774322037,0.5172327756881714,-0.413428395986557,0.1885413527488708
1783201997400678100,3.59867822265625,-0.2978124414905905,0.5208145566686988,-1.6809926002800464,0.5595817565917969,-0.4763702750205993,0.15719835460186
1783201997410615000,3.608614990234375,-0.5173600323006511,0.7084770629182457,-1.242275604322553,0.5665725469589233,-0.5036274790763855,0.1223154664039611
1783201997420552000,3.618552001953125,-0.7059504670500755,0.840410959944129,-0.8199047630101441,0.5412579774856567,-0.5068829655647278,0.0865215584635734
1783201997430489000,3.628489013671875,-0.9034957771494984,0.9427128120332956,-0.4945107793718576,0.4867645800113678,-0.5105104446411133,0.0482260957360267
1783201997440425200,3.63842529296875,-1.0520376946270464,1.0594140686139464,-0.2788467519968748,0.424212247133255,-0.5162797570228577,0.0004391740076243
1783201997450361900,3.64836181640625,-1.152789979186654,1.189668341989815,-0.0937993966817855,0.3509758710861206,-0.5348055362701416,-0.0580531619489192
1783201997460299000,3.658299072265625,-1.1971706804439424,1.2884189313381909,0.0827788209736347,0.274596244096756,-0.5592684149742126,-0.1318069845438003
1783201997470236200,3.668236083984375,-1.2288112887240945,1.3114280510038137,0.258094471347332,0.1986772567033767,-0.5708292126655579,-0.2067776322364807
1783201997480173000,3.678173095703125,-1.2025127721242606,1.2728136581882834,0.4567413129478693,0.1235337629914283,-0.5781719088554382,-0.2766139209270477
1783201997490110200,3.688110107421875,-1.1433806380674243,1.1593728647083044,0.5940764844954014,0.0439132302999496,-0.5917662978172302,-0.3265255689620971
1783201997500046000,3.698046142578125,-1.0558448318250475,1.0102630842149256,0.7061275771826505,-0.0344729982316494,-0.6178376078605652,-0.3641071319580078
1783201997509983000,3.70798291015625,-0.9450269341945648,0.8752315134346484,0.8357400455236434,-0.1130290627479553,-0.6314525008201599,-0.4010209441184997
1783201997519920000,3.717920166015625,-0.8617261351734399,0.8012398100286722,1.013559787672758,-0.1815619319677353,-0.6229304671287537,-0.448116272687912
1783201997529857300,3.727857177734375,-0.7723499617613852,0.7523819633573293,1.2216659470140934,-0.2366379648447036,-0.5729101896286011,-0.5007823705673218
1783201997539794000,3.7377939453125,-0.6720832687616348,0.6427396853774786,1.4164765714526175,-0.2735110521316528,-0.490369439125061,-0.5478673577308655
1783201997549730000,3.74772998046875,-0.5782385716333985,0.5028618436098099,1.4959984364569183,-0.2949945032596588,-0.3861157596111297,-0.582719624042511
1783201997559667200,3.757667236328125,-0.4415449128597974,0.3645361997202038,1.493022635516524,-0.3060912787914276,-0.2808904349803924,-0.6093087792396545
1783201997569604000,3.76760400390625,-0.2632655903749167,0.2778384517371654,1.4129524889796972,-0.3079432547092438,-0.1886524111032486,-0.6175810694694519
1783201997579541000,3.777541015625,-0.0452303038239479,0.2423392683327198,1.2514625348627566,-0.3134464919567108,-0.1258769184350967,-0.6273694038391113
1783201997589478000,3.787477783203125,0.0965317442551255,0.1924690297484397,1.0927701025098562,-0.3324539959430694,-0.0715164765715599,-0.6371575593948364
1783201997599415000,3.7974150390625,0.1839353024199604,0.0660810764119029,0.9016787908554076,-0.358826607465744,-0.021967127919197,-0.639571487903595
1783201997609351200,3.80735107421875,0.2669116917923093,-0.0429585594996809,0.662405339834094,-0.384268581867218,0.0070898234844207,-0.6415120959281921
1783201997619288000,3.8172880859375,0.3697662093281745,-0.0699199239224195,0.4348930537551641,-0.4066937267780304,0.0170014575123786,-0.6484234929084778
1783201997629225000,3.827224853515625,0.4624294415868819,-0.0671831924349069,0.1650970386981964,-0.4302395284175873,0.0196260027587413,-0.6568548083305359
1783201997639162000,3.837162109375,0.530283665151149,-0.1229100480929017,-0.1638765569925308,-0.4478591680526733,0.0111010512337088,-0.6558231115341187
1783201997649099000,3.84709912109375,0.5946139523729682,-0.2054588597029447,-0.5516039549469948,-0.445044994354248,-0.0282189231365919,-0.6622306704521179
1783201997659036200,3.8570361328125,0.6421145392164588,-0.2960050998076796,-0.9037883303552864,-0.4126502275466919,-0.0958232581615448,-0.6610004305839539
1783201997668972000,3.866971923828125,0.7073799153313041,-0.3756415311023592,-1.130671086359024,-0.352796196937561,-0.1737273782491684,-0.6490247249603271
1783201997678909200,3.8769091796875,0.7504352132037282,-0.4214370675936341,-1.1361772825598715,-0.2819626033306122,-0.2326009422540664,-0.6256398558616638
1783201997688846000,3.88684619140625,0.7621208286918699,-0.4471703515261411,-0.9741945764899254,-0.2289380133152008,-0.2451785206794738,-0.5951104164123535
1783201997698783200,3.896783203125,0.7378072022989391,-0.4704049505107104,-0.6853735429674387,-0.204855278134346,-0.2059119939804077,-0.5587322115898132
1783201997708719900,3.906719970703125,0.6944941302731633,-0.5302247745707631,-0.4635048157334327,-0.1909988522529602,-0.1516389101743698,-0.5176942348480225
1783201997718656000,3.916656005859375,0.6876008636280894,-0.5358847000285982,-0.4077414274573326,-0.1771905571222305,-0.1157483905553817,-0.4677720963954925
1783201997728593200,3.92659326171875,0.6682037969797849,-0.486770248247683,-0.4734434414237737,-0.1510614901781082,-0.1175161972641944,-0.4150148630142212
1783201997738530000,3.936530029296875,0.6548346123188734,-0.4267366353064775,-0.5362959111779928,-0.1216464415192604,-0.1501459032297134,-0.3672799468040466
1783201997748468200,3.94646826171875,0.6045300739705562,-0.3423847197972238,-0.5369610970884561,-0.1059577539563179,-0.1787429302930832,-0.31050905585289
1783201997758405000,3.956405029296875,0.5994581775337458,-0.2744420872971415,-0.4494108239293098,-0.1285729110240936,-0.1934863924980163,-0.2490161657333374
1783201997768342300,3.96634228515625,0.6161901166260242,-0.2442816345721483,-0.397218279877305,-0.1825775504112243,-0.2111588567495346,-0.1835114508867263
1783201997778278400,3.9762783203125,0.588827916317433,-0.2497624040707945,-0.5016448690354823,-0.2550238370895386,-0.2506737112998962,-0.127000406384468
1783201997788215000,3.986215087890625,0.5746507762745022,-0.2686474295437336,-0.7306278121888637,-0.3169583082199096,-0.3218115270137787,-0.0765753164887428
1783201997798152200,3.996152099609375,0.5134482656843959,-0.2532370944440364,-0.9547738367050884,-0.3433915674686432,-0.4317471385002136,-0.0357944890856742
1783201997808089300,4.00608935546875,0.3970056600399315,-0.2054401550024747,-1.1290706654250622,-0.3245965838432312,-0.5600526332855225,-0.0270598549395799
1783201997818026200,4.016026123046875,0.2163634078159928,-0.1055766359761357,-1.1436392890036104,-0.2645548582077026,-0.6493015885353088,-0.0410363636910915
1783201997827963400,4.02596337890625,0.0393630192257463,0.0042658407509326,-0.9767267253160477,-0.1794186532497406,-0.6951425671577454,-0.0752673000097274
1783201997837899300,4.035899169921875,-0.1420803202480077,0.121594581580162,-0.6860036575645208,-0.0888139232993125,-0.7189164161682129,-0.1266353577375412
1783201997847836200,4.045836181640625,-0.2647235340982675,0.2289614619739353,-0.3337941477149724,0.0011892030015587,-0.7121890187263489,-0.1963957995176315
1783201997857773300,4.055773193359375,-0.305484291292727,0.3441591821238398,0.0644341859877109,0.0664322897791862,-0.6732121706008911,-0.2778979241847992
1783201997867710500,4.06571044921875,-0.3535959957718849,0.3963413509123027,0.5196884752482176,0.1076106131076812,-0.5958231091499329,-0.3669883906841278
1783201997877647000,4.075647216796875,-0.3618709260337054,0.3459241459697484,0.9299380861341952,0.1310207992792129,-0.4756973683834076,-0.4502833783626556
1783201997887583200,4.085583251953125,-0.3353310018934309,0.2915349686563014,1.2837684751838443,0.1492757052183151,-0.3331591188907623,-0.5166690945625305
1783201997897520400,4.095520263671875,-0.3096935795508325,0.2530646604865789,1.513235986983776,0.1716707348823547,-0.1816096603870391,-0.5746865272521973
1783201997907457300,4.105457275390625,-0.3113650198943913,0.2416958558626472,1.6219050360172986,0.2047181576490402,-0.0362306237220764,-0.634402334690094
1783201997917394200,4.115394287109375,-0.3032413346715271,0.2755816127210855,1.661022994440794,0.246474415063858,0.1079053953289985,-0.7061969637870789
1783201997927331300,4.125331298828125,-0.3148379567019641,0.2976006984360516,1.6615759521484377,0.2862806916236877,0.2461998909711837,-0.7803119421005249
1783201997937268200,4.135268310546875,-0.3434042721033096,0.3583089957684278,1.6514222224026918,0.3232688307762146,0.3858047723770141,-0.8565995693206787
1783201997947204400,4.145204345703125,-0.367079746723175,0.4484098301932215,1.629537722852826,0.3426102995872497,0.5003198981285095,-0.94907808303833
1783201997957141200,4.155141357421875,-0.3384460651740431,0.5284815841652453,1.612615814146399,0.3500888645648956,0.5844908952713013,-1.048184514045715
1783201997967078100,4.165078125,-0.262464064733684,0.6701017395555973,1.6462959654301403,0.3306520581245422,0.6645625233650208,-1.1700211763381958
1783201997977015300,4.175015380859375,-0.1995091575182974,0.8567680743746459,1.771994475197792,0.2771928012371063,0.7679181694984436,-1.3079485893249512
1783201997986952200,4.1849521484375,-0.1441261468619108,0.974946856161952,1.9486358212172985,0.1771176010370254,0.9107171297073364,-1.4392861127853394
1783201997996889300,4.194889404296875,0.0634627106070518,0.8421151335135102,1.999892545723915,0.0460437759757041,1.066585659980774,-1.51429545879364
1783201998006825200,4.2048251953125,0.5043839386105538,0.2733348567076027,1.6007517733514307,-0.09834536164999,1.2340564727783203,-1.486192226409912
1783201998016762400,4.214762451171875,1.1472384825393558,-0.9070648678079248,0.8722486982315778,-0.2294577956199646,1.329229474067688,-1.3201711177825928
1783201998026699300,4.22469921875,1.8492744064942,-2.199525037360936,-0.1313911684513092,-0.3190814256668091,1.2767236232757568,-1.010975360870361
1783201998036636400,4.234636474609375,2.7077415398716926,-3.0342443615347143,-1.1603969470590352,-0.354887843132019,1.0850151777267456,-0.6023075580596924
1783201998046573000,4.244572998046875,3.377736311921477,-3.3239936158180234,-1.8707301592379808,-0.3259459435939789,0.7404308319091797,-0.1852264255285263
1783201998056510200,4.25451025390625,3.729541624884307,-3.426851348224282,-2.385940612289309,-0.2459402680397033,0.3516077399253845,0.2242312282323837
1783201998066446300,4.2644462890625,3.849010008090734,-3.2671555840477344,-2.643575649431348,-0.1175420954823494,-0.0008336715400218,0.5887426137924194
1783201998076383200,4.27438330078125,3.702545773670077,-2.8337726425945755,-2.5806863547980785,0.0023430753499269,-0.2176779806613922,0.8744515776634216
1783201998086320000,4.284320068359375,3.267162306049466,-2.311976965934038,-2.1343530386179683,0.0967124551534652,-0.2705505192279815,1.044851303100586
1783201998096257300,4.29425732421875,2.72803789344728,-1.829203093846142,-1.5814081904560326,0.1707493364810943,-0.2086181640625,1.141008377075195
1783201998106194200,4.304194091796875,2.376078558966517,-1.314833183272183,-1.151219953390956,0.2458512783050537,-0.1233461499214172,1.182717204093933
1783201998116131300,4.31413134765625,2.095436155724525,-0.8903907963827252,-0.9583207155317068,0.3514816462993622,-0.0532101280987262,1.191775918006897
1783201998126068500,4.324068359375,1.8445736814573408,-0.6280211319342255,-0.8301970244437455,0.4756528735160827,0.0012515154667198,1.1908947229385376
1783201998136004000,4.334004150390625,1.6545508758172391,-0.4594669385194778,-0.6628723728239536,0.6063774824142456,0.0436454452574253,1.1903067827224731
1783201998145941200,4.343941162109375,1.5006518152207136,-0.3641942544147372,-0.4256581924200058,0.7148464322090149,0.0502133332192897,1.1977216005325315
1783201998155878400,4.35387841796875,1.32825702072978,-0.3520652790732682,-0.1606044034540653,0.7786534428596497,0.0160845573991537,1.2265187501907349
1783201998165815300,4.363815185546875,1.1967103694558143,-0.334910292263329,0.2023842745631933,0.763152539730072,-0.019224964082241,1.2620799541473389
1783201998175752200,4.373752197265625,1.1226388788118955,-0.3611249299719929,0.6084142219275236,0.6839855313301086,-0.0588691160082817,1.3095200061798096
1783201998185689000,4.383689208984375,1.1226543686419723,-0.3864274212718009,1.0182307020932435,0.5412904024124146,-0.0900355577468872,1.361875057220459
1783201998195625200,4.393625244140625,1.1195625401064753,-0.402432799655199,1.3572048827946186,0.3692496418952942,-0.0969366654753685,1.407455325126648
1783201998205562400,4.403562255859375,0.9826911866784096,-0.4151116639643907,1.5161194334656,0.2107249796390533,-0.0799720585346221,1.4327611923217771
1783201998215499300,4.413499267578125,0.8298141626060008,-0.340788828907907,1.523577348256111,0.0978203117847442,-0.0562263168394565,1.446183681488037
1783201998225436200,4.423436279296875,0.6780341399900615,-0.1576198346853256,1.4867068764984608,0.0347974076867103,-0.0438852272927761,1.4422136545181274
1783201998235373300,4.433373291015625,0.5538575790926814,0.0557031825214624,1.4447650928258895,0.0034548277035355,-0.0104416385293006,1.4318714141845703
1783201998245310200,4.443310302734375,0.4413882609933614,0.2836339862734079,1.5211621038079262,-0.0189836360514163,0.0252007786184549,1.4053574800491333
1783201998255246000,4.45324609375,0.2857210216805338,0.4477519508063793,1.6710814471185207,-0.0450663194060325,0.0935163050889968,1.3628255128860474
1783201998265183200,4.463183349609375,0.1241201545350253,0.6055082713529467,1.8028017013937236,-0.0820400491356849,0.1863287985324859,1.3069034814834597
1783201998275120400,4.473120361328125,-0.021636808399111,0.7313076111465692,1.8491899430811405,-0.126567542552948,0.2817181348800659,1.2503160238265991
1783201998285057300,4.483057373046875,-0.1850578767091035,0.8037310423225164,1.88000067640841,-0.1924618631601333,0.4185047447681427,1.1926926374435425
1783201998294994400,4.492994384765625,-0.372700801475346,0.9073679424077272,1.955492847505212,-0.2728742361068725,0.5703827142715454,1.123165726661682
1783201998304931000,4.50293115234375,-0.5589066791757941,0.9876844649210572,1.976324623131752,-0.3723462224006653,0.7315324544906616,1.0490872859954834
1783201998314867200,4.5128671875,-0.69092883900702,1.0510586204618215,1.9677917725861072,-0.4828256666660309,0.8722342252731323,0.9790608286857604
1783201998324804400,4.522804443359375,-0.7429889888510107,1.1162556075155734,1.935264298468828,-0.6190013289451599,0.9906522631645204,0.912976622581482
1783201998334741200,4.5327412109375,-0.7190534019902348,1.203477087111771,1.8850684811919929,-0.7835636138916016,1.064860224723816,0.843221127986908
1783201998344678100,4.54267822265625,-0.6500368566483259,1.340644500876963,1.9005355149149892,-0.9811728000640868,1.0917158126831057,0.7643084526062012
1783201998354615300,4.552615234375,-0.531122015671432,1.501715937320888,2.0040771379321813,-1.2181203365325928,1.0877060890197754,0.6725873351097107
1783201998364552200,4.56255224609375,-0.3743167122393846,1.6289982091486452,2.1680027947634457,-1.4935405254364014,1.0598931312561035,0.5850058197975159
1783201998374489300,4.5724892578125,-0.1928822867244481,1.5742691323563456,2.267179208308458,-1.777746558189392,1.0026599168777466,0.5406261086463928
1783201998384425200,4.58242529296875,-0.0557332853987812,1.3514797831460832,2.1607927172541617,-2.0361244678497314,0.9788507223129272,0.5331479907035828
1783201998394362000,4.592362060546875,-0.2288613626003265,1.0580496483929456,1.7398235594332216,-2.2264297008514404,1.056796908378601,0.5339277386665344
1783201998404299300,4.60229931640625,-0.4745893965885043,0.7590083957597613,0.8659469677388667,-2.3046212196350098,1.1201201677322388,0.5225992202758789
1783201998414236400,4.612236328125,-0.4661705278113484,0.5248443967066705,-0.2286754846394061,-2.277244806289673,1.1095596551895142,0.5064027309417725
1783201998424173300,4.62217333984375,-0.2037315975189209,0.1166322829976677,-1.5225900907844303,-2.1512773036956787,1.0050028562545776,0.522791862487793
1783201998434110200,4.632110107421875,0.208466517086327,-0.3063146046370267,-2.741172684830427,-1.956570744514465,0.8074914813041687,0.5563614964485168
1783201998444046300,4.64204638671875,0.6486755051672458,-0.5445289019942283,-3.6706776402443646,-1.744327425956726,0.540664553642273,0.5976474285125732
1783201998453983200,4.651983154296875,1.1122694604888557,-0.7526550812102853,-4.269430299857259,-1.547473430633545,0.2234291136264801,0.6540772318840027
1783201998463920400,4.66192041015625,1.5555913198933005,-0.9533139932855964,-4.584350235754251,-1.3828527927398682,-0.0760276466608047,0.7495835423469543
1783201998473857300,4.671857177734375,2.0026775002673265,-1.0753699087671935,-4.588216263532639,-1.2360528707504272,-0.3620797097682953,0.8722056150436401
1783201998483794200,4.681794189453125,2.323465743675828,-1.1252215157162395,-4.405920252752304,-1.0833780765533447,-0.5777875185012817,0.9991917610168456
1783201998493731300,4.6917314453125,2.348386249920725,-1.1121672422233968,-4.152384467622637,-0.878311038017273,-0.6834774017333984,1.1233320236206057
1783201998503667500,4.70166748046875,2.1058745476305485,-1.0279806733436885,-3.825734930965304,-0.6184967756271362,-0.6950141787528992,1.2341746091842651
1783201998513604000,4.71160400390625,1.777328237441182,-0.8736098305169493,-3.5237165622174738,-0.2988282144069671,-0.644773542881012,1.3156439065933228
1783201998523541200,4.721541259765625,1.4688316125899552,-0.5873102052308619,-3.1745489042818544,0.0465153157711029,-0.5634259581565857,1.342678189277649
1783201998533478100,4.73147802734375,1.1770283483862876,-0.2463943158771842,-2.7678005795150997,0.3884538412094116,-0.4893997311592102,1.331784725189209
1783201998543415300,4.741415283203125,0.9385726434886456,0.0270861598461866,-2.3139999961942435,0.704781174659729,-0.4014709591865539,1.3103783130645752
1783201998553352400,4.7513525390625,0.7510989378094672,0.1766568358495831,-1.7854992689371108,0.9812296628952026,-0.2959895133972168,1.2937387228012085
1783201998563289000,4.7612890625,0.604107172383368,0.2197024891108274,-1.233348786023259,1.2027308940887451,-0.1874680966138839,1.2919764518737793
1783201998573225200,4.77122509765625,0.538100914773345,0.1410921859934926,-0.6947732394754886,1.364789605140686,-0.1119326278567314,1.324433445930481
1783201998583162400,4.781162353515625,0.4959940036669373,0.1207167758323252,-0.1889665745854377,1.4640852212905884,-0.0462132655084133,1.3755443096160889
1783201998593099300,4.791099365234375,0.4408306271106004,0.2661469910301268,0.3273550545781851,1.4889841079711914,0.0018388852477073,1.4090346097946167
1783201998603036200,4.8010361328125,0.3407672015979885,0.4480164469614625,0.8009066325515508,1.4482622146606443,0.0315930545330047,1.4160501956939695
1783201998612973300,4.810973388671875,0.1915668202117085,0.6088412151679397,1.152105504053831,1.3541384935379028,0.0328495688736438,1.4053914546966553
1783201998622910200,4.82091015625,0.0150593297049403,0.7867799075216054,1.440937058970332,1.215164303779602,0.0466782972216606,1.3726577758789062
1783201998632846300,4.830846435546875,-0.1751136980608105,0.962195803399384,1.7333096474945544,1.057167887687683,0.0674214288592338,1.3213908672332764
1783201998642783200,4.840783203125,-0.3633089960128068,1.0780196926236152,1.9639999790877103,0.8785229921340942,0.0883482843637466,1.2699249982833862
1783201998652720000,4.85072021484375,-0.535025452850759,1.225417700763047,2.1773417009949685,0.6940011978149414,0.1479789912700653,1.2082117795944214
1783201998662657300,4.8606572265625,-0.6950126011893153,1.328178987057507,2.3250708407849072,0.5052539706230164,0.2150640189647674,1.1288548707962036
1783201998672594400,4.870594482421875,-0.8467578447528183,1.3430992005527018,2.336860062777996,0.3270143270492553,0.2721047699451446,1.0300370454788208
1783201998682531300,4.88053125,-0.97836338660717,1.3457482537567615,2.2310756292700766,0.1623090058565139,0.31588876247406,0.9313139915466307
1783201998692468200,4.89046826171875,-1.004419034361839,1.2692752549290656,2.011839588627219,0.0102938544005155,0.3494617640972137,0.8619685769081116
1783201998702404400,4.900404296875,-0.9746423202574253,1.221948271086812,1.8023919515490527,-0.1297045350074768,0.3418616354465484,0.8102550506591797
1783201998712341200,4.91034130859375,-0.9221101689875124,1.170399577896297,1.5300690483629702,-0.2580050826072693,0.3203594088554382,0.7724836468696594
1783201998722278400,4.9202783203125,-0.8025961930736899,1.1166586353585124,1.1880728894919157,-0.3785165846347809,0.2708496749401092,0.7535930871963501
1783201998732215000,4.930215087890625,-0.7044082060441375,1.1352566605836152,0.8264584224373102,-0.4873477518558502,0.1984448879957199,0.7228613495826721
1783201998742152200,4.940152099609375,-0.6550055849716067,1.1755161902576683,0.4397258807390928,-0.5738861560821533,0.1099917143583297,0.6766613125801086
1783201998752088800,4.9500888671875,-0.6330228857442737,1.1535799605205654,0.0882914469152689,-0.6374333500862122,0.0232546627521514,0.6300011873245239
1783201998762024700,4.960024658203125,-0.6114730249762534,1.0887760644376276,-0.1662210742920637,-0.6815747022628784,-0.0206744447350502,0.5917888283729553
1783201998771961600,4.969961669921875,-0.500963024251163,1.0313672470420598,-0.378398428595066,-0.704386830329895,-0.0295141711831092,0.5796842575073242
1783201998781898800,4.979898681640625,-0.2658661282621324,0.9339873615249992,-0.5821002154976129,-0.7073426842689514,-0.0059356112033128,0.5943713188171387
1783201998791836000,4.9898359375,-0.0787210700154304,0.7917381144508719,-0.8829021941930055,-0.6670712828636169,0.0325250290334224,0.6424288153648376
1783201998801772800,4.999772705078125,0.002509206341952,0.6449331037685274,-1.2713292648494243,-0.5863345861434937,0.0874679088592529,0.7115709185600281
1783201998811709700,5.009709716796875,0.0534758618608117,0.5977469897016883,-1.7551292651146648,-0.4597241878509521,0.1307450383901596,0.7828667163848877
1783201998821646600,5.019646484375,0.1533104470536112,0.6909028277829289,-2.2192215253472325,-0.2987323403358459,0.1444451361894607,0.8521613478660583
1783201998831582700,5.029582763671875,0.3513483629755675,0.7768139554329216,-2.5474779126793146,-0.1126662343740463,0.0865147933363914,0.9234129190444946
1783201998841519900,5.039519775390625,0.4639391154974698,0.8767194139048456,-2.6769647088140247,0.0649452954530716,0.0014014928601682,0.9907211065292358
1783201998851456800,5.049456787109375,0.5267870552070438,1.074135252405703,-2.549177117812633,0.2150498479604721,-0.056641835719347,1.0426822900772097
1783201998861393700,5.0593935546875,0.683137600608915,1.2152245157897472,-2.2641788574486967,0.340833842754364,-0.0682215243577957,1.0956863164901731
1783201998871330800,5.069330810546875,0.8724760772466659,1.2746595783159136,-1.883510730355978,0.4702234268188476,-0.0354486592113971,1.1596161127090454
1783201998881267700,5.079267822265625,0.7279349198430776,1.2963026703253389,-1.5597171676516532,0.6168056130409241,0.0980553403496742,1.217607021331787
1783201998891204900,5.089204833984375,0.4646270977616309,1.3804703153088689,-1.2727367935597895,0.8033480048179626,0.3035478293895721,1.2570734024047852
1783201998901140700,5.099140625,-0.0786333917319774,1.4472379126802086,-1.137215393435955,1.024480938911438,0.5289516448974609,1.2657217979431152
1783201998911077600,5.10907763671875,-0.7600336471542716,1.5485139288529752,-1.1236784509927034,1.2736294269561768,0.7350588440895081,1.2333444356918335
1783201998921014800,5.119014892578125,-1.4590110603213309,1.6695467848971486,-1.2294313203185796,1.514549970626831,0.8697367310523987,1.163009524345398
1783201998930952000,5.128951904296875,-2.135110140595585,1.7425877634495497,-1.3381260883152484,1.70527446269989,0.9223122000694276,1.0373386144638062
1783201998940888600,5.138888671875,-2.646847802969813,1.9271619482949376,-1.242140579766035,1.8137866258621216,0.9061968922615052,0.8383767604827881
1783201998950825700,5.14882568359375,-2.9635686508089303,2.071239872100949,-1.0301415046393871,1.8182690143585205,0.8219484090805054,0.586513102054596
1783201998960762600,5.1587626953125,-2.9334722032308576,2.044685042652488,-0.6990081005662679,1.721376657485962,0.6754478812217712,0.3404668569564819
1783201998970698800,5.16869873046875,-2.5785750617325305,1.9068471822798247,-0.3488555232465267,1.5452637672424316,0.4565188884735107,0.1478950977325439
1783201998980635600,5.1786357421875,-2.061422826963663,1.719809822191298,-0.056709144693613,1.3296904563903809,0.1736200600862503,0.0097865033894777
1783201998990572800,5.18857275390625,-1.542685953351855,1.6140589986920355,0.3002396686375141,1.0747668743133545,-0.1123229712247848,-0.0859606340527534
1783201999000509700,5.198509765625,-1.1832295411139726,1.5319778045937418,0.7888204734385013,0.7901145815849304,-0.3304923176765442,-0.1631267964839935
1783201999010446800,5.20844677734375,-1.0278580698773263,1.383532040967047,1.299730014425516,0.4970076084136963,-0.4481952488422394,-0.2419750094413757
1783201999020383700,5.2183837890625,-1.0257648969903588,1.2346513930544256,1.6897154204398392,0.2079662233591079,-0.4891525208950043,-0.3303490877151489
1783201999030320600,5.228320556640625,-0.9887447876289488,1.1012854173988105,1.9425129544228317,-0.0550326183438301,-0.4849296808242798,-0.4167252480983734
1783201999040256800,5.2382568359375,-0.9252933290682732,0.9345178151398896,2.0928525689721105,-0.2880333662033081,-0.4124485552310943,-0.5151021480560303
1783201999050193700,5.248193603515625,-0.9188808316774666,0.7628118796959519,2.1338906818032264,-0.471148133277893,-0.2692835032939911,-0.6049665808677673
1783201999060130800,5.258130859375,-0.8759004987373947,0.6267647021323443,1.9585762004733085,-0.5971662402153015,-0.1108643189072609,-0.6981557011604309
1783201999070067700,5.268067626953125,-0.7119913546495139,0.5456143591433763,1.630264868083596,-0.6551604866981506,0.0371375568211078,-0.7649797201156616
1783201999080004600,5.278004638671875,-0.5139949397817254,0.3965358505710959,1.188553366485238,-0.6496168375015259,0.1253435760736465,-0.7930547595024109
1783201999089941800,5.287941650390625,-0.347303325368464,0.2287006190806627,0.6182604931592941,-0.608120322227478,0.1504868119955063,-0.7814627289772034
1783201999099879000,5.29787890625,-0.1158580837547779,0.1657739150464534,0.0841115308821201,-0.5600351095199585,0.1569726765155792,-0.7414673566818237
1783201999109814500,5.307814453125,0.1248717035546898,0.2045186562433838,-0.2637093886196613,-0.5352449417114258,0.1337439268827438,-0.6971941590309143
1783201999119751700,5.317751708984375,0.3586211304575205,0.2520268418714404,-0.5804623851627111,-0.5363336205482483,0.0634199604392051,-0.6589322090148926
1783201999129688800,5.327688720703125,0.4352893595963716,0.2669298119708895,-0.9484382039427756,-0.5403887629508972,-0.0411142371594905,-0.6331882476806641
1783201999139625700,5.337625732421875,0.3874374750971794,0.3052490212321281,-1.3368816412121056,-0.5425879955291748,-0.1738706827163696,-0.6229180097579956
1783201999149563000,5.34756298828125,0.2715580562934279,0.3577233048349619,-1.6817705989152192,-0.53189617395401,-0.3336028158664703,-0.6416680216789246
1783201999159499500,5.35749951171875,0.0924336612865328,0.4044248502552509,-1.9638503414839503,-0.5057474374771118,-0.4893484711647033,-0.690424382686615
1783201999169436700,5.367436767578125,-0.0880304578915238,0.4126376750662923,-2.1306489234030246,-0.4621988832950592,-0.6171754002571106,-0.7648523449897766
1783201999179372800,5.377372802734375,-0.2113224910393357,0.3998725937783718,-2.131414647078514,-0.3920866250991821,-0.6964632868766785,-0.8319032788276672
1783201999189310000,5.38731005859375,-0.2531850719958544,0.4196396627828478,-2.0737258436977863,-0.2859145104885101,-0.7315711379051208,-0.88886958360672
1783201999199246600,5.39724658203125,-0.2065291192829609,0.396470384119451,-1.95676418261528,-0.15496127307415,-0.721174955368042,-0.9223931431770324
1783201999209183700,5.407183837890625,-0.1303755616679787,0.3359638929694891,-1.864282298272848,-0.001834631897509,-0.6978346705436707,-0.9355405569076538
1783201999219120600,5.41712060546875,-0.1072442769274115,0.3405395303219556,-1.7782114500164985,0.164596676826477,-0.6739783883094788,-0.9401906728744508
1783201999229057800,5.427057861328125,-0.0979252444401383,0.3701262748122215,-1.6426070477843284,0.3259715437889099,-0.6446327567100525,-0.951090931892395
1783201999238995000,5.436994873046875,-0.0685948127985,0.421439113420248,-1.450558873796463,0.4645933508872986,-0.6267679929733276,-0.9725804924964904
1783201999248930800,5.446930908203125,-0.0272261528387665,0.4228577480465173,-1.2248194426089525,0.5759479403495789,-0.6247997283935547,-1.00014328956604
1783201999258867700,5.45686767578125,0.0193359841108322,0.4019593369245529,-0.9765677353620528,0.6589106917381287,-0.6572247743606567,-1.024653673171997
1783201999268804900,5.466804931640625,0.0144400287628173,0.3753045542329549,-0.6557645866453647,0.7044026851654053,-0.6951736807823181,-1.050317883491516
1783201999278741800,5.47674169921875,0.0043479660764336,0.3506172722220421,-0.277052269795537,0.7148694396018982,-0.71334308385849,-1.0881307125091553
1783201999288678700,5.4866787109375,0.0346380365304648,0.3459422661483287,0.1570551865398883,0.7028536796569824,-0.7125296592712402,-1.1244149208068848
1783201999298615800,5.49661572265625,0.0826920194730162,0.3497989415764808,0.5596183345764875,0.6726475954055786,-0.6995214223861694,-1.1599513292312622
1783201999308552700,5.506552734375,0.0899146642029285,0.3321878815621137,0.9583096096158028,0.6364933252334595,-0.6555492281913757,-1.1893396377563477
1783201999318488800,5.51648876953125,0.0841195680581033,0.3342746247082948,1.3587655562400818,0.5826199650764465,-0.5707730650901794,-1.214656949043274
1783201999328425700,5.52642578125,0.0971224036246538,0.2865028197079897,1.7423533701717853,0.5086118578910828,-0.451021671295166,-1.2196440696716309
1783201999338362600,5.536362548828125,0.1562707581639289,0.1936740216240286,2.1132430305719376,0.4140166044235229,-0.3121809661388397,-1.2156192064285278
1783201999348299800,5.5462998046875,0.1973638160526752,0.0993137761890888,2.3568185627013443,0.3053220510482788,-0.1735135465860366,-1.203627109527588
1783201999358236700,5.556236572265625,0.1912481096513569,0.0307452668756246,2.444839960503578,0.1971862465143203,-0.051803633570671,-1.1863653659820557
1783201999368173800,5.566173828125,0.1752624588817357,0.0301493468090891,2.4167267956972123,0.0890421643853187,0.0392219126224517,-1.1753671169281006
1783201999378110700,5.57611083984375,0.164534436379373,-0.0042348610907793,2.243092230278253,-0.0169218182563781,0.1089237630367279,-1.152629852294922
1783201999388046800,5.586046875,0.2112102628365159,-0.1559580389529466,1.9145166939944027,-0.1206089407205581,0.1266153156757354,-1.1066886186599731
1783201999397983700,5.595983642578125,0.3805401167988776,-0.2956388968437909,1.4949188245266676,-0.2319085747003555,0.0602653138339519,-1.0507310628890991
1783201999407921000,5.6059208984375,0.4669099480018019,-0.4067424795478582,1.0778268004000189,-0.3578808605670929,-0.0573553293943405,-0.9863439798355104
1783201999417857500,5.615857421875,0.4430611626416444,-0.5838166640266775,0.5983510930746794,-0.480627030134201,-0.1780745536088943,-0.9129233360290528
1783201999427794700,5.625794677734375,0.376171692456305,-0.6946814695388078,0.0394651644259691,-0.570621907711029,-0.2696763575077057,-0.8703452348709106
1783201999437731800,5.63573193359375,0.2736515214413404,-0.5563754071325063,-0.6203706171810627,-0.5876898169517517,-0.3812913000583648,-0.872710108757019
1783201999447668700,5.645668701171875,0.1357709909707307,-0.304413739451766,-1.350167239242792,-0.527248203754425,-0.5265892744064331,-0.9215944409370422
1783201999457606000,5.65560595703125,0.0009264671951532,-0.0619245412543415,-1.95156076875329,-0.4145035147666931,-0.6604410409927368,-1.0126888751983645
1783201999467541800,5.665541748046875,-0.055286126153171,0.1561249199524521,-2.3254659775823354,-0.2608435153961181,-0.7785889506340027,-1.125126600265503
1783201999477478700,5.675478759765625,0.0248252291768789,0.3206181475386023,-2.5638416029810904,-0.090408369898796,-0.9003441333770752,-1.2404673099517822
1783201999487415800,5.685415771484375,0.1596378965094685,0.3868170051112771,-2.724618440392613,0.0943085625767707,-1.0450778007507324,-1.3324384689331057
1783201999497353000,5.69535302734375,0.3276540375247597,0.4782032031714916,-2.742241190844774,0.2821362316608429,-1.1717743873596191,-1.4129631519317627
1783201999507289600,5.70528955078125,0.4755335455708205,0.546998799239099,-2.5992349879235026,0.4547796547412872,-1.2533384561538696,-1.4856053590774536
1783201999517226800,5.715226806640625,0.56940498457551,0.5923214575216174,-2.3257734360963105,0.615761935710907,-1.2989485263824463,-1.536767840385437
1783201999527163600,5.72516357421875,0.6767487763546407,0.5571186267152428,-1.8987077149659397,0.7415129542350769,-1.3147462606430054,-1.5696014165878296
1783201999537099800,5.735099853515625,0.815192347535491,0.4271884707272052,-1.3260463589429854,0.820928692817688,-1.2662371397018433,-1.5525140762329102
1783201999547036700,5.74503662109375,1.011830333531648,0.2323369297564029,-0.6636907034695148,0.8637341856956482,-1.1318936347961426,-1.4912663698196411
1783201999556973600,5.7549736328125,1.107396009233594,0.0410416199624538,-0.0576058012723922,0.8848701119422913,-0.9453586339950562,-1.3938639163970947
1783201999566910700,5.76491064453125,1.134220303273201,-0.167031806153059,0.4390799840509891,0.8981296420097351,-0.7460151314735413,-1.2546390295028689
1783201999576848000,5.774847900390625,1.117771272775531,-0.3168213856041431,0.8350923952698707,0.8964558243751526,-0.559374988079071,-1.092402100563049
1783201999586784800,5.78478466796875,1.047776091659814,-0.378452496869862,1.1541554223209618,0.8724330067634583,-0.3934358954429626,-0.9267600178718568
1783201999596721700,5.7947216796875,0.8922769023902714,-0.3263064223080873,1.4135276585191487,0.828970193862915,-0.2512369453907013,-0.7854292392730713
1783201999606657800,5.80465771484375,0.6623010026767849,-0.1409168294265866,1.652986402979493,0.7655780911445618,-0.1129641905426979,-0.6837760806083679
1783201999616594700,5.8145947265625,0.4289405750915407,0.130382575930655,1.8491525336802004,0.6762575507164001,0.0132267652079463,-0.6229095458984375
1783201999626531800,5.82453173828125,0.2041077373549342,0.3442863156348467,2.000511554405093,0.5615590810775757,0.1131260246038436,-0.6003159284591675
1783201999636468700,5.83446875,-0.006982406233251,0.458563852199912,2.1369214278012514,0.392380952835083,0.1862955838441848,-0.5908697247505188
1783201999646405600,5.844405517578125,-0.1775688361279666,0.4987424255922436,2.270754728707671,0.1861106157302856,0.2524208426475525,-0.5830912590026855
1783201999656342800,5.8543427734375,-0.318937500975281,0.5333762243390083,2.271247480660677,-0.0395741797983646,0.2807286381721496,-0.5951428413391113
1783201999666279700,5.86427978515625,-0.4190811521172523,0.6439905622214078,2.1791952199071645,-0.2713875472545624,0.2740631401538849,-0.6206923723220825
1783201999676216800,5.874216796875,-0.4291179774850606,0.8554127142429351,2.1517606850147244,-0.5084387063980103,0.2658517956733703,-0.6591622829437256
1783201999686152700,5.884152587890625,-0.504313649853319,1.0834124915778636,2.1884382645487785,-0.7508750557899475,0.2665883600711822,-0.7194015383720398
1783201999696089900,5.89408984375,-0.634570115186274,1.1797136419475078,2.1934347576618194,-0.9836074113845824,0.2917701601982116,-0.7847824096679688
1783201999706026800,5.90402685546875,-0.7392135619655251,1.0034510661125182,1.9533283629477023,-1.182673096656799,0.2979178130626678,-0.8002738356590271
1783201999715964000,5.9139638671875,-0.6403348161928355,0.5563002960696816,1.258254094699025,-1.326898217201233,0.2493319064378738,-0.7536272406578064
1783201999725900500,5.923900634765625,-0.4142749208793044,0.2209860991805791,0.4457406109839678,-1.4319919347763062,0.093354158103466,-0.6862815618515015
1783201999735837700,5.933837646484375,-0.1271472472712397,0.0905918328121304,-0.2394932312518358,-1.527478814125061,-0.193920761346817,-0.639913022518158
1783201999745774800,5.94377490234375,0.1596080858930945,-0.044637014105916,-0.7368699214488268,-1.6368261575698853,-0.5269875526428223,-0.6143016815185547
1783201999755711000,5.9537109375,0.3615060382440686,-0.1579528660319745,-0.9688017775356768,-1.7642155885696411,-0.8136453628540039,-0.6048578023910522
1783201999765648100,5.963648193359375,0.5202390948683023,-0.2176132617466151,-0.975913070845604,-1.8772642612457275,-1.0224725008010864,-0.6010305881500244
1783201999775585000,5.9735849609375,0.6393688937701284,-0.3107029027238488,-0.9639286185413598,-1.953013300895691,-1.1571192741394043,-0.5776549577713013
1783201999785522000,5.98352197265625,0.7153881574809551,-0.3967366338402032,-0.9863310044854878,-1.981475114822388,-1.212972640991211,-0.5479698777198792
1783201999795459000,5.993458984375,0.7159528056263923,-0.3859919524639845,-1.0728630405128,-1.9471746683120728,-1.2115212678909302,-0.5159227252006531
1783201999805396000,6.00339599609375,0.6176750944867729,-0.2642550398036837,-1.2218746213287115,-1.8471485376358032,-1.1622546911239624,-0.5259063839912415
1783201999815332900,6.013332763671875,0.4860926412470638,-0.0192263862565159,-1.25386258174181,-1.671745777130127,-1.02501380443573,-0.5781541466712952
1783201999825269000,6.02326904296875,0.2570104755029082,0.1125532700557261,-1.3433119665205475,-1.404847264289856,-0.8037805557250977,-0.6347994208335876
1783201999835206100,6.0332060546875,-0.0327925547942519,0.0138384826730936,-1.7184826652407643,-1.0471152067184448,-0.5641029477119446,-0.6798577308654785
1783201999845143000,6.04314306640625,-0.230532364552468,-0.1467909821569919,-2.198262323948741,-0.6148179769515991,-0.349759966135025,-0.71785968542099
1783201999855080000,6.053079833984375,-0.3435463109225034,-0.2430859950467944,-2.631332838451862,-0.1339429765939712,-0.1756755113601684,-0.7530829310417175
1783201999865016800,6.063016845703125,-0.3507242397278547,-0.1489876154184341,-2.9226334138303995,0.3515071272850036,-0.052647054195404,-0.8032922148704529
1783201999874954000,6.0729541015625,-0.3029696781232953,0.0326053616590797,-2.921632712355256,0.7878050804138184,0.0567340292036533,-0.8741315007209778
1783201999884891100,6.08289111328125,-0.2896273814693093,0.2306220886625349,-2.602619954186678,1.1407859325408936,0.163716971874237,-0.9538947343826294
1783201999894827000,6.092826904296875,-0.2084790843069553,0.3485400275565684,-2.1800275790780783,1.3960086107254028,0.2532170116901397,-1.028842210769653
1783201999904764000,6.102763916015625,-0.1620930345766246,0.3058331777956337,-1.7922031504899265,1.579021453857422,0.3303598165512085,-1.073565125465393
1783201999914701000,6.112701171875,-0.0301228971935808,0.1090456272609531,-1.6285405285090206,1.723425269126892,0.333164632320404,-1.0647000074386597
1783201999924638000,6.122637939453125,0.2054872090145945,-0.1141864972807466,-1.6996996388375758,1.8413119316101076,0.2439115643501281,-1.011474370956421
1783201999934575000,6.1325751953125,0.4764607434183359,-0.1123567976355552,-1.7073510303735733,1.9220408201217647,0.0743686184287071,-0.9555369019508362
1783201999944512000,6.142511962890625,0.6879565451979637,0.0790659379303455,-1.579205127453804,1.959367156028748,-0.1502421647310257,-0.9426391124725342
1783201999954449000,6.152448974609375,0.7548746569558977,0.3121808663219213,-1.2428291465520858,1.943944215774536,-0.3726733922958374,-0.9635308384895324
1783201999964385000,6.162385009765625,0.6941359644852578,0.5358621959358454,-0.7771534165203571,1.891972899436951,-0.5308690667152405,-1.0198193788528442
1783201999974322200,6.172322265625,0.5629572697408497,0.7759387800335884,-0.2922568531900644,1.8194859027862549,-0.6342239379882812,-1.1025373935699463
1783201999984258800,6.1822587890625,0.4716892912328242,0.9995856228560208,0.0987660791784524,1.7379711866378784,-0.6839371919631958,-1.2022558450698853
1783201999994196000,6.192196044921875,0.3826344587296247,1.153731936211884,0.4756786531299352,1.654384732246399,-0.6863766312599182,-1.3053762912750244
1783202000004132900,6.2021328125,0.3050666504025459,1.2360975002095105,0.8013742500633001,1.579466700553894,-0.6413463950157166,-1.4092602729797363
1783202000014070000,6.212070068359375,0.2598056591793894,1.2173150583282113,1.1448773063659667,1.5068292617797852,-0.5646827816963196,-1.4957083463668823
1783202000024006000,6.222005859375,0.2731489787466823,1.1320835835054517,1.4763152463436129,1.4320299625396729,-0.4683574736118316,-1.5523179769515991
1783202000033943000,6.231943115234375,0.3203967598728835,0.9924626391083,1.7772282841980456,1.347646951675415,-0.366672933101654,-1.5753047466278076
1783202000043880000,6.2418798828125,0.3677357264138758,0.8140420084565877,2.0910060643225905,1.247011423110962,-0.2594998776912689,-1.5752395391464231
1783202000053817000,6.251817138671875,0.4185261485829949,0.6849097248479723,2.381404137903452,1.1278938055038452,-0.1485848128795623,-1.5647977590560913
1783202000063754000,6.26175390625,0.4545151613309979,0.613728694948554,2.6215485265403986,0.993152916431427,-0.032720498740673,-1.5518518686294556
1783202000073691000,6.27169091796875,0.4306323275707662,0.5282888380721211,2.884489853397012,0.8364852666854858,0.0932731181383133,-1.541502833366394
1783202000083628000,6.2816279296875,0.3728865333057939,0.4440186094969511,3.1745489042818544,0.6534879207611084,0.2435267120599746,-1.5364450216293335
1783202000093564200,6.291564208984375,0.309003405329585,0.3519496898695826,3.4442765302777287,0.448461502790451,0.41701540350914,-1.522417068481445
1783202000103501000,6.3015009765625,0.3078155107192695,0.2456497080549597,3.614616730326414,0.2230342179536819,0.5998693704605103,-1.4951319694519043
1783202000113438000,6.31143798828125,0.3558516657441854,0.1290843528136611,3.6827497708320616,-0.0098014352843165,0.7661869525909424,-1.4553606510162354
1783202000123374800,6.321374755859375,0.37404549408257,0.010996025788784,3.650160337394476,-0.2585099339485168,0.8842607736587524,-1.405384182929993
1783202000133312000,6.33131201171875,0.4230322278305888,-0.0548033110722899,3.4601579900205133,-0.507138729095459,0.9498490691184998,-1.34386146068573
1783202000143249200,6.341249267578125,0.6012114509418607,-0.1378396139383316,3.1535604767888783,-0.7403323650360107,0.971356213092804,-1.2758175134658811
1783202000153184800,6.351184814453125,0.8168126422137022,-0.3617144202977418,2.714027488273382,-0.9221389293670654,0.9790815114974976,-1.1923694610595703
1783202000163122000,6.361121826171875,1.0832041095241904,-0.6683569417148828,2.0252876837432385,-1.0164144039154053,0.9876452088356018,-1.0772730112075806
1783202000173059000,6.37105908203125,1.4024839941963552,-0.9642170800939202,1.2294056013554333,-1.0191103219985962,1.0092867612838743,-0.926543653011322
1783202000182996000,6.380995849609375,1.606400592893362,-1.1876809675648807,0.4819768764913081,-0.9292020201683044,1.0567001104354858,-0.7699654698371887
1783202000192933000,6.39093310546875,1.7713240285903211,-1.3400599789872765,-0.1787275046437978,-0.7906436324119568,1.0838366746902466,-0.6006643176078796
1783202000202870000,6.4008701171875,1.8749980458155275,-1.4219450659915804,-0.7141080545425414,-0.6371979117393494,1.1474390029907229,-0.4176587164402008
1783202000212806000,6.410805908203125,1.939156921993196,-1.4338602524518966,-1.1810714862972498,-0.4892588257789612,1.240277886390686,-0.2548215985298157
1783202000222743000,6.420742919921875,1.938737235276401,-1.4504966222152114,-1.605529655277729,-0.3467690348625183,1.268250823020935,-0.1174098998308181
1783202000232680200,6.43068017578125,1.9123408112600444,-1.4343075578279791,-2.070979759860039,-0.2216169834136963,1.2454930543899536,0.0149497343227267
1783202000242616800,6.440616943359375,1.9537647085383532,-1.3284127958133816,-2.426397125840187,-0.1169777810573577,1.154252052307129,0.1541241109371185
1783202000252554000,6.450553955078125,1.9527561160176992,-1.239889878229797,-2.7168302707344294,-0.0199492238461971,0.974915623664856,0.2773435115814209
1783202000262490000,6.460489990234375,1.9641899487018584,-1.2108043612599373,-3.011005524766445,0.0673055499792099,0.7294136881828308,0.4069823920726776
1783202000272427000,6.470427001953125,2.100517112250626,-1.236974575304985,-3.2440041333019733,0.1328653842210769,0.4036888182163238,0.5516673922538757
1783202000282364000,6.480364013671875,2.2423127703383563,-1.3991381908997893,-3.2796751661419865,0.1526394188404083,-0.0894402861595153,0.6556280851364136
1783202000292301000,6.490301025390625,2.314595039477944,-1.7153566421747206,-2.9289427431076764,0.0941297709941864,-0.4200400412082672,0.8434256315231323
1783202000302238000,6.500238037109375,2.876687070691585,-1.6030287783727049,-2.290142735266685,0.0104887336492538,-0.7665614485740662,1.1222177743911743
1783202000312175000,6.510175048828125,2.7698914143145084,-1.630166376145184,-1.7242641712516544,-0.0680441632866859,-1.1420186758041382,1.3715423345565796
1783202000322111000,6.520111083984375,2.369684181754291,-1.7369120559006928,-0.9994359852522612,-0.1624953150749206,-1.3638557195663452,1.579136610031128
1783202000332048000,6.5300478515625,2.056217367275059,-1.4625108851358293,-0.1658253529727459,-0.2719672322273254,-1.4378924369812012,1.7577571868896484
1783202000341985000,6.539985107421875,1.811510200767219,-0.964141092248261,0.5925836155891419,-0.3738029599189758,-1.4627083539962769,1.8958759307861328
1783202000351922000,6.549921875,1.541323140566051,-0.4923877958685159,1.213917524844408,-0.4676503539085388,-1.4378770589828491,1.9824225902557373
1783202000361859000,6.559859130859375,1.296072953222692,-0.1027633321210741,1.8189298293739555,-0.5678966641426086,-1.351277470588684,2.036076784133911
1783202000371796000,6.5697958984375,1.1308189703971148,0.1127180321633815,2.335653025075793,-0.6607562899589539,-1.19953453540802,2.062958002090454
1783202000381732000,6.579732177734375,0.9979431163460016,0.1635582848235964,2.596795193555951,-0.730108380317688,-1.0228111743927002,2.093379020690918
1783202000391669000,6.5896689453125,0.9104574328556656,0.2176882266789674,2.7012194446265694,-0.7750852108001709,-0.8394941091537476,2.1181602478027344
1783202000401606100,6.599606201171875,0.8253463695421814,0.3951321212530136,2.817399599942565,-0.8176364898681641,-0.6743839979171753,2.1279447078704834
1783202000411542800,6.609542724609375,0.7092521389439702,0.5282204490110278,2.867410123780369,-0.8509542346000671,-0.5221129655838013,2.105769634246826
1783202000421480000,6.61947998046875,0.6359443261489272,0.6296443492218852,2.8994255567222837,-0.9052407741546632,-0.3915081322193146,2.079458951950073
1783202000431416000,6.629416015625,0.5798273021295667,0.7666668015584349,2.9369390025585886,-0.9820841550827026,-0.2559090256690979,2.046225309371948
1783202000441353000,6.63935302734375,0.5324190697446465,0.90540453338027,2.9423849930047985,-1.0817551612854004,-0.1369496285915374,1.9943420886993408
1783202000451289900,6.649289794921875,0.4363699944399297,0.9340595499783754,2.915951744109392,-1.19948410987854,-0.0323294773697853,1.940853238105774
1783202000461227000,6.65922705078125,0.3960223480910063,0.9497432951919734,2.898122072908282,-1.3464313745498655,0.036501694470644,1.8922233581542969
1783202000471164000,6.669163818359375,0.4037947356581687,0.948989700345695,2.7792911108225584,-1.5172936916351318,0.1266925632953643,1.8676652908325195
1783202000481100000,6.67910009765625,0.4321732734024524,0.8971230272471904,2.587039523217082,-1.6838328838348389,0.1683988273143768,1.8590821027755735
1783202000491037000,6.689036865234375,0.4050422515012323,0.8154349241197109,2.318707735493779,-1.8490660190582275,0.1836265176534652,1.8577343225479128
1783202000500973800,6.698973876953125,0.4033905387714505,0.777722448579967,2.089395706516504,-2.013945817947388,0.1752516329288482,1.868026614189148
1783202000510911000,6.708910888671875,0.4092139842279255,0.7802117811776698,1.866966422790289,-2.168473958969116,0.1529258340597152,1.8838852643966677
1783202000520848100,6.71884814453125,0.4257863488443195,0.7607274746373295,1.652781235796213,-2.32407283782959,0.1265325248241424,1.9142941236495967
1783202000530784000,6.728783935546875,0.4557110931172967,0.8362602700054645,1.5522656826019283,-2.473437547683716,0.0851712375879287,1.94341254234314
1783202000540721000,6.738720947265625,0.4629031965784728,0.9555761660639196,1.455872177773714,-2.620943069458008,0.0446263551712036,1.9635462760925293
1783202000550658000,6.748657958984375,0.4289003892116248,1.1111284737601876,1.3566647845685482,-2.7518727779388428,0.0186410956084728,1.966989517211914
1783202000560595000,6.758594970703125,0.3727535545758902,1.2619061874657869,1.1577899794310331,-2.840907573699951,0.007077258080244,1.9690289497375488
1783202000570532000,6.768531982421875,0.2996098463013768,1.2497294274598358,0.7825690118283033,-2.869232416152954,0.0136456787586212,1.9675607681274412
1783202000580468000,6.778468017578125,-0.0150767192311584,1.0902180068742484,0.1129442421346902,-2.815136432647705,0.1073678061366081,1.97264564037323
1783202000590404900,6.78840478515625,-0.4155072391532361,1.0392588770747184,-0.6735334675699473,-2.653677701950073,0.2063836008310318,1.93842887878418
1783202000600342000,6.798342041015625,-0.7701121197067201,1.1470581575363874,-1.461058640500903,-2.3930351734161377,0.2967984974384308,1.8370134830474851
1783202000610279200,6.808279052734375,-1.0512349999420345,1.391685098414868,-2.2096137390464543,-2.050262928009033,0.3941713869571686,1.672779560089111
1783202000620215800,6.8182158203125,-1.2106335347376762,1.6538213924989102,-2.894513819283247,-1.6582753658294678,0.4725595712661743,1.469430446624756
1783202000630152000,6.82815185546875,-1.2819707781121137,1.7479241560414434,-3.510554882827401,-1.2584882974624634,0.5067311525344849,1.2609678506851196
1783202000640089000,6.838089111328125,-1.1891978018686176,1.618763230860233,-4.018589745160937,-0.8793246150016785,0.4916830062866211,1.0814369916915894
1783202000650026000,6.84802587890625,-1.0321220109321176,1.2945987890169024,-4.448362387162447,-0.5332225561141968,0.4003360569477081,0.9580222368240356
1783202000659963000,6.857962890625,-0.8158312299609184,0.9828450620658696,-4.7610798445791005,-0.2324203103780746,0.2314376980066299,0.8865675330162048
1783202000669899000,6.86789892578125,-0.4906285311110317,0.7435638661295175,-4.803054945999383,0.0031133834272623,-0.0072678183205425,0.8584399819374084
1783202000679836200,6.877836181640625,-0.217381352686882,0.537295151348412,-4.559401087936759,0.1655994206666946,-0.2330483347177505,0.8456990122795105
1783202000689773000,6.88777294921875,-0.0711041652709245,0.4360647278830409,-4.062433563062548,0.2617832124233246,-0.4142993688583374,0.8310065865516663
1783202000699710000,6.8977099609375,0.0314661284960806,0.4011922980748116,-3.4281057321995494,0.3168080449104309,-0.5515592694282532,0.7954444885253906
1783202000709646800,6.907646728515625,0.2786832319982349,0.3397917076293379,-2.784264223060012,0.3560789823532104,-0.6484258770942688,0.7661705017089844
1783202000719583000,6.9175830078125,0.5614125245168805,0.1303960199341177,-2.237123677262664,0.3960326910018921,-0.72080397605896,0.7651998996734619
1783202000729520000,6.92752001953125,0.8558078510403633,-0.1917073977261781,-1.7544956433862446,0.452716201543808,-0.7703550457954407,0.8066232800483704
1783202000739456800,6.937456787109375,1.0902243635497986,-0.5039476295525208,-1.308589028185606,0.5395097136497498,-0.7891396284103394,0.8816645741462708
1783202000749394000,6.947393798828125,1.271461220666021,-0.7413437058620155,-0.8339847262889146,0.6389779448509216,-0.7560634613037109,0.9888922572135924
1783202000759329300,6.957329345703125,1.4683049583673475,-0.9095067080020904,-0.3456026589304208,0.7606600522994995,-0.6891136765480042,1.1140340566635132
1783202000769266400,6.967266357421875,1.5323735259130595,-0.9394253147952258,0.1282797584325075,0.9063724875450134,-0.5812116861343384,1.250802755355835
1783202000779203300,6.977203369140625,1.5234776872739195,-0.8242316862985491,0.6144271986067295,1.0557047128677368,-0.4213342368602752,1.3931020498275757
1783202000789140500,6.987140380859375,1.4996937838435171,-0.720372156438604,1.1138725117713213,1.181796908378601,-0.2237479388713836,1.530308961868286
1783202000799077400,6.997077392578125,1.4611001415550708,-0.5574218839781359,1.5471131221443413,1.2663397789001465,0.004969994071871,1.657791018486023
1783202000809013200,7.00701318359375,1.335268068535626,-0.3127340797578916,1.9320242936342955,1.3107408285140991,0.2384019196033477,1.7507669925689695
1783202000818950400,7.016950439453125,1.0488555574595928,-0.0641729777682572,2.1173346837997435,1.309028387069702,0.4439882040023803,1.7912877798080444
1783202000828887600,7.026887451171875,0.6653510378971695,0.170089257494919,2.2222131083786487,1.243382453918457,0.6171493530273438,1.7806601524353027
1783202000838824200,7.03682421875,0.3364104676932096,0.330283582310751,2.2748569033294914,1.1185925006866455,0.7878721356391907,1.7428028583526611
1783202000848760300,7.04676025390625,0.2356003154665231,0.3595565846767276,2.339451832836866,0.9493891596794128,0.9402137398719788,1.7099772691726685
1783202000858697500,7.056697509765625,0.2892570868521928,0.2954825372382998,2.273380985558033,0.773600697517395,1.0303021669387815,1.6979494094848633
1783202000868634400,7.06663427734375,0.3115583505094051,0.3070854428790509,2.103098653176427,0.6053563356399536,1.0701699256896973,1.7117578983306885
1783202000878571300,7.0765712890625,0.2990826075568795,0.3706001759342849,1.8996102167636155,0.4531280696392059,1.0767719745635986,1.7424976825714111
1783202000888508400,7.08650830078125,0.2208243327476084,0.4902086251985281,1.691127625325322,0.3114588260650635,1.0752846002578735,1.76849627494812
1783202000898444300,7.0964443359375,0.0502193442828953,0.6669123689297586,1.480962195366621,0.180652916431427,1.0672781467437744,1.7819833755493164
1783202000908381400,7.10638134765625,-0.2120597192727029,0.7896963064249605,1.1939175238668918,0.0606634020805358,1.0403248071670532,1.776414155960083
1783202000918318300,7.116318359375,-0.6649411419220268,1.0134672870837151,0.8666384571343659,-0.0421198233962059,1.019399642944336,1.715599775314331
1783202000928255200,7.126255126953125,-1.1125979617908597,1.3044807160839438,0.5457482146561146,-0.1313402503728866,1.0111042261123655,1.5876069068908691
1783202000938191400,7.13619140625,-1.4405933600991965,1.5379405123904346,0.181451961171627,-0.191083163022995,0.9963824152946472,1.3898940086364746
1783202000948128500,7.14612841796875,-1.61390176230371,1.7157509021893145,-0.1305640699774027,-0.2318878471851349,0.9515472650527954,1.155336618423462
1783202000958065200,7.156065185546875,-1.604422716949135,1.775109538478404,-0.4313485130161046,-0.2627270817756653,0.883596658706665,0.9211595058441162
1783202000968002300,7.166002197265625,-1.4822757621832192,1.698344863227755,-0.7188432663708925,-0.2883075475692749,0.7624592781066895,0.7206575870513916
1783202000977938400,7.1759384765625,-1.1572729698196054,1.5095081986322998,-0.9621569326937198,-0.3283999264240265,0.6121459603309631,0.5784648060798645
1783202000987875600,7.18587548828125,-0.6230813374444842,1.1845404775820672,-1.1074901172578333,-0.3863348662853241,0.4409965574741363,0.5071349740028381
1783202000997812200,7.195812255859375,-0.2623915840193629,0.757627901186794,-1.182671322709322,-0.4577152729034424,0.2843056917190552,0.4997158944606781
1783202001007749400,7.205749267578125,-0.1152379060298204,0.2845616225123405,-1.3434908302187918,-0.4933302402496338,0.1878556013107299,0.5425349473953247
1783202001017685500,7.215685546875,0.0584618335798382,0.0343489904560148,-1.6850713940262794,-0.461468905210495,0.1247927919030189,0.6004347205162048
1783202001027622400,7.225622314453125,0.1770087180271744,0.0647146834295243,-2.1201152544289825,-0.3217101991176605,0.034110028296709,0.6429409384727478
1783202001037559300,7.235559326171875,0.2629652922540902,0.2546434541106224,-2.4463573793292044,-0.1034590750932693,-0.0707074254751205,0.6561437845230103
1783202001047496200,7.24549609375,0.2813718865603208,0.4355792824536562,-2.507952542498708,0.1444234251976013,-0.1165361627936363,0.6427161693572998
1783202001057432300,7.255432373046875,0.2896796961784362,0.4386971952784806,-2.3298054680913687,0.3866290152072906,-0.0938648506999015,0.6287829875946045
1783202001067369500,7.265369384765625,0.3454986140340566,0.246909937249124,-2.121625658991933,0.6218423247337341,-0.0494981817901134,0.6411291360855103
1783202001077306400,7.275306396484375,0.3775444421142339,0.0159739603318274,-1.9915701230585572,0.8467594385147095,-0.0165949203073978,0.6891307830810547
1783202001087243300,7.2852431640625,0.3719479372814297,-0.0752424341194331,-1.857045917278528,1.0496587753295898,0.0039303270168602,0.7536711692810059
1783202001097179400,7.295179443359375,0.3468281090721488,-0.0219096339911222,-1.6906126615405082,1.229448914527893,0.008741314522922,0.8070199489593506
1783202001107116500,7.305116455078125,0.2608803026735782,0.1435996387697756,-1.4656132350653408,1.38612163066864,0.0215636361390352,0.8371067643165588
1783202001117053200,7.31505322265625,0.153137428574264,0.3924599794343114,-1.150399284657836,1.5079954862594604,0.038918100297451,0.8335127234458923
1783202001126990300,7.324990234375,0.0121545481741428,0.604573328590393,-0.7842121028602123,1.590692162513733,0.0803401097655296,0.8038197755813599
1783202001136926500,7.334926513671875,-0.1444257143303751,0.6614534459367394,-0.4143155451506376,1.6423161029815674,0.15762959420681,0.7603847980499268
1783202001146863400,7.34486328125,-0.2939559121929109,0.6661439418405294,-0.1657873590499162,1.6803185939788818,0.2381262928247451,0.7159273624420166
1783202001156800300,7.35480029296875,-0.4113279076419771,0.6817413239449263,0.0108037180870771,1.6954283714294434,0.2853334546089172,0.674360454082489
1783202001166737400,7.3647373046875,-0.5509387690365314,0.7284031218767165,0.1666068587392568,1.6850862503051758,0.269589900970459,0.621846079826355
1783202001176673500,7.374673583984375,-0.7645230675280094,0.8392901392206549,0.3507856145262717,1.6200836896896362,0.175051063299179,0.5600844621658325
1783202001186610400,7.3846103515625,-1.004651527943462,0.9907909065037964,0.7107020454913378,1.458490014076233,0.0223962739109992,0.4767594933509826
1783202001196547300,7.39454736328125,-1.2255538943633435,1.1183625166669486,1.3352169228702784,1.1841241121292114,-0.1176598370075225,0.3627590239048004
1783202001206483500,7.4044833984375,-1.3388479728490112,1.1553434630617498,2.1085598411917683,0.8241912722587585,-0.1809961944818496,0.2045105546712875
1783202001216420400,7.41442041015625,-1.3300513568006456,1.028356667049229,2.857977694046497,0.43610680103302,-0.1700115501880645,0.0348277539014816
1783202001226357500,7.424357421875,-1.279233754363656,0.8053183115139603,3.394175405547023,0.0842683538794517,-0.0861816257238388,-0.1261089295148849
1783202001236294100,7.434294189453125,-1.212299422123283,0.621082564842701,3.701449210605025,-0.2009039223194122,0.0693603083491325,-0.2391825765371322
1783202001246230300,7.444230224609375,-1.0743791441641748,0.439585595485568,3.853248376312852,-0.4101050794124603,0.2678973376750946,-0.3137002289295196
1783202001256167400,7.45416748046875,-0.8577294667527079,0.2716223537012934,3.7855192404329774,-0.532319188117981,0.4574490189552307,-0.3467877209186554
1783202001266104600,7.4641044921875,-0.4569838895320892,0.1761839576408267,3.4872166773378845,-0.600757360458374,0.564640462398529,-0.3244999945163727
1783202001276041200,7.474041259765625,-0.0096446111798286,0.046281858703494,3.109350163662433,-0.6431919932365417,0.5573409199714661,-0.2196188569068908
1783202001285977300,7.483977294921875,0.3750882811337709,-0.1359378719702363,2.703203311920166,-0.6856427788734436,0.4944977760314941,-0.0378557220101356
1783202001295914500,7.49391455078125,0.6973200013488531,-0.2082610576421022,2.3155530708551404,-0.7533149123191833,0.4182904064655304,0.1438336223363876
1783202001305851400,7.503851318359375,0.6834422826439142,0.0300458864346146,2.047886469042301,-0.8620877265930176,0.3703665435314178,0.2600566148757934
1783202001315788300,7.513788330078125,0.4160863542154431,0.4471171600341797,1.912858989915252,-0.9939723610877992,0.445262461900711,0.3044258058071136
1783202001325724400,7.523724365234375,0.0727712217003107,0.8017799082547425,1.640173683157563,-1.112237572669983,0.6410165429115295,0.2759217023849487
1783202001335661300,7.533661376953125,-0.2266021854966878,1.107371751575172,1.0601876833349466,-1.1717615127563477,0.9020920991897584,0.2032651007175445
1783202001345598500,7.543598388671875,-0.4462590819001197,1.3292264502838254,0.1293354049652814,-1.1423064470291138,1.1038318872451782,0.1271783262491226
1783202001355534300,7.553534423828125,-0.6126926298990846,1.4829332031786442,-1.048508351457119,-1.0187885761260986,1.1955684423446655,0.0489331893622875
1783202001365471500,7.563471435546875,-0.6905424700379371,1.6058151942208407,-2.2679250582396984,-0.8266190886497498,1.165210485458374,-0.0498591661453247
1783202001375408400,7.573408447265625,-0.789803931517899,1.7495118636243043,-3.410428036689758,-0.5828267931938171,0.9980984330177308,-0.1683784127235412
1783202001385345500,7.583345458984375,-0.9293813290342688,1.8740970053225756,-4.301390203219652,-0.3174289166927337,0.7254801988601685,-0.3058206737041473
1783202001395281400,7.593281494140625,-1.067701127704978,1.959211283506453,-4.905533323699236,-0.0442628413438797,0.4019255042076111,-0.4478465914726257
1783202001405218300,7.60321826171875,-1.2002978725537656,2.023443517181277,-5.178893168717623,0.2206817269325256,0.0991576611995697,-0.5973855257034302
1783202001415155500,7.613155517578125,-1.3628811748653649,2.1492171380117533,-5.123157837492228,0.4653191268444061,-0.1545179188251495,-0.763898491859436
1783202001425092400,7.62309228515625,-1.5425281324416398,2.2655041147030888,-4.852645783120393,0.6936321258544922,-0.3391538262367248,-0.942545473575592
1783202001435028200,7.6330283203125,-1.6844111765518783,2.361173835301399,-4.439973913523555,0.9090395569801332,-0.4654770195484161,-1.1201070547103882
1783202001444965400,7.64296533203125,-1.7567171188279986,2.437642450214922,-4.018403867200017,1.1240887641906738,-0.5719544291496277,-1.2913192510604858
1783202001454902500,7.652902587890625,-1.7835922662720085,2.5408348214030263,-3.588148410117626,1.3298680782318115,-0.6748001575469971,-1.4704490900039673
1783202001464838100,7.662838134765625,-1.77762079064697,2.668932793527841,-3.126481331205368,1.5095022916793823,-0.7777326107025146,-1.6538900136947632
1783202001474775300,7.672775390625,-1.7028355987757444,2.782823668862879,-2.55761293772459,1.643531084060669,-0.8873268365859985,-1.8390846252441408
1783202001484712400,7.68271240234375,-1.5476201948836446,2.8686469720989463,-1.8864035291880368,1.7206826210021973,-0.981197953224182,-2.0187127590179443
1783202001494649300,7.6926494140625,-1.3288453420117496,2.878586182311177,-1.1685206322818993,1.719579815864563,-1.069800615310669,-2.174368143081665
1783202001504585200,7.702585205078125,-0.9867293561533091,2.74379601907134,-0.3935170872718095,1.6348310708999634,-1.1311033964157104,-2.292155504226685
1783202001514522400,7.7125224609375,-0.5089613295286893,2.472929452173412,0.3298550547003746,1.484331727027893,-1.1872953176498413,-2.365692615509033
1783202001524459300,7.722459228515625,-0.1219333120152354,2.151636181852221,0.8936305089563131,1.3075343370437622,-1.2255496978759766,-2.4174342155456543
1783202001534395400,7.7323955078125,0.0977978186681866,1.829956834822893,1.3932482560783623,1.115291953086853,-1.220587968826294,-2.4449641704559326
1783202001544332300,7.742332275390625,0.3739578157991171,1.5319301660597324,1.882204908454418,0.8956383466720581,-1.157973051071167,-2.4344210624694824
1783202001554269400,7.75226953125,0.7413429752096533,1.215156126728654,2.322730999660492,0.6786147952079773,-1.073043942451477,-2.387295246124268
1783202001564206300,7.762206298828125,1.1519959061995149,0.8373083177536725,2.589114575925469,0.464501678943634,-0.9779680371284484,-2.312151432037353
1783202001574142500,7.772142578125,1.45537591868937,0.4055500548928976,2.652950211498141,0.2814932465553283,-0.8891423344612122,-2.203561544418335
1783202001584079400,7.782079345703125,1.6477286285817625,-0.0459042575627565,2.488437110167742,0.1256653070449829,-0.8055922985076904,-2.066396474838257
1783202001594016300,7.792016357421875,1.7754288335606454,-0.4827262335538864,2.201614556986093,-0.0084714805707335,-0.717253565788269,-1.909441351890564
1783202001603952400,7.801952392578125,1.9433929521277544,-0.8680842720285058,1.9473358445346356,-0.1494666934013366,-0.6388688087463379,-1.7297357320785522
1783202001613889500,7.8118896484375,2.2461340821921825,-1.2932239935323595,1.78316936468482,-0.3009892702102661,-0.5391136407852173,-1.525971293449402
1783202001623826200,7.821826171875,2.5626459634557364,-1.7207605470448732,1.595824253821373,-0.4432665109634399,-0.3794931173324585,-1.3043177127838137
1783202001633763300,7.831763427734375,2.793047833496332,-2.1526585106372838,1.2458411878496407,-0.5346490740776062,-0.1561126112937927,-1.0610921382904053
1783202001643699500,7.841699462890625,2.999267448438704,-2.486306235618889,0.6885995192766189,-0.541604220867157,0.1064598858356475,-0.7894997596740723
1783202001653636400,7.85163623046875,3.286554404261708,-2.6470909640759226,-0.0657534518927335,-0.4627111256122589,0.3080726265907287,-0.4857259690761566
1783202001663573200,7.8615732421875,3.69704805303663,-2.654780057273805,-1.009803650009632,-0.307473361492157,0.3497127592563629,-0.1483431309461593
1783202001673509400,7.87150927734375,3.911199337761104,-2.4289332201890645,-2.033781371322274,-0.0986111685633659,0.2039173245429992,0.1998023986816406
1783202001683446500,7.881446533203125,3.674851126536727,-2.1183878461144863,-3.04551628165543,0.151833027601242,-0.0093880277127027,0.5253477692604065
1783202001693383400,7.891383544921875,2.865818470674753,-1.7356486118361354,-3.87305840767622,0.4304525256156921,-0.1827715933322906,0.7570286393165588
1783202001703319300,7.9013193359375,1.9401196295455096,-1.0929676709085705,-4.43408953166008,0.7339383363723755,-0.3656050562858581,0.8592905402183533
