time,seconds_elapsed,ax,ay,az,gx,gy,gz
1783201220823706400,0.111706298828125,2.492848496869206,-2.0966227351605893,-1.0706564703792334,-0.6052035689353943,1.5533751249313354,2.036846876144409
1783201220833643500,0.1216435546875,1.8875516763098537,-1.434883750280738,-1.97933023468852,-0.6168964505195618,1.5006035566329956,2.0484604835510254
1783201220843580400,0.131580322265625,1.314935036211461,-0.8399857202693819,-2.745775210189819,-0.5887877345085144,1.4730769395828247,2.0123183727264404
1783201220853517600,0.141517578125,0.822255856180936,-0.2902411294534802,-3.417449898150563,-0.5145877599716187,1.436915159225464,1.939035534858704
1783201220863454500,0.151454345703125,0.2725343539796769,0.166798581919074,-4.0502731696695085,-0.4015575051307678,1.3780746459960938,1.8318629264831543
1783201220873391400,0.161391357421875,-0.1034985145278274,0.5440747284859418,-4.595172658541799,-0.2518958449363708,1.27972412109375,1.7398592233657837
1783201220883328500,0.17132861328125,-0.2284657874114811,0.8291752801805734,-5.145414677485824,-0.0718234479427337,1.108952522277832,1.6745903491973877
1783201220893264600,0.1812646484375,-0.333733357438445,1.0727420444816351,-5.4732391031414265,0.1109804585576057,0.8809452056884766,1.6167845726013184
1783201220903201300,0.191201171875,-0.4743849600575864,1.3144313244730232,-5.4424131722450255,0.2866410911083221,0.64910489320755,1.5624525547027588
1783201220913138400,0.201138427734375,-0.6488251427710056,1.60730864764899,-5.086847337704897,0.4603484272956848,0.4524142146110534,1.4987691640853882
1783201220923075300,0.211075439453125,-0.9326704337075352,1.9173072014957664,-4.469230403146147,0.6440256834030151,0.3271608650684356,1.4181053638458252
1783201220933012500,0.221012451171875,-1.278331983218342,2.2055776153981683,-3.7204093471407886,0.8365467190742493,0.2976594269275665,1.3224074840545654
1783201220942949600,0.23094970703125,-1.4848128794454036,2.480592241886258,-2.8756536359906195,1.000396728515625,0.3255827724933624,1.2304867506027222
1783201220952886300,0.24088623046875,-1.6530787574380634,2.677562090185285,-2.105019392105937,1.0906709432601929,0.3742195665836334,1.1395211219787598
1783201220962823400,0.250823486328125,-1.721471325662732,2.8015871137827637,-1.3947873022139072,1.0908679962158203,0.4001094996929168,1.063766598701477
1783201220972759600,0.260759521484375,-1.78655462320894,2.803734354944527,-0.8314332882404327,1.0380369424819946,0.3733900189399719,0.996941864490509
1783201220982697000,0.270697021484375,-1.821886048831045,2.775983301448822,-0.3253255945771932,0.9495938420295716,0.3143822252750397,0.9323302507400512
1783201220992634000,0.280634033203125,-1.862377195303887,2.833739324846864,0.300275324472785,0.84989333152771,0.2363636046648025,0.8524911403656006
1783201221002571000,0.290571044921875,-2.005824858382344,2.882131307572126,1.0553390742599964,0.7263832688331604,0.204544797539711,0.7599620819091797
1783201221012508200,0.300508056640625,-2.061117122015357,2.8320477184981105,1.8406179295688867,0.5893670916557312,0.1858946681022644,0.6818593144416809
1783201221022445300,0.3104453125,-1.902400870395452,2.512036596941948,2.4224738149166107,0.4607068002223968,0.1685144305229187,0.652254581451416
1783201221032382000,0.3203818359375,-1.66876542526111,2.1294611749231813,2.865654804545641,0.3432480990886688,0.1327444463968277,0.6838231682777405
1783201221042319000,0.330319091796875,-1.4612090087570249,1.8462708407640456,3.317298502093553,0.2526006996631622,0.1301585733890533,0.7268608212471008
1783201221052255200,0.340255126953125,-1.3844789664283397,1.722995174229145,3.7667268616795537,0.1901972442865371,0.1916509568691253,0.7449090480804443
1783201221062192000,0.350192138671875,-1.461536487145722,1.7901251751720904,4.189433218556642,0.1174439564347267,0.3193037211894989,0.7198655605316162
1783201221072129000,0.36012890625,-1.5676723644398152,1.9410101486444475,4.579887995648384,-0.0156539119780063,0.5203089714050293,0.6553811430931091
1783201221082066200,0.370066162109375,-1.6196575493514538,2.062815742626786,4.81598690828681,-0.2210713475942611,0.7492930293083191,0.5658196210861206
1783201221092003000,0.380003173828125,-1.706667870415002,2.021912654352188,4.631856667816638,-0.4445947408676147,0.9046530723571776,0.4469081163406372
1783201221101940200,0.389940185546875,-1.7348595072850583,1.8354858273774384,4.0159313396066425,-0.6458739042282104,0.9819554090499878,0.3204227089881897
1783201221111877000,0.399877197265625,-1.581786668379605,1.6341548612594603,3.237846195194125,-0.8117784261703491,1.0181273221969604,0.2298749387264251
1783201221121814000,0.40981396484375,-1.3938620040625334,1.2760451874554155,2.44319453138411,-0.908766508102417,1.0055310726165771,0.1637183427810669
1783201221131750100,0.419750244140625,-1.1633802006535232,0.966839537551999,1.6256676034212112,-0.9698074460029602,0.9867302179336548,0.099483698606491
1783201221141687000,0.42968701171875,-0.8318548746533692,0.9578832008972764,0.986282489168644,-1.0161828994750977,0.9249820709228516,0.0240720994770526
1783201221151624200,0.439624267578125,-0.7061338607929647,0.7861135525673627,0.3134644763916731,-1.016709327697754,0.8600749969482422,-0.041375882923603
1783201221161561000,0.44956103515625,-0.6892832637570798,0.3005775222897529,-0.3438736431807279,-0.9549310207366944,0.8529893755912781,-0.0663586258888244
1783201221171498000,0.459498046875,-0.6108112000666558,-0.2251557860806584,-0.9567419219076632,-0.817182183265686,0.8818199038505554,-0.0623255372047424
1783201221181435100,0.46943505859375,-0.4902729956716298,-0.6159905024006962,-1.6843600308865307,-0.6226703524589539,0.8817252516746521,-0.0588593520224094
1783201221191372000,0.4793720703125,-0.3780219964981079,-0.8370487900346517,-2.426518706393242,-0.4117027521133423,0.8557663559913635,-0.0501686595380306
1783201221201309200,0.48930908203125,-0.2542453947037458,-0.9168161542326212,-2.8846675480514765,-0.2703607082366943,0.842674195766449,-0.0241834335029125
1783201221211246000,0.49924609375,-0.1693933111200109,-0.9817024679020048,-3.1700971855700013,-0.1838156878948211,0.7864452600479126,0.005596034694463
1783201221221182200,0.50918212890625,-0.3066433981999755,-1.2281161460667849,-3.5772687041848896,-0.1290062963962555,0.6949233412742615,0.0400242991745471
1783201221231119000,0.519119140625,-0.4468764831461012,-1.3818804743677378,-3.9199972689837215,-0.1027070432901382,0.6290782690048218,0.0733055546879768
1783201221241056300,0.52905615234375,-0.556067510227114,-1.3933452867120504,-4.287670305424928,-0.0697951316833496,0.5521190762519836,0.0894623771309852
1783201221250993000,0.538992919921875,-0.6140078041508793,-1.29473381357342,-4.817230770868063,-0.0240947529673576,0.4377583861351013,0.0928011760115623
1783201221260930000,0.548929931640625,-0.4692984505735337,-1.0635469306349754,-5.295939585474133,0.009928548708558,0.2576239705085754,0.0930141061544418
1783201221270867200,0.5588671875,-0.2617728675991296,-0.947661958873272,-5.7209290848523375,0.0112441498786211,-0.0265949591994285,0.1057868897914886
1783201221280804000,0.56880419921875,-0.071805445408076,-1.0273428138315677,-6.040862464997172,0.0008026883006095,-0.4127583801746368,0.1359545886516571
1783201221290741200,0.5787412109375,0.1680231552779674,-1.0539861983463168,-6.173264856317639,0.0424151122570037,-0.7843450307846069,0.187012180685997
1783201221300678000,0.588677978515625,0.2870587000250816,-0.8418424540519713,-6.017072424086928,0.1763579696416854,-1.0398826599121094,0.2523643374443054
1783201221310614000,0.598614013671875,0.163718589951843,-0.5278633061364293,-5.5688031714081765,0.3855417966842651,-1.1916197538375854,0.2817485928535461
1783201221320551200,0.60855126953125,-0.0474383352622389,-0.1438531751394271,-4.911087450695038,0.6302663087844849,-1.2711001634597778,0.262008398771286
1783201221330488300,0.61848828125,-0.2428469255939125,0.1753156503736972,-4.063310345897079,0.8677941560745239,-1.2964715957641602,0.2216642051935196
1783201221340425000,0.628425048828125,-0.3281485430434346,0.344923444494605,-3.028437721082568,1.0616881847381592,-1.2628930807113647,0.1847039759159088
1783201221350362000,0.638362060546875,-0.290568900103122,0.3835121183469891,-2.0315876606702803,1.218836784362793,-1.2206063270568848,0.1628596633672714
1783201221360299000,0.648299072265625,-0.1763096298471093,0.3811316529512405,-1.184144317871332,1.354281663894653,-1.182458519935608,0.1637713611125946
1783201221370236200,0.658236083984375,-0.159125124681741,0.5371171644330024,-0.2927414218366146,1.4682146310806274,-1.1028252840042114,0.1756016463041305
1783201221380173300,0.66817333984375,-0.2718117387935519,0.7092191134572029,0.5255068061381578,1.5537000894546509,-0.9851923584938048,0.1792284399271011
1783201221390110000,0.67810986328125,-0.3973980203583836,0.856406985977292,1.2746020029097795,1.6248574256896973,-0.8675796985626221,0.1912864297628402
1783201221400046000,0.688046142578125,-0.397369378785789,1.0237199471592902,1.8765069890737531,1.6255558729171753,-0.7574049234390259,0.1903544664382934
1783201221409983200,0.697983154296875,-0.3403736722357571,1.3369453540980816,2.5369851602375504,1.4857524633407593,-0.6600240468978882,0.1663426160812378
1783201221419920100,0.707920166015625,-0.4057616518169641,1.5834809050768612,3.023527152687311,1.23233962059021,-0.6608018279075623,0.1131808087229728
1783201221429857000,0.71785693359375,-0.5704609233692288,1.574807184755802,3.15821970077157,0.8933311700820923,-0.765039324760437,0.0616081655025482
1783201221439794200,0.727794189453125,-0.6045969286616891,1.4545324536025523,3.0941555171400306,0.5420585870742798,-0.9290560483932496,0.0310174841433763
1783201221449731000,0.73773095703125,-0.5772567940544336,1.3065396944403649,2.966687659612298,0.2500885725021362,-1.0670160055160522,0.0205411426723003
1783201221459668200,0.747668212890625,-0.6053254621319473,1.2257388955414297,2.95847804967165,0.0454936996102333,-1.1000316143035889,-0.0010728449560701
1783201221469605000,0.757605224609375,-0.7052076858587563,1.2272013693094252,2.948662173578143,-0.0681849345564842,-1.0206499099731443,-0.0367714539170265
1783201221479542000,0.7675419921875,-0.8367769873559474,1.2218944950729609,3.0116157656192777,-0.1091943830251693,-0.8221723437309265,-0.0581239238381385
1783201221489479200,0.777479248046875,-0.930285584397614,1.1430927610367536,3.5671231577456,-0.2112243324518203,-0.3848370611667633,-0.1012199968099594
1783201221499415000,0.7874150390625,-0.996427012694627,1.2202227624684572,3.3746938754856584,-0.2318670898675918,-0.0510282069444656,-0.1593331694602966
1783201221509352200,0.797352294921875,-0.8436958268336952,1.3380232124626636,2.63825591571331,-0.2224975526332855,0.1617932468652725,-0.201874777674675
1783201221519289000,0.8072890625,-0.6611866116940974,1.5136118345588443,1.8943804994165896,-0.2290696203708648,0.2979886531829834,-0.2394189834594726
1783201221529226000,0.81722607421875,-0.7696916292723268,1.412475519117713,0.9852578222960232,-0.2392255812883377,0.269769012928009,-0.2523646056652069
1783201221539163100,0.8271630859375,-0.7898528852261603,1.1837485965520145,-0.0542705193698406,-0.2566635608673095,0.1413493305444717,-0.2508335709571838
1783201221549100300,0.837100341796875,-0.8510194477200508,1.1882839018940925,-0.662983431982994,-0.304402083158493,-0.0105967801064252,-0.2722840309143066
1783201221559037200,0.847037109375,-1.036221336009726,1.3189087621480229,-0.953601870316267,-0.38848477602005,-0.1657866090536117,-0.3243529200553894
1783201221568974000,0.85697412109375,-1.3435760242842136,1.2702671885758638,-1.1025760417312382,-0.5090130567550659,-0.2662990987300873,-0.3647450804710388
1783201221578911000,0.866910888671875,-1.5516642095774411,1.073484387281537,-1.38088795619905,-0.5959210395812988,-0.3453273773193359,-0.3912065625190735
1783201221588848000,0.87684814453125,-1.477778596894443,1.0786480536550282,-1.607948406857252,-0.6118435263633728,-0.3654845654964447,-0.4468511939048767
1783201221598785300,0.886785400390625,-1.488606572639942,1.060655300846696,-1.6292162358134985,-0.5897477269172668,-0.2570439875125885,-0.5386875867843628
1783201221608721000,0.896720947265625,-1.8759882258966565,0.9219067553699016,-1.624931105840206,-0.4733186066150665,-0.0442102886736393,-0.6090760231018066
1783201221618658000,0.906657958984375,-2.0208388876408336,0.7158405774235725,-1.919756932735443,-0.2663947641849518,0.1960849314928054,-0.6449615359306335
1783201221628595200,0.91659521484375,-1.864951868097484,0.6616057138890028,-2.2904022629857064,-0.0813831090927124,0.4030399918556213,-0.660474419593811
1783201221638532000,0.926531982421875,-1.6429856718383729,0.6708844143658876,-2.5851731448233126,0.0363106094300746,0.5155085325241089,-0.653668224811554
1783201221648469200,0.93646923828125,-1.4399435178883373,0.5491092155218124,-2.992683101612329,0.1177050694823265,0.4896167814731598,-0.6464771628379822
1783201221658406100,0.94640625,-1.3108482052892445,0.4704232168197632,-3.4371564691394565,0.1482949703931808,0.2847881317138672,-0.6585947871208191
1783201221668343000,0.956343017578125,-1.1959765022233129,0.5073199920624494,-3.658724752122164,0.1422083079814911,-0.0306654348969459,-0.6987741589546204
1783201221678280200,0.9662802734375,-1.1750967958018184,0.5224450804799795,-3.660442661955953,0.1440449804067611,-0.3872405886650085,-0.7616386413574219
1783201221688217000,0.976217041015625,-1.1621847072586418,0.5495347474575042,-3.54878962867558,0.178106814622879,-0.7135787606239319,-0.8468315601348877
1783201221698154200,0.986154296875,-1.1785600879982112,0.6856400849491358,-3.1450112596303224,0.2265411019325256,-0.9365708827972412,-0.9292940497398376
1783201221708091100,0.996091064453125,-1.1778513552069665,0.7172562894403934,-2.512123690703511,0.2815913259983063,-1.0193853378295898,-0.9931462407112122
1783201221718027000,1.006027099609375,-1.143232169507444,0.6865782425820827,-1.792911006498337,0.334254115819931,-0.9978079199790956,-1.043111801147461
1783201221727964200,1.015964111328125,-1.1186366574332118,0.718905810213089,-1.1199030241072176,0.3913925290107727,-0.9229869842529296,-1.0890305042266846
1783201221737901300,1.0259013671875,-1.1034858500525355,0.7900666741073131,-0.5620365016341209,0.4515304565429687,-0.8471094965934753,-1.1343495845794678
1783201221747838000,1.035837890625,-0.9268740223884582,0.733491969448328,-0.2259352460205554,0.5140809416770935,-0.8057394027709961,-1.139103889465332
1783201221757775000,1.045775146484375,-0.68552719915919,0.5784048681110143,-0.0324216756552457,0.5802842378616333,-0.795677125453949,-1.1152878999710083
1783201221767712000,1.0557119140625,-0.4487695303510874,0.4535474853426218,0.1798842734634876,0.660166323184967,-0.779461681842804,-1.0560623407363892
1783201221777649200,1.065649169921875,-0.0210553552493453,0.3447860818505286,0.4210188421815634,0.7398953437805176,-0.7615101933479309,-0.960038721561432
1783201221787586300,1.07558642578125,0.1922621089994907,0.3345943581819534,0.7670429413944483,0.7697771191596985,-0.7165829539299011,-0.8629531860351562
1783201221797523000,1.08552294921875,0.2375932428494095,0.444652815747261,1.2463175731897354,0.7401374578475952,-0.6678504943847656,-0.7977746725082397
1783201221807460000,1.095460205078125,0.3293611337035894,0.6417021590232849,1.5923656378000974,0.6709166169166565,-0.6735832095146179,-0.7509443163871765
1783201221817397000,1.10539697265625,0.4797805354908108,0.7410276256501674,1.7423358345150946,0.5886762738227844,-0.7059205770492554,-0.7132262587547302
1783201221827334100,1.115334228515625,0.5096460969224572,0.8750818758308887,2.034872673690319,0.4929702579975128,-0.7006222009658813,-0.6754879355430603
1783201221837270000,1.12527001953125,0.4296633364081382,1.020516182681918,2.346671847218275,0.3656456172466278,-0.677145779132843,-0.6349387168884277
1783201221847207200,1.135207275390625,0.3964508026361465,1.0278373193502426,2.573329562294483,0.1765502691268921,-0.6108728051185608,-0.5884750485420227
1783201221857144000,1.14514404296875,0.4936124422926455,1.0821318041175605,2.6712001539379355,-0.0548842772841453,-0.5291700959205627,-0.5555356740951538
1783201221867081200,1.155081298828125,0.4894255119968205,1.247082712343335,2.373093990197777,-0.2329885065555572,-0.5105258226394653,-0.5455562472343445
1783201221877018000,1.16501806640625,0.4210221301171928,1.3922510617345571,1.8291601314872503,-0.3608011603355407,-0.5071466565132141,-0.5490012764930725
1783201221886955000,1.174955078125,0.3578817102670669,1.486784617909789,1.2701368401944635,-0.4330170452594757,-0.4866980910301208,-0.554117739200592
1783201221896892200,1.18489208984375,0.2341732052728533,1.3921423406630753,0.5743745896816254,-0.4389432668685913,-0.5144523978233337,-0.5510069727897644
1783201221906829000,1.1948291015625,0.2422233138028532,1.2578250556319952,-0.02129822409451,-0.4315026700496673,-0.6064009666442871,-0.5558518171310425
1783201221916766200,1.20476611328125,0.4001049412295222,1.309049631434679,-0.3145487644970416,-0.4130284190177917,-0.7087370753288269,-0.593291163444519
1783201221926703000,1.214703125,0.4925231126859783,1.3363222537636756,-0.3402168742388486,-0.4059401452541351,-0.7518675327301025,-0.6209976673126221
1783201221936640000,1.224639892578125,0.4874067925855517,1.139997717630863,-0.3236357417941093,-0.4043655693531036,-0.77125084400177,-0.6200031638145447
1783201221946577200,1.2345771484375,0.2838137267544865,0.8359189092218875,-0.1649544153571129,-0.4378699958324432,-0.6451128721237183,-0.6026356220245361
1783201221956514000,1.24451416015625,-0.0805339646562934,0.5522632956385612,0.0952758989751338,-0.5013249516487122,-0.4016516506671905,-0.6474785804748535
1783201221966451200,1.254451171875,-0.2801505280718207,0.5341577301055193,-0.2926742018193006,-0.4682844877243042,-0.2303920239210128,-0.6805621981620789
1783201221976387000,1.264386962890625,-0.0794368170693516,0.5708493381649256,-0.8055833921909332,-0.3922130167484283,-0.071345679461956,-0.6906647682189941
1783201221986324200,1.27432421875,-0.1197246960550546,0.2961287261873483,-1.6287983026623725,-0.2787311971187591,-0.0361834280192852,-0.6733766198158264
1783201221996261400,1.284261474609375,-0.1265007660612463,0.0974058967411518,-2.498556937643885,-0.1790859550237655,-0.0963315442204475,-0.636107861995697
1783201222006198500,1.294198486328125,-0.1031555463090539,0.117497083133459,-3.1927228588759897,-0.1031483188271522,-0.2701526284217834,-0.5907292366027832
1783201222016135200,1.30413525390625,-0.1136900920659303,0.2793698990881443,-3.5133903985142707,-0.0882667675614357,-0.4909136891365051,-0.5908034443855286
1783201222026072300,1.314072265625,-0.1793932750761508,0.4700555525511503,-3.322866657614708,-0.1541592329740524,-0.6473438143730164,-0.6557661890983582
1783201222036009200,1.32400927734375,-0.4361125856127589,0.6368932974368333,-2.941041177180409,-0.2048279494047165,-0.6947050094604492,-0.7063819169998169
1783201222045946400,1.3339462890625,-0.6823185393109917,0.7086871985375881,-2.684070156905055,-0.2064346373081207,-0.6415646076202393,-0.7604550123214722
1783201222055883500,1.343883544921875,-0.9474383792504668,0.7519365576773881,-2.579661103403568,-0.1497598588466644,-0.5325309634208679,-0.8303537368774414
1783201222065820200,1.353820068359375,-0.9754350050050764,0.9084037151962518,-2.6781846059978007,-0.0445026904344558,-0.4290027320384979,-0.8924967646598816
1783201222075757300,1.36375732421875,-0.8135102396674454,0.9846364755272864,-2.905505753418803,0.0989723950624466,-0.3842427134513855,-0.9151905179023744
1783201222085694200,1.373694091796875,-0.605975888864696,0.8253139285773038,-3.3168326381474733,0.2491166293621063,-0.4014826714992523,-0.9160632491111756
1783201222095631400,1.38363134765625,-0.429612994460389,0.8414736207395791,-3.5237802751034497,0.3601928353309631,-0.4685200750827789,-0.930610179901123
1783201222105568500,1.393568603515625,-0.3344210474416613,0.9895295082658528,-3.5185733541101216,0.4263209998607635,-0.6051817536354065,-0.9673264026641846
1783201222115505200,1.403505126953125,-0.2578618316352367,1.13489367249012,-3.387152959564328,0.4663666784763336,-0.8112033605575562,-1.0155141353607178
1783201222125442300,1.4134423828125,-0.1674491547822952,1.2428069347202777,-3.104571112692356,0.4805754423141479,-1.0013935565948486,-1.0695574283599854
1783201222135378400,1.42337841796875,-0.1069698439002037,1.265800272294879,-2.530169635003805,0.4864596724510193,-1.1079143285751345,-1.1128252744674685
1783201222145315300,1.4333154296875,0.0073515318065881,1.2487374938130378,-1.9620354010164736,0.4987938404083252,-1.1619772911071775,-1.13312566280365
1783201222155252200,1.443252197265625,0.1602268023133277,1.2898469183146952,-1.4321423426181077,0.5002629160881042,-1.1746981143951416,-1.1373920440673828
1783201222165189400,1.453189453125,0.2790498733535408,1.3982909264206886,-0.8776490959703922,0.4718999564647674,-1.152108907699585,-1.1457276344299316
1783201222175126300,1.463126220703125,0.3287947319924831,1.5500257947206495,-0.3159814276486635,0.4114563763141632,-1.1102638244628906,-1.164665460586548
1783201222185063400,1.4730634765625,0.3416077440753579,1.7094839507490396,0.1300432609736919,0.3322217464447021,-1.0646460056304932,-1.2009872198104858
1783201222195000300,1.483000244140625,0.4169461859151721,1.7742215035974978,0.4330255063176155,0.2631178498268127,-1.02797269821167,-1.2187862396240234
1783201222204937200,1.492937255859375,0.6448056779965758,1.726272003942728,0.5356868393689393,0.2016507685184478,-1.0254919528961182,-1.1931746006011963
1783201222214874400,1.502874267578125,0.9127486125327646,1.6869675830364226,0.5140811567604542,0.1328249722719192,-1.0638039112091064,-1.1390186548233032
1783201222224811300,1.512811279296875,1.3003145363152029,1.811180822682381,0.521267268872261,0.0405680127441883,-1.1014010906219482,-1.069813251495361
1783201222234748400,1.52274853515625,1.5567060031369329,1.9376006324619053,0.5547153649657964,-0.0561498068273067,-1.1456334590911863,-1.0181728601455688
1783201222244685300,1.532685302734375,1.6493521381303666,2.085659442597628,0.6230903975337744,-0.1421645730733871,-1.1597788333892822,-0.992695450782776
1783201222254622200,1.542622314453125,1.6482918154224753,2.21609316419363,0.620957477158308,-0.2042131870985031,-1.159942626953125,-0.9953134059906006
1783201222264559400,1.552559326171875,1.657331300316006,2.159915349897742,0.5242874934762716,-0.2449233382940292,-1.1370370388031006,-0.9883830547332764
1783201222274496300,1.562496337890625,1.7782491516783832,2.039523129844665,0.4359475312441587,-0.2858538329601288,-1.1290717124938965,-0.9649255871772766
1783201222284433400,1.572433349609375,1.891248631131649,1.932673697453737,0.3102186263382435,-0.3356125950813293,-1.1561219692230225,-0.9097158908843994
1783201222294370300,1.582370361328125,1.9699464664019644,1.842861909103393,0.2106084975510835,-0.385719746351242,-1.1870254278182983,-0.8502218723297119
1783201222304307200,1.59230712890625,1.9053418922834096,1.9027742337524889,0.1909329062223434,-0.4371272921562195,-1.2031787633895874,-0.8192564845085144
1783201222314244400,1.602244384765625,1.7624726136147977,2.032943166932464,0.2014350110143423,-0.4893199801445007,-1.187086582183838,-0.8191632032394409
1783201222324181200,1.61218115234375,1.68421214684844,2.171656056573987,0.2072568490356206,-0.5435712337493896,-1.1518186330795288,-0.8500342965126038
1783201222334117400,1.622117431640625,1.7658128639534114,2.26262461374402,0.0645054976582527,-0.5826668739318848,-1.135537028312683,-0.8848490118980408
1783201222344054300,1.63205419921875,1.934211720675975,2.187352222877741,-0.2304576918810605,-0.6009340286254883,-1.1151423454284668,-0.9135054349899292
1783201222353991200,1.6419912109375,2.077831817711889,1.9675930351436135,-0.5474222853481769,-0.6019921898841858,-1.088929533958435,-0.9574573040008544
1783201222363928300,1.65192822265625,2.1183071820937096,1.7703040378928183,-0.713409550884366,-0.5885075330734253,-1.072159767150879,-1.0032143592834473
1783201222373865500,1.661865478515625,2.1646213356316086,1.5550018295675516,-0.7244891633033752,-0.6038177013397217,-1.0639441013336182,-1.0491186380386353
1783201222383802400,1.67180224609375,2.2163401246920227,1.3695365411013365,-0.6093044487655163,-0.6360640525817871,-1.0573503971099854,-1.0862364768981934
1783201222393739300,1.6817392578125,2.1988339863568545,1.0519593686938284,-0.5566121384978294,-0.6424373984336853,-1.0316448211669922,-1.0915379524230957
1783201222403676200,1.69167626953125,2.233217463604361,0.7685995231866836,-0.689599051707983,-0.600847065448761,-0.9911432266235352,-1.0699610710144043
1783201222413613300,1.70161328125,2.306139053560793,0.6948726081967354,-0.781944742450118,-0.5627261996269226,-0.9383942484855652,-1.064286708831787
1783201222423550500,1.711550537109375,2.264288747563958,0.6253074890613556,-0.7583464247196913,-0.5407466292381287,-0.8537445664405823,-1.0713666677474976
1783201222433487400,1.7214873046875,2.24654368590638,0.5778723686695099,-0.7270359251767397,-0.541316032409668,-0.7403532862663269,-1.1020580530166626
1783201222443424300,1.73142431640625,2.2502029390662908,0.5105617504626512,-0.7967091808617115,-0.5444929003715515,-0.6330811381340027,-1.1348743438720703
1783201222453361200,1.741361083984375,2.2521087726876137,0.2717828049600124,-1.0159966594308614,-0.5140766501426697,-0.5521948933601379,-1.1574914455413818
1783201222463298300,1.75129833984375,2.2485659855142237,-0.0528717584878206,-1.3859054921001197,-0.4419116973876953,-0.5148781538009644,-1.1722275018692017
1783201222473235500,1.7612353515625,2.308510604997724,-0.2994832973122596,-1.7327718873560427,-0.3349662125110626,-0.5827580094337463,-1.1821532249450684
1783201222483172400,1.77117236328125,2.3665406230315567,-0.5868710831612348,-1.831179070094228,-0.2542109191417694,-0.6508353352546692,-1.171626329421997
1783201222493109200,1.781109130859375,2.413641250772029,-0.8637772224843502,-1.594229093584418,-0.2114252746105194,-0.6692571043968201,-1.1272578239440918
1783201222503046400,1.79104638671875,2.3275956830874085,-1.2625298723220824,-1.4146084394931793,-0.1840362548828125,-0.6476998925209045,-1.0622633695602417
1783201222512983300,1.8009833984375,2.2838522568203508,-1.455204653775692,-1.305403383886814,-0.1519883871078491,-0.6243273019790649,-0.9756736159324646
1783201222522920400,1.81092041015625,2.269871077740937,-1.434665139093995,-1.158126079517603,-0.1037782505154609,-0.6213072538375854,-0.9042012691497804
1783201222532857300,1.820857421875,2.2309872203342613,-1.3293214350908993,-0.8910743947327137,-0.0379327945411205,-0.5896364450454712,-0.8463818430900574
1783201222542794200,1.830794189453125,2.087317438937724,-1.1188462085306643,-0.3970762410581112,0.0383854135870933,-0.5116324424743652,-0.8043302893638611
1783201222552731400,1.8407314453125,1.8553072569176556,-0.931835444188118,0.2360281854897737,0.1001161113381385,-0.3908815085887909,-0.7722793817520142
1783201222562668300,1.850668212890625,1.6210224079638718,-0.872360341912508,0.672569590973854,0.148602157831192,-0.2741269171237945,-0.7387850880622864
1783201222572604400,1.8606044921875,1.4757554205037653,-0.8527706753015518,0.8851397439867258,0.1857995986938476,-0.2137114256620407,-0.7115120887756348
1783201222582541300,1.870541259765625,1.380566469159722,-0.8258867600291967,0.9268635009944438,0.2176986634731292,-0.212434709072113,-0.6924015283584595
1783201222592478200,1.880478271484375,1.343677292701602,-0.7128291206479073,0.9523211828559636,0.2640577554702759,-0.2399905025959015,-0.6877797245979309
1783201222602415400,1.890415283203125,1.3909477240510284,-0.4593821828454733,1.177467908847332,0.3193873465061188,-0.2588712573051452,-0.7041068077087402
1783201222612352300,1.900352294921875,1.4786014575846491,-0.2351812132716178,1.5421692360013723,0.3568206429481506,-0.2539471983909607,-0.7111794948577881
1783201222622289400,1.910289306640625,1.6608824169263243,-0.0535445431828498,2.048015063858032,0.3554645478725433,-0.2320911735296249,-0.6925104856491089
1783201222632226300,1.920226318359375,1.7245184382736682,0.0530097056537866,2.508691962689161,0.3202867805957794,-0.2217194437980651,-0.6641266942024231
1783201222642163200,1.9301630859375,1.6317241269811986,0.1014800143122673,2.8856179806441067,0.2446444928646087,-0.2161435931921005,-0.6056921482086182
1783201222652100400,1.940100341796875,1.530412747234106,0.1297568452477455,3.30740254650116,0.1035989895462989,-0.186212956905365,-0.5245469808578491
1783201222662037200,1.950037353515625,1.2673270434707402,0.1602256332695484,3.726026602500677,-0.0937947705388069,-0.1255874335765838,-0.4735551476478576
1783201222671974400,1.959974365234375,0.901426277399063,0.2529477561086416,4.02016970782876,-0.3284496366977691,-0.0146414525806903,-0.4711040258407593
1783201222681911300,1.969911376953125,0.6806446147494017,0.4055009550541639,4.0377082871288055,-0.540005087852478,0.1216575354337692,-0.5075799822807312
1783201222691848200,1.97984814453125,0.6209218943882733,0.5095598799437284,3.630974575409293,-0.687296986579895,0.2388995289802551,-0.5561521053314209
1783201222701785300,1.989785400390625,0.8000634597256779,0.5472609573066234,2.891993360894918,-0.7297336459159851,0.3309263885021209,-0.6129288673400879
1783201222711722500,1.999722412109375,1.0500886063858863,0.4157458702147006,2.0331635316848757,-0.6838402152061462,0.3772716522216797,-0.6729511022567749
1783201222721659400,2.009659423828125,1.2043380878552794,0.2318909395545721,1.3308809394925831,-0.5753188133239746,0.426379531621933,-0.7098580002784729
1783201222731596300,2.01959619140625,1.4710012117139994,-0.0897024827569723,0.7468523862808942,-0.4517223238945007,0.4718931019306183,-0.7113717794418335
1783201222741533200,2.029533203125,1.696578145816177,-0.4177431815117597,0.4587508992046117,-0.3651770353317261,0.5291534662246704,-0.6829204559326172
1783201222751470300,2.03947021484375,1.8727106655307115,-0.6485638614863157,0.3159820121705531,-0.3351145982742309,0.5866357684135437,-0.6267648339271545
1783201222761407500,2.049407470703125,1.9854538321353492,-0.8848574199140071,0.0793155287772417,-0.353337287902832,0.6357596516609192,-0.5538685321807861
1783201222771344400,2.059344482421875,2.053444541560858,-1.1241700339019298,-0.2782727515012025,-0.4099873900413513,0.6905263066291809,-0.4643840491771698
1783201222781281300,2.06928125,2.1783181448116897,-1.3630179529875517,-0.8346434824585914,-0.4823297560214996,0.7107442617416382,-0.3471722304821014
1783201222791218200,2.07921826171875,2.2798180328682065,-1.5693506729155775,-1.5827315480142832,-0.5532330274581909,0.6365211009979248,-0.2077652215957641
1783201222801155300,2.0891552734375,2.23925601311624,-1.7680495369642972,-2.3732979883372782,-0.5919380784034729,0.4733510911464691,-0.0674986541271209
1783201222811092500,2.099092529296875,2.1391066628858444,-1.8175018423974516,-2.94648599858284,-0.6178270578384399,0.2898647785186767,0.0497833080589771
1783201222821029400,2.109029296875,2.031323018384725,-1.6244459526717665,-3.191414114364981,-0.6325391530990601,0.1197361871600151,0.1311452835798263
1783201222830966300,2.11896630859375,1.9176377486243843,-1.4232874205112456,-3.3294501276582475,-0.628229022026062,-0.0349676311016082,0.1871817708015442
1783201222840903200,2.128903076171875,1.829806612697244,-1.3123404896736144,-3.406194929164648,-0.5696147084236145,-0.1762137115001678,0.2387727946043014
1783201222850840300,2.13884033203125,1.7307064792588351,-1.334122697892785,-3.422340008279681,-0.4468337297439575,-0.2578760087490082,0.2894744575023651
1783201222860777500,2.148777587890625,1.7008837340556084,-1.28991238476634,-3.215627933645248,-0.2815816402435303,-0.2862676978111267,0.3362661898136139
1783201222870714400,2.15871435546875,1.6883998077966271,-1.058135426980257,-2.789858682066202,-0.0959796756505966,-0.2765383422374725,0.3652081191539764
1783201222880651300,2.1686513671875,1.6491260742895304,-0.765713738617301,-2.265508644747734,0.0858383253216743,-0.2321428954601287,0.3729739189147949
1783201222890588200,2.178588134765625,1.6080615118429065,-0.4953028065323829,-1.6260300069928169,0.250813364982605,-0.1472671180963516,0.3741609454154968
1783201222900525300,2.188525390625,1.5811901637911796,-0.2447732174813747,-0.981578841522336,0.3893004357814789,-0.0559007227420806,0.3615279793739319
1783201222910462500,2.19846240234375,1.5111933752402662,-0.0166641345530748,-0.4045592902898788,0.5093696117401123,0.056518729776144,0.3398537635803222
1783201222920398300,2.2083984375,1.4562557702638208,0.1704313854634761,0.165312142753601,0.5947449803352356,0.1932550072669983,0.3396407067775726
1783201222930335200,2.218335205078125,1.5421259813815351,0.3320446736991405,0.6866191591143608,0.6482962965965271,0.3217999339103699,0.3664906620979309
1783201222940272400,2.2282724609375,1.6005993592686951,0.3962450509309768,1.0690022734314202,0.654801607131958,0.4181144833564758,0.4063208997249603
1783201222950209300,2.238209228515625,1.578619144259393,0.5003747029691934,1.4441548519730567,0.6024807095527649,0.4815007746219635,0.456667959690094
1783201222960146400,2.248146484375,1.4290962529204785,0.5555670133590698,1.712948411989212,0.5090359449386597,0.4857780933380127,0.5098283886909485
1783201222970083300,2.258083251953125,1.2064530341826378,0.535379965376854,1.7893021683514116,0.4033469259738922,0.443593680858612,0.5533495545387268
1783201222980020200,2.268020263671875,1.0485955913491547,0.5873638351142406,1.84626265745759,0.2957078218460083,0.4215288460254669,0.5936575531959534
1783201222989956000,2.2779560546875,1.0071979975558816,0.7895598936289548,1.9813053341537712,0.1789485663175583,0.3964738547801971,0.6357468366622925
1783201222999893200,2.287893310546875,0.8900149488076567,0.9552695112675428,2.10881819986701,0.0505996569991111,0.3727911710739136,0.6534539461135864
1783201223009830000,2.297829833984375,0.7321953537665307,1.047511741635203,2.253136069908738,-0.0619164183735847,0.3676749467849731,0.6594175696372986
1783201223019767000,2.30776708984375,0.621716478832066,1.173345860481262,2.358029107534885,-0.1376188993453979,0.3775345087051391,0.6583579182624817
1783201223029704200,2.3177041015625,0.6277065130271017,1.310830669632554,2.546524557477236,-0.2003771066665649,0.4322705566883087,0.6667258739471436
1783201223039641000,2.32764111328125,0.6501230736270547,1.326015379282832,2.814447179877758,-0.2554544806480407,0.5071375966072083,0.6823937892913818
1783201223049578200,2.337578125,0.5400907734163105,1.0807809740304946,2.980850040477514,-0.3051635921001434,0.6181995272636414,0.7278618216514587
1783201223059515000,2.347514892578125,0.5115700507223606,0.7816606648117304,3.1349101368546486,-0.3654658198356628,0.7738437056541443,0.8077002167701721
1783201223069452000,2.3574521484375,0.5695397168710827,0.5673989054501056,3.1173335636317727,-0.4056071639060974,0.9212636947631836,0.9188770651817322
1783201223079389200,2.36738916015625,0.6319897433042526,0.3515104216694831,2.8182337126791475,-0.3965047597885132,1.048398733139038,1.0376527309417725
1783201223089326000,2.377326171875,0.6662073624655604,0.408203199750185,2.476301266694069,-0.3501504063606262,1.1710586547851562,1.1234228610992432
1783201223099263200,2.38726318359375,0.5544646050751209,0.684445906728506,2.2895091135382653,-0.3163253366947174,1.299734592437744,1.1564284563064575
1783201223109200100,2.3972001953125,0.3420221700951457,0.90167411468029,2.193271091532707,-0.3223684728145599,1.4283586740493774,1.1536866426467896
1783201223119137000,2.407136962890625,0.1969036511950194,0.9557891512274742,2.0091998877733945,-0.4047613441944122,1.523830771446228,1.1221554279327393
1783201223129074200,2.41707421875,0.0384955887414515,0.8501011638313531,1.6909610365867611,-0.5419309735298157,1.6115034818649292,1.081205129623413
1783201223139011000,2.427010986328125,0.0421694549486041,0.5905196687966585,1.1534878983229395,-0.7112736701965332,1.6744667291641235,1.0550414323806765
1783201223148948200,2.4369482421875,0.1902925624921917,0.3198129686355591,0.2827817533582449,-0.8704968690872192,1.6746225357055664,1.0614296197891235
1783201223158885000,2.446885009765625,0.3833690566144883,0.0664560472041368,-0.7694149312227964,-0.9976065754890442,1.6030223369598389,1.0990837812423706
1783201223168822000,2.456822021484375,0.4473285742951556,-0.2817079866468906,-1.801116524785757,-1.0986300706863403,1.471965789794922,1.1575896739959717
1783201223178759200,2.46675927734375,0.3809403681628406,-0.6284282514303923,-2.659153742313385,-1.1772953271865845,1.3068101406097412,1.2241390943527222
1783201223188696000,2.476696044921875,0.2600555422872305,-0.934863852098584,-3.3917923098027702,-1.2182681560516355,1.1201964616775513,1.2892390489578247
1783201223198633200,2.48663330078125,0.1206790741704404,-1.0764952595353126,-4.051313034111261,-1.2018861770629885,0.9115281701087952,1.3390116691589355
1783201223208570000,2.496570068359375,-0.0100071608819067,-1.0261585724830626,-4.559895008933544,-1.1488865613937378,0.7169469594955444,1.3613154888153076
1783201223218507000,2.506507080078125,-0.1875917791008949,-0.9161538909316064,-4.863422028678655,-1.0435938835144043,0.5558915138244629,1.3691089153289795
1783201223228444200,2.516444091796875,-0.3592017068244517,-0.8487222766935825,-5.064365456783771,-0.8760992288589478,0.4249602854251861,1.358139157295227
1783201223238381000,2.526381103515625,-0.5621192114815116,-0.7438789234280586,-5.120086174961925,-0.6608803868293762,0.3295389711856842,1.3363381624221802
1783201223248318200,2.536318115234375,-0.7989690886177122,-0.6282289294660091,-4.9581461389899255,-0.4222579896450043,0.2704816460609436,1.2865151166915894
1783201223258255000,2.546255126953125,-1.0354694216638802,-0.4822852117881178,-4.555196621984243,-0.1938996762037277,0.2499625086784362,1.2168474197387695
1783201223268192000,2.55619189453125,-1.187735912622511,-0.3702952016383409,-3.985377211388945,0.0098745776340365,0.2619875073432922,1.1364766359329224
1783201223278129200,2.566129150390625,-1.1957602291241287,-0.3301271496400237,-3.38491073359549,0.1661435514688491,0.2907573878765106,1.0686166286468506
1783201223288066000,2.576066162109375,-1.161018586088717,-0.3115086661487817,-2.75731893298924,0.2776628136634826,0.337836891412735,1.0054171085357666
1783201223298003200,2.586003173828125,-1.1081523805588482,-0.3168511962205171,-2.1073305916577576,0.343839168548584,0.3849612474441528,0.9637402892112732
1783201223307940000,2.595940185546875,-0.9742286248899996,-0.3610819676131009,-1.5457026708245276,0.3774095475673675,0.404227614402771,0.9440334439277648
1783201223317877000,2.605876953125,-0.8162415643274784,-0.3593126198530197,-1.0803186172157526,0.384621113538742,0.3939360976219177,0.9403370022773744
1783201223327814100,2.615814208984375,-0.7336059512168168,-0.2953998273909092,-0.6558902588516473,0.3701457381248474,0.3595200777053833,0.9487316012382508
1783201223337751000,2.6257509765625,-0.726474638032168,-0.2365650688454508,-0.3193693165212869,0.3512167930603027,0.3187942206859588,0.9498165845870972
1783201223347688000,2.63568798828125,-0.7207881168283522,-0.0753314275771379,0.0633878918051719,0.3225522637367248,0.287480354309082,0.940322995185852
1783201223357625000,2.645625,-0.6913060017563403,0.1130558858156204,0.54109425137043,0.2885221242904663,0.2725091278553009,0.9211133122444152
1783201223367562000,2.65556201171875,-0.6400529305115342,0.2350114096626639,1.041753031978011,0.2408160120248794,0.2693421542644501,0.9033644795417786
1783201223377499100,2.6654990234375,-0.5664357595063746,0.2536018361032009,1.5119295805603266,0.1768391579389572,0.2504891157150268,0.886814296245575
1783201223387436000,2.67543603515625,-0.4391527570262551,0.1843655105307698,1.8719336898088452,0.1083466485142707,0.1970971077680587,0.9037403464317322
1783201223397373000,2.685373046875,-0.2678934145723469,0.1153065873518586,2.150498702254892,0.0305304154753685,0.1522140502929687,0.933570146560669
1783201223407310000,2.69531005859375,-0.1783472731545567,0.1659878500580787,2.430228082305193,-0.0316440090537071,0.1363778263330459,0.95402854681015
1783201223417247000,2.7052470703125,-0.26194004085958,0.2677729847967624,2.6809324434012174,-0.049200102686882,0.1637210398912429,0.9556573033332824
1783201223427184000,2.71518408203125,-0.3823892517969012,0.4235211803913116,2.8274294110476967,-0.0287915244698524,0.1856220364570617,0.9305464625358582
1783201223437121300,2.725121337890625,-0.463924940841645,0.637464667584002,2.9742531264305114,0.0094011342152953,0.2460907101631164,0.869667112827301
1783201223447058000,2.735057861328125,-0.5624231628641486,0.7164215921819209,3.308486834606528,0.0239476449787616,0.3869807124137878,0.8091650605201721
1783201223456995000,2.7449951171875,-0.5197795145325362,0.6276198576569557,3.661980539047718,-0.0242638252675533,0.5840227007865906,0.7680118083953857
1783201223466932000,2.754931884765625,-0.2959662291020155,0.5626753840595483,3.9790152751415966,-0.1645272374153137,0.8145596385002136,0.7660477757453918
1783201223476869000,2.764869140625,-0.013564122711122,0.4708925878971814,4.003081794905662,-0.3626981079578399,0.9917964935302734,0.7960509657859802
1783201223486806300,2.77480615234375,0.1798370733208954,0.2216574225708842,3.4407033479660747,-0.5548226237297058,1.085892677307129,0.860353946685791
1783201223496743000,2.784742919921875,0.3913311215348541,0.0460945194378495,2.468009239166975,-0.6922268271446228,1.1061218976974487,0.9469168186187744
1783201223506680000,2.79468017578125,0.5472454674765468,-0.0269505507677793,1.3433499604433774,-0.7706901431083679,1.0570580959320068,1.0308144092559814
1783201223516617000,2.804616943359375,0.4740212047791108,-0.0426914329960942,0.340706703582406,-0.7922079563140869,0.9721685647964478,1.0783675909042358
1783201223526554000,2.81455419921875,0.2062041251122951,0.002588555188477,-0.4285843089997768,-0.7638844847679138,0.8789656162261963,1.0766280889511108
1783201223536491300,2.8244912109375,-0.0409124406248331,0.1049438910305499,-0.9626070145487784,-0.69983971118927,0.8022255897521973,1.0256260633468628
1783201223546428000,2.834427978515625,-0.2587538485715165,0.2297805232718587,-1.277172730180621,-0.6183828115463257,0.7439883947372437,0.9460393190383912
1783201223556365000,2.844364990234375,-0.4232177039327099,0.23548487239331,-1.4450298812419176,-0.5482796430587769,0.7104296088218689,0.857294499874115
1783201223566302000,2.854302001953125,-0.4605647071609273,0.1305439039722085,-1.5185598123550414,-0.4839724898338318,0.6962628960609436,0.769085705280304
1783201223576239000,2.864239013671875,-0.3996563206791877,-0.0805599758803844,-1.6408897224724293,-0.4347522258758545,0.6806368231773376,0.7164603471755981
1783201223586176300,2.87417626953125,-0.2278257359422743,-0.3778904790729284,-1.7883885606378316,-0.4042260348796844,0.6779906153678894,0.6969255208969116
1783201223596113000,2.88411279296875,-0.0493602432355284,-0.6939625076144933,-1.944388100644946,-0.3840555250644684,0.6875001788139343,0.7138257026672363
1783201223606050000,2.894050048828125,0.0943368645593523,-0.9526143205836416,-2.213611284250021,-0.3486547470092773,0.6838692426681519,0.7695883512496948
1783201223615987000,2.903987060546875,0.2064738088991493,-1.1265241958126424,-2.6032904007941484,-0.2959713041782379,0.6688317060470581,0.8362360596656799
1783201223625924000,2.913924072265625,0.2748481838800013,-1.1618629279583692,-2.9941578503400086,-0.2196796387434005,0.6212033629417419,0.8890622854232788
1783201223635861200,2.923861328125,0.2548881495866924,-1.090895833070576,-3.3354227723270653,-0.1284088492393493,0.5361984372138977,0.9180643558502196
1783201223645798000,2.9337978515625,0.1606127328909933,-1.0201593320682645,-3.5579122618079184,-0.0311236754059791,0.4277753531932831,0.9303000569343568
1783201223655735000,2.943735107421875,0.0010772738426923,-0.950589829018712,-3.602363982474804,0.0676066279411315,0.3184552788734436,0.9195339679718018
1783201223665672000,2.953671875,-0.1311344172112643,-0.8991121552377939,-3.4680186403930184,0.1609832495450973,0.2113923728466034,0.8952972888946533
1783201223675609000,2.963609130859375,-0.1545795902065932,-0.8598112414628267,-3.189176564571261,0.2526657879352569,0.1215546280145645,0.8834797739982605
1783201223685546200,2.973546142578125,-0.1201377338353544,-0.7982999571844935,-2.793767379942536,0.3374496400356293,0.0556195192039012,0.8889660239219666
1783201223695483000,2.98348291015625,-0.1153520339287817,-0.7243506316155195,-2.3651064985752104,0.4191343784332275,0.0165189914405345,0.9004014134407043
1783201223705420000,2.993419921875,-0.136235832003504,-0.5925602347135543,-1.8794331056535245,0.5029098987579346,0.0021572082769125,0.9172047972679138
1783201223715357200,3.003357177734375,-0.2024550382444634,-0.428378849555552,-1.364210962164402,0.5741835236549377,0.0059309075586497,0.9333752393722534
1783201223725294000,3.013294189453125,-0.3194565564133226,-0.2222021969720721,-0.8378010697066783,0.6241815686225891,0.0160272717475891,0.9437804222106934
1783201223735231200,3.023231201171875,-0.4323183809615671,0.016792437107861,-0.2693172916293144,0.641152024269104,0.0322089046239852,0.9399430751800536
1783201223745168000,3.03316796875,-0.5066504222378134,0.2561480134546756,0.3229384071797132,0.6139534115791321,0.0519897527992725,0.9316287040710448
1783201223755105000,3.04310498046875,-0.5715628932617605,0.4798310966342687,0.8285469191491603,0.5509398579597473,0.0617739409208297,0.9147709012031556
1783201223765042200,3.053042236328125,-0.6842961229942739,0.6885463277846574,1.281121175545454,0.4729767441749573,0.0779288187623024,0.8819980025291443
1783201223774979000,3.06297900390625,-0.7685805262252688,0.8902759378314018,1.6831360420495272,0.3919005393981933,0.1045644283294677,0.8352786898612976
1783201223784916200,3.072916259765625,-0.859885183481872,1.0507084918498992,2.046526286605,0.3225977122783661,0.1379317045211792,0.7757087349891663
1783201223794852900,3.082852783203125,-0.9634354281969368,1.1517594670951363,2.332645659953356,0.2699534296989441,0.1886606514453888,0.7104780673980713
1783201223804790000,3.0927900390625,-0.9724436411693692,1.223333587965369,2.55649357830584,0.2384968250989914,0.2378407120704651,0.651177704334259
1783201223814727200,3.10272705078125,-0.9431887589819729,1.2586544921934604,2.7891338749229906,0.2105858325958252,0.2851336896419525,0.5962809324264526
1783201223824664000,3.1126640625,-0.8679140300281345,1.2750120450153946,3.0748119342446327,0.151475504040718,0.3513241410255432,0.5560021996498108
1783201223834601200,3.122601318359375,-0.6957397464200854,1.2676935386955737,3.407205567511916,0.0467600114643573,0.4368347823619842,0.5347784161567688
1783201223844537900,3.132537841796875,-0.489802747811377,1.1783429381161927,3.739226860335469,-0.1150303855538368,0.5679253935813904,0.5526225566864014
1783201223854475000,3.14247509765625,-0.1419804035374894,1.0346613201513886,3.898592077383399,-0.3242419362068176,0.6838032603263855,0.5965667963027954
1783201223864412200,3.152412109375,0.0532899473672732,0.8880451100394129,3.733900112354755,-0.5526393055915833,0.7935086488723755,0.6619862914085388
1783201223874349000,3.16234912109375,0.186177820649743,0.9213777630597352,3.341502384501696,-0.747138500213623,0.9026196599006652,0.7290473580360413
1783201223884286200,3.1722861328125,0.1652922690093517,1.0098346296697855,2.5798504884958264,-0.8610399961471558,0.9367443919181824,0.767896294593811
1783201223894222800,3.182222900390625,-0.0316850319437682,1.090427923297882,1.8175035959631205,-0.9288206100463868,1.005806803703308,0.7748399376869202
1783201223904160000,3.192159912109375,-0.2233959368012845,1.1962702244728802,1.185685117572546,-0.9604957103729248,1.0647494792938232,0.7505239844322205
1783201223914097200,3.20209716796875,-0.4242344432272016,1.2245558232367038,0.4261141194939613,-0.9269023537635804,1.0572856664657593,0.6855041980743408
1783201223924034000,3.212033935546875,-0.6004125556491315,1.2250649418026207,-0.3236737357169389,-0.8438697457313538,1.0317949056625366,0.595257043838501
1783201223933971200,3.22197119140625,-0.702669984074682,1.1534236009150742,-0.8575929808914661,-0.7456904649734497,1.0086349248886108,0.5140471458435059
1783201223943908000,3.231908203125,-0.7464518426559865,0.9781000594958662,-1.2199421919614075,-0.6807270646095276,0.9705005884170532,0.4316202700138092
1783201223953845000,3.241844970703125,-0.7358994689814746,0.7568515099868178,-1.4455705639898777,-0.6532589793205261,0.9101605415344238,0.3587910830974579
1783201223963782100,3.2517822265625,-0.6747567257545888,0.4347466310217976,-1.6773276480317114,-0.6327182054519653,0.8166285157203674,0.3058672547340393
1783201223973719000,3.261718994140625,-0.5793614381834864,-0.0107043493658304,-1.875372432085872,-0.6257335543632507,0.7456685900688171,0.2973930537700653
1783201223983656200,3.27165625,-0.3305880451500416,-0.3623375206321477,-1.9595289711534976,-0.6571409702301025,0.7104804515838623,0.3277257978916168
1783201223993593000,3.281593017578125,-0.0760051621202379,-0.5465607000827789,-2.008836899679899,-0.7298300862312317,0.6628080606460571,0.3770414292812347
1783201224003530200,3.2915302734375,-0.004002221378684,-0.7711679123699665,-2.236369644024968,-0.7980708479881287,0.5965813398361206,0.4399737417697906
1783201224013467400,3.30146728515625,0.0101550449199974,-0.8654492473497987,-2.683027954375744,-0.8246572017669678,0.4883228242397308,0.488331139087677
1783201224023404000,3.311404052734375,-0.0175526078253984,-0.8372057341620326,-3.1899235835462805,-0.7712962031364441,0.3312053978443146,0.5128374099731445
1783201224033341200,3.321341064453125,-0.1024402376465499,-0.8196300377219915,-3.6131034031540152,-0.6569509506225586,0.1537536233663559,0.5148336887359619
1783201224043278300,3.3312783203125,-0.3107433808647096,-0.891877527809143,-3.6624282828152177,-0.5257724523544312,0.0130886593833565,0.502562940120697
1783201224053215200,3.34121533203125,-0.4848802697826176,-0.9984019660294056,-3.403193409261107,-0.4023314714431762,-0.0782316625118255,0.4832174479961395
1783201224063152400,3.35115234375,-0.5489096743617207,-0.9654843235507606,-3.0537521950811146,-0.2820730805397033,-0.1193050369620323,0.4654431641101837
1783201224073089000,3.361089111328125,-0.5436542380515486,-0.8671727101415395,-2.8370968185812235,-0.1554805189371109,-0.1481864899396896,0.4621637463569641
1783201224083026200,3.371026123046875,-0.3969890742313116,-0.6829010153740644,-2.740381826713681,-0.0318755209445953,-0.1880044043064117,0.4690447747707367
1783201224092963300,3.38096337890625,-0.2936119210608303,-0.456592552126944,-2.5770102966338397,0.0844207257032394,-0.2346885502338409,0.4796846508979797
1783201224102900200,3.390900146484375,-0.2389613893974572,-0.2784925317317247,-2.2973948983520267,0.2000155597925186,-0.2679927349090576,0.5036695599555969
1783201224112837400,3.40083740234375,-0.1504247355494648,-0.1069385719791054,-1.9156758009016512,0.2971948385238647,-0.3134318590164184,0.546032190322876
1783201224122774000,3.41077392578125,-0.07734642066136,0.0890022255331277,-1.4392489597529172,0.3809893131256103,-0.3392648100852966,0.5870343446731567
1783201224132711200,3.420711181640625,-0.0923336349781602,0.3030120559602975,-0.8528864106357097,0.4538030624389648,-0.3500857949256897,0.620206892490387
1783201224142648300,3.4306484375,-0.1959893128290772,0.5317892474085092,-0.2391127075016498,0.5193727612495422,-0.3426786959171295,0.6334595084190369
1783201224152585200,3.440585205078125,-0.3112139940511435,0.7768018266037106,0.3731722183793783,0.5798158645629883,-0.3196559250354767,0.6282288432121277
1783201224162522400,3.4505224609375,-0.3853051392436027,0.934574806024134,1.0318757810860872,0.6091580986976624,-0.2741698324680328,0.6224411129951477
1783201224172459000,3.460458984375,-0.428622156792134,0.9804249953120946,1.8265151699364184,0.5994381308555603,-0.1941780745983123,0.6247572898864746
1783201224182396200,3.470396240234375,-0.4134415387950837,0.9635048401713372,2.6378023267269133,0.5595638155937195,-0.08675567060709,0.6242609620094299
1783201224192333300,3.480333251953125,-0.4114725768096745,0.973617068862915,3.395139282143116,0.5033106803894043,0.0346831418573856,0.612687885761261
1783201224202270200,3.490270263671875,-0.4456593624413013,1.0443763662189245,4.062811748725176,0.4190046191215515,0.2216593921184539,0.58736652135849
1783201224212207400,3.500207275390625,-0.4573515538007021,1.234231414076686,4.644468312108517,0.2732940316200256,0.4550412595272064,0.5427351593971252
1783201224222144000,3.51014404296875,-0.50281961190328,1.448421569506824,4.961807584106922,0.0494373999536037,0.6877942681312561,0.4888434410095215
1783201224232081200,3.5200810546875,-0.4295331341572105,1.635981784425676,4.939799165916442,-0.2635799050331116,0.8609761595726013,0.4312022626399994
1783201224242018300,3.530018310546875,-0.3382666169539093,1.6858973234564063,4.479459536215662,-0.6199020743370056,0.9545551538467408,0.3832581639289856
1783201224251955200,3.539955078125,-0.267660902724415,1.4575924256950616,3.588863864910602,-0.9353167414665222,0.957827627658844,0.3682738840579986
1783201224261892400,3.549892333984375,-0.1088007856544107,1.1311211682140827,2.3587802181631323,-1.175283908843994,0.8871090412139893,0.3926193714141845
1783201224271829200,3.559829345703125,-0.0593063946451991,0.8418529754459857,1.0998428173750638,-1.3379971981048584,0.7717224955558777,0.4249219000339508
1783201224281766100,3.56976611328125,-0.0930111689135432,0.7325792385175823,-0.1725175440877676,-1.388647437095642,0.6015114784240723,0.4363480806350708
1783201224291703300,3.579703369140625,-0.2062437995355576,0.8042728941142558,-1.326165016886592,-1.3334126472473145,0.4112837612628937,0.4101577401161194
1783201224301640200,3.58964013671875,-0.5704076588120311,0.8365361643373965,-2.19742470408082,-1.2080557346343994,0.2386334240436554,0.3450064063072204
1783201224311577300,3.599577392578125,-1.0107780479997397,0.7444651988834142,-2.729499198171496,-1.0818512439727783,0.1211613938212394,0.245044395327568
1783201224321514200,3.60951416015625,-1.2944072119675576,0.6467120961397886,-2.8936265150547027,-1.0000929832458496,0.0512201003730297,0.1264277696609497
1783201224331451100,3.619451171875,-1.2422314729198811,0.5603326203256845,-3.007217822921276,-0.9357473254203796,-0.0086235255002975,0.0110066374763846
1783201224341388300,3.62938818359375,-1.005922789988294,0.4599696273446083,-3.275580590304732,-0.8559979796409607,-0.060929425060749,-0.0814357995986938
1783201224351325200,3.6393251953125,-0.8159888316754251,0.3386144074782728,-3.6644577428162095,-0.7293061017990112,-0.122584544122219,-0.151692122220993
1783201224361262300,3.649262451171875,-0.6432755458198487,0.2268970767900347,-4.084372423148155,-0.5469601154327393,-0.1946054697036743,-0.1986137926578521
1783201224371199200,3.65919921875,-0.6346481488585471,0.128000941491127,-4.313700818738341,-0.3279183208942413,-0.2371185719966888,-0.2423034757375717
1783201224381136100,3.66913623046875,-0.6575486205179244,0.0339247736945748,-4.261813395112752,-0.0888319164514541,-0.2518470883369446,-0.2886238396167755
1783201224391073300,3.6790732421875,-0.6394422512672842,-0.010800210955739,-3.9955268494814633,0.1366419643163681,-0.2361072897911071,-0.3248752951622009
1783201224401010200,3.68901025390625,-0.5481056645024568,-0.0145838211476802,-3.5366935326904057,0.2992440164089203,-0.1825723350048065,-0.3452451825141907
1783201224410947000,3.698947021484375,-0.4105515895072371,-0.0910711407616734,-2.959536618813872,0.4198029339313507,-0.1237300559878349,-0.3507350087165832
1783201224420884200,3.70888427734375,-0.2786911230437457,-0.1499532455801963,-2.502793552300334,0.4980038404464721,-0.068799577653408,-0.3283567130565643
1783201224430821000,3.718821044921875,-0.1057693820692598,-0.0983206734985113,-2.166288976582885,0.542397677898407,-0.0491856597363948,-0.3024233877658844
1783201224440758300,3.72875830078125,-0.0719126321095973,-0.0409837522953748,-1.9245102647423744,0.5612719655036926,-0.084845557808876,-0.2836650609970093
1783201224450695200,3.738695068359375,-0.0690784315969794,0.0495142647534608,-1.676051052224636,0.5558217763900757,-0.1614942699670791,-0.2758702337741852
1783201224460632000,3.748632080078125,-0.0536084021992981,0.1276537354886531,-1.3606658369034528,0.5358684659004211,-0.2451284080743789,-0.2614538371562958
1783201224470569200,3.7585693359375,0.0404704690109938,0.1826613369613886,-0.9706938748925924,0.5061172246932983,-0.3116696178913116,-0.233247235417366
1783201224480506000,3.768506103515625,0.1900594843886792,0.2984951630577445,-0.5346832152843475,0.4589486420154571,-0.3621667325496673,-0.1980723738670349
1783201224490443300,3.778443359375,0.2922021273281425,0.409113300332427,-0.1042921491235494,0.4161739945411682,-0.3991601765155792,-0.1516856998205185
1783201224500380200,3.788380126953125,0.3470264081232249,0.4967924605682492,0.3499585160523653,0.3577430844306946,-0.3940470218658447,-0.1058433875441551
1783201224510317000,3.798317138671875,0.3958822089679539,0.6227864461511373,0.8966063098967075,0.2933691740036011,-0.3673307299613952,-0.0683378279209137
1783201224520254200,3.808254150390625,0.496657582142204,0.7401479202061891,1.3721113600254058,0.2227205485105514,-0.332913339138031,-0.0309969522058963
1783201224530191000,3.818191162109375,0.6145562318138778,0.8245432364657521,1.7861270454466345,0.1397923827171325,-0.2778974771499634,0.0074529694393277
1783201224540128300,3.828128173828125,0.6641931730989367,0.8460042499065399,2.1459476148217917,0.0609774067997932,-0.205600619316101,0.0407723523676395
1783201224550065200,3.838065185546875,0.6624506402805447,0.9139157566159964,2.389029810476303,-0.0115186320617794,-0.1237686052918434,0.0723257511854171
1783201224560002000,3.848001953125,0.5850516857143491,1.0245295099765062,2.433836335930228,-0.0584352687001228,-0.0657783076167106,0.0899980664253234
1783201224569939200,3.857939208984375,0.4996222041014582,1.1352660129338503,2.326094923135638,-0.0833821669220924,-0.0411054529249668,0.0806405171751976
1783201224579876000,3.8678759765625,0.3766522425148635,1.268510408036411,2.218604270231724,-0.1000019013881683,-0.0444594696164131,0.051192719489336
1783201224589813200,3.877813232421875,0.1962072664286941,1.3123089254915714,2.1651778004705906,-0.1142199859023094,-0.0460248738527298,0.0136602576822042
1783201224599750400,3.88775048828125,0.0364464011266827,1.298523268984258,2.2210610157340764,-0.1430256366729736,-0.051038984209299,-0.0386996418237686
1783201224609687000,3.89768701171875,-0.1423398479670286,1.2803688958734274,2.342305468702316,-0.1777897328138351,-0.0379937551915645,-0.1032352223992347
1783201224619624200,3.907624267578125,-0.2004851629436016,1.191003974507749,2.4819395648419857,-0.2249754667282104,0.0280206240713596,-0.1507611721754074
1783201224629561000,3.91756103515625,-0.2416901567742228,1.0533970002815127,2.5378619430720804,-0.2769888639450073,0.114066295325756,-0.196163535118103
1783201224639498200,3.927498291015625,-0.4028529247634113,0.8096373437568545,2.4295196417748928,-0.3311502039432525,0.2067762911319732,-0.2347299009561538
1783201224649436200,3.937436279296875,-0.4944950703460722,0.6007271745562553,2.223727020072937,-0.3942615389823913,0.3159728050231933,-0.2594594955444336
1783201224659373300,3.947373291015625,-0.4400681913707405,0.5043327929452062,1.819674510261416,-0.4447923600673675,0.366601824760437,-0.2852004468441009
1783201224669310200,3.957310302734375,-0.3903836115516721,0.4337009213611483,1.2264695479035377,-0.4745204150676727,0.3805892765522003,-0.3144866824150085
1783201224679247000,3.9672470703125,-0.3799251997709274,0.2641048176780343,0.6839011323273182,-0.4514995217323303,0.4014142155647278,-0.3286859691143036
1783201224689184300,3.977184326171875,-0.4799356529872864,0.064915247502923,0.1985539026200771,-0.391447901725769,0.4416790902614593,-0.3563351631164551
1783201224699121200,3.98712109375,-0.7278133392900228,-0.0778980631947517,-0.2387456277549266,-0.2909488379955292,0.5142917037010193,-0.404125303030014
1783201224709058300,3.997058349609375,-0.9449328992355616,-0.1871001961916685,-0.6349754811167717,-0.1704482436180114,0.6088206171989441,-0.455462783575058
1783201224718995200,4.0069951171875,-0.9919209334470332,-0.2448237786248326,-1.051762969338894,-0.0563102886080741,0.6799169182777405,-0.5052499771118164
1783201224728932000,4.01693212890625,-0.94309413950108,-0.2843979563832283,-1.4770295320928095,0.0360715761780738,0.7095299363136292,-0.5514901876449585
1783201224738869200,4.026869140625,-0.8112970936626196,-0.3767635208696127,-1.887061700835824,0.1166095584630966,0.6898027062416077,-0.5784659385681152
1783201224748806100,4.03680615234375,-0.6332527489773929,-0.5025602303147315,-2.244987834766507,0.1756262779235839,0.635534405708313,-0.5870703458786011
1783201224758743300,4.046743408203125,-0.5007511350661515,-0.6238681039080023,-2.4704724144101142,0.2153884172439575,0.5660603642463684,-0.5903236865997314
1783201224768680200,4.05668017578125,-0.4007610670506954,-0.7438701555997133,-2.569806648865342,0.2335602343082428,0.5193498730659485,-0.564811646938324
1783201224778617000,4.0666171875,-0.200463827894628,-0.781193339560926,-2.6084452993392944,0.2187833040952682,0.4702854752540588,-0.5302602052688599
1783201224788554200,4.07655419921875,-0.0063629591606557,-0.6800581931635737,-2.673025031277537,0.1804425865411758,0.3971049785614013,-0.4949682950973511
1783201224798491100,4.0864912109375,0.1088395832948386,-0.5824719714194536,-2.818028545495868,0.130138948559761,0.3145305812358856,-0.4492014348506927
1783201224808428300,4.09642822265625,0.1737586301900446,-0.578776624032855,-2.993923457062244,0.0904237627983093,0.2137251198291778,-0.402324229478836
1783201224818365200,4.106365234375,0.1676655740119516,-0.5918710834056139,-3.320795112037658,0.0843676179647445,0.0867571160197258,-0.3519887924194336
1783201224828302000,4.116302001953125,0.1806710399270057,-0.5102127908945083,-3.66042980247438,0.1361626386642456,-0.0544583313167095,-0.3084359765052795
1783201224838239200,4.1262392578125,0.1415183024510741,-0.3546706392660737,-3.905234584137797,0.24009570479393,-0.188795119524002,-0.2777565419673919
1783201224848176000,4.136176025390625,-0.049329263575375,-0.2207283250272274,-3.952679641401768,0.3691658079624176,-0.2939010262489319,-0.2652420699596405
1783201224858113300,4.14611328125,-0.2356852172710001,-0.0811214091554284,-3.752665018579364,0.4993930459022522,-0.3739001452922821,-0.2641327977180481
1783201224868050200,4.15605029296875,-0.3219334679208696,0.1082303653553128,-3.3630525375306606,0.6076111197471619,-0.4329072833061218,-0.2734770476818084
1783201224877987000,4.165987060546875,-0.3125355249784887,0.2905073791742324,-2.824378791305423,0.6854502558708191,-0.4728917181491852,-0.275638997554779
1783201224887924200,4.17592431640625,-0.2868628851920366,0.3512684296071529,-2.288043717160821,0.7330902218818665,-0.4912334382534027,-0.2673898339271545
1783201224897861000,4.185861083984375,-0.3213626822955906,0.3515232811510562,-1.7506477357864378,0.748570442199707,-0.5099369883537292,-0.2494088262319564
1783201224907798300,4.19579833984375,-0.3602126374326646,0.3957239496663212,-1.295416242879629,0.736483633518219,-0.5420584678649902,-0.2295062243938446
1783201224917735200,4.205735107421875,-0.3901689458876848,0.52035541472435,-0.8977204086184501,0.7087682485580444,-0.5966669917106628,-0.2254569828510284
1783201224927672000,4.215672119140625,-0.4480446501426398,0.6532943971395492,-0.5221686016261577,0.6649360656738281,-0.6611684560775757,-0.2348398268222808
1783201224937609200,4.225609130859375,-0.5466869568109513,0.7865063512772321,-0.1485609144389629,0.620381772518158,-0.7175529599189758,-0.2525137066841125
1783201224947546400,4.23554638671875,-0.6318997269332408,0.8717243820965289,0.2644716051638126,0.5625954270362854,-0.758847177028656,-0.2817272543907165
1783201224957483300,4.245483154296875,-0.6695680710703135,0.9060282182365657,0.7187684475690126,0.5000313520431519,-0.7825173139572144,-0.3095080256462097
1783201224967420200,4.255420166015625,-0.6843314865685999,0.8770207349389791,1.1882850709378718,0.4386324286460876,-0.7808461785316467,-0.3387916088104248
1783201224977357000,4.265357177734375,-0.7369513891872018,0.8695908771991729,1.6202888329923153,0.3874053955078125,-0.7457143068313599,-0.3699689507484436
1783201224987294000,4.2752939453125,-0.8115087636519223,0.8832432627156376,2.002380855408311,0.3508628010749817,-0.6653537154197693,-0.4054627418518066
1783201224997231000,4.285231201171875,-0.8743599182318895,0.8695373934462666,2.33358907828331,0.3325795233249664,-0.5380547642707825,-0.4369120299816131
1783201225007168000,4.29516796875,-0.8988028700929135,0.8512646546527742,2.528068863332271,0.3244859278202057,-0.4004095792770386,-0.4714013040065765
1783201225017105200,4.305105224609375,-0.8219638144318014,0.8842395802766084,2.6148008058458565,0.3157475888729095,-0.2885717451572418,-0.5074372291564941
1783201225027041800,4.315041748046875,-0.6984387762457132,0.9537266657397152,2.6745237454026936,0.2812692523002624,-0.19313445687294,-0.5371556878089905
1783201225036979000,4.32497900390625,-0.5274180465869606,0.9555559269934892,2.715073782455921,0.226787731051445,-0.1379836648702621,-0.5507604479789734
1783201225046916000,4.334916015625,-0.3053860185500234,0.9272332110896706,2.6678660410791637,0.1406283527612686,-0.1106926649808883,-0.5479087233543396
1783201225056853000,4.34485302734375,-0.095877956521511,1.003695980784297,2.576546186253428,0.0279032289981842,-0.1262339651584625,-0.5507292747497559
1783201225066790100,4.3547900390625,0.0296076411478221,1.0260811233326792,2.4103847331941126,-0.0679844170808792,-0.1398842632770538,-0.5446401834487915
1783201225076727000,4.36472705078125,0.1618012120231985,1.0507286578550934,2.2381629571825266,-0.1539313942193985,-0.1319715678691864,-0.5421470999717712
1783201225086664000,4.374663818359375,0.2250148432400077,1.1087956468984483,2.063158856976032,-0.2105789482593536,-0.1274926662445068,-0.5443122386932373
1783201225096601000,4.38460107421875,0.2813372536383569,1.104184061449766,1.827590105691552,-0.2484095990657806,-0.115578792989254,-0.5485238432884216
1783201225106538000,4.3945380859375,0.3381383143991232,1.0153624531805514,1.625742422223091,-0.2613283097743988,-0.0789797753095626,-0.5511355996131897
1783201225116475100,4.40447509765625,0.3686304102312773,0.9486825340926648,1.3518687824636697,-0.2332669645547866,-0.0409261882305145,-0.5453618764877319
1783201225126412000,4.414412109375,0.4098305086910724,0.9012368923068046,1.015409799453616,-0.2009553611278534,0.0045717880129814,-0.5396536588668823
1783201225136349000,4.424348876953125,0.3736233231477439,0.9252017052620648,0.796952341967821,-0.1879263967275619,0.0504484958946704,-0.5357362031936646
1783201225146286000,4.4342861328125,0.2731162455208599,0.8436571022585034,0.5508218646585941,-0.191508874297142,0.0878885388374328,-0.5309939384460449
1783201225156223000,4.444222900390625,0.2895913603078573,0.8089727423682809,0.3016822686612606,-0.2161372601985931,0.1122304871678352,-0.5392438769340515
1783201225166160100,4.45416015625,0.3657062664128839,0.9603332243978976,-0.009645780223608,-0.2516228258609772,0.0796392560005188,-0.5587238073348999
1783201225176097000,4.464096923828125,0.3364759341448545,0.9161103440508246,-0.4143056082785129,-0.2811886668205261,0.030034240335226,-0.5787039995193481
1783201225186034000,4.474033935546875,0.3832322784923017,0.7408715583056211,-0.7604343369096517,-0.3035615980625152,-0.0421757735311985,-0.583503246307373
1783201225195971000,4.48397119140625,0.5180190807312727,0.7378717919677495,-1.0788561434477566,-0.3333992958068847,-0.1119234859943389,-0.591315507888794
1783201225205908000,4.493907958984375,0.6203665255278349,0.6601593144729733,-1.26518243265748,-0.3764088153839111,-0.1582015007734298,-0.5895999073982239
1783201225215845000,4.50384521484375,0.682403879506886,0.4999518013820052,-1.485363060674071,-0.4164288341999054,-0.2197343707084655,-0.5791301131248474
1783201225225782000,4.513781982421875,0.7027544474877416,0.3560498186647892,-1.8378034566700456,-0.4215168058872223,-0.3011415898799896,-0.5658390522003174
1783201225235719000,4.523718994140625,0.6564924625284969,0.1911801589816808,-2.1713509361475705,-0.3808661699295044,-0.389017105102539,-0.5475590229034424
1783201225245657000,4.533656982421875,0.5183204017654061,0.0727747288316488,-2.3866361933380364,-0.2992706298828125,-0.4391385912895202,-0.5290471315383911
1783201225255594000,4.543593994140625,0.3606842004671692,0.0869771494463086,-2.465759998935461,-0.181689515709877,-0.4576663076877594,-0.5256365537643433
1783201225265531100,4.55353125,0.2227655299432575,0.1953799487590789,-2.425341479307413,-0.0610051751136779,-0.4449984431266784,-0.5383185148239136
1783201225275468000,4.563468017578125,0.1254578328795731,0.2623547591403126,-2.319069554543495,0.0491973683238029,-0.4187723398208618,-0.5549737215042114
1783201225285405000,4.573405029296875,0.0628248510949313,0.3147995243877172,-2.1935925785720345,0.1438916623592376,-0.3996356725692749,-0.5711835622787476
1783201225295342000,4.583342041015625,-0.0068166942775249,0.3290434460565448,-2.0851766275167463,0.2075814455747604,-0.4024021029472351,-0.5882147550582886
1783201225305279000,4.593279052734375,-0.0411431806407868,0.3565893323689699,-1.979752844014764,0.2546549439430237,-0.4290619492530823,-0.6144250631332397
1783201225315216100,4.603216064453125,-0.0557094661317765,0.3680985683768987,-1.8082336633145808,0.2818686068058014,-0.4567340910434723,-0.6437942981719971
1783201225325153000,4.613153076171875,-0.0723603758770972,0.2921156911537051,-1.6151105535715815,0.3115545809268951,-0.4769442975521087,-0.6634058356285095
1783201225335090000,4.62308984375,-0.0909589125588536,0.1974389271154999,-1.3808733431518077,0.3469997942447662,-0.472101628780365,-0.6723217368125916
1783201225345027000,4.633027099609375,-0.0302612827509641,0.1453708862259984,-1.1441571753978728,0.3773611485958099,-0.4743293821811676,-0.6834814548492432
1783201225354964000,4.6429638671875,0.0404952381260693,0.176757665875554,-0.9468085569143296,0.3931302726268768,-0.4816169738769531,-0.6919482350349426
1783201225364901000,4.652901123046875,0.0743765380050986,0.1739268263638019,-0.7352005269318819,0.3961007595062256,-0.4908576011657715,-0.693106472492218
1783201225374838000,4.662838134765625,0.156773300858587,0.171464820164442,-0.5214812038838863,0.3852130472660064,-0.5030996203422546,-0.6967196464538574
1783201225384775000,4.67277490234375,0.2554251060076057,0.2413739304319024,-0.3067781304955482,0.3722125589847564,-0.5266315937042236,-0.695105254650116
1783201225394712000,4.682712158203125,0.3035223435699939,0.3484767530620098,-0.1182137069702148,0.3690745532512665,-0.5492531657218933,-0.6846484541893005
1783201225404649000,4.69264892578125,0.2971358574032783,0.4366676622122526,0.1040671081960201,0.3906256556510925,-0.5473713874816895,-0.669745147228241
1783201225414586000,4.702586181640625,0.2101193988598883,0.5319178422242403,0.389706004551053,0.419082760810852,-0.5104637145996094,-0.6595368981361389
1783201225424522800,4.712522705078125,0.1087367074422538,0.6611082857608794,0.7485890008151531,0.438285231590271,-0.4466799199581146,-0.6799095869064331
1783201225434460000,4.7224599609375,0.0677557316258549,0.7846385115787387,1.0863538057267663,0.435667484998703,-0.3853998184204101,-0.713604211807251
1783201225444397000,4.73239697265625,0.1330269529595971,0.8195134256049991,1.3171779928326606,0.4156178832054138,-0.3748182952404022,-0.7440667748451233
1783201225454334000,4.742333984375,0.2466119772158563,0.7470756736427545,1.4793541756480932,0.3784945905208587,-0.3935989439487457,-0.7544620037078857
1783201225464271000,4.75227099609375,0.3513872336812317,0.6119429805755615,1.6950111887603998,0.3304453194141388,-0.4176401197910309,-0.7332528233528137
1783201225474208000,4.7622080078125,0.4544382967025041,0.4434127525582909,1.9600813443392515,0.2782533466815948,-0.4461631774902344,-0.692094087600708
1783201225484145000,4.772144775390625,0.5049751825019717,0.363420639693737,2.2533739703178406,0.2116213291883468,-0.4509965479373932,-0.6411123871803284
1783201225494082000,4.78208203125,0.494980881101638,0.2986626285791396,2.619651168486476,0.1310172080993652,-0.4272889494895935,-0.5890715718269348
1783201225504019000,4.79201904296875,0.4520151612088084,0.1996189015030861,2.924374704539776,0.0488456413149833,-0.3614449501037597,-0.5442060828208923
1783201225513956000,4.8019560546875,0.3469401911444962,0.1198258183419704,3.1017689147531984,-0.0140678407624363,-0.2652228772640228,-0.5070315599441528
1783201225523893000,4.81189306640625,0.2520971306286752,0.0672819766342639,3.1477684493839737,-0.0467280484735965,-0.125839963555336,-0.4753010869026184
1783201225533830000,4.821829833984375,0.2763372533939778,0.1287491295099258,3.1033173132389784,-0.0717382580041885,0.0313431210815906,-0.4584293961524963
1783201225543767000,4.83176708984375,0.2637048585750162,0.3201166277572512,2.930280713713169,-0.1031915247440338,0.1918076276779174,-0.4666982591152191
1783201225553704000,4.841703857421875,0.2423660102091729,0.4823606151118874,2.7024171299785373,-0.1536246091127395,0.3273758292198181,-0.4841246604919433
1783201225563641000,4.85164111328125,0.1999989868618547,0.5526958418369293,2.374126840376854,-0.2148386985063552,0.4194003045558929,-0.5033673048019409
1783201225573578000,4.861577880859375,0.1757256924793124,0.4988894328474998,1.8411194493502376,-0.2785165309906006,0.4673826396465301,-0.5077311992645264
1783201225583515000,4.871514892578125,0.2348594339713454,0.4648056691989302,1.212652619475126,-0.352342814207077,0.4898993968963623,-0.5078709721565247
1783201225593452000,4.8814521484375,0.384359090565145,0.5338064324498176,0.5411760844349861,-0.4332782328128814,0.447703093290329,-0.5034030675888062
1783201225603389000,4.891388916015625,0.6223525847785174,0.5852209778666496,-0.2068646348476409,-0.5195587873458862,0.3577992916107178,-0.4852272272109985
1783201225613326000,4.901326171875,0.7737619474511593,0.5765174469292164,-0.9301514366239308,-0.5893118381500244,0.2359607815742492,-0.4621150493621826
1783201225623263000,4.911262939453125,0.8319225330621004,0.6184148069381713,-1.659541815972328,-0.6359917521476746,0.0905567035079002,-0.4382888078689575
1783201225633199900,4.921199951171875,0.8088207666769623,0.744303286319971,-2.3345061931282283,-0.6418448686599731,-0.0696862861514091,-0.4349603950977325
1783201225643137000,4.931136962890625,0.7355187991008162,0.8628592308565973,-2.8871646255642176,-0.6172617673873901,-0.2056377381086349,-0.4376246333122253
1783201225653074000,4.941073974609375,0.6420760338369756,0.9563099602311848,-3.324135070115328,-0.5382068157196045,-0.3351764678955078,-0.453072726726532
1783201225663011000,4.951010986328125,0.4446752467747777,1.0150359977051615,-3.659522624501586,-0.4130289554595947,-0.4503083825111389,-0.4863204061985016
1783201225672948000,4.960947998046875,0.2665923967100679,1.13563046233207,-3.851826234555244,-0.2603249549865722,-0.5406619906425476,-0.5389431715011597
1783201225682884900,4.970884765625,0.1497495397016406,1.2885334976285696,-3.733857442256808,-0.1168274506926536,-0.5983758568763733,-0.6006084084510803
1783201225692822000,4.980822021484375,0.1330117553904652,1.3749988981604575,-3.468285182374716,0.0147686433047056,-0.6592528820037842,-0.6702584028244019
1783201225702759000,4.990759033203125,0.2176432184934616,1.3819722443044185,-3.158675627845525,0.1114115640521049,-0.7139177322387695,-0.736591637134552
1783201225712696000,5.000696044921875,0.3712253220953047,1.270352528771758,-2.7278970236718654,0.1795761287212371,-0.7584011554718018,-0.7669160962104797
1783201225722634000,5.010634033203125,0.5903105560906231,1.053025244359672,-2.2847172030866143,0.2252517491579055,-0.8067165017127991,-0.7781102061271667
1783201225732571000,5.02057080078125,0.7756164162114262,0.8976210398972034,-1.8256389716237784,0.2431501299142837,-0.8600018620491028,-0.775954008102417
1783201225742508000,5.030508056640625,0.8890697769120335,0.7960241212069987,-1.3484230259239671,0.2464777529239654,-0.9052401781082152,-0.7738304138183594
1783201225752445000,5.04044482421875,0.9739310301829128,0.7182897241413593,-0.8790998793005943,0.2405706495046615,-0.9262560606002808,-0.7638727426528931
1783201225762382000,5.050382080078125,1.0058912258062511,0.6898740692570805,-0.4405488875597715,0.2496965080499649,-0.9319695830345154,-0.7523218393325806
1783201225772319000,5.060319091796875,0.982263316655159,0.633889439445734,0.0108586631447076,0.2453963607549667,-0.8996158838272095,-0.7351357936859131
1783201225782255900,5.070255859375,0.9852135447628796,0.6127800159215927,0.5000549694955349,0.2377251237630844,-0.8510481119155884,-0.7203355431556702
1783201225792193000,5.080193115234375,0.9589400164738296,0.561266101783514,0.9241057267189026,0.228514015674591,-0.8070531487464905,-0.7105845212936401
1783201225802130000,5.0901298828125,0.7712053217709064,0.4061123649507761,1.2555682166159152,0.2280466258525848,-0.7374642491340637,-0.7028571367263794
1783201225812067000,5.100067138671875,0.5169676354495808,0.2816679468974471,1.6050164450585842,0.2412967085838318,-0.6444054841995239,-0.7097198367118835
1783201225822004000,5.11000390625,0.4158469925016164,0.3148021547362208,1.9129875847309827,0.2643948495388031,-0.5523383617401123,-0.7177034616470337
1783201225831940900,5.11994091796875,0.4001290527574718,0.4253355363368988,2.1742086636662483,0.2831109166145324,-0.4573892951011657,-0.7415990829467773
1783201225841878000,5.1298779296875,0.4125695417335256,0.5284150948002934,2.43817816452682,0.2750487029552459,-0.363673448562622,-0.7677324414253235
1783201225851815000,5.13981494140625,0.4502010975241661,0.5369312864720821,2.7075714440017937,0.2237990051507949,-0.2542387843132019,-0.8062621355056763
1783201225861752000,5.149751953125,0.4549595440976321,0.3632008594632148,2.9610242270231244,0.1082519069314003,-0.1405923962593078,-0.8542981147766113
1783201225871689000,5.15968896484375,0.5486470048375427,0.1319265905022621,2.9489877522706984,-0.0300472415983676,-0.0846106708049774,-0.8774547576904297
1783201225881625900,5.1696259765625,0.8410992344692348,-0.1104310902699828,2.5910657099932437,-0.1484945267438888,-0.0757777690887451,-0.8624411821365356
1783201225891563000,5.17956298828125,1.2039042264826596,-0.2975359626367688,2.167823346543312,-0.243097111582756,-0.1001549214124679,-0.8060668110847473
1783201225901500000,5.1895,1.4836407669261098,-0.3801151693850755,1.835012949168682,-0.2985150814056396,-0.1423172950744629,-0.7226312756538391
1783201225911437000,5.19943701171875,1.5887928938798606,-0.3620996202230453,1.540282399341464,-0.3138891160488128,-0.1639672815799713,-0.6264051198959351
1783201225921374200,5.209374267578125,1.330186381357163,-0.3676841423571109,1.4276146360605957,-0.311192125082016,-0.0940814018249511,-0.5522714853286743
1783201225931310800,5.219310791015625,0.8770039299346506,-0.2103276347830891,1.4474644149124622,-0.2989077568054199,0.0288130920380353,-0.5388279557228088
1783201225941248000,5.229248046875,0.5349608631819486,0.1439551742091774,1.2392641475468873,-0.2890106439590454,0.1605801731348037,-0.5879635810852051
1783201225951185000,5.239184814453125,0.4989822256974875,0.5314052165269851,0.8019903361350298,-0.3053760528564453,0.2647341787815094,-0.6587387323379517
1783201225961122000,5.2491220703125,0.5360311958272009,0.6141910517632961,0.1757178014338016,-0.3296001553535461,0.3221258521080017,-0.7235507965087891
1783201225971059200,5.25905908203125,0.7026547865055501,0.6137456460833549,-0.5473398677617312,-0.3596489131450653,0.3011339604854584,-0.7703940272331238
1783201225980995800,5.268995849609375,0.9507263148799538,0.5132584422007203,-1.2679197486668825,-0.3810692429542541,0.2019005715847015,-0.7860710024833679
1783201225990933500,5.27893359375,1.223797917541489,0.3213566909462213,-1.9138176058143377,-0.4118455946445465,0.0551322251558303,-0.7513399720191956
1783201226000870100,5.2888701171875,1.4644317701958118,0.025063714107871,-2.386221182796359,-0.445539116859436,-0.1349154859781265,-0.6745503544807434
1783201226010807300,5.298807373046875,1.6924625271908935,-0.1687128911077976,-2.7393554062753918,-0.4962602853775024,-0.3246634304523468,-0.5801909565925598
1783201226020744400,5.308744384765625,1.8513526740729809,-0.0823562116473913,-2.894509727630019,-0.5227417349815369,-0.5010201334953308,-0.500014066696167
1783201226030681300,5.318681396484375,1.8975348717942837,0.0518254643052816,-2.936255111947656,-0.5192235112190247,-0.6221776008605957,-0.4303764700889587
1783201226040618500,5.328618408203125,1.710860353668779,0.1205216916516423,-2.804116339999437,-0.4969017207622528,-0.6886117458343506,-0.3840334713459015
1783201226050555100,5.33855517578125,1.3875136579491196,0.1028507181435823,-2.5681331626951693,-0.4318501353263855,-0.7187167406082153,-0.3665589690208435
1783201226060492300,5.3484921875,1.035196596071869,0.0353165203139185,-2.331000815355777,-0.3320172727108001,-0.6987038850784302,-0.3651336431503296
1783201226070429400,5.358429443359375,0.7609852487906813,-0.0345554728135466,-2.0149924997001887,-0.2245604693889618,-0.631771981716156,-0.3752161562442779
1783201226080366300,5.368366455078125,0.6313507878135889,-0.0117193716272711,-1.6323784992367028,-0.1420019418001175,-0.528747022151947,-0.3962836265563965
1783201226090303500,5.378303466796875,0.5886092320654541,0.0715665220856666,-1.3056406997740269,-0.0784806013107299,-0.438281238079071,-0.4254949688911438
1783201226100240100,5.388240234375,0.6545787378616631,0.1610793274894356,-1.0958020175516603,-0.0347914397716522,-0.3622634410858154,-0.456864058971405
1783201226110177300,5.39817724609375,0.8799802423316985,0.2450359600707888,-0.9420657463014124,-0.0200315024703741,-0.3165317177772522,-0.4768485426902771
1783201226120114400,5.408114501953125,1.1841138496678325,0.2806894572541117,-0.8194289621919393,-0.0364272519946098,-0.3225573897361755,-0.4858628213405609
1783201226130051300,5.41805126953125,1.4416902154251932,0.302017199704051,-0.7651864998728036,-0.0696945339441299,-0.3977590203285217,-0.4850430786609649
1783201226139989500,5.427989501953125,1.6783926469147203,0.3697536421075463,-0.7805874826222657,-0.0867464914917945,-0.5358843803405762,-0.4788469672203064
1783201226149926400,5.437926513671875,1.7294572098501029,0.3204170720085501,-0.7926426620751619,-0.0772424712777137,-0.686586320400238,-0.4667953550815582
1783201226159863300,5.44786328125,1.5755466049462556,0.1551204190850257,-0.5233136800080538,-0.0542545914649963,-0.7720412611961365,-0.4544723629951477
1783201226169800200,5.45780029296875,1.3115921555243433,0.0223284439250826,0.0147761288493871,-0.0235611833631992,-0.7836692333221436,-0.4489260911941528
1783201226179737300,5.4677373046875,0.9970225674349814,-0.0732850164413452,0.5997901859670877,0.0085331015288829,-0.7258376479148865,-0.4841615855693817
1783201226189674500,5.477674560546875,0.8354613016474991,-0.0466705657601356,1.093710013708472,0.0493783801794052,-0.6291105151176453,-0.5348689556121826
1783201226199611400,5.487611328125,0.938619916696474,0.0017284312278032,1.4908938067942856,0.1016823276877403,-0.5114243626594543,-0.5725846886634827
1783201226209548300,5.49754833984375,1.2693144178956746,-0.0611447890534996,1.7729069138675928,0.1705060303211212,-0.401473194360733,-0.5850087404251099
1783201226219485200,5.507485107421875,1.5405033486157655,-0.175019590036571,1.9734370849967,0.2394890934228897,-0.2998719811439514,-0.5698617100715637
1783201226229422300,5.51742236328125,1.74033516221717,-0.2701522811487317,2.1745207983553407,0.2883043885231018,-0.2175627946853637,-0.5316283702850342
1783201226239359500,5.527359375,1.781655160729587,-0.3925917891204357,2.397794131690264,0.2943500280380249,-0.1430909633636474,-0.4746087789535522
1783201226249296400,5.53729638671875,1.7032161225259304,-0.4745905656322836,2.6441268535733222,0.2304300367832183,-0.0646172538399696,-0.4119904935359955
1783201226259233300,5.5472333984375,1.5187220171794291,-0.490535738261044,2.82658419239521,0.1015500798821449,-0.0083063133060932,-0.3507620394229889
1783201226269170200,5.557170166015625,1.3742832972370087,-0.4502116189181804,2.725599852645397,-0.0188959073275327,0.0092914402484893,-0.2905646860599518
1783201226279107300,5.567107421875,1.3122101412922142,-0.3774626090496778,2.452766077327728,-0.0930375084280967,0.0296297334134578,-0.232270747423172
1783201226289044500,5.57704443359375,1.1884484448060393,-0.2475187167972326,2.240148578041792,-0.1277718991041183,0.08475311845541,-0.183967113494873
1783201226298981400,5.5869814453125,1.2226100229311734,0.0980862802207469,2.169546517074108,-0.1778928488492965,0.181727334856987,-0.141730710864067
1783201226308918300,5.596918212890625,1.30576520293653,0.5513783294975757,2.133571532851457,-0.2654967010021209,0.2639651894569397,-0.1259448528289795
1783201226318855200,5.606855224609375,1.2909694926038384,0.786096309171617,1.9584271473914383,-0.3950738608837127,0.3477921783924103,-0.1071993932127952
1783201226328792300,5.616792236328125,1.3130661735996605,0.8600915197089314,1.5624159052163362,-0.5192053318023682,0.3797218203544616,-0.0837285071611404
1783201226338729500,5.6267294921875,1.1723991542156784,0.6959115958556532,0.9416296929717064,-0.6020706295967102,0.3643465936183929,-0.0484964847564697
1783201226348666400,5.636666259765625,0.9888968363855034,0.3808765091463923,0.2555120536386966,-0.620387613773346,0.3456220328807831,0.0058447206392884
1783201226358603300,5.646603271484375,0.9106029788061976,0.1792053512886166,-0.3113485071510076,-0.5664314031600952,0.3522514402866363,0.0709776505827903
1783201226368540200,5.6565400390625,0.8906381952725351,0.2403874036125838,-0.8272861054331063,-0.4562141299247741,0.3796175718307495,0.1347605288028717
1783201226378477300,5.666477294921875,0.7984999367360025,0.5577329592213034,-1.2717144647747278,-0.3241314589977264,0.4240129888057709,0.1697115898132324
1783201226388414500,5.67641455078125,0.570576074181497,0.9400735495708882,-1.6290853029102086,-0.2085605412721634,0.4460667073726654,0.1543182134628296
1783201226398351400,5.686351318359375,0.2202479210991412,1.2846081408783794,-1.8505255755990744,-0.1269658058881759,0.4196766316890716,0.06806081533432
1783201226408288300,5.696288330078125,-0.135036703613121,1.3504498555764557,-1.9683605123847725,-0.0810851976275444,0.3528166711330414,-0.0410320684313774
1783201226418225400,5.706225341796875,-0.3277173850845545,1.2293626389965415,-1.9976187555730345,-0.0608089454472065,0.2448822259902954,-0.1773962974548339
1783201226428162300,5.716162353515625,-0.5213988593626767,0.8820647204555571,-1.8965595970213407,-0.0604433454573154,0.1653911471366882,-0.3073553442955017
1783201226438099500,5.726099365234375,-0.4117409088896587,0.5437890434123576,-1.6538345442414282,-0.0815244019031524,0.1090210825204849,-0.3950452506542206
1783201226448036400,5.736036376953125,-0.1075233495971187,0.2557886786229908,-1.5399527289956807,-0.0984661057591438,0.0515283420681953,-0.4499014914035797
1783201226457973200,5.74597314453125,0.1135093286715447,-0.0958892085678875,-1.420496913009882,-0.1078739911317825,0.0167914014309644,-0.4809345006942749
1783201226467910400,5.755910400390625,0.2801188177593052,-0.4428890209451318,-1.2798872498363256,-0.1180166602134704,0.0117892688140273,-0.477224588394165
1783201226477847300,5.765847412109375,0.6343408364750445,-0.7143404019936919,-1.1587719762057065,-0.1321862787008285,0.0114454543218016,-0.4236343204975128
1783201226487784400,5.775784423828125,0.9071543727222828,-0.918222806160152,-1.2286790406465529,-0.1282046735286712,-0.0323710553348064,-0.3561732172966003
1783201226497721300,5.785721435546875,0.9061902769304812,-1.2219758897460995,-1.3319716573387383,-0.0865019708871841,-0.0565275251865386,-0.2770557701587677
1783201226507658200,5.795658203125,0.8716278629194945,-1.3721573911242186,-1.3391075005680322,-0.0019096434116363,-0.0673365667462349,-0.1992827206850052
1783201226517595400,5.805595458984375,0.7710214896366,-1.3983837192706765,-1.293273385632038,0.1160777136683464,-0.0647937804460525,-0.1480621546506881
1783201226527532300,5.8155322265625,0.6604417116109281,-1.332716338226199,-1.1735124492198228,0.2370883375406265,-0.0246665328741073,-0.1025691851973533
1783201226537469400,5.825469482421875,0.5836619849216192,-1.1979413725554942,-0.8751029186189174,0.3405899405479431,0.0264251492917537,-0.0559888966381549
1783201226547406300,5.83540625,0.473183256117627,-1.1442027681052684,-0.7030220123827458,0.4354346990585327,0.0420477502048015,-0.0187540706247091
1783201226557343200,5.84534326171875,0.418632604632154,-1.1093284386008977,-0.5403811346650124,0.5040457248687744,0.0241454467177391,0.0114925149828195
1783201226567280400,5.8552802734375,0.3722564187087118,-1.1326492545641955,-0.2631459095180034,0.5442684888839722,-0.0286850929260253,0.038431566208601
1783201226577217300,5.86521728515625,0.3758569274187088,-1.2326048357881605,0.018293781581521,0.5890029668807983,-0.0760179832577705,0.0822347030043602
1783201226587154400,5.875154541015625,0.4205227292276918,-1.2768459824442864,0.3806915079683065,0.6293302178382874,-0.0962715074419975,0.1493948400020599
1783201226597091300,5.88509130859375,0.4875957027537748,-1.2579859452821314,0.8620172270745039,0.6641140580177307,-0.0935162007808685,0.2314918488264084
1783201226607028200,5.8950283203125,0.5254554412771016,-1.182359188020229,1.3196359073787929,0.6884405016899109,-0.0620935074985027,0.3344743847846985
1783201226616965400,5.90496533203125,0.5812648606520145,-1.0945876733258366,1.837448067361116,0.6637871265411377,0.0180940069258213,0.4593039453029632
1783201226626902300,5.91490234375,0.6543824846372008,-0.8976482201650738,2.4210142637580634,0.5553759336471558,0.1147144883871078,0.5941124558448792
1783201226636839400,5.92483935546875,0.6256172856628894,-0.7523425081297754,2.8757413142740726,0.3748378455638885,0.2145111262798309,0.6888687610626221
1783201226646776300,5.9347763671875,0.3934911491129547,-0.7551385685890912,3.104367699074745,0.1581985652446746,0.321267694234848,0.7429990768432617
1783201226656713200,5.944713134765625,0.1669330950189381,-0.7211731706231832,2.968264699670672,-0.024298008531332,0.3833989799022674,0.7577700018882751
1783201226666650400,5.954650390625,0.0712699137592688,-0.6154194245144724,2.490102997553348,-0.1545862108469009,0.395382672548294,0.7332891821861267
1783201226676587300,5.964587158203125,0.0050530090732499,-0.5501043640390039,1.9983768804639577,-0.2453291565179824,0.4137760698795318,0.6928605437278748
1783201226686524400,5.9745244140625,-0.0327640593521297,-0.5216942621126771,1.55422090832293,-0.2830387651920318,0.4256450831890106,0.6678609848022461
1783201226696461300,5.98446142578125,0.1603751978080719,-0.5688479352146387,1.0248054043084385,-0.2883773446083069,0.3766772747039795,0.6699020266532898
1783201226706398200,5.994398193359375,0.6513506426606327,-0.7105383793622255,0.3793541218847036,-0.2833328247070312,0.2472277581691742,0.7324995398521423
1783201226716335400,6.00433544921875,1.0788844927594066,-0.9324608826100824,-0.0712409433931112,-0.3154345452785492,0.1251612305641174,0.8503350615501404
1783201226726272300,6.014272216796875,1.239688948830217,-1.1085264745682477,-0.1833680239260196,-0.3933252692222595,0.0216583404690027,0.9859283566474916
1783201226736209400,6.02420947265625,1.2758091867424546,-1.1003817465573549,-0.2043552823752164,-0.4731716215610504,-0.0037431567907333,1.1031534671783447
1783201226746146600,6.034146484375,1.276628248040378,-0.902567556388676,-0.3409001803278922,-0.5326322913169861,-0.0015981332398951,1.1882034540176392
1783201226756083200,6.044083251953125,1.2603119040116666,-0.7237851066872477,-0.6644879913270473,-0.5565195083618164,0.0334623828530311,1.2682697772979736
1783201226766020400,6.054020263671875,1.2532555557593703,-0.7883623544074595,-1.0325783763974905,-0.55555659532547,0.1037651896476745,1.3721507787704468
1783201226775957200,6.063957275390625,1.2008737727455794,-0.9281910963363944,-1.4343302080512046,-0.5609247088432312,0.1759038269519806,1.462305188179016
1783201226785894400,6.073894287109375,1.0922746471431106,-0.8953703383609652,-1.9493495224446056,-0.5639358758926392,0.1698252856731414,1.5370221138000488
1783201226795831600,6.08383154296875,1.0623302483215928,-0.7674011071823537,-2.519557055574656,-0.5839971899986267,0.085891768336296,1.5900776386260986
1783201226805768200,6.093768310546875,1.045108187624812,-0.5895369413696229,-3.0627380500912667,-0.603664219379425,-0.069774642586708,1.6042686700820925
1783201226815705300,6.103705322265625,0.9374975616030394,-0.4844245619043708,-3.50893517267108,-0.5747973918914795,-0.2510810494422912,1.6169042587280271
1783201226825642200,6.113642333984375,0.8562572022430598,-0.4801563830658793,-3.858665140664577,-0.465467244386673,-0.4403148591518402,1.6169216632843018
1783201226835579400,6.123579345703125,0.6933171954482793,-0.4273081515841185,-4.004874523541331,-0.2750999629497528,-0.571503221988678,1.6059163808822632
1783201226845516500,6.1335166015625,0.540766772981733,-0.2823324021555483,-3.8239153143227096,-0.0470674857497215,-0.618217408657074,1.573440432548523
1783201226855453200,6.143453125,0.4267053633853793,-0.0997452994741499,-3.338399742311239,0.1911442726850509,-0.5649752616882324,1.5334804058074951
1783201226865390300,6.153390380859375,0.340174350271374,-0.0323375045031309,-2.614151402026415,0.417973518371582,-0.4431581795215606,1.5031325817108154
1783201226875327200,6.1633271484375,0.3672550302248448,-0.0297761295825242,-1.8614421064108608,0.6207455396652222,-0.256374716758728,1.4946115016937256
1783201226885263400,6.173263427734375,0.4493183964055031,-0.0339848333187401,-1.2113035429537296,0.7898674011230469,-0.0535972118377685,1.5113447904586792
1783201226895200300,6.1832001953125,0.5624925748385489,-0.1144808040522038,-0.6442179412364959,0.9039292335510254,0.1248998269438743,1.539462685585022
1783201226905137400,6.193137451171875,0.6952788509100675,-0.2048395587608218,-0.2514104635387659,0.9801962971687316,0.2322254031896591,1.5812746286392212
1783201226915074300,6.20307421875,0.7436390502575785,-0.2623459913119673,0.0340840559095144,1.0076196193695068,0.2880700230598449,1.627909541130066
1783201226925011500,6.213011474609375,0.7016793656021356,-0.2452113166376948,0.3400847722917795,0.9890503883361816,0.2782356739044189,1.6662544012069702
1783201226934948400,6.2229482421875,0.6478958260316401,-0.1714268262416124,0.6395066948056221,0.932687282562256,0.2119596898555755,1.697588324546814
1783201226944885200,6.23288525390625,0.5590706375658512,-0.0690396339565515,0.9536936402529478,0.8521971702575684,0.1233001947402954,1.7205208539962769
1783201226954822400,6.242822509765625,0.3905679551426321,0.0222369662493467,1.332203712528944,0.7860589027404785,0.0379986092448234,1.7300448417663574
1783201226964759300,6.25275927734375,0.1794835837081074,0.1020470005452632,1.7647592632472513,0.7678753137588501,-0.029266970232129,1.714824676513672
1783201226974696400,6.262696533203125,-0.0333958909822627,0.2071250393494963,2.2110417260229585,0.809051513671875,-0.045837428420782,1.6750032901763916
1783201226984632800,6.2726328125,-0.1361628398325294,0.3782955527424812,2.7799171337664124,0.8812776803970337,0.0414782017469406,1.6413146257400513
1783201226994569700,6.28256982421875,-0.1684795207433402,0.567187308526039,3.433779686182737,0.942150354385376,0.2132893800735473,1.6111479997634888
1783201227004506600,6.292506591796875,-0.2793849505268037,0.6619786388546228,4.128082385537028,0.9198180437088012,0.4793733954429626,1.5498569011688232
1783201227014443500,6.302443603515625,-0.4126324143692851,0.7561340093672275,4.672800672623515,0.8191990256309509,0.7952706217765808,1.5104438066482544
1783201227024380700,6.312380615234375,-0.2812628732278943,1.0019494293779134,4.846819268923998,0.6026691198348999,1.0989617109298706,1.4855358600616455
1783201227034317800,6.32231787109375,-0.1145166060179471,1.243992345112562,4.663253092077374,0.2999574542045593,1.2836834192276,1.4672132730484009
1783201227044254700,6.332254638671875,0.0194219088286161,1.3065022850394248,4.01761476264894,-0.03922650963068,1.3413548469543457,1.4706937074661257
1783201227054191600,6.342191650390625,0.2702913973584771,1.2551093669325113,2.966967061075568,-0.3469140231609344,1.280962586402893,1.491252303123474
1783201227064128500,6.35212841796875,0.374457910808362,1.226728198839724,1.7519330994218587,-0.5484064817428589,1.1284658908843994,1.51088547706604
1783201227074065700,6.362065673828125,0.286850902493298,1.2204998258441686,0.6653846479058265,-0.6305945515632629,0.9491143822669984,1.5073373317718506
1783201227084002800,6.3720029296875,0.0399186072818934,1.1834902378767729,-0.1220546003073453,-0.593022882938385,0.8090556263923645,1.4640675783157349
1783201227093939700,6.381939697265625,-0.2240616889673285,1.158623799906671,-0.539363482055068,-0.4623271524906158,0.7584457397460938,1.388822078704834
1783201227103876600,6.391876708984375,-0.3421238769039511,1.1235139080807566,-0.7367752289026975,-0.2826593518257141,0.7923887968063354,1.2922673225402832
1783201227113813800,6.401813720703125,-0.3073835490427911,0.9972235698997974,-0.8547656485110521,-0.1117880120873451,0.8785697817802429,1.2151637077331543
1783201227123750700,6.411750732421875,-0.1104028870888054,0.7446955005079507,-0.9550006311982868,0.0059624039568006,0.958875834941864,1.178821086883545
1783201227133687800,6.421687744140625,0.1785116699360311,0.4806640403270721,-1.1383861907809971,0.0533871762454509,0.9630047678947448,1.1829463243484497
1783201227143624700,6.431624755859375,0.4315943044707179,0.2837751483097672,-1.3891057494461536,0.039211168885231,0.8751861453056335,1.2047919034957886
1783201227153560600,6.441560546875,0.536455777914822,0.1559805430456995,-1.5878665728151795,0.0148088922724127,0.7377254962921143,1.2179700136184692
1783201227163497700,6.451497802734375,0.4552328080810606,0.0424479796290397,-1.6525924352258443,-0.0005588736385107,0.6099353432655334,1.2197436094284058
1783201227173434600,6.4614345703125,0.243594967482239,-0.0787216545373201,-1.5704390526741745,-0.009132120758295,0.5160652995109558,1.206650972366333
1783201227183371800,6.471371826171875,0.1089556108899414,-0.1526215880066156,-1.413659760466218,-0.0256750546395778,0.4898084104061126,1.201404333114624
1783201227193308700,6.48130859375,0.2201378117881715,-0.146764678671956,-1.2494015106797218,-0.073962427675724,0.5001752972602844,1.2278521060943604
1783201227203245600,6.49124560546875,0.3345828138746321,-0.1664183504298329,-1.2789905932575465,-0.1283622980117797,0.4893362820148468,1.2704071998596191
1783201227213182700,6.5011826171875,0.3180596952274441,-0.2033922825619578,-1.5530582942843436,-0.1576301753520965,0.4586955606937408,1.30597186088562
1783201227223119600,6.51111962890625,0.2403210603781044,-0.0856365484923124,-1.858583209848404,-0.132979154586792,0.4092572927474975,1.30919086933136
1783201227233056800,6.521056884765625,-0.0005994271978735,0.0082604633450508,-2.146498818963766,-0.049059472978115,0.3627667427062988,1.2794703245162964
1783201227242993700,6.53099365234375,-0.1961791363127529,0.0610059651046991,-2.325824874022603,0.0980882495641708,0.3203422427177429,1.223767876625061
1783201227252930600,6.5409306640625,-0.2960455779485404,0.0559168252721428,-2.37467512190938,0.277080625295639,0.2837181985378265,1.173395752906799
1783201227262867700,6.55086767578125,-0.306890358698368,-0.0020014029502868,-2.1117390557497737,0.4106025099754333,0.2819935083389282,1.1514910459518433
1783201227272804900,6.560804931640625,-0.1700971850730478,-0.0301294730648398,-1.6173042642235755,0.4784031212329864,0.2697269916534424,1.1494261026382446
1783201227282741800,6.57074169921875,-0.1017806046940386,-0.032654315367341,-1.1161311043530702,0.4934694766998291,0.2420537173748016,1.1622052192687988
1783201227292678700,6.5806787109375,-0.142370827627182,0.0178621121659874,-0.5940338143974542,0.4804088175296783,0.2272518724203109,1.156444787979126
1783201227302615600,6.590615478515625,-0.2252811660259961,0.0790785051509738,-0.1318722299665212,0.4580399692058563,0.2238750159740448,1.149735689163208
1783201227312552700,6.600552734375,-0.2273551958210766,0.1805783932074904,0.2691618088066578,0.4093352854251861,0.2262452244758606,1.1530089378356934
1783201227322489900,6.61048974609375,-0.2701237857066095,0.3441685344740748,0.6136947926789522,0.3576166033744812,0.2001000791788101,1.1436622142791748
1783201227332425500,6.620425537109375,-0.3938663391008973,0.4808104630604386,0.8932347876369953,0.3224828541278839,0.1678976714611053,1.1251652240753174
1783201227342362600,6.630362548828125,-0.5106697408817709,0.604545563800633,1.2180635386079548,0.3108565211296081,0.1470198184251785,1.0976642370224
1783201227352299800,6.6402998046875,-0.7229759822614491,0.6685065793186425,1.5998422572910784,0.315350592136383,0.1431832760572433,1.0415441989898682
1783201227362236700,6.650236572265625,-0.9691576052360236,0.729694915252924,2.0161130281627178,0.340964674949646,0.1785456240177154,0.9768018126487732
1783201227372173800,6.660173828125,-1.0462870221458376,0.6432385748103261,2.438165305045247,0.3900307416915893,0.2552401423454284,0.9227806329727172
1783201227382110700,6.67011083984375,-0.8187266591414809,0.5430383711755276,2.9032635274499654,0.3950538337230682,0.3848490118980407,0.9149799346923828
1783201227392047600,6.680047607421875,-0.298296425615251,0.4398319714620709,3.462787169480324,0.3042512238025665,0.5577443242073059,0.969512403011322
1783201227401984800,6.68998486328125,0.0767760734274983,0.3165463680550456,3.767420689162612,0.1408194452524185,0.7153515815734863,1.0807501077651978
1783201227411921700,6.699921630859375,0.3569963057346642,0.2616512870460749,3.8209173015505074,-0.108447641134262,0.8949333429336548,1.2246122360229492
1783201227421858800,6.70985888671875,0.1908456663303077,0.4130994473591446,3.7184272334128616,-0.375018835067749,1.043704628944397,1.322409987449646
1783201227431795700,6.719795654296875,-0.1731532116428017,0.7442030408158898,3.0977351291924715,-0.6140082478523254,1.1004537343978882,1.3413327932357788
1783201227441732600,6.729732666015625,-0.5350361203752457,1.2239385681211947,2.106359700798988,-0.7181450724601746,1.0487433671951294,1.268062949180603
1783201227451669800,6.739669677734375,-0.9573600538060067,1.481256794399023,0.9607096564948558,-0.7654449343681335,1.0011849403381348,1.1342277526855469
1783201227461606700,6.749606689453125,-1.2901324572578072,1.449478969605267,0.2469809566587209,-0.7531036138534546,0.9529284238815308,0.9813424944877625
1783201227471542500,6.75954248046875,-1.4354492752090096,1.256161506333947,-0.5172714772343635,-0.6456629037857056,0.8772286176681519,0.8198542594909668
1783201227481479700,6.769479736328125,-1.3330547764003275,0.9375453462675212,-1.197292553257942,-0.4898175001144409,0.8254769444465637,0.7061077952384949
1783201227491416600,6.77941650390625,-0.942573988084495,0.6518237400650978,-1.4255927748441697,-0.4047060310840606,0.8313795924186707,0.6651193499565125
1783201227501353700,6.789353759765625,-0.5450234075129032,0.5267997685581446,-1.3995552472680806,-0.4068993031978607,0.7921047210693359,0.668242871761322
1783201227511291000,6.799290771484375,-0.4078014140162617,0.3079831223711371,-1.5316121861517429,-0.4500017762184143,0.7426543831825256,0.7091817855834961
1783201227521227500,6.8092275390625,-0.2982119622021913,0.2115536694467067,-1.7175164505571126,-0.5085579752922058,0.6915345788002014,0.7586311101913452
1783201227531164700,6.81916455078125,-0.3460477358167991,0.2347363921135664,-2.0132675756037237,-0.5212796330451965,0.6175463795661926,0.7947283983230591
1783201227541101600,6.8291015625,-0.4555769453436136,0.1295835345074534,-2.389045008045435,-0.4786284267902374,0.549312949180603,0.8250541687011719
1783201227551038700,6.839038818359375,-0.6720649293873459,3.03951382637e-05,-2.672309576484561,-0.3601470589637756,0.4809285700321197,0.833123505115509
1783201227560976000,6.848975830078125,-0.8714202115181833,-0.0231608030959963,-2.867667313411832,-0.1778554320335388,0.4085280299186706,0.8158408403396606
1783201227570912500,6.85891259765625,-1.0814251902181655,-0.0359270534276962,-2.8480303005278107,0.0476397350430488,0.3618433475494385,0.7995268702507019
1783201227580849700,6.868849609375,-1.2450979682669043,0.0237055774971842,-2.5647949581831693,0.2869343161582947,0.3470074236392975,0.7643529176712036
1783201227590786800,6.878786865234375,-1.3126087852209805,0.1728080514669418,-2.062294349101186,0.4898983538150787,0.3823672831058502,0.6636263132095337
1783201227600722700,6.88872265625,-1.5079894646324217,0.1129313826531171,-1.38204414049685,0.6420880556106567,0.4967136979103088,0.5267081260681152
1783201227610659600,6.89865966796875,-1.371028825485706,-0.0130976742431521,-0.6681319007873535,0.642292320728302,0.7428768277168274,0.4416574239730835
1783201227620596700,6.9085966796875,-0.580043356033042,0.2432715807467698,0.0069026189953088,0.4227993488311767,0.9426451325416564,0.4246510565280914
1783201227630533600,6.91853369140625,0.0515226089011877,0.3573004032477736,0.0760217479288578,0.090171605348587,0.9764156341552734,0.4433752000331878
1783201227640470800,6.928470703125,0.3824071527797728,0.0913072876051068,-0.4936363346248865,-0.2769761979579925,0.8277265429496765,0.5004035234451294
1783201227650407700,6.93840771484375,0.6327694224398582,0.0216349087029695,-1.3078192128568886,-0.6019873023033142,0.5140935182571411,0.5303279161453247
1783201227660344600,6.948344482421875,0.6033825844358652,0.0448845591261982,-2.0026871448785064,-0.8453022837638855,0.1496435552835464,0.5251102447509766
1783201227670281700,6.95828173828125,0.4771666266653686,-0.0447974653646349,-2.277704109454155,-1.0160870552062988,-0.1843911558389663,0.5065752267837524
1783201227680218600,6.968218505859375,0.3425644602783024,-0.2497860772073268,-2.271258586576581,-1.1139382123947144,-0.4611898958683014,0.472205102443695
1783201227690155800,6.97815576171875,0.2040548381239175,-0.506640193104744,-2.12144387268424,-1.1112133264541626,-0.6326503157615662,0.4457380771636963
1783201227700092700,6.9880927734375,0.1676492073990404,-0.7339169168621301,-1.896305914521217,-1.0209327936172483,-0.7095099091529846,0.4199098944664001
1783201227710029600,6.998029541015625,0.1457040637031197,-0.816755066807568,-1.6021435199707743,-0.8272256255149841,-0.6762095093727112,0.4014581739902496
1783201227719965700,7.007965576171875,0.0918535963762551,-0.8663988031595945,-1.386523916259408,-0.5461190342903137,-0.5952126383781433,0.3763123750686645
1783201227729902800,7.01790283203125,0.082451415650174,-0.8363749824263155,-1.1930857492178677,-0.1829842329025268,-0.5045511722564697,0.3777946829795837
1783201227739839700,7.02783984375,0.0957009925194084,-0.7958300599396229,-0.842358002358675,0.246587872505188,-0.4156222641468048,0.4199438691139221
1783201227749776600,7.037776611328125,0.077170004648529,-0.7776604892596602,-0.2700023512840271,0.6711642146110535,-0.2386440485715866,0.4769855737686157
1783201227759713500,7.047713623046875,0.0314727774325758,-0.6371005104467272,0.5642530086398124,1.0014572143554688,0.0297425463795661,0.4891733527183532
1783201227769650700,7.057650634765625,0.0098152915716171,-0.3168944508403539,1.4705261415481568,1.214423894882202,0.2885248363018036,0.5076524615287781
1783201227779587800,7.067587890625,0.1216014497123658,0.0313587225988507,2.267234153366089,1.294348120689392,0.505955696105957,0.5357827544212341
1783201227789524700,7.077524658203125,0.143386653606221,0.1429614869967103,2.862301402464509,1.267008900642395,0.660698652267456,0.5775467157363892
1783201227799461600,7.087461669921875,0.1461672242354601,0.2444075990393757,3.255302356907725,1.1389856338500977,0.797505795955658,0.65678870677948
1783201227809398500,7.0973984375,0.3469455249067396,0.4570616309434175,3.447038396206498,0.9192937016487122,0.8556684255599976,0.7581979036331177
1783201227819334700,7.107334716796875,0.3486187918812036,0.5888260166212916,3.4090959113031625,0.6423165202140808,0.8201670050621033,0.8368445038795471
1783201227829271800,7.117271728515625,0.0459362601362168,0.7181660977616906,3.2077900796264407,0.373128205537796,0.7399901747703552,0.870244562625885
1783201227839208700,7.127208740234375,-0.2294518027741461,0.8960787788912653,2.8672476266950366,0.1409094780683517,0.6552844643592834,0.8632810711860657
1783201227849145600,7.1371455078125,-0.3606076280996203,1.098667636115849,2.5212480774015185,-0.0567458197474479,0.5951369404792786,0.8384212851524353
1783201227859082800,7.147082763671875,-0.479804866214469,1.2995266008079052,2.186965853908658,-0.1999156326055526,0.5514945983886719,0.7860779166221619
1783201227869019600,7.15701953125,-0.6728644822672009,1.3912038907691835,1.908604255080223,-0.2869328260421753,0.5755887031555176,0.7110475897789001
1783201227878956800,7.166956787109375,-0.7714189645215869,1.4858303859248756,1.7424030545324083,-0.3629344701766968,0.6642588376998901,0.6308220624923706
1783201227888893700,7.176893798828125,-0.6915873029157519,1.635595415456593,1.5856407134592532,-0.4323606789112091,0.7403285503387451,0.5535701513290405
1783201227898830600,7.18683056640625,-0.5341765078712254,1.6212892422065135,1.1788900506049391,-0.5003567337989807,0.7803454399108887,0.5026017427444458
1783201227908767700,7.196767822265625,-0.36564598759301,1.5495537932947276,0.7036153021007776,-0.5804380178451538,0.7529422640800476,0.4752747714519501
1783201227918703900,7.206703857421875,-0.2070283740419894,1.3746680587708948,0.2135714390099048,-0.6351475119590759,0.6698236465454102,0.4714621603488922
1783201227928640500,7.216640625,-0.0235465875431895,1.1474620621621607,-0.265168355256319,-0.6511600613594055,0.5617280602455139,0.4913471639156341
1783201227938577700,7.22657763671875,-0.0592238309282809,0.9807558347016572,-0.5405214199185371,-0.6327943205833435,0.4886311590671539,0.4930758774280548
1783201227948514800,7.236514892578125,-0.2200003030136227,0.7805167554736137,-0.5913555350989103,-0.5775683522224426,0.4665977656841278,0.4817465245723724
1783201227958451700,7.24645166015625,-0.2984079231657087,0.5645829712465406,-0.4863362407445907,-0.4949952363967895,0.5003100633621216,0.4742900133132934
1783201227968388900,7.256388916015625,-0.2135641324862837,0.3449447795435786,-0.3262789497792721,-0.408728539943695,0.5990414023399353,0.4895837306976318
1783201227978325500,7.266325439453125,0.1436949158377945,0.12943126655519,-0.193856100192666,-0.3831658363342285,0.7465301156044006,0.5306702852249146
1783201227988264200,7.27626416015625,0.5379992079645395,0.0922653189823031,-0.138879478380084,-0.4149296283721924,0.853861927986145,0.5828953981399536
1783201227998201000,7.286201171875,0.7167980242788792,0.0529629439026117,-0.423201446917653,-0.4851692914962768,0.9286675453186036,0.6434797048568726
1783201228008137000,7.296136962890625,0.7305082774624228,0.0600952800005674,-0.9995230790138244,-0.5643839836120605,0.9254823923110962,0.7104113698005676
1783201228018074000,7.30607421875,0.6281006269112229,0.2816621016785502,-1.8457897792488336,-0.6015096306800842,0.8086291551589966,0.7271307110786438
1783201228028011000,7.316010986328125,0.2461309157006442,0.4751183888986706,-2.7924709103912115,-0.5636123418807983,0.6204603314399719,0.6932507753372192
1783201228037948200,7.3259482421875,-0.3075482380852103,0.6104089028760791,-3.4647722058176997,-0.454383373260498,0.4240227043628692,0.5977945327758789
1783201228047885000,7.335885009765625,-0.7503015038214623,0.7343500475823879,-3.843910639125109,-0.2686257362365722,0.2521068751811981,0.4708555340766907
1783201228057822000,7.345822021484375,-0.9994361313827336,0.7825783641785383,-3.94126159080863,-0.0277848094701766,0.1518563479185104,0.3320692777633667
1783201228067759000,7.355759033203125,-1.0788359774425624,0.6639426324039698,-3.708469318500161,0.2350233793258667,0.1345473974943161,0.2178247272968292
1783201228077696000,7.365696044921875,-0.9256208074569702,0.4446849644511937,-3.26870310575068,0.4463074803352356,0.1625624150037765,0.1523353308439254
1783201228087632100,7.375632080078125,-0.5574309075348078,0.3413420788764953,-2.7241666049718853,0.575908899307251,0.1907759457826614,0.1332015842199325
1783201228097569000,7.385569091796875,-0.2257809322416782,0.2367255201041698,-2.1900386854827403,0.6292808055877686,0.2231215685606002,0.1483611613512039
1783201228107506000,7.395505859375,0.0536909659162163,0.2346545590490102,-1.79001411601305,0.6185948848724365,0.2363516241312027,0.1905954331159591
1783201228117443000,7.405443115234375,0.2049136469103396,0.334276086013019,-1.5671207219064234,0.5639859437942505,0.1989272832870483,0.2273947298526764
1783201228127380200,7.415380126953125,0.1222375556588172,0.4015291288137436,-1.455640707105398,0.4890525937080383,0.1272102147340774,0.2402234524488449
1783201228137317000,7.425317138671875,-0.1319952718243003,0.3950765916734933,-1.3857389033615588,0.408809095621109,0.0207621380686759,0.22140733897686
1783201228147254000,7.43525390625,-0.4242158846572041,0.3733995973944664,-1.3413602479308844,0.3243365585803985,-0.1088544428348541,0.1871470957994461
1783201228157191000,7.44519091796875,-0.6358734528698027,0.3131622785747051,-1.24806178650856,0.2516907751560211,-0.2389787882566452,0.1399127840995788
1783201228167128000,7.455128173828125,-0.7248679334878921,0.2543555770799517,-1.0704600710242986,0.188991442322731,-0.3540838062763214,0.0966089814901351
1783201228177064200,7.465064208984375,-0.6927005248546599,0.1855564738810062,-0.7984685917496681,0.1514963656663894,-0.4445488452911377,0.0657748728990554
1783201228187001000,7.4750009765625,-0.591381107931584,0.0983288568049669,-0.5617851572215556,0.1327405124902725,-0.5089653134346008,0.0531805194914341
1783201228196938000,7.48493798828125,-0.4356757285654544,0.0332920287489891,-0.2597761408239603,0.1354663223028183,-0.5318430662155151,0.0740755945444107
1783201228206875100,7.494875244140625,-0.2545738960057497,-0.1219336042761802,0.1034247186392545,0.1520738005638122,-0.5248064994812012,0.1211664080619812
1783201228216812000,7.50481201171875,-0.0349625923097133,-0.1514732947543263,0.4555658394277095,0.1778864711523056,-0.4842688739299774,0.1921968013048172
1783201228226749200,7.514749267578125,0.0600282061137259,-0.1738292112082242,0.7881208007365464,0.2084984481334686,-0.4222851395606994,0.2496960461139679
1783201228236686000,7.52468603515625,-0.0228092131793498,-0.1143608309343457,1.1010428408145905,0.230764552950859,-0.3708114922046661,0.2973814606666565
1783201228246623000,7.534623046875,-0.1984567258559167,0.0492173276335001,1.4174971466720103,0.2225550860166549,-0.328565776348114,0.3140619099140167
1783201228256559000,7.54455908203125,-0.4208290186978876,0.1830456601038575,1.7876742748886345,0.2014456689357757,-0.2908867299556732,0.314835637807846
1783201228266496300,7.554496337890625,-0.5758860171578825,0.2994447188675403,2.066279034823179,0.1995444446802139,-0.2389745265245437,0.2954385280609131
1783201228276433000,7.564432861328125,-0.8086018632292747,0.3195604551792144,2.257952530279756,0.2180562168359756,-0.1543098092079162,0.2765813767910003
1783201228286370000,7.5743701171875,-0.8762801457047462,0.4739359011158346,2.3945324995458126,0.2912997901439667,-0.0539733506739139,0.2620495855808258
1783201228296307200,7.58430712890625,-0.9194076320305468,0.7347346629858017,2.422521161189675,0.3970818519592285,0.0635857433080673,0.2156073004007339
1783201228306244000,7.594244140625,-0.9639489306770264,1.0751333235323428,2.5361095464468,0.5070869326591492,0.2241391986608505,0.1520014256238937
1783201228316181200,7.60418115234375,-1.0233286097541452,1.3276052788227797,2.7623446521967647,0.5980762839317322,0.4064100980758667,0.0833887830376625
1783201228326117000,7.6141171875,-1.013040586104244,1.4845675263822078,3.0201673208653923,0.652024507522583,0.5993747711181641,0.0096144285053014
1783201228336054000,7.624053955078125,-0.7720593082517385,1.5626339318811893,3.23681159144938,0.6435656547546387,0.7946059107780457,-0.0583488345146179
1783201228345991200,7.6339912109375,-0.3680073829621076,1.5103104549258946,3.289270092961192,0.5761637091636658,0.9503731727600098,-0.0860819220542907
1783201228355928000,7.643927978515625,0.0315410934284329,1.3115315113782882,3.195904996043444,0.4586760401725769,1.0571887493133545,-0.0691830888390541
1783201228365865000,7.653864990234375,0.3005351444527506,1.0348407683715224,2.942996402901411,0.3176989257335663,1.1376726627349854,-0.0153864342719316
1783201228375802000,7.663802001953125,0.439477458935976,0.852621037697792,2.569571671065688,0.181471437215805,1.188856601715088,0.0523048005998134
1783201228385739000,7.673739013671875,0.5464287442661822,0.8647937060505151,2.016789319989085,0.0260048937052488,1.161033272743225,0.1060937345027923
1783201228395675100,7.683675048828125,0.6100067518159746,1.0594245900079606,1.475012347051501,-0.1843524277210235,1.0729830265045166,0.1286515742540359
1783201228405612000,7.693612060546875,0.6115339613832533,1.333069097186625,1.0490887816935777,-0.4412878155708313,0.9353479146957396,0.1167557537555694
1783201228415549000,7.703548828125,0.5124082551121711,1.4730381243690849,0.5867611930459737,-0.6867709159851074,0.7784032821655273,0.0892701894044876
1783201228425486000,7.713486083984375,0.3508218548834323,1.4198381568402052,0.0267120658367872,-0.8728627562522888,0.6268504858016968,0.0479041002690792
1783201228435423200,7.72342333984375,0.1451362006872892,1.3516037017866969,-0.5593921246051788,-0.9638086557388306,0.4824128150939941,-0.0057894168421626
1783201228445360000,7.733360107421875,-0.0688427962101995,1.2306488794147967,-1.0907476567715406,-0.962187886238098,0.3891664743423462,-0.0568744391202926
1783201228455297000,7.743297119140625,-0.2746452086538076,0.985715210674703,-1.4497814596831795,-0.8915706276893616,0.3511330187320709,-0.1059048771858215
1783201228465233200,7.753233154296875,-0.379448522169888,0.6509852434143424,-1.687258090415597,-0.7856109142303467,0.3736095726490021,-0.149802029132843
1783201228475170000,7.763170166015625,-0.4222853549860417,0.3637468029081821,-1.8569126462876795,-0.6721861362457275,0.4198615849018097,-0.1913864016532898
1783201228485107200,7.773107177734375,-0.3255599878549575,0.1912374421268701,-2.0740034915953878,-0.5750529170036316,0.4445376396179199,-0.2241435497999191
1783201228495044000,7.783044189453125,-0.1033443468794226,0.0370358914524316,-2.3700538918495178,-0.4950848221778869,0.4204739928245544,-0.233749434351921
1783201228504981000,7.79298095703125,0.1392173320323228,-0.187365861390531,-2.674543619146943,-0.4404761493206024,0.3602878749370575,-0.2127155363559723
1783201228514918100,7.802918212890625,0.2885094833552837,-0.3810740775451064,-2.904948119536042,-0.4088370501995086,0.2681808769702911,-0.1751447767019271
1783201228524855000,7.81285498046875,0.2610910228148103,-0.5102326646387577,-3.1064871754467487,-0.3715211153030395,0.1762840002775192,-0.1501384973526001
1783201228534791000,7.822791015625,0.0706987993404269,-0.5724719709306955,-3.284999576035142,-0.3130526542663574,0.0948820486664772,-0.1513237059116363
1783201228544728000,7.83272802734375,-0.0973059434980154,-0.6104316992297768,-3.4627795706957576,-0.233851820230484,0.0336367972195148,-0.1558582633733749
1783201228554665200,7.842665283203125,-0.1025067270115017,-0.6399892176255584,-3.60076706867218,-0.1442351043224334,-0.013966741040349,-0.1582398563623428
1783201228564602000,7.85260205078125,-0.0206891522854566,-0.6087316173136234,-3.69021294631958,-0.0425074100494384,-0.0628341510891914,-0.1541047692298889
1783201228574539300,7.862539306640625,0.0235872118145227,-0.5316615293756127,-3.752853819149733,0.0696117430925369,-0.1046011745929718,-0.1397671401500702
1783201228584476000,7.872475830078125,0.0329690804049372,-0.4130626224800944,-3.7193408411264417,0.1850816011428833,-0.1199468374252319,-0.1364352703094482
1783201228594413000,7.8824130859375,-0.035442484781146,-0.2463625324994325,-3.651509998437762,0.3052446544170379,-0.1368228197097778,-0.1434714794158935
1783201228604349200,7.89234912109375,-0.1033797104537486,-0.1410518539831042,-3.597837444961071,0.4202812016010284,-0.1580583453178405,-0.150683581829071
1783201228614286000,7.9022861328125,-0.144103350508213,-0.08015782482028,-3.499650042453408,0.5193125009536743,-0.2062403410673141,-0.1570319086313247
1783201228624223000,7.912222900390625,-0.2256546755135059,-0.0054556350573897,-3.3459687162607907,0.5919457674026489,-0.2879091203212738,-0.1599552631378173
