time,seconds_elapsed,ax,ay,az,gx,gy,gz
1783196668968081700,0.09308154296875,-0.0591657440654933,-0.456456358526647,-0.1851671823024749,0.0121339876204729,-0.1792397648096084,0.4849402606487274
1783196668978018800,0.103018798828125,-0.1492044730395078,-0.4405462572112679,-0.199596689671278,0.0024133035913109,-0.1766940057277679,0.464915007352829
1783196668987955700,0.112955810546875,-0.2102681596808135,-0.4398436618998646,-0.164588504654169,-0.0258319191634655,-0.1668597608804702,0.4393678307533264
1783196668997892900,0.122892822265625,-0.2508034375563264,-0.4567424819916486,-0.2196685868412256,-0.0542393215000629,-0.1370221227407455,0.4232831299304962
1783196669007830000,0.132830078125,-0.2407993454143404,-0.5060191385969519,-0.2693430105924606,-0.0671415328979492,-0.0858316421508789,0.4178628027439117
1783196669017766700,0.1427666015625,-0.2520519763126969,-0.5123232071772218,-0.2940495818257331,-0.0682777613401413,-0.033663272857666,0.4106034636497497
1783196669027703800,0.152703857421875,-0.2817623471826315,-0.5052367560476064,-0.3284802592158317,-0.0533302314579486,0.0019351989030838,0.3992187082767486
1783196669037640700,0.162640625,-0.3206296918459236,-0.5610325852885842,-0.3837140706598758,-0.0222820341587066,0.0107414741069078,0.3935829102993011
1783196669047577900,0.172577880859375,-0.3620747780427336,-0.6500751428321003,-0.4659744207173585,0.0173420719802379,0.0087648751214146,0.3811925649642944
1783196669057515000,0.182514892578125,-0.4309136287301778,-0.7386834006115793,-0.4867828154683112,0.058562733232975,0.0498479045927524,0.3569807112216949
1783196669067451600,0.19245166015625,-0.5158050579436123,-0.7621192212566733,-0.3952349971055984,0.096071220934391,0.1130998432636261,0.3095602095127105
1783196669077388800,0.202388916015625,-0.6136268420092761,-0.6922989583164453,-0.2312269226878881,0.1270863115787506,0.1923372596502304,0.2661491334438324
1783196669087325700,0.21232568359375,-0.6238800866067409,-0.6522516100883483,-0.0403524686545133,0.1470661461353302,0.246537372469902,0.2361880391836166
1783196669097262800,0.222262939453125,-0.546711506730318,-0.5957298046603798,0.0997580128252506,0.1264867782592773,0.2402534186840057,0.1975072771310806
1783196669107200800,0.23220068359375,-0.4482889802925288,-0.5563146168559789,0.1934036802500486,0.0803597643971443,0.1915838867425918,0.1602184921503067
1783196669117138000,0.242137939453125,-0.3241793471515178,-0.6314458456858992,0.2196691713631152,0.0443034991621971,0.1324520707130432,0.1381152868270874
1783196669127074800,0.25207470703125,-0.2646753110423684,-0.6576622369602322,0.1749070695728063,0.0147349555045366,0.0981194004416465,0.1179301217198371
1783196669137011700,0.26201171875,-0.3103046971864998,-0.5128247269585728,0.1552116044998168,-0.0060625821352005,0.0848355218768119,0.0844785794615745
1783196669146948900,0.271948974609375,-0.3898357684105634,-0.3299257818490266,0.1020762266397476,-0.0100229680538177,0.1201082915067672,0.0542026981711387
1783196669156885800,0.2818857421875,-0.4290162706762552,-0.220958334390819,0.1186573590844869,-0.006616786122322,0.187953919172287,0.0279516484588384
1783196669166823000,0.291822998046875,-0.3926879429712891,-0.1845990270256996,0.1322469084978103,0.0134424101561307,0.255082368850708,0.0089806225150823
1783196669176759800,0.301759765625,-0.3031858050920069,-0.1419242529034614,0.1418997029840946,0.0489062294363975,0.3149077296257019,0.0055940635502338
1783196669186696700,0.31169677734375,-0.2298234856307506,-0.0608303162768483,0.2272767237573862,0.0641184672713279,0.3637295961380005,-0.0019543999806046
1783196669196633900,0.3216337890625,-0.1504782923676073,0.0272007261365652,0.2445984454363584,0.068496935069561,0.3583820462226867,-0.0010952639859169
1783196669206570800,0.33157080078125,-0.0717247813872992,0.0823822228714823,0.1556359673917293,0.0734903588891029,0.3322993218898773,0.0169061068445444
1783196669216508000,0.3415078125,0.0073863108590245,0.12179419580549,0.1575958692878484,0.0914705172181129,0.312703788280487,0.0468311831355094
1783196669226444800,0.35144482421875,0.0451810578547418,0.1933259388387203,0.1886152769297361,0.1279371827840805,0.2959160208702087,0.0812112614512443
1783196669236381700,0.361381591796875,0.0497444202475249,0.3102180418163537,0.2132616424083709,0.1700634956359863,0.2974573671817779,0.0914568230509758
1783196669246318800,0.37131884765625,0.0192025669895112,0.4444412188231945,0.3183475722581148,0.1719852238893509,0.3139527142047882,0.0861033350229263
1783196669256255700,0.381255859375,-0.0546628796882927,0.5829819667682051,0.5380553220659494,0.1266339570283889,0.358370304107666,0.0567097291350364
1783196669266193000,0.39119287109375,-0.1066243914633989,0.6452513759374618,0.8479723351091146,0.0134227089583873,0.4160655736923218,0.0208739675581455
1783196669276129800,0.4011298828125,-0.1489087049633264,0.6272527779102325,1.1121505102843046,-0.1401149183511734,0.4449422061443329,-0.0028020669706165
1783196669286066700,0.411066650390625,-0.1521868498511612,0.495705542114377,1.2419576244145631,-0.3035533726215362,0.4332546591758728,-0.0188068654388189
1783196669296003800,0.42100390625,-0.0974567501455545,0.3533940434589981,1.13895902223289,-0.4307132065296173,0.3551909923553467,-0.0367309227585792
1783196669305941000,0.43094091796875,0.0039469840601086,0.3165443222284317,0.8336936343878507,-0.4825745224952698,0.2582593858242035,-0.0561650730669498
1783196669315878000,0.4408779296875,0.0803173992961645,0.3898983122527599,0.5745522843360901,-0.4400476813316345,0.2003180682659149,-0.0718526244163513
1783196669325814800,0.450814697265625,0.1239807460643351,0.5259299999862909,0.4082055378377437,-0.3458154499530792,0.1768004894256591,-0.0648367926478385
1783196669335751700,0.460751708984375,0.1354649937614798,0.654626522526145,0.3335632615685462,-0.232034146785736,0.1750318109989166,-0.0300877504050731
1783196669345688800,0.470688720703125,0.1127934354871511,0.6600052929550408,0.3186994544357061,-0.145611360669136,0.1523171812295913,0.0221648011356592
1783196669355626000,0.4806259765625,0.0467097287267446,0.6199705119475722,0.3530839545965194,-0.1174901947379112,0.1063477247953414,0.0720102712512016
1783196669365563000,0.49056298828125,-0.0586564793691039,0.5105801629021763,0.4011620490670204,-0.1351107358932495,0.0442233718931674,0.1097914725542068
1783196669375499800,0.500499755859375,-0.1662086532019078,0.367068640807271,0.3945546136260032,-0.1917361468076706,-0.0196376927196979,0.1221195459365844
1783196669385436700,0.510436767578125,-0.2484600893005728,0.2492234748885035,0.3169499804198741,-0.2588835060596466,-0.0426998659968376,0.1034148335456848
1783196669395373800,0.520373779296875,-0.279408623663336,0.1513438231557607,0.273719325980544,-0.3226873576641083,-0.0439161658287048,0.0692323967814445
1783196669405311000,0.53031103515625,-0.3042277153603732,0.1307204295828938,0.1327583651512861,-0.3632672727108001,-0.0354726091027259,0.0329849086701869
1783196669415248000,0.540247802734375,-0.3144946962222457,0.1448430629596114,-0.0624298604279756,-0.3788597583770752,-0.0223827809095382,0.0143696451559662
1783196669425184800,0.550184814453125,-0.3423468720048666,0.1670475882440805,-0.2473299162268638,-0.3575749695301056,0.0083160102367401,0.0248385313898324
1783196669435121700,0.56012158203125,-0.3847033739581704,0.1256821431547403,-0.3883586815953254,-0.3061696887016296,0.0497850850224494,0.0540748313069343
1783196669445058800,0.570058837890625,-0.2771028309389948,0.0682929072424769,-0.5369850624859333,-0.2439078837633133,0.0104235671460628,0.0721281319856643
1783196669454996000,0.579995849609375,-0.175151984244585,0.0528659132689237,-0.8656786721915006,-0.1671037226915359,-0.0636741146445274,0.0668471008539199
1783196669464932900,0.589932861328125,-0.1345208447791636,0.0378477923572063,-1.013843280789256,-0.0942223146557807,-0.1060093194246292,0.0445583090186119
1783196669474869800,0.599869873046875,-0.1389998898893594,0.0432528662711381,-0.9542027588188648,-0.038223348557949,-0.0956204310059547,0.0273595470935106
1783196669484806700,0.609806640625,-0.1181821427881717,-0.0215077751919627,-0.8763929584294557,0.0050559481605887,-0.1125562712550163,0.0348219908773899
1783196669494743800,0.619743896484375,-0.0254717103868722,-0.1562947235614061,-1.0249690704375505,0.0449921935796737,-0.1706819683313369,0.0651289597153663
1783196669504681000,0.629680908203125,0.0578774578206241,-0.22380057207942,-1.1980325579702853,0.0826013535261154,-0.2196697443723678,0.0887104496359825
1783196669514617900,0.639617919921875,0.0457831154011189,-0.1803694266319274,-1.2142319976210594,0.1273681819438934,-0.2139428406953811,0.1018718928098678
1783196669524554800,0.6495546875,-0.0188902861699461,-0.1045604446709156,-1.1207073262274263,0.1653206348419189,-0.145025297999382,0.1059017926454544
1783196669534492000,0.659491943359375,-0.0762510266400873,-0.0931616833001375,-0.9865671513289213,0.1736932843923568,-0.063373364508152,0.1130269169807434
1783196669544428800,0.6694287109375,-0.1209095219254493,-0.1687336416348815,-0.9077519732892512,0.1547259837388992,-0.0300630778074264,0.1187220811843872
1783196669554366000,0.679365966796875,-0.1681888672336935,-0.2829056719988584,-0.95773677816391,0.1340906471014022,-0.0303047336637973,0.1309410184621811
1783196669564302800,0.689302734375,-0.2439281449593603,-0.3870473067358136,-0.9600538229346276,0.1268851906061172,-0.011324917897582,0.1392199844121933
1783196669574239700,0.69923974609375,-0.2970288898974657,-0.4214420360296964,-0.9285223741173744,0.1466887295246124,0.0038829501718282,0.1301261037588119
1783196669584178200,0.70917822265625,-0.3027808775529265,-0.4022302628204226,-0.9964870723187924,0.1958701163530349,0.0235701017081737,0.1106576025485992
1783196669594116000,0.7191162109375,-0.2980269610241055,-0.3871694718107581,-1.0093559062421322,0.256665289402008,0.0539396479725837,0.1035487577319145
1783196669604053200,0.72905322265625,-0.2931356818512082,-0.3686275606870651,-0.9748626850098372,0.311028391122818,0.0629390031099319,0.0959009602665901
1783196669613990100,0.738990234375,-0.3282743613801896,-0.3327724034518003,-0.9629612348139286,0.3532771170139313,0.0750074014067649,0.1011377796530723
1783196669623927000,0.748927001953125,-0.2959035391293466,-0.3210398800820112,-0.8839911584734916,0.3757712244987488,0.0963968485593795,0.1057823300361633
1783196669633864200,0.7588642578125,-0.2861240495234727,-0.2933341270327568,-0.8341407936334609,0.3871583044528961,0.1244681477546691,0.1045991107821464
1783196669643801000,0.768801025390625,-0.2802776615828276,-0.2580707982107997,-0.7825099751174449,0.3920114040374756,0.1726588457822799,0.0846296623349189
1783196669653738200,0.77873828125,-0.2359022210225462,-0.1900967476591467,-0.6848959885835647,0.3963241279125213,0.2434743493795395,0.0664195492863655
1783196669663675100,0.788675048828125,-0.1692148492805659,-0.1277513506442308,-0.5685889920175076,0.3861609697341919,0.3172188699245453,0.0495510846376419
1783196669673612000,0.798612060546875,-0.1070345796994864,-0.1199129121035337,-0.5274503414213657,0.3593831956386566,0.3459159433841705,0.043509591370821
1783196669683549200,0.808549072265625,-0.0673049191184341,-0.1369987792000174,-0.5086141235262155,0.3421230018138885,0.3585361242294311,0.0537347979843616
1783196669693486300,0.818486328125,0.0123896721042692,-0.1613069987654685,-0.3921352775245905,0.3384304642677307,0.3415819704532623,0.0765379294753074
1783196669703423200,0.82842333984375,0.060758127823472,-0.1541574192717671,-0.3321744375586509,0.3327584564685821,0.3022697269916534,0.1058324351906776
1783196669713360100,0.838360107421875,0.0696276629775762,-0.1461994460046291,-0.2193459307581186,0.3290432393550873,0.2469006329774856,0.1213114559650421
1783196669723297000,0.848297119140625,0.057303165064007,-0.1721279602482915,-0.0831266114979982,0.3081299662590027,0.1795825809240341,0.1312679648399353
1783196669733234200,0.858234130859375,-0.0067630643941462,-0.2039683288842439,0.0326975699871778,0.2700259983539581,0.1205599308013916,0.1294057965278625
1783196669743171300,0.86817138671875,-0.0810585730522871,-0.2253282200381159,0.1293693072348833,0.2320445328950882,0.0685310810804367,0.1209651827812194
1783196669753108200,0.878108154296875,-0.1316616559557616,-0.2146896293848753,0.1780319235950708,0.2203805744647979,0.0271540861576795,0.1143345087766647
1783196669763045000,0.888045166015625,-0.0989358827874064,-0.1007329953372478,0.1527145269870758,0.24304860830307,-0.0425568185746669,0.0960774719715118
1783196669772982000,0.89798193359375,-0.0389665672540664,0.1025388757154345,0.0403501305669546,0.2921465337276459,-0.0901709720492363,0.0801103711128234
1783196669782919200,0.907919189453125,0.0338113764479756,0.2776137030705809,0.1006646062761545,0.3497666716575622,-0.1029474884271621,0.0717216879129409
1783196669792856300,0.917856201171875,0.0893944397211074,0.3860071500331163,0.3560872280657291,0.3628546297550201,-0.11424021422863,0.0638372302055358
1783196669802793200,0.927793212890625,0.1644539184890687,0.3944768722146749,0.7650023754775523,0.281943529844284,-0.246491476893425,0.0612204074859619
1783196669812730000,0.937730224609375,0.2314870349287986,0.3536477259591221,0.582935497277975,0.1602815985679626,-0.3050557374954223,0.0777311623096466
1783196669822667000,0.9476669921875,0.1342576637983322,0.2949661121487617,0.7500555662363767,0.0579030364751815,-0.2230609953403473,0.1010559201240539
1783196669832604200,0.957604248046875,-0.0334140476934611,0.4206453326940536,0.8826987805753945,-0.0143347270786762,-0.1034779548645019,0.1109933108091354
1783196669842541300,0.967541259765625,-0.17236381483078,0.6156506029218435,0.7750485531955957,-0.046992540359497,-0.0053138425573706,0.1032062247395515
1783196669852478200,0.977478271484375,-0.2150480874337255,0.5819444404140115,0.69436056702137,-0.0488802380859851,0.0674116685986518,0.1015410125255584
1783196669862415000,0.9874150390625,-0.1803815554611385,0.4546545698016881,0.7019879931598901,-0.0335889011621475,0.1038738042116165,0.0864390283823013
1783196669872352000,0.99735205078125,-0.1530576413363218,0.2943605474710464,0.6792465845197438,0.0002430444583296,0.1265929937362671,0.0784384086728096
1783196669882289200,1.0072890625,-0.0360457113713026,0.0768447547495365,0.5570704036593437,0.0612392872571945,0.1111802086234092,0.0639934241771698
1783196669892226300,1.017226318359375,-0.0063642743349075,0.0046755905956029,0.4541594797611236,0.1581267863512039,0.1008606776595115,0.0420989468693733
1783196669902163200,1.0271630859375,-0.124767804788798,0.2501826753094792,0.6412526616901159,0.2679712772369385,0.1145775616168975,0.0312332492321729
1783196669912100000,1.03710009765625,-0.3081330522358417,0.4802481530025601,0.819476308465004,0.3241834938526153,0.0623065866529941,0.0241153165698051
1783196669922037200,1.047037353515625,-0.6119608084931969,0.601826075708866,0.8929320052981377,0.3017639517784118,-0.017368534579873,0.0183610245585441
1783196669931975200,1.05697509765625,-0.8631617209345102,0.5425426966130733,1.1119716465860603,0.2322043627500534,-0.0407120771706104,-0.0040726782754063
1783196669941912000,1.066912109375,-0.9286766878962516,0.3930798648983239,1.363483232411742,0.148043155670166,-0.0203311741352081,-0.0706506371498107
1783196669951849200,1.07684912109375,-0.9192559486001728,0.275121886254847,1.409248958286643,0.0898673608899116,0.0080236624926328,-0.1820159703493118
1783196669961786400,1.086786376953125,-0.8466061613224446,0.2609042680710554,1.2970885600060225,0.0801976919174194,0.0297822207212448,-0.3057770431041717
1783196669971723000,1.096722900390625,-0.7319073306053876,0.3975871131896972,1.212923837631941,0.097549945116043,0.0351758152246475,-0.4120672047138214
1783196669981660200,1.10666015625,-0.5926242398604751,0.5428910716593265,1.1814175232559443,0.1307529062032699,0.0632015913724899,-0.472618967294693
1783196669991597000,1.11659716796875,-0.4291898736774921,0.5059136323958635,1.2812205442667006,0.1499030441045761,0.0998721495270729,-0.4893083870410919
1783196670001534200,1.1265341796875,-0.2618865571066737,0.3363485083729028,1.355098265904188,0.1484332531690597,0.0761955827474594,-0.4709863662719726
1783196670011471400,1.136471435546875,-0.1030159917078912,0.1966267339497804,1.3490940570533274,0.1309240907430648,-0.0240191929042339,-0.4293577075004577
1783196670021408000,1.146407958984375,0.049277971779555,0.0834507288858294,1.2612339872926472,0.10588850826025,-0.1736986935138702,-0.3780876100063324
1783196670031345200,1.15634521484375,0.1199117430597543,-0.0286459565088152,1.0836270111113786,0.0766230300068855,-0.3154772520065307,-0.3350003063678741
1783196670041282300,1.1662822265625,-0.0458322152398526,-0.0683306089043617,0.9217863438606262,0.0170292146503925,-0.340411901473999,-0.3238624334335327
1783196670051219200,1.17621923828125,-0.3708861532688141,-0.0233037186980247,0.9111527216434478,-0.0683425813913345,-0.2443794757127761,-0.3281617760658264
1783196670061156400,1.18615625,-0.6646399670183658,0.0173182145476341,0.8341945696473121,-0.1660667508840561,-0.0734602138400077,-0.3346004784107208
1783196670071093000,1.196093017578125,-0.8007448661185801,-0.0205763395607471,0.758576141822338,-0.2472178339958191,0.1087144762277603,-0.3470461070537567
1783196670081030100,1.206030029296875,-0.8371332534477114,-0.0854392723545432,0.6483125170737505,-0.3250319361686706,0.2232170850038528,-0.3630067110061645
1783196670090967300,1.21596728515625,-0.7558980086542666,-0.1068921024888753,0.4642711239308119,-0.3882341384887695,0.2496736049652099,-0.368997186422348
1783196670100904200,1.225904296875,-0.6259332197442651,-0.1595069636061787,0.2634691501230001,-0.4287038147449493,0.222435861825943,-0.3472306132316589
1783196670110841300,1.23584130859375,-0.4602881917744875,-0.2467933251321315,0.0889636470884084,-0.4403705596923828,0.1368101984262466,-0.2838183343410492
1783196670120778000,1.245778076171875,-0.3285886880263686,-0.3338283422455191,-0.1880722560942173,-0.4194389283657074,-0.0336198508739471,-0.1935092061758041
1783196670130715100,1.255715087890625,-0.3596596797250211,-0.4024678709685802,-0.6089075584024191,-0.36042520403862,-0.2124316245317459,-0.1039265245199203
1783196670140652300,1.26565234375,-0.5755848422542214,-0.4848252516597509,-0.8952712619006633,-0.2842817008495331,-0.3071618378162384,-0.0671671777963638
1783196670150589200,1.275589111328125,-0.8591156604140996,-0.4100882828444242,-0.900691533383727,-0.2249653041362762,-0.3728767931461334,-0.1101584285497665
1783196670160526300,1.2855263671875,-1.1332234011903404,-0.2070981513425707,-0.9196844031453132,-0.2178645133972168,-0.3946928679943084,-0.2101604044437408
1783196670170463000,1.295462890625,-1.2485758735105394,-0.1178548105299472,-0.92687051525712,-0.2416582703590393,-0.3641313910484314,-0.3044309914112091
1783196670180400000,1.305400146484375,-1.1526968940757214,-0.178585465824604,-1.0302958184182642,-0.2642109990119934,-0.3053423762321472,-0.3525428771972656
1783196670190337300,1.315337158203125,-0.9694374450907112,-0.2119742329463362,-1.2026736617743967,-0.2672397494316101,-0.2526411414146423,-0.3627945184707641
1783196670200274200,1.325274169921875,-0.8498344757191836,-0.0979036171302199,-1.4065736015975474,-0.2431698441505432,-0.1645871698856353,-0.362397700548172
1783196670210211300,1.33521142578125,-0.7201467501848936,0.0433490201219916,-1.392299577051401,-0.2153207957744598,-0.0501667484641075,-0.3596587181091308
1783196670220149200,1.345149169921875,-0.6118458038114011,0.114386257636547,-1.291914372238517,-0.2224623262882232,0.0540219731628894,-0.3644745051860809
1783196670230086100,1.355086181640625,-0.5582175278678536,0.1017050552397966,-1.1528525230288504,-0.2579661607742309,0.1162346601486206,-0.3591549694538116
1783196670240023000,1.36502294921875,-0.5434808542460203,0.0030354221731424,-1.0167653057157993,-0.3006185293197632,0.1180291026830673,-0.3579150140285492
1783196670249960200,1.374960205078125,-0.5944811197735369,-0.0229480371281504,-0.9581266542643307,-0.3414573073387146,0.0781943798065185,-0.3693183958530426
1783196670259897300,1.3848974609375,-0.6872767462402581,0.0261079624637961,-0.9534382041871547,-0.3571726381778717,0.0236528366804122,-0.4019748568534851
1783196670269834200,1.394834228515625,-0.7037472579173744,0.0863762609437108,-0.9915542920917272,-0.3451912701129913,-0.0294500477612018,-0.4471096098423004
1783196670279771100,1.404771240234375,-0.6896561887226998,0.1374953305453062,-1.0399205558538436,-0.3263217210769653,-0.0420643761754035,-0.4821903705596924
1783196670289708000,1.4147080078125,-0.6587834960751235,0.1553559814065694,-0.9830863234758376,-0.3119585514068603,-0.0423336364328861,-0.5071449875831604
1783196670299645200,1.424645263671875,-0.6031070554301142,0.1279550565227866,-0.989091116848588,-0.3000246584415436,-0.0601326040923595,-0.5163549780845642
1783196670309582300,1.434582275390625,-0.5219343544788658,0.0802116008341312,-1.097695868474245,-0.2690391540527344,-0.0137724392116069,-0.5203296542167664
1783196670319519200,1.444519287109375,-0.4379506877601146,0.0835085965529084,-1.006111225232482,-0.2356061041355133,0.1003642529249191,-0.5284008979797363
1783196670329456000,1.4544560546875,-0.3940089624419808,0.1743190405517816,-0.8049754894256591,-0.2102613151073455,0.2247142493724823,-0.5223134160041809
1783196670339393000,1.46439306640625,-0.2896861259192228,0.1602285558789968,-0.665389324080944,-0.2052758783102035,0.290043443441391,-0.4941795170307159
1783196670349330200,1.474330078125,-0.1640115815490484,0.0201852944165468,-0.5687187558770179,-0.2115195989608764,0.2495159208774566,-0.4508118629455566
1783196670359267300,1.484267333984375,-0.145178432393819,-0.1106859418138861,-0.5950292551755905,-0.2144591957330703,0.1455418765544891,-0.4042139947414398
1783196670369204200,1.494204345703125,-0.2827390832602978,-0.1815107056215405,-0.6817401549011468,-0.1824561953544616,0.0477725528180599,-0.3812203109264374
1783196670379141000,1.50414111328125,-0.4386667270749807,-0.1568856751918792,-0.6338865168362856,-0.120590440928936,0.0225449614226818,-0.3862172067165375
1783196670389078000,1.514078125,-0.6051121116422117,-0.04983282918334,-0.491255576968193,-0.042438119649887,0.0262042582035064,-0.4264219105243683
1783196670399015200,1.52401513671875,-0.6796282773137092,0.030336101552844,-0.3573988951861858,0.0262269619852304,0.0163771957159042,-0.4659062027931213
1783196670408952300,1.533952392578125,-0.6515227112919092,-0.0044976036801934,-0.2608306183129549,0.0801986828446388,-0.0393862798810005,-0.4924287497997284
1783196670418889200,1.54388916015625,-0.5600640325173736,-0.069857380080223,-0.2063198604464531,0.1264649778604507,-0.1233799830079078,-0.5002900958061218
1783196670428826000,1.553826171875,-0.4563866542913019,-0.0507721558600664,-0.1249129123479127,0.1780951768159866,-0.1713394075632095,-0.4915401935577392
1783196670438763300,1.56376318359375,-0.3637519905399531,0.0284124400138854,0.0773795922785997,0.2217787355184555,-0.1774769276380539,-0.4772544801235199
1783196670448701200,1.573701171875,-0.3193582106053829,0.2030567669972777,0.2606558462679386,0.2444605231285095,-0.1521433144807815,-0.4647328853607178
1783196670458637300,1.58363720703125,-0.3108831546615809,0.3586228840231895,0.5240484240233898,0.2587446570396423,-0.1140979379415512,-0.4494490027427673
1783196670468575200,1.5935751953125,-0.283570273387432,0.5160495342239737,0.8434528118580579,0.2716995477676391,-0.0990851372480392,-0.4234187006950378
1783196670478512400,1.603512451171875,-0.2310943823494017,0.6677256580740213,1.1352619212806223,0.299125075340271,-0.1122206449508667,-0.3928770422935486
1783196670488449000,1.613448974609375,-0.1747461799226701,0.87707509547472,1.424955645984411,0.337439090013504,-0.1291132867336273,-0.3587203025817871
1783196670498386200,1.62338623046875,-0.1755704288523644,1.1195204545304178,1.7505670717656612,0.3424700796604156,-0.1807549148797989,-0.3535833358764648
1783196670508323000,1.633322998046875,-0.3180826377116143,1.388888599564135,2.0626023921370504,0.258392184972763,-0.2582374513149261,-0.3850285708904266
1783196670518260200,1.64326025390625,-0.4677186340361833,1.4762778369426726,2.3377339230030776,0.083823561668396,-0.350409984588623,-0.4296194612979889
1783196670528197400,1.653197265625,-0.6434266447283328,1.3135492809414864,2.4437124177783724,-0.1488506942987442,-0.4336760938167572,-0.4730620384216308
1783196670538134000,1.663134033203125,-0.8500864046536386,1.0185536504372954,2.388990647509694,-0.382669597864151,-0.4978089928627014,-0.5291164517402649
1783196670548071200,1.6730712890625,-1.047058006518334,0.8239803418859839,2.0914929710567,-0.560462474822998,-0.5282056927680969,-0.6015534996986389
1783196670558008300,1.68300830078125,-1.2246736043974755,0.7555299059942364,1.662210742920637,-0.6469771265983582,-0.5182159543037415,-0.6986832618713379
1783196670567945200,1.6929453125,-1.278926003588736,0.813884772068262,1.1713251683086157,-0.6519750356674194,-0.4759221374988556,-0.7953498363494873
1783196670577882400,1.70288232421875,-1.2483499558001756,0.8739861895486712,0.7293225748091936,-0.6163078546524048,-0.4034543335437774,-0.8809561133384705
1783196670587818800,1.71281884765625,-1.106131396125257,0.8731573375090956,0.3980465473949909,-0.5738937258720398,-0.3376761674880981,-0.9425194263458252
1783196670597756000,1.722755859375,-0.8519076287314296,0.7701084664449095,0.0901110635578632,-0.5427061915397644,-0.2757006585597992,-0.9587253332138062
1783196670607693000,1.732693115234375,-0.6086196813717484,0.6462813035070896,-0.0777881730794906,-0.5340301394462585,-0.1962267905473709,-0.942131757736206
1783196670617630000,1.7426298828125,-0.4236410073786973,0.5550426972240209,-0.1016425113976001,-0.5444702506065369,-0.1539666950702667,-0.9044464230537416
1783196670627566800,1.75256689453125,-0.3398331356182694,0.475932627891004,-0.2202162838518619,-0.5564782023429871,-0.1548288166522979,-0.8543881773948669
1783196670637503700,1.762503662109375,-0.3717795949772,0.3530436225861311,-0.3648357671886682,-0.5507558584213257,-0.1806404441595077,-0.8136743307113647
1783196670647441000,1.77244091796875,-0.53088564963229,0.2265396416544914,-0.5494096597731113,-0.5181447267532349,-0.1836177408695221,-0.7984464168548584
1783196670657378000,1.7823779296875,-0.6352567822761833,0.1439195183739066,-0.6240513515204191,-0.4775794148445129,-0.1665601879358291,-0.8160890936851501
1783196670667315000,1.79231494140625,-0.6893399623803794,0.1062704634591937,-0.6712830582946538,-0.4424206018447876,-0.1508014947175979,-0.8531001210212708
1783196670677253000,1.802253173828125,-0.6905300489477812,0.0741197136998176,-0.6967956852138042,-0.4221158623695373,-0.1329362094402313,-0.8822276592254639
1783196670687189800,1.812189697265625,-0.6445356288835405,0.0408425902590155,-0.7135024898648261,-0.4186830818653106,-0.1400180608034134,-0.9035986661911012
1783196670697127000,1.822126953125,-0.5448061115004122,0.0084755674004554,-0.7887731271654367,-0.4169568121433258,-0.1526771336793899,-0.8961343765258789
1783196670707063800,1.832063720703125,-0.3947500631328672,-0.0389309114187955,-0.8633867618620396,-0.4114201962947845,-0.1738758981227874,-0.8804120421409607
1783196670717001000,1.8420009765625,-0.2875752712450921,-0.059530924116075,-0.9705506670296192,-0.4065316915512085,-0.1907667368650436,-0.8498839735984802
1783196670726938000,1.851938232421875,-0.2001120187822729,-0.0796194801598787,-1.0638958902031184,-0.3988202214241028,-0.1929715275764465,-0.8225839138031006
1783196670736874800,1.861874755859375,-0.0978219301961362,-0.107875560568273,-1.1444658029556274,-0.3938227891921997,-0.1839378178119659,-0.7954050302505493
1783196670746812000,1.87181201171875,-0.0429145011622458,-0.1153568562343716,-1.2375327937096356,-0.3885466456413269,-0.1513622999191284,-0.7675477862358093
1783196670756748800,1.881748779296875,-0.021791049112752,-0.1240662323907017,-1.276723232847452,-0.387340784072876,-0.124850258231163,-0.7450736165046692
1783196670766686000,1.89168603515625,-0.029798925936222,-0.1140147939756512,-1.3696698120921849,-0.3868088126182556,-0.0880303010344505,-0.7344421744346619
1783196670776623000,1.901623046875,-0.1042565663535147,-0.0971492916315794,-1.4163409623742105,-0.3844103813171386,-0.0443453975021839,-0.7238313555717468
1783196670786559700,1.911559814453125,-0.2105489493835717,-0.0674935735583305,-1.471262054607272,-0.3694612383842468,-0.0258931219577789,-0.7214600443840027
1783196670796497000,1.921496826171875,-0.3369493238102644,-0.0468105587527155,-1.6213316200435162,-0.3151737451553345,-0.0094672767445445,-0.7268856763839722
1783196670806433800,1.931433837890625,-0.3898309461049735,-0.0297065714776515,-1.69036657782495,-0.2395014315843582,-0.0055524948984384,-0.7395903468132019
1783196670816371000,1.941370849609375,-0.401083942329511,0.0502606992065906,-1.7257248914539811,-0.1615693420171737,-0.0140596963465213,-0.7728090286254883
1783196670826308000,1.95130810546875,-0.3648208618804812,0.1287044135853648,-1.7166396677225828,-0.0930842831730842,-0.0177315734326839,-0.7937275171279907
1783196670836244700,1.96124462890625,-0.2435512744709849,0.1489823547214269,-1.6898282331645489,-0.0318547524511814,-0.0211454816162586,-0.7918307781219482
1783196670846182000,1.971181884765625,-0.0822352156162262,0.1206800970837473,-1.706847757026553,0.0292379520833492,-0.0052855815738439,-0.7715370655059814
1783196670856119000,1.981119140625,0.0730251964613795,0.1511170286625623,-1.7015291923522948,0.0896150171756744,0.0238770972937345,-0.7345577478408813
1783196670866057000,1.991056884765625,0.1886017598610371,0.1651756568923592,-1.6755682371437548,0.1571015864610672,0.0545418225228786,-0.6884247660636902
1783196670875993900,2.000993896484375,0.3107929921600967,0.1706488276064395,-1.617144105225801,0.2280306220054626,0.0628151968121528,-0.6297976970672607
1783196670885931000,2.010930908203125,0.4192040478445589,0.1379459969222545,-1.5788509071886538,0.2956269085407257,0.0689304023981094,-0.5680787563323975
1783196670895868000,2.020867919921875,0.4724821221109479,0.1162865382999181,-1.4412871875822544,0.3511143922805786,0.0753669962286949,-0.515955924987793
1783196670905804800,2.0308046875,0.4420584153398871,0.1586728508695959,-1.2428870142191648,0.3882074058055877,0.0687253326177597,-0.4742506146430969
1783196670915742000,2.040741943359375,0.3432823262240737,0.2088236599609255,-1.039688500663638,0.4025695621967315,0.0575837343931198,-0.4435187876224518
1783196670925678800,2.050678955078125,0.2496313250370323,0.2367117838397621,-0.8116285175740718,0.4073521196842193,0.055793859064579,-0.4210163354873657
1783196670935616000,2.060615966796875,0.165536379963532,0.2698646963790059,-0.6099398240596056,0.4001645147800445,0.0230383090674877,-0.410387635231018
1783196670945553000,2.070552978515625,0.098498368152976,0.3253647575438022,-0.529581508231163,0.398623913526535,-0.0151672167703509,-0.4011288583278656
1783196670955489800,2.08048974609375,0.0692734427124261,0.3735921973571181,-0.396192443960905,0.4114710092544555,-0.0132031356915831,-0.4032500684261322
1783196670965427000,2.090427001953125,0.0568774869978427,0.4142062395572662,-0.1939174749910831,0.4200417101383209,-0.0106075154617428,-0.403957724571228
1783196670975364000,2.100364013671875,0.0386954221624881,0.4931850837260484,-0.0380401000589132,0.4153351187705993,-0.0132927792146801,-0.3979009091854095
1783196670985301000,2.110301025390625,0.110366719796881,0.5111506562665105,0.1350420921742916,0.3974728286266327,-0.0165079217404127,-0.3841875493526459
1783196670995238000,2.12023779296875,0.1827061259511858,0.5061909880325198,0.3270563638925552,0.3702095150947571,-0.0263264644891023,-0.356678694486618
1783196671005174800,2.1301748046875,0.2160997153785079,0.5701879516467452,0.4730827914178371,0.3325860500335693,-0.0523196160793304,-0.3322066366672516
1783196671015112000,2.14011181640625,0.2310412639226764,0.6720666098877787,0.598556844779849,0.2980637550354004,-0.0692472010850906,-0.3074464201927185
1783196671025049000,2.150049072265625,0.2153543038386851,0.762839644485712,0.7275187402576208,0.2580085098743438,-0.084365576505661,-0.2836887538433075
1783196671034986000,2.159986083984375,0.2083665638431906,0.8241995375946164,0.8069611102849245,0.2172099351882934,-0.0724188983440399,-0.2601866424083709
1783196671044923000,2.1699228515625,0.1706904017258435,0.8323498185634612,0.930481106969714,0.1860977709293365,-0.0402146950364112,-0.2413480281829834
1783196671054860800,2.17986083984375,0.130239441132918,0.8170914591550826,1.0329957250267268,0.1623972356319427,-0.0451135821640491,-0.227195456624031
1783196671064798000,2.1897978515625,0.0673935472499579,0.8280334166690707,1.0562784009367228,0.1600632965564727,-0.0982876718044281,-0.2279325723648071
1783196671074734800,2.19973486328125,0.045969577883929,0.8417658816844225,1.1442805095165969,0.1732326298952102,-0.174134761095047,-0.2316487431526184
1783196671084672000,2.209672119140625,0.0781227022634819,0.9117290602266788,1.2310019306361677,0.1891157627105713,-0.2709001898765564,-0.2423403114080429
1783196671094609000,2.21960888671875,0.1517741773970425,1.0802025896206495,1.3709557602494955,0.1761456429958343,-0.3755445778369903,-0.2469808757305145
1783196671104545800,2.2295458984375,0.234136015067622,1.1883292023405432,1.4939952799409626,0.1122281551361084,-0.4800803363323211,-0.2343002557754516
1783196671114483000,2.23948291015625,0.3518266114791855,1.1503668436929584,1.4749819519132374,0.0088698081672191,-0.5513327121734619,-0.1850285828113556
1783196671124419800,2.249419921875,0.4915061176631599,0.9227014128789304,1.361687581166625,-0.1117849946022033,-0.5828164219856262,-0.0996443554759025
1783196671134357000,2.25935693359375,0.5234313881035894,0.6874257993221282,1.1347206540107726,-0.2253791987895965,-0.6007370948791504,-0.0258404370397329
1783196671144294100,2.269294189453125,0.4134408812079578,0.5204278954386711,0.820317435464263,-0.3050719499588012,-0.5918805599212646,0.0293119698762893
1783196671154230800,2.279230712890625,0.2342975623048842,0.3797995275646448,0.5173673388242721,-0.3348849713802337,-0.5603684186935425,0.0462446138262748
1783196671164168000,2.28916796875,0.0135407418355345,0.294034968778491,0.2262298450529575,-0.3123031258583069,-0.5165241956710815,0.025641219690442
1783196671174104800,2.299104736328125,-0.2223102604564279,0.2624146726340055,-0.0473848515093326,-0.2606950402259826,-0.4394248425960541,-0.0157850515097379
1783196671184042000,2.3090419921875,-0.3796430218286812,0.2184650562703609,-0.2050344968110322,-0.1887795627117157,-0.3526342809200287,-0.0603405050933361
1783196671193979100,2.318979248046875,-0.4834034752283245,0.1812783581703901,-0.3094587478816509,-0.1274546831846237,-0.282414972782135,-0.1160074919462204
1783196671203915800,2.328915771484375,-0.5031364958327263,0.1305100017026066,-0.3598357669442892,-0.0910072177648544,-0.2327502816915512,-0.1621120423078537
1783196671213853000,2.33885302734375,-0.459407390351966,-0.0003787701845169,-0.3715554308325052,-0.0853618532419204,-0.2134945541620254,-0.1913463622331619
1783196671223790800,2.348790771484375,-0.3673311642009764,-0.2132707024976611,-0.4215858284145593,-0.0937386974692344,-0.2096388339996338,-0.200339525938034
1783196671233728000,2.35872802734375,-0.2761665730021894,-0.3655620356366038,-0.4780664250493049,-0.1061580777168273,-0.2191066145896911,-0.2130289524793625
1783196671243665000,2.368664794921875,-0.2281134668424725,-0.4605027113080024,-0.5495084439724683,-0.1137882471084594,-0.228854089975357,-0.2270052582025528
1783196671253602000,2.37860205078125,-0.2069401112366467,-0.5205816246956586,-0.6266051276564598,-0.1168141216039657,-0.2336677461862564,-0.2424920797348022
1783196671263539000,2.3885390625,-0.2447478638444095,-0.5982932254076003,-0.7461264100939035,-0.1005373820662498,-0.2191343456506729,-0.2654567062854767
1783196671273475800,2.398475830078125,-0.2974043721463531,-0.6282064253732562,-0.8861568120747804,-0.0682534798979759,-0.1966079920530319,-0.2963858544826507
1783196671283413000,2.4084130859375,-0.3543517825752496,-0.5801546343877911,-0.9746534261733292,-0.0229738820344209,-0.1685153692960739,-0.3370493948459625
1783196671293350000,2.418349853515625,-0.3706863198477774,-0.514224949145317,-1.0300275228708982,0.0280181970447301,-0.1409561783075332,-0.3779542148113251
1783196671303287000,2.428287109375,-0.3217098882980644,-0.459929003073275,-1.049500285103917,0.0741026997566223,-0.1047365814447403,-0.4050589203834533
1783196671313224000,2.438223876953125,-0.2487793113175779,-0.4109235646247863,-1.0252578242510555,0.1038435474038124,-0.0591328851878643,-0.4279519915580749
1783196671323160800,2.448160888671875,-0.1646455686036497,-0.3412286816298961,-0.9714917472720146,0.1214983761310577,-0.0183412842452526,-0.4381368458271026
1783196671333098000,2.458097900390625,-0.059705257769674,-0.3060311115205287,-0.9115116180837154,0.1243247911334037,0.0109236603602766,-0.435420960187912
1783196671343035000,2.468034912109375,0.0328777488596737,-0.2951692335054278,-0.8633955296903848,0.1202617809176445,0.0290554538369178,-0.4311304688453674
1783196671352972000,2.477971923828125,0.0781023535951972,-0.2753656318828463,-0.8017839999079703,0.1020449548959732,0.042569663375616,-0.4260779321193695
1783196671362909000,2.487908935546875,0.0625371932599693,-0.2511842535674571,-0.7740911063402891,0.0750080347061157,0.0621207654476165,-0.4186455309391022
1783196671372845800,2.497845703125,0.0211748899757862,-0.2597080440238118,-0.7415735690951347,0.0519581139087677,0.0809168219566345,-0.409128725528717
1783196671382783000,2.507782958984375,0.0055417789708822,-0.3033165918648243,-0.7980255241572857,0.0475971288979053,0.0929678305983543,-0.3921884298324585
1783196671392721000,2.517720947265625,-0.0207161133576184,-0.3215592277809977,-0.8922071981549262,0.0737496316432952,0.1096421480178833,-0.3824425935745239
1783196671402658000,2.527657958984375,-0.0632538901619613,-0.2692304901286959,-0.9503969367951154,0.1267042607069015,0.1426680535078048,-0.3845357298851013
1783196671412595000,2.537594970703125,-0.0979648457981646,-0.1686784043163061,-0.8829173917621373,0.1820625811815261,0.1600212007761001,-0.3919273316860199
1783196671422531800,2.54753173828125,-0.0970127327051013,-0.0824295691445469,-0.7871580931842327,0.2272851467132568,0.140442281961441,-0.3905417919158935
1783196671432469000,2.557468994140625,-0.0794642165329307,-0.0790296975731849,-0.6952233213305473,0.2494674026966095,0.1350794732570648,-0.3747897148132324
1783196671442406000,2.567406005859375,-0.0352091144166886,-0.1164168866813182,-0.5145078577399254,0.2483168840408325,0.1261544525623321,-0.3583132028579712
1783196671452343000,2.577343017578125,-0.0422925698716193,-0.1069984854727983,-0.3783452371031046,0.2331094294786453,0.1138578355312347,-0.3373922109603882
1783196671462280000,2.587280029296875,-0.0652114539705216,-0.0639481560364365,-0.272231133249402,0.2206833660602569,0.1132287085056305,-0.3227652013301849
1783196671472216800,2.597216796875,-0.092337726631388,-0.0112894557774066,-0.176257899659872,0.2192631065845489,0.1150311380624771,-0.3116022944450378
1783196671482154000,2.607154052734375,-0.1333715286135673,0.0437234063923358,-0.119188689482212,0.2275383174419403,0.1093681901693344,-0.2949299216270447
1783196671492091000,2.6170908203125,-0.1431793675310909,0.0638975948929786,-0.0759165339887142,0.2496295124292373,0.0818361639976501,-0.2813565731048584
1783196671502028000,2.627028076171875,-0.1768575460534542,0.0902253375872969,-0.0722778852254152,0.2848215997219085,0.0517836660146713,-0.267008364200592
1783196671511965000,2.63696484375,-0.1974750944074243,0.151272511485219,0.0468441687613725,0.3262449204921722,0.0068044709041714,-0.2639273703098297
1783196671521901800,2.64690185546875,-0.208620392473787,0.2313216152340173,0.211072023409605,0.3668297827243805,-0.0378123745322227,-0.2651617527008056
1783196671531839000,2.6568388671875,-0.1940991517009213,0.3248340116679668,0.4130506397813558,0.3940938711166382,-0.0934338271617889,-0.2650471925735473
1783196671541776000,2.66677587890625,-0.1648874876007437,0.434343018656969,0.6723539023965597,0.3921793699264526,-0.157593548297882,-0.2614160776138305
1783196671551714000,2.676714111328125,-0.0981928824003785,0.5245742014631629,0.9464525830835104,0.3506979644298553,-0.2327375560998916,-0.2600802183151245
1783196671561651000,2.68665087890625,-0.0790424839895218,0.6089981592953205,1.1771639574646948,0.2844212055206299,-0.2777568101882934,-0.2554735839366913
1783196671571588000,2.696588134765625,-0.0810376763947308,0.6323381183505058,1.3648650421589612,0.2226712852716446,-0.2836610078811645,-0.2285000383853912
1783196671581524700,2.706524658203125,-0.0705000618979334,0.6522320286050438,1.4629951615214347,0.1639213263988495,-0.3115566968917846,-0.2108214795589447
1783196671591460900,2.7164609375,-0.0916955562703311,0.7356897717535495,1.4391881694763895,0.121927261352539,-0.3451287746429443,-0.2021979093551635
1783196671601398000,2.72639794921875,-0.1040186659444123,0.7684837878525257,1.4054747004449366,0.0947299599647522,-0.3842720091342926,-0.2066189497709274
1783196671611335000,2.7363349609375,-0.0766343268692493,0.7702309237807988,1.39269354480505,0.0614138096570968,-0.4310853183269501,-0.2112171649932861
1783196671621271800,2.746271728515625,-0.0240240688618272,0.7327601480424404,1.4309551786601542,0.0109408227726817,-0.460099846124649,-0.2134162038564682
1783196671631209000,2.756208984375,0.0727228525139391,0.6578548369228839,1.491978679421544,-0.063975766301155,-0.4899413585662842,-0.2014588713645935
1783196671641145900,2.766145751953125,0.141678753709793,0.5786477369561791,1.460903742200136,-0.1446814835071563,-0.5371991991996765,-0.1707673370838165
1783196671651083000,2.7760830078125,0.1658775946166366,0.5285515806615352,1.2681225777626035,-0.1958474665880203,-0.5914339423179626,-0.1302976757287979
1783196671661020200,2.786020263671875,0.0998767438340932,0.5543234430387616,1.0081038603544237,-0.205261155962944,-0.5985428690910339,-0.1076574027538299
1783196671670956800,2.795956787109375,0.0036936668861657,0.6329840150386095,0.9190922824710608,-0.1815747320652008,-0.5969443917274475,-0.0982087701559066
1783196671680894000,2.80589404296875,-0.0885951791021972,0.6681921065419912,0.8259428741306066,-0.1530989408493042,-0.5918710827827454,-0.0902147069573402
1783196671690830800,2.815830810546875,-0.1138954784449189,0.5742743441775441,0.7094020688086747,-0.1462860405445099,-0.6175471544265747,-0.095063529908657
1783196671700769000,2.82576904296875,-0.1272895783513784,0.4409814337581396,0.6054623863846064,-0.1700250804424286,-0.622884213924408,-0.1065855249762535
1783196671710706000,2.835705810546875,-0.1359023622654378,0.2943450576409697,0.6053823068857193,-0.2313622087240219,-0.6028113961219788,-0.1281350255012512
1783196671720643000,2.84564306640625,-0.1791746638894081,0.2036386585384607,0.5470458532512188,-0.3031738400459289,-0.5431925654411316,-0.1460993289947509
1783196671730580000,2.855580078125,-0.2312540298905223,0.1162429914191365,0.3965168536096811,-0.3553528785705566,-0.467179536819458,-0.1556941717863083
1783196671740516900,2.865516845703125,-0.3043203620798885,0.0646548430010676,0.1852057607471942,-0.3788743317127228,-0.358646810054779,-0.1611970663070678
1783196671750454000,2.8754541015625,-0.3981286727204918,0.0196057409629225,0.028409517404437,-0.3710920512676239,-0.2475833892822265,-0.1854925453662872
1783196671760391000,2.885390869140625,-0.4793234393730759,0.0286667070358991,-0.1167763676434755,-0.3363641202449798,-0.1560651063919067,-0.2297639399766922
1783196671770328000,2.895328125,-0.511749060551077,0.0210413267239928,-0.2459381696075201,-0.294466495513916,-0.1097367480397224,-0.2800169885158539
1783196671780265000,2.905264892578125,-0.4659577618435025,-0.0471250315293669,-0.3860825533568859,-0.2553165555000305,-0.0922103300690651,-0.3136743009090423
1783196671790201900,2.915201904296875,-0.3698538876116276,-0.1539072439029812,-0.4647410795301199,-0.2304500937461853,-0.0869540497660636,-0.3320535719394684
1783196671800139000,2.925138916015625,-0.2572584589146077,-0.2448103346213698,-0.5011240600317717,-0.2139947861433029,-0.0991710424423217,-0.3332746028900146
1783196671810076000,2.935075927734375,-0.1775039541982114,-0.3279240866377949,-0.575744124469161,-0.1969995498657226,-0.1376523822546005,-0.3308631181716919
1783196671820013000,2.945012939453125,-0.1685062626197934,-0.3675865272015333,-0.6785276225954294,-0.1754875034093856,-0.1849974691867828,-0.3405541777610779
1783196671829950000,2.954949951171875,-0.2473066814817488,-0.3546858368352055,-0.7553799761295318,-0.1481831669807434,-0.2304078191518783,-0.3742905855178833
1783196671839888000,2.964887939453125,-0.4305379272855818,-0.3160246822685003,-0.8885375697314739,-0.1060268655419349,-0.2444574534893036,-0.4375894367694855
1783196671849825000,2.974824951171875,-0.6340418535284698,-0.3100301180288195,-0.9629413610696792,-0.0661454945802688,-0.2077391296625137,-0.5361593961715698
1783196671859762000,2.984761962890625,-0.7919958886042237,-0.1995408678308129,-0.9153115948885678,-0.0342335402965545,-0.1291322112083435,-0.6467351913452148
1783196671869699000,2.994698974609375,-0.8633028829708695,-0.2274628939792513,-0.8332505667954683,-0.005615210160613,-0.0294319726526737,-0.7426968812942505
1783196671879635700,3.0046357421875,-0.7671587497938424,-0.2951896917715668,-0.8474930271595716,0.0080908443778753,0.0421224422752857,-0.8236363530158997
1783196671889572900,3.01457275390625,-0.6315044440053403,-0.1925397568970918,-0.8755003935039043,0.0033560106530785,0.1066372543573379,-0.8923858404159546
1783196671899510000,3.024510009765625,-0.4718685933224856,-0.0662701692432165,-0.7928115889012813,-0.0194347500801086,0.1758037060499191,-0.929668664932251
1783196671909447000,3.034447021484375,-0.2795763083804398,-0.021923077994585,-0.7194722119241952,-0.0481470897793769,0.2433459907770156,-0.9338958859443665
1783196671919384000,3.044384033203125,-0.0432813617132604,-0.0248389654412865,-0.6875298442184925,-0.0791960656642913,0.2889756262302398,-0.9099230766296388
1783196671929320700,3.05432080078125,0.202847215899825,-0.0802390733629465,-0.7438608032494783,-0.1030452027916908,0.3027074038982391,-0.872470498085022
1783196671939257900,3.0642578125,0.4272675273127854,-0.1547925023049116,-0.868557442498207,-0.1103576943278312,0.2727766036987304,-0.8147795796394348
1783196671949195000,3.074195068359375,0.5654921950459479,-0.2185825451701879,-1.0000374582767486,-0.0953119024634361,0.2398373037576675,-0.7401468753814697
1783196671959132000,3.0841318359375,0.6299474238216877,-0.2739052039414644,-1.054129113948345,-0.0588837042450904,0.2019821852445602,-0.6668822765350342
1783196671969069000,3.094069091796875,0.6191341341886669,-0.2383265255600213,-1.124046115261316,-4.03597950935e-05,0.1630560904741287,-0.5980523228645325
1783196671979007000,3.104007080078125,0.5322033081021159,-0.1512824483573436,-1.1336796205252408,0.077230229973793,0.1456715613603592,-0.5422484874725342
1783196671988944000,3.11394384765625,0.4316185621291398,-0.0445382299065589,-1.0510568668961524,0.1589304357767105,0.1193179860711097,-0.4939770996570587
1783196671998880800,3.123880859375,0.3315815862320363,0.0271539643853902,-0.9638941317498684,0.2290356904268264,0.0884599387645721,-0.4508513808250427
1783196672008818000,3.13381787109375,0.2531369220051914,0.025069267065823,-0.8411562253534793,0.2737589478492737,0.0505506359040737,-0.4201437830924988
1783196672018755000,3.143755126953125,0.1631506538707763,0.0364396791249513,-0.6742091748744249,0.2882508337497711,0.0338478647172451,-0.4040259420871734
1783196672028692000,3.15369189453125,0.0793280229326337,0.0779872027829289,-0.4500608122706413,0.2884481847286224,0.0342950075864791,-0.3933147192001343
1783196672038628900,3.16362890625,0.0290012727525085,0.1375970373541116,-0.2435714404761791,0.28888601064682,0.0236966274678707,-0.3834044337272644
1783196672048565800,3.173565673828125,0.0036554903002455,0.2219377008169889,-0.1320744745403528,0.2981330454349518,0.0057434597983956,-0.3685078024864197
1783196672058503000,3.1835029296875,0.0201039728086441,0.3736442198053002,-0.0364870253980159,0.3164914548397064,-0.013008908368647,-0.3606760203838348
1783196672068440000,3.193440185546875,-0.0396945162024348,0.5415127690434456,0.0892687675148248,0.345887690782547,-0.0164558365941047,-0.3536929488182068
1783196672078377000,3.203376953125,-0.1063958434045314,0.6295628084182738,0.2620662975877523,0.378930389881134,-0.0059625450521707,-0.3502370119094848
1783196672088313900,3.21331396484375,-0.1253077934170141,0.6268021115332841,0.4846206689983606,0.3871084153652191,-0.0264510419219732,-0.3557417690753937
1783196672098250800,3.223250732421875,-0.1321572574529796,0.5697726488441228,0.6980278573572635,0.3538146615028381,-0.0678339749574661,-0.3771381378173828
1783196672108188000,3.23318798828125,-0.1050417984470725,0.5343886162519454,0.9634037178844213,0.2923587560653686,-0.0855597108602523,-0.3916915357112884
1783196672118125800,3.243125732421875,-0.0542542988874018,0.445999261920154,1.1567395935952662,0.1909971088171005,-0.0972720012068748,-0.4081622362136841
1783196672128063000,3.25306298828125,-0.0427777230400592,0.4453308611392975,1.280153207296133,0.0735969692468643,-0.1018664836883544,-0.4170161783695221
1783196672138000100,3.263000244140625,0.0020534984637051,0.4149000670403241,1.313040746897459,-0.0345217511057853,-0.1218191385269165,-0.4181107580661773
1783196672147936800,3.272936767578125,0.0631315789565443,0.3663660454958677,1.1463386110901832,-0.1054052412509918,-0.1539224833250045,-0.4061153531074524
1783196672157874000,3.2828740234375,0.1003687651347368,0.3657894146516919,0.8881289889305829,-0.1273239701986313,-0.1620003283023834,-0.3928412795066833
1783196672167810800,3.292810791015625,0.1363411190088838,0.380770710684359,0.6950128934502601,-0.1064149662852287,-0.1787814497947693,-0.3828754723072052
1783196672177748000,3.302748046875,0.1259976388446986,0.4308911246374249,0.4842880760431289,-0.0711966007947921,-0.2053380757570266,-0.3637637794017792
1783196672187685000,3.31268505859375,0.1409025086402893,0.4223044980779289,0.3538169450461864,-0.0158571731299161,-0.2214616537094116,-0.3386272490024566
1783196672197621800,3.322621826171875,0.1444468301836401,0.4445198370173573,0.3258306214898824,0.0172762759029865,-0.2380251139402389,-0.3280546069145202
1783196672207559000,3.332558837890625,0.1328108990561217,0.4930930215284228,0.3500117075443267,0.0158403012901544,-0.2567269206047058,-0.3210217356681824
1783196672217495800,3.342495849609375,0.1365076346822082,0.441648373234272,0.379689052927494,-0.0188955329358577,-0.2658870816230774,-0.299016535282135
1783196672227433000,3.352432861328125,0.146518960282579,0.3376408862709998,0.3718284025549888,-0.0716492906212806,-0.2555997967720032,-0.269241601228714
1783196672237370000,3.3623701171875,0.141389342309162,0.2505731359317898,0.3391138814330101,-0.1273115873336792,-0.2368083000183105,-0.2415990233421325
1783196672247306800,3.372306640625,0.0932670433707535,0.2188990637734532,0.2412567337930202,-0.1643540263175964,-0.2052080333232879,-0.2348961234092712
1783196672257245000,3.382244873046875,0.0243748915934935,0.2274994265973567,0.135464701500535,-0.1716246902942657,-0.1361096054315567,-0.2385712563991546
1783196672267181800,3.392181884765625,-0.0166011523194611,0.2637766086369753,0.0811217014163732,-0.1457033455371856,-0.0806186646223068,-0.2412357479333877
1783196672277119000,3.402118896484375,-0.0407565924759954,0.2865095417097211,-0.0037245734810829,-0.1043359041213989,-0.0552199445664882,-0.2429148554801941
1783196672287056000,3.412055908203125,-0.0563879864478483,0.2994552402615547,-0.0445890833109617,-0.0537060163915157,-0.044979028403759,-0.2436394989490509
1783196672296993000,3.421992919921875,-0.0245122907701879,0.2972270428180694,0.020848726761341,-0.0074018249288201,-0.0549768805503845,-0.246597871184349
1783196672306930000,3.431929931640625,0.0273219413634389,0.3002425912469625,0.1329676239877939,0.0182830318808555,-0.0985949262976646,-0.248225063085556
1783196672316866800,3.44186669921875,0.1084187640668824,0.2732157603725791,0.2379962706923484,0.0155850760638713,-0.1336034387350082,-0.2415949702262878
1783196672326804000,3.451803955078125,0.1856196022450923,0.2207870694771408,0.3641664896249771,-0.0129464333876967,-0.1634713262319564,-0.219276875257492
1783196672336740900,3.461740966796875,0.2554780417712405,0.2048863205119967,0.4481090936809778,-0.0620266534388065,-0.1961990594863891,-0.1891421675682068
1783196672346678000,3.471677978515625,0.2577750666672364,0.2025160842493176,0.4643091178536415,-0.1081368923187255,-0.2114869356155395,-0.1534318476915359
1783196672356615000,3.481614990234375,0.2563579298783093,0.1457248142302036,0.4649690430670976,-0.1509772539138794,-0.2162302583456039,-0.1317856460809707
1783196672366551800,3.4915517578125,0.1974041480630636,0.1200806698858737,0.390839977017045,-0.1817953586578369,-0.2376687079668045,-0.1288969069719314
1783196672376489000,3.501489013671875,0.1005085754642263,0.0948708253055811,0.2691267374932766,-0.1954779028892517,-0.2327726334333419,-0.1446875929832458
1783196672386427000,3.511427001953125,-0.0091422511482611,0.0294356455817818,0.1642857223153114,-0.2067153751850128,-0.2131544649600982,-0.1640727519989013
1783196672396364000,3.521364013671875,-0.0974197426034137,-0.0161573540747165,0.0533411295652389,-0.2170338481664657,-0.2048367857933044,-0.1827048063278198
1783196672406301000,3.531301025390625,-0.1379815431596711,-0.0691734894692897,-0.1018511857122182,-0.2275599986314773,-0.2017525732517242,-0.1935228407382965
1783196672416237800,3.54123779296875,-0.139246485061571,-0.1627811629712581,-0.2377162847071885,-0.2399435043334961,-0.187219962477684,-0.2029909491539001
1783196672426175000,3.551175048828125,-0.135817533526197,-0.2503337742179632,-0.3528437160998582,-0.2575608491897583,-0.1700255274772644,-0.2201467603445053
1783196672436112000,3.56111181640625,-0.1307292339438572,-0.2853437128007411,-0.4849433250814676,-0.2741665840148926,-0.1392944157123565,-0.2388099282979965
1783196672446049000,3.571049072265625,-0.1145312190651893,-0.3160653065398335,-0.6085194358676672,-0.2758539617061615,-0.1181313246488571,-0.2522743344306946
1783196672455986000,3.58098583984375,-0.1200507496716454,-0.3675564243242144,-0.814490921267867,-0.2490195482969284,-0.0970046371221542,-0.2574398815631866
1783196672465922800,3.5909228515625,-0.1029741253275424,-0.3547600711151957,-0.960899626109004,-0.1864163428544998,-0.0825995951890945,-0.2563349604606628
1783196672475860000,3.60085986328125,-0.0891494154514744,-0.2632832721620798,-1.085066104003787,-0.0965055078268051,-0.0776767954230308,-0.2574913799762726
1783196672485796900,3.610796875,-0.0404381011113524,-0.1867939067214727,-1.1126724883317949,-0.0102177588269114,-0.0804464817047119,-0.2499817907810211
1783196672495734000,3.620734130859375,0.0196107093989849,-0.1801782879739999,-1.0598632736861706,0.0464067496359348,-0.0959165543317794,-0.2390090525150299
1783196672505671000,3.6306708984375,0.0335744258869439,-0.2258618885233998,-0.96004914675951,0.0588722079992294,-0.0957754030823707,-0.2277236431837082
1783196672515609000,3.640609130859375,0.0130228919738903,-0.2613800688892603,-0.8105535818189382,0.0354279652237892,-0.082253411412239,-0.2114530056715011
1783196672525545700,3.650545654296875,-0.0378097984343767,-0.2688502586394548,-0.6907201646924018,0.0060820612125098,-0.0559285953640937,-0.1952700465917587
1783196672535483000,3.66048291015625,-0.1118588945833966,-0.2766132938563823,-0.6634241614878177,-0.0079541876912117,-0.0221868567168712,-0.1925647407770156
1783196672545420000,3.670419921875,-0.184323644150421,-0.2161506418481469,-0.663647448849678,-0.0102362502366304,0.006043717265129,-0.2055921256542205
1783196672555357000,3.68035693359375,-0.2429761414641514,-0.1556736690536141,-0.684199823012948,0.0042029349133372,0.0270256735384464,-0.2267491370439529
1783196672565294000,3.690294189453125,-0.2564877668030559,-0.1569499725997447,-0.6969120050698518,0.0374282673001289,0.0320776924490928,-0.2407048940658569
1783196672575230700,3.700230712890625,-0.2418738427780568,-0.1717450984105467,-0.6972340766310692,0.0712894648313522,0.0113837923854589,-0.2494015991687774
1783196672585168000,3.71016796875,-0.2239718004604801,-0.1344154847085475,-0.6583224544346332,0.1111945360898971,0.0005021169781684,-0.2525212168693542
1783196672595105500,3.72010546875,-0.2239346467878669,-0.0549947419911623,-0.5604407568752765,0.1420280933380127,-0.0224250890314579,-0.2608301043510437
1783196672605042400,3.73004248046875,-0.2611854596326127,0.079409929062426,-0.4376712862968444,0.1645272821187973,-0.0314508080482482,-0.2662387192249298
1783196672614979600,3.7399794921875,-0.2238668422486633,0.1137310085982084,-0.2849433153063058,0.1735776215791702,-0.0338506326079368,-0.263286679983139
1783196672624916500,3.74991650390625,-0.1566825538352131,0.1223708266496658,-0.1452010826170444,0.1664470136165619,-0.0442340299487113,-0.2611806690692901
1783196672634854700,3.759854736328125,-0.1082440285544842,0.1598228976875543,-0.0563484946876764,0.1495096981525421,-0.0551566183567047,-0.2517936527729034
1783196672644791600,3.76979150390625,-0.0894946852251887,0.2222662021189927,0.0471107107430696,0.1329560279846191,-0.0447934567928314,-0.2473384439945221
1783196672654728700,3.779728759765625,-0.0985665014857426,0.3183382199078798,0.1777566137850284,0.1150158494710922,-0.0320263057947158,-0.2404247373342514
1783196672664665300,3.789665283203125,-0.1100231305235996,0.4171723958864808,0.2498714174032211,0.110105775296688,-0.0338122211396694,-0.2319803833961486
1783196672674602500,3.7996025390625,-0.0875619270643219,0.4779509819760918,0.2882727519899606,0.118297591805458,-0.0483406744897365,-0.2272102683782577
1783196672684539600,3.80953955078125,-0.0588066284295171,0.4954480602219701,0.3998351843774319,0.1168837249279022,-0.073728322982788,-0.2240813225507736
1783196672694476500,3.8194765625,-0.0485677411509677,0.5296779543429613,0.4967226102024316,0.1103953346610069,-0.1131222397089004,-0.2121901363134384
1783196672704413700,3.82941357421875,-0.0157894340777769,0.5497554044708609,0.5753326210588217,0.100329652428627,-0.1619792580604553,-0.1921021789312362
1783196672714350300,3.839350341796875,0.0350344519695267,0.5674269625008106,0.6283791515916586,0.0997479110956192,-0.2175133526325225,-0.1622845977544784
1783196672724287500,3.84928759765625,0.1136576876336708,0.5824801547259092,0.6538917785108089,0.1098713874816894,-0.2745862603187561,-0.1247702464461326
1783196672734224600,3.859224609375,0.2073235575962811,0.5398498042672872,0.6535603545993566,0.1340451389551162,-0.3480238616466522,-0.083617590367794
1783196672744161500,3.86916162109375,0.2294709458660334,0.506811750279367,0.6744383074551821,0.146617129445076,-0.39783376455307,-0.0487490892410278
1783196672754098700,3.8790986328125,0.2023962207293138,0.548140078228712,0.769872611862421,0.1242943778634071,-0.4376150965690613,-0.0250348839908838
1783196672764036600,3.88903662109375,0.1363804281059652,0.5566551008567213,0.806221690094471,0.090575024485588,-0.4545549154281616,-0.0064225839450955
1783196672773973500,3.898973388671875,0.0046232028212398,0.5352122075945138,0.8445686641454696,0.0437698811292648,-0.4243974387645721,0.0008893359918147
1783196672783910400,3.908910400390625,-0.1243831893853843,0.554044626097381,0.9372966322034596,-0.0184591375291347,-0.3827176392078399,-0.0215533897280693
1783196672793847600,3.91884765625,-0.2593782275475561,0.5508747638896108,0.9082195908010006,-0.075091928243637,-0.3409912586212158,-0.049819927662611
1783196672803784700,3.92878466796875,-0.3133249948557466,0.4354755298182368,0.7990700647741555,-0.1106395423412323,-0.3114629089832306,-0.075094386935234
1783196672813721600,3.9387216796875,-0.3356220937944948,0.3406090884268283,0.599209755730629,-0.1157238036394119,-0.2893239855766296,-0.1014019921422004
1783196672823658500,3.948658447265625,-0.3347673766613006,0.3675345047533512,0.4490986892402172,-0.0900610536336898,-0.2609248161315918,-0.133641704916954
1783196672833595400,3.958595458984375,-0.2747663508154451,0.443199986590445,0.3929284737288951,-0.0449299737811088,-0.247275173664093,-0.146665558218956
1783196672843532500,3.968532470703125,-0.1583874580569565,0.4849298810780048,0.3252092747211456,-0.0023351125419139,-0.2453177571296692,-0.1393778175115585
1783196672853469700,3.9784697265625,-0.0128415075249969,0.4625581825330853,0.3500999703496694,0.0167657695710659,-0.251341849565506,-0.11885716766119
1783196672863406600,3.988406494140625,0.149879303561151,0.3687684304624796,0.4357657449364662,0.0047075087204575,-0.2920874059200287,-0.0907312557101249
1783196672873343500,3.998343505859375,0.2456475160978734,0.2404138532280921,0.4511497765511274,-0.0351282022893428,-0.3302087187767029,-0.0656690597534179
1783196672883281400,4.008281494140625,0.2791617362301796,0.1376999132066965,0.5149257908910513,-0.0960171222686767,-0.3550227284431457,-0.0407056510448455
1783196672893218600,4.018218505859375,0.2419945465482771,0.073973583227396,0.4398293411135673,-0.1369010210037231,-0.3663315176963806,-0.015865184366703
1783196672903155500,4.028155517578125,0.1420284439302981,0.0789414347678423,0.2694979088932275,-0.1520629376173019,-0.3398165702819824,-0.0042319633066654
1783196672913092600,4.038092529296875,0.0083314827546477,0.1562599445089697,0.1570791519373655,-0.1392642855644226,-0.2889764010906219,-0.021056467667222
1783196672923029800,4.04802978515625,-0.1162042668439447,0.231258779130876,0.0563993480920791,-0.1178545951843261,-0.2408749163150787,-0.0570293851196765
1783196672932966400,4.05796630859375,-0.1659066745806485,0.2141498234197497,0.0001204115092754,-0.1034363508224487,-0.1986033916473388,-0.1066007316112518
1783196672942903600,4.067903564453125,-0.130101859293133,0.166930976127088,0.0426724360346794,-0.1078952848911285,-0.1645839065313339,-0.150038480758667
1783196672952840400,4.07784033203125,0.0185389154490083,0.1157283198952674,0.0749310300827026,-0.1227098703384399,-0.1616831421852111,-0.1525441408157348
1783196672962777600,4.087777587890625,0.1851937049832195,0.0170429047375917,0.001439677414298,-0.145865261554718,-0.1971620470285415,-0.1222701221704483
1783196672972714800,4.09771484375,0.3057346858572214,-0.0751212919577956,-0.0944721813768148,-0.1747303307056427,-0.2256875932216644,-0.0806237831711769
1783196672982651400,4.1076513671875,0.3634457741349935,-0.1416492353543639,-0.1768552810311317,-0.1906504333019256,-0.2477979660034179,-0.0488549321889877
1783196672992588500,4.117588623046875,0.32011202464737,-0.1739344251483678,-0.3308469883471727,-0.1852237731218338,-0.2432694882154464,-0.0300459526479244
1783196673002526500,4.1275263671875,0.2399327186476439,-0.1982926213353872,-0.4317635235577821,-0.1652215719223022,-0.2213697731494903,-0.0237768720835447
1783196673012463600,4.137463623046875,0.1448576029416173,-0.2153761503443121,-0.5442296267867088,-0.1354187875986099,-0.2059566229581833,-0.0298747066408395
1783196673022400500,4.147400390625,0.0324995631970465,-0.2316103690475225,-0.6520978808313608,-0.0983736887574195,-0.1804272979497909,-0.0448163747787475
1783196673032337700,4.157337646484375,-0.0707907154075801,-0.2251122391998767,-0.6504056899607181,-0.0661133229732513,-0.1486317813396453,-0.0770454034209251
1783196673042274600,4.167274658203125,-0.1455563257955014,-0.1910974491342902,-0.6187982532978058,-0.0458551943302154,-0.1305244117975235,-0.1163307577371597
1783196673052211500,4.17721142578125,-0.1942455379016697,-0.2003597829982638,-0.6028682782381772,-0.0332992300391197,-0.1323695331811905,-0.1525219082832336
1783196673062148600,4.187148681640625,-0.2085815948333591,-0.2450543725103139,-0.6327957989901304,-0.0360944867134094,-0.1258394718170166,-0.1790033131837844
1783196673072085500,4.19708544921875,-0.1753241259410977,-0.2746533919602632,-0.6131716455876827,-0.0453998930752277,-0.1281694322824478,-0.2094487696886062
1783196673082022700,4.207022705078125,-0.1435728238280862,-0.2321501750126481,-0.6906430078029632,-0.0498700104653835,-0.1212252452969551,-0.2281273901462555
1783196673091959600,4.21695947265625,-0.1418468037530779,-0.1433636380568146,-0.7549275561869144,-0.0466163717210292,-0.0877908319234848,-0.2429244220256805
1783196673101896400,4.226896484375,-0.1156369883500039,-0.002642623463273,-0.7683335657268762,-0.0374348573386669,-0.0509198978543281,-0.2588719427585602
1783196673111833600,4.23683349609375,-0.0901272109750658,0.11675853972584,-0.7787544219762086,-0.0282914862036705,-0.0103524755686521,-0.2742598950862884
1783196673121771500,4.246771484375,-0.0021608312956988,0.1779524286180734,-0.7670072855591773,-0.0433213040232658,0.0148378321900963,-0.2720122039318084
1783196673131708700,4.256708740234375,0.1132820227216929,0.0999576270505785,-0.8180991748929023,-0.0692778378725051,0.0246637351810932,-0.2305070459842682
1783196673141645600,4.2666455078125,0.1943885265689343,-0.0128512982666492,-0.961582347676158,-0.0756124332547187,0.0306981913745403,-0.1649075299501419
1783196673151582500,4.27658251953125,0.1702886159919202,-0.0493248796612024,-1.1429898851841689,-0.0410010889172554,0.0473512075841426,-0.1095612049102783
1783196673161519600,4.28651953125,0.0436984180815517,0.0360197001472115,-1.2572820347964764,0.0445409789681434,0.0730323418974876,-0.0789921060204505
1783196673171456500,4.29645654296875,-0.0765199797745794,0.1554573959544301,-1.2695762837022542,0.1496553570032119,0.0779546946287155,-0.0789315104484558
1783196673181393700,4.3063935546875,-0.1444332400497049,0.2086173237338662,-1.1985942835062742,0.244972288608551,0.0684370920062065,-0.0849119052290916
1783196673191330600,4.31633056640625,-0.155264357600361,0.223295252905786,-1.034623618489504,0.3045386672019958,0.0343089513480663,-0.0904808416962623
1783196673201267500,4.326267333984375,-0.1424292798161506,0.232672445321083,-0.7735738044679165,0.3213216364383697,-0.0101562524214386,-0.0896422117948532
1783196673211204600,4.33620458984375,-0.1067033749837428,0.2455649523809552,-0.5480459702044725,0.3109888136386871,-0.0625793933868408,-0.0850381553173065
1783196673221141500,4.3461416015625,-0.0704184480290859,0.264153917516768,-0.4341512954771518,0.2884286642074585,-0.099453255534172,-0.0821313187479972
1783196673231078700,4.35607861328125,-0.0593864741440862,0.2732376799434423,-0.3480985673993825,0.2580561637878418,-0.0834580212831497,-0.0906491428613662
1783196673241016600,4.3660166015625,-0.0852703455284237,0.3598652852997183,-0.2595926009505987,0.2318253368139267,-0.0166350435465574,-0.1089474558830261
1783196673250953500,4.375953369140625,-0.1072379933170974,0.4632204458341002,-0.1715466532289981,0.2063790559768676,0.0572737753391265,-0.1217572912573814
1783196673260890400,4.385890380859375,-0.0697286391340196,0.4927218501284718,-0.1518161168426275,0.198875606060028,0.1080200374126434,-0.1174749284982681
1783196673270827500,4.39582763671875,0.021674948452413,0.4505576558768749,-0.1560778659403324,0.2039922624826431,0.1242132559418678,-0.1056731864809989
1783196673280764700,4.4057646484375,0.1404798262488097,0.4348693806186318,-0.0818015003740787,0.2093678563833236,0.1007377579808235,-0.0995881259441375
1783196673290701600,4.41570166015625,0.232164714994654,0.4546668447613716,-0.0347737917393446,0.2063961923122406,0.0483043193817138,-0.0799910500645637
1783196673300638500,4.425638427734375,0.3315078634086996,0.4723480474025011,0.0193032508850097,0.2101624310016632,-0.0170587077736854,-0.0474703907966613
1783196673310575400,4.435575439453125,0.4078476643107831,0.4674959311962127,0.0519119735449552,0.209327757358551,-0.0767899975180625,-0.0059259999543428
1783196673320512500,4.445512451171875,0.4364641024641692,0.4599164358526468,0.0811468358576297,0.2067354321479797,-0.1144516170024871,0.0280181188136339
1783196673330449700,4.45544970703125,0.4118059734825045,0.4668307452857494,0.1273439388871192,0.2076398134231567,-0.1215804666280746,0.0404239855706691
1783196673340386600,4.465386474609375,0.3051408846825361,0.5201718748509884,0.2123953809678554,0.2161600738763809,-0.0852496176958084,0.0396468751132488
1783196673350323500,4.475323486328125,0.2088495250545442,0.6474672984212636,0.3642196811169386,0.2167778611183166,-0.0356918983161449,0.0281995963305234
1783196673360261400,4.485261474609375,0.1861781129106879,0.733551590681076,0.5463116937577724,0.2103268802165985,-0.0236293748021125,0.012621434405446
1783196673370198500,4.495198486328125,0.1846351943176239,0.7829813920214772,0.6009101299077272,0.19862762093544,0.0058102719485759,0.0068618161603808
1783196673380135400,4.505135498046875,0.2046194862693548,0.7961489166304468,0.8208248004645109,0.1643114537000656,0.0415261909365654,0.0011093879584223
1783196673390072600,4.515072509765625,0.2373410216540098,0.7418351426407694,0.9789514156281948,0.1106077879667282,0.0520271323621273,0.0054960818961262
1783196673400009700,4.525009765625,0.3361822849605232,0.5607873783558607,1.021387120297551,0.0645185858011245,0.0268211103975772,0.0271427873522043
1783196673409946400,4.5349462890625,0.447590330503881,0.3713578624337911,1.00042674985528,0.037078708410263,-0.0342313759028911,0.0578577443957328
1783196673419883500,4.544883544921875,0.5182079543668776,0.3255439135029911,0.9726952778428792,0.0245120488107204,-0.1132723987102508,0.0797329470515251
1783196673429820400,4.5548203125,0.5050944249674677,0.3868891935646534,1.0114940873146057,0.0254100374877452,-0.163951426744461,0.0968916788697242
1783196673439757600,4.564757568359375,0.4619407082218676,0.4746326512083411,1.145531386360526,0.0162138771265745,-0.191748172044754,0.0998824089765548
1783196673449694700,4.57469482421875,0.3756115743555128,0.5624716781809925,1.3261118253946305,-0.0362584367394447,-0.1975087970495224,0.0943603888154029
1783196673459631400,4.58463134765625,0.3241283476166427,0.5688321531236171,1.446267314082384,-0.1210473626852035,-0.1867618858814239,0.0820427313446998
1783196673469569500,4.594569580078125,0.3095402886852622,0.4192249445021152,1.389433081704378,-0.2116685211658477,-0.1750478744506836,0.0769728496670723
1783196673479506400,4.60450634765625,0.2512690092414617,0.262971429733932,1.17866500967741,-0.2762089073657989,-0.1605762541294098,0.0651521459221839
1783196673489443600,4.614443603515625,0.2016048876885324,0.2225017644405365,0.9825421335965394,-0.305722713470459,-0.1598213762044906,0.050107404589653
1783196673499380500,4.62438037109375,0.1953323102250695,0.2289922955036163,0.7042980236679315,-0.2994365990161896,-0.1768775880336761,0.0428449660539627
1783196673509317600,4.634317626953125,0.2097549494616687,0.1756105416670441,0.4381207836300134,-0.2689732313156128,-0.1962469667196273,0.0414833687245845
1783196673519254500,4.644254638671875,0.2282726759921759,0.133342302519083,0.2948158900231122,-0.2321201413869857,-0.1999652683734893,0.0311481785029172
1783196673529191400,4.65419140625,0.2286825719673186,0.1571928414449095,0.2521621586889028,-0.2235202640295028,-0.1970219314098358,0.0157655831426382
1783196673539128600,4.664128662109375,0.2752094184078276,0.1340413906991481,0.238138894033432,-0.2451241016387939,-0.1862252056598663,0.0074336170218884
1783196673549065500,4.6740654296875,0.3344334685318171,0.0096162618681788,0.1582470266729593,-0.2844176292419433,-0.1695002317428589,0.0181905422359704
1783196673559002600,4.684002685546875,0.3675036712236702,-0.1117582472205162,0.0433329457700252,-0.321464866399765,-0.1531689316034317,0.0278258565813303
1783196673568939500,4.693939453125,0.3553676816195249,-0.1070025771260261,-0.0935293475687503,-0.3276246786117553,-0.1297363191843032,0.0345345772802829
1783196673578877400,4.70387744140625,0.3648521338015794,-0.0849625947535037,-0.2459983753621578,-0.3175339698791504,-0.1102297380566597,0.0327502600848674
1783196673588814600,4.713814697265625,0.3859605344124138,-0.0368117273077368,-0.3997007443428039,-0.3087568283081054,-0.0862353518605232,0.0236304458230733
1783196673598751500,4.72375146484375,0.3701116617649793,-0.0293523512125015,-0.4634323350191116,-0.2927869260311126,-0.0649340599775314,0.024362813681364
1783196673608688400,4.7336884765625,0.3850543793529272,-0.1325400462254881,-0.6138619659394026,-0.2808752655982971,-0.0784837156534195,0.0345248319208622
1783196673618625300,4.743625244140625,0.4114192391872406,-0.1053022029489278,-0.8116846316754818,-0.2583265304565429,-0.0934211164712905,0.0480068176984787
1783196673628562400,4.7535625,0.4720477492816746,-0.0360007031857967,-0.9450754495114088,-0.2131976187229156,-0.1065041199326515,0.0726475715637207
1783196673638499600,4.76349951171875,0.6036646893128752,-0.0835106423795223,-1.0884370417416096,-0.1593921780586242,-0.1257462501525879,0.103953830897808
1783196673648436500,4.7734365234375,0.6756850926458835,-0.1179459959447383,-1.1920716037392616,-0.1141044870018959,-0.1171147301793098,0.1392001211643219
1783196673658373400,4.783373291015625,0.7264400051102041,-0.1211459610298275,-1.2084183429062365,-0.0694238245487213,-0.1307527720928192,0.174698993563652
1783196673668310500,4.793310546875,0.8181307390749454,-0.0665180065244436,-1.240025779569149,-0.0208101868629455,-0.1215299367904663,0.206471174955368
1783196673678247400,4.803247314453125,0.8635939748719335,0.0452232895612716,-1.1782979299306868,0.0118305794894695,-0.1230519413948059,0.2340559214353561
1783196673688185300,4.813185302734375,0.9133192520275712,0.1316658937394619,-1.196692249277234,0.0320899561047554,-0.1374653577804565,0.2693204581737518
1783196673698122500,4.82312255859375,1.02406510733515,0.0741033470869064,-1.2722656689167022,0.0345560424029827,-0.1232661828398704,0.320257157087326
1783196673708059400,4.833059326171875,1.0282809714645147,-0.0729044926911592,-1.2965239118605851,0.0168739520013332,-0.0594182163476944,0.3579951822757721
1783196673717996300,4.842996337890625,0.8501476333215833,-0.0748775463297963,-1.2668658556997776,-0.0184406302869319,0.0525370799005031,0.3750284910202026
1783196673727933400,4.852933349609375,0.6409029714696108,0.0091433836594223,-1.247440439739823,-0.0383563116192817,0.1472909301519394,0.3700740039348602
1783196673737870300,4.862870361328125,0.5214690750546753,0.0957452700525522,-1.3202613458007573,-0.0132770584896206,0.1927811801433563,0.3733763396739959
1783196673747807500,4.872807373046875,0.4901882399976253,0.0769528912991285,-1.4359925883054732,0.0431926921010017,0.199363574385643,0.3767451643943786
1783196673757744400,4.882744384765625,0.4882748075917363,0.0498024340450763,-1.4463053080052135,0.0887356773018837,0.1710957139730453,0.3769971132278442
1783196673767681300,4.892681396484375,0.4736860180079936,0.0249988321781158,-1.4266004905819891,0.1249883249402046,0.1143240109086036,0.3776559829711914
1783196673777618400,4.902618408203125,0.4693114561855793,-0.0499134932041168,-1.422434603074193,0.166584238409996,0.088837556540966,0.3832712471485138
1783196673787555600,4.9125556640625,0.4594719069555401,-0.0882327024653553,-1.373161745861173,0.2083905339241027,0.0973298475146293,0.3833527565002441
1783196673797493500,4.922493408203125,0.4217813509866595,-0.0005550035342574,-1.292106095418334,0.2497901767492294,0.1436914950609207,0.3716092705726623
1783196673807430400,4.932430419921875,0.4120204199507832,0.1348588445618748,-1.173528815832734,0.2746394276618957,0.1956011056900024,0.3654532432556152
1783196673817367300,4.9423671875,0.4088134406030178,0.2527244687467813,-1.1072533858925104,0.3012734353542328,0.2412487417459488,0.365013837814331
1783196673827304400,4.952304443359375,0.4842141340240836,0.3141536276996136,-1.0203355654180049,0.332520067691803,0.2511837482452392,0.3630224466323852
1783196673837241300,4.962241455078125,0.5598126881048083,0.3534361290350556,-0.9587526772081852,0.3631059527397156,0.2415300458669662,0.3795127272605896
1783196673847178500,4.972178466796875,0.5824266709730028,0.4753197566896677,-0.8789315369963645,0.394548088312149,0.2409098446369171,0.3969666957855224
1783196673857115400,4.982115478515625,0.5959229891449213,0.5356462150976061,-0.7138537875205277,0.4029695093631744,0.2500354349613189,0.4183167219161987
1783196673867052300,4.99205224609375,0.595032908437401,0.5767188147202134,-0.5851964279472828,0.3957059383392334,0.2621175348758697,0.436135321855545
1783196673876989400,5.001989501953125,0.6090181791700422,0.5928966270610689,-0.4431996943295002,0.3809331059455871,0.2837157547473907,0.4518842101097107
1783196673886926300,5.01192626953125,0.6706319009095429,0.5806944403529167,-0.3679296415507793,0.380570650100708,0.3096520900726318,0.4686982631683349
1783196673896863500,5.021863525390625,0.6913003026679158,0.5863385837197304,-0.3141121266454458,0.4071695208549499,0.3532565534114837,0.4814957976341247
1783196673906801400,5.031801513671875,0.7004352107599378,0.6339955301687121,-0.2045066735446453,0.4355640411376953,0.3824761509895324,0.4926353693008423
1783196673916738600,5.041738525390625,0.6910600641712545,0.7340221308022737,-0.0444832848489284,0.4367137253284454,0.4016163051128387,0.4945810735225677
1783196673926675200,5.05167529296875,0.6998356374315917,0.8110954336106777,0.1562438701570034,0.403425931930542,0.4074594378471374,0.5130472183227539
1783196673936612400,5.0616123046875,0.7648401706531643,0.7771691986113787,0.3041261546820402,0.351379245519638,0.4164017736911773,0.5516793131828308
1783196673946549500,5.071549560546875,0.8297842058591545,0.6826046627759933,0.3760223471134901,0.3114265203475952,0.4218350648880005,0.6120966076850891
1783196673956486400,5.081486328125,0.8566948630079626,0.596622954107821,0.3588385726004838,0.3068991601467132,0.4200552701950073,0.6818777918815613
1783196673966423600,5.091423583984375,0.7941337774157524,0.5838616722121834,0.3219470580548048,0.3341859579086303,0.4337321519851684,0.7329326868057251
1783196673976360400,5.1013603515625,0.6356427128538489,0.6180676009356976,0.388560926169157,0.3907461762428283,0.4588875770568847,0.7544377446174622
1783196673986297300,5.11129736328125,0.435880749618262,0.6335080389127135,0.5380144055336713,0.4403970837593078,0.4647701978683471,0.7503007054328918
1783196673996234500,5.121234375,0.2834701740138232,0.5857964396670461,0.7426981892108917,0.4709166288375854,0.4478330314159393,0.746636152267456
1783196674006171400,5.13117138671875,0.2180238883741199,0.4548439548939466,0.9910136093437673,0.4718648195266723,0.3943512439727783,0.7466366291046143
1783196674016109600,5.141109619140625,0.166177527411282,0.3567547520637512,1.1498761375665665,0.4443983137607574,0.3165728151798248,0.7536580562591553
1783196674026046500,5.15104638671875,0.1076740466468036,0.3365817326068878,1.2925678677111865,0.407863974571228,0.2438415139913559,0.7562149167060852
1783196674035983400,5.1609833984375,0.0511757682248949,0.3117527040377259,1.4473580319285393,0.3848095238208771,0.195471316576004,0.7533826231956482
1783196674045920300,5.170920166015625,-0.0514376340314745,0.2947019082546234,1.5415250928789377,0.3596921265125274,0.1757505983114242,0.7229345440864563
1783196674055857400,5.180857421875,-0.1938119687899947,0.3350210591614246,1.7019512171566484,0.3018301427364349,0.1796340197324752,0.6483417749404907
1783196674065794600,5.190794677734375,-0.3713379886895418,0.3955065075233578,1.840477059793472,0.2148930877447128,0.2443781197071075,0.5522781014442444
1783196674075731500,5.2007314453125,-0.4811427637547254,0.3346244610592723,1.9929495947182176,0.1150983124971389,0.3419001400470733,0.4654033482074737
1783196674085668400,5.21066845703125,-0.377558324509114,0.1232578386172652,2.049340759503841,0.0098560843616724,0.3996631205081939,0.4172340631484985
1783196674095605200,5.220605224609375,-0.2062584856480359,-0.093671678648889,1.8980057041764256,-0.092727281153202,0.3865281343460083,0.3996337652206421
1783196674105542400,5.23054248046875,-0.0336304669231176,-0.2564934658914804,1.7036153509765863,-0.1778150349855423,0.3532773852348327,0.4016900658607483
1783196674115479600,5.2404794921875,0.0089680270925164,-0.2968915272533893,1.5935855349838732,-0.2445096373558044,0.3254718482494354,0.4143720269203186
1783196674125417500,5.25041748046875,-0.0262061621412634,-0.3036865942209958,1.4867834488660097,-0.3019768893718719,0.3139337003231048,0.4213851392269134
1783196674135354600,5.260354736328125,-0.1107246663890779,-0.2898299183040857,1.3672253415495157,-0.3485832512378692,0.3079679608345032,0.4192061424255371
1783196674145291300,5.270291259765625,-0.2753286608733236,-0.2690776376545429,1.2071230423986912,-0.3752768933773041,0.3097164034843445,0.4042263329029083
1783196674155228400,5.280228515625,-0.4290155400238931,-0.2659747032031416,1.0658557920992373,-0.3781789541244507,0.3304597735404968,0.3601800501346588
1783196674165165300,5.290165283203125,-0.5382227875873447,-0.2632619371131062,0.9571475800991058,-0.3587628006935119,0.3683731257915497,0.3043209314346313
1783196674175102500,5.3001025390625,-0.5087031169839203,-0.3144718998685479,0.9116513188153504,-0.355843722820282,0.3509216904640198,0.2558556497097015
1783196674185039600,5.31003955078125,-0.3684413904651999,-0.4605944812446832,0.7695183915972709,-0.3677552342414856,0.2744396924972534,0.2341010123491287
1783196674194976300,5.319976318359375,-0.2130048911683261,-0.6255591257348656,0.6737135003119706,-0.3955698311328888,0.2070550322532653,0.2445659041404724
1783196674204913400,5.329913330078125,-0.1304858901746571,-0.692521368895471,0.6304027663737535,-0.4404443502426147,0.1532741487026214,0.2524617314338684
1783196674214850300,5.339850341796875,-0.1249286944389343,-0.6177414377212525,0.5410188480466603,-0.4964828491210937,0.1259016394615173,0.2454981058835983
1783196674224787500,5.349787353515625,-0.1499003463491797,-0.4820864743456244,0.44010406640172,-0.558383584022522,0.1187966912984848,0.2318725287914276
1783196674234725400,5.359725341796875,-0.1036683181367814,-0.4448699656292796,0.2282821014076471,-0.5980902910232544,0.1415824294090271,0.2382089793682098
1783196674244662500,5.36966259765625,0.0153030753329396,-0.5640025410100817,-0.0808966604888439,-0.6049036383628845,0.1489591002464294,0.2719069719314575
1783196674254599400,5.379599365234375,0.1259818567536771,-0.6646367521479726,-0.4380272601276636,-0.588875412940979,0.1517610102891922,0.3123012781143188
1783196674264536300,5.389536376953125,0.1288870766758918,-0.6502478690505027,-0.7178086626261472,-0.5491297841072083,0.1613719463348388,0.3317407071590423
1783196674274473500,5.399473388671875,0.0676385349869728,-0.594017447784543,-0.9194394884735344,-0.488639235496521,0.1953155398368835,0.3446711301803589
1783196674284410400,5.409410400390625,0.0026841245174407,-0.5955743218377232,-1.030122799938917,-0.4221010506153106,0.2281158417463302,0.3352369666099548
1783196674294347500,5.419347412109375,-0.0332505276948213,-0.5969225215762853,-1.0735966154843568,-0.3470616936683655,0.229815736413002,0.3336609005928039
1783196674304284400,5.429284423828125,-0.0298706759981811,-0.6031508945718407,-1.0886316875308752,-0.2952722311019897,0.215807169675827,0.3252736330032348
1783196674314221300,5.43922119140625,-0.0226166132166981,-0.6338081909030675,-1.019699605602026,-0.2773305177688598,0.1865960359573364,0.3179086744785309
1783196674324158500,5.449158447265625,-0.0168013510666787,-0.6760749687463045,-0.9685247141599654,-0.2886506021022796,0.1510089635848999,0.3172877728939056
1783196674334095400,5.459095458984375,-0.0247524562016129,-0.708752664989233,-0.9950169997662304,-0.311484545469284,0.1433467864990234,0.3147633373737335
1783196674344033500,5.469033447265625,-0.0196029644839465,-0.6894631503686308,-1.0249731620907785,-0.3293210864067077,0.1625963002443313,0.3077822923660278
1783196674353970400,5.478970458984375,-0.0244138718970119,-0.5899918455302715,-1.1411942339390515,-0.3226346969604492,0.2026638239622116,0.295436680316925
1783196674363907300,5.4889072265625,0.0090093820162117,-0.4854904375702142,-1.2640426149725914,-0.2983559966087341,0.2614488899707794,0.2787661552429199
1783196674373844500,5.498844482421875,0.0489694903522729,-0.4406725139394402,-1.331280752465129,-0.2740956544876098,0.3107685148715973,0.2701335251331329
1783196674383781400,5.508781494140625,0.1136661266684532,-0.4405120626807212,-1.4024913007199764,-0.2554233968257904,0.3555350601673126,0.2715604901313782
1783196674393718500,5.518718505859375,0.2089503550805151,-0.5216960156783461,-1.4411615153759718,-0.2325892001390457,0.3869233429431915,0.2842512428760528
1783196674403655400,5.528655517578125,0.3320237770415842,-0.6544917902305721,-1.4692016149461269,-0.1941354870796203,0.384779691696167,0.3089218437671661
1783196674413592300,5.53859228515625,0.3912133403740823,-0.699129096597433,-1.5824860488206147,-0.1377712786197662,0.3948903679847717,0.3221966326236725
1783196674423529500,5.548529541015625,0.3808955061078071,-0.6222586228847503,-1.5390817913800476,-0.0751769691705703,0.4286294877529144,0.3253843188285827
1783196674433466400,5.55846630859375,0.3024482115324586,-0.4764931843832135,-1.4206781147956846,-0.0183930527418851,0.4618161916732788,0.3240742981433868
1783196674443404500,5.568404541015625,0.2898375170886516,-0.3751096161827444,-1.2937351579248904,0.0350867770612239,0.4896614253520965,0.3263104856014251
1783196674453341400,5.578341552734375,0.3441040909357368,-0.3694540746390819,-1.166373098859191,0.0808896869421005,0.483728677034378,0.3443696498870849
1783196674463278600,5.588278564453125,0.4241007338449358,-0.358521177214384,-1.0261164869070052,0.1187456101179122,0.4496604800224304,0.372755765914917
1783196674473215200,5.59821533203125,0.5266663514368236,-0.3462111462175846,-0.8770809406936169,0.1568724960088729,0.3846606910228729,0.4182193875312805
1783196674483152400,5.60815234375,0.6354737860277295,-0.3902829276561737,-0.7867255469858646,0.1981114745140075,0.2930482625961303,0.4782295227050781
1783196674493089500,5.618089599609375,0.7083342203814535,-0.4027472724318504,-0.7368611536204814,0.2353355437517166,0.2142578214406967,0.5372179746627808
1783196674503026400,5.6280263671875,0.6823357827067374,-0.3565241581782698,-0.6121878952473402,0.2612647116184234,0.1763049811124801,0.5767003893852234
1783196674512963600,5.637963623046875,0.5981108545780182,-0.3020382424920797,-0.4601999289691448,0.2707530260086059,0.1756857931613922,0.6024742126464844
1783196674522900200,5.647900146484375,0.4660537695638835,-0.216072023653984,-0.3453577442586422,0.2690838575363159,0.2118037045001983,0.6091424822807312
1783196674532837400,5.65783740234375,0.3744738755624741,-0.1492024272128939,-0.2475993808180093,0.2737829983234405,0.2624256014823913,0.6060574650764465
1783196674542775300,5.667775390625,0.3572068066801875,-0.1442848445549607,-0.1778787788599729,0.282522976398468,0.3228948414325714,0.6014567017555237
1783196674552712400,5.67771240234375,0.3638581543281674,-0.1363444069445133,-0.0830611450463533,0.2811322808265686,0.360283762216568,0.6042569875717163
1783196674562649600,5.687649658203125,0.3841157833285629,-0.1119388644844293,0.0121124625980854,0.2833009660243988,0.4002520740032196,0.6158590316772461
1783196674572586500,5.69758642578125,0.4107807951532304,-0.0926364903822541,0.1837210751473903,0.2781890332698822,0.4126850366592407,0.6419486999511719
1783196674582523400,5.7075234375,0.4566040964342653,-0.0752016637176275,0.3102694797426462,0.2812595069408417,0.3730733394622803,0.675553560256958
1783196674592460300,5.717460205078125,0.4782349134840071,-0.0535059647381305,0.4080412871867418,0.2819314301013946,0.3062085509300232,0.7021300792694092
1783196674602397400,5.7273974609375,0.4551863385908305,0.014203881919384,0.5317781414926052,0.2561975717544555,0.2250804305076599,0.7231810092926025
1783196674612334300,5.737334228515625,0.4082828408576547,0.0891299435660243,0.6437006393641234,0.2179764062166214,0.1687684208154678,0.7382172346115112
1783196674622271200,5.747271240234375,0.3915985402993858,0.126674953584373,0.6431365757405757,0.1844984889030456,0.1529168039560318,0.7535014748573303
1783196674632208400,5.75720849609375,0.3939446650341153,0.1141594631433486,0.6033423254907131,0.1524473428726196,0.1828217059373855,0.767196536064148
1783196674642145300,5.767145263671875,0.3770598734676837,0.1105722523063421,0.5894271973848343,0.1305623203516006,0.2270417809486389,0.7764891386032104
1783196674652083500,5.77708349609375,0.3324436829540878,0.1069470475465059,0.5530225895732641,0.1181748956441879,0.2802773118019104,0.7863151431083679
1783196674662020400,5.787020263671875,0.2745449631497264,0.0668853785321116,0.5061638077646493,0.125649556517601,0.3526523411273956,0.8032760620117188
1783196674671957200,5.796957275390625,0.2323020045734941,0.0280000598207116,0.5136813437879085,0.1506422609090805,0.3985015749931335,0.8172677755355835
1783196674681894400,5.806894287109375,0.1617266854822635,0.0354869084447622,0.529971384331584,0.1763077676296234,0.4143487215042114,0.8228021264076233
1783196674691831300,5.816831298828125,0.1169840921100228,0.0603054156199097,0.6738567081749439,0.1964210122823715,0.3984389901161194,0.8301069140434265
1783196674701768400,5.8267685546875,0.0957111485872417,0.0887421132922172,0.8147872738659382,0.1998102217912674,0.3284476995468139,0.8442952036857605
1783196674711705300,5.836705322265625,0.0776093824464827,0.1317228846237063,0.9108294810384512,0.1735170930624008,0.2423453032970428,0.8587460517883301
1783196674721642200,5.846642333984375,0.0300771583557128,0.1438163502603769,1.0300585025310516,0.1123803257942199,0.1711774170398712,0.8703498244285583
1783196674731579400,5.856579345703125,-0.0426457672234624,0.131969552861154,1.0927245098024605,0.0241964049637317,0.140896737575531,0.8733978271484375
1783196674741516300,5.866516357421875,-0.1001613329291343,0.0710433749943971,1.0661164888620376,-0.0587385110557079,0.1600200831890106,0.8694722056388855
1783196674751454500,5.876454345703125,-0.1438489373557269,-0.0214870246648788,0.9281137933164836,-0.1109042465686798,0.185735285282135,0.8626134991645813
1783196674761391400,5.886391357421875,-0.2129983883623033,-0.0551008327141404,0.6790554458618163,-0.1206459701061248,0.2215310186147689,0.8520919680595398
1783196674771328500,5.89632861328125,-0.3017411592416465,-0.0326648367613554,0.5043079507648944,-0.1023830771446228,0.2580948770046234,0.8339633345603943
1783196674781265200,5.90626513671875,-0.4015079398952424,0.000249883107841,0.3664151453346014,-0.0728331506252288,0.2671963274478912,0.8028998374938965
1783196674791202300,5.916202392578125,-0.4803041940387338,0.0255199334427714,0.2791740842550992,-0.060644656419754,0.2636482119560241,0.7657420635223389
1783196674801139500,5.926139404296875,-0.5159400825001299,-0.0096437343969941,0.255153157198429,-0.0606234408915042,0.2716475129127502,0.7263224720954895
1783196674811076400,5.936076416015625,-0.5133108299750835,-0.0501309353470802,0.2773492069154977,-0.0846382230520248,0.2851308286190033,0.7040347456932068
1783196674821013500,5.946013427734375,-0.4866025635305792,-0.067059858316183,0.2863151881814003,-0.1253636181354522,0.3063348531723022,0.7022292613983154
1783196674830950100,5.9559501953125,-0.4531810631830245,-0.1040600939333438,0.2276671843796968,-0.1563561558723449,0.3174383640289306,0.7062088251113892
1783196674840887300,5.96588720703125,-0.4539424760095775,-0.1317567868933081,0.1034960303097963,-0.1587827354669571,0.3180606067180633,0.7151557207107544
1783196674850825200,5.9758251953125,-0.4736114914670586,-0.1649067768231034,-0.0013262801676988,-0.1436602473258972,0.2792966961860657,0.7154026031494141
1783196674860762400,5.985762451171875,-0.5299313445821404,-0.1626055141434073,-0.1353758541733026,-0.1235724240541458,0.2043510377407074,0.6973829865455627
1783196674870699500,5.995699462890625,-0.5809942270170897,-0.1842883536413312,-0.2437298459082841,-0.1020607501268386,0.1364164650440216,0.6763868927955627
1783196674880636400,6.005636474609375,-0.5753789444185793,-0.2213122623950242,-0.3280827843308448,-0.0762629136443138,0.0937947705388069,0.6585962772369385
1783196674890573300,6.0155732421875,-0.5376148848220705,-0.2340343813240528,-0.4024339686989784,-0.0653428882360458,0.0691706463694572,0.6467404365539551
1783196674900510200,6.02551025390625,-0.5376180996924639,-0.2403326046854257,-0.4858469959229231,-0.0718884989619255,0.0911675989627838,0.6383569240570068
1783196674910447400,6.035447265625,-0.5699567732393741,-0.2556295425385236,-0.5272942740768194,-0.0873673185706138,0.1344975084066391,0.6320878267288208
1783196674920384500,6.045384521484375,-0.6058478785708546,-0.3127589584708213,-0.594907090100646,-0.1007839068770408,0.1909616738557815,0.6262743473052979
1783196674930321400,6.0553212890625,-0.6283610314130783,-0.3956082143321633,-0.7004074459701776,-0.0914971977472305,0.2410802245140075,0.6067858338356018
1783196674940258300,6.06525830078125,-0.6289712722659111,-0.4394853499814867,-0.8108733152925968,-0.0706629082560539,0.2710109651088714,0.5696653723716736
1783196674950196200,6.0751962890625,-0.6338724883109331,-0.4373898390069604,-0.8693453780055046,-0.0377161391079425,0.2869598567485809,0.5271956920623779
1783196674960133400,6.08513330078125,-0.5871026999600232,-0.3981763112545013,-0.9076561116993428,-0.0036721248179674,0.2794122695922851,0.4930965006351471
1783196674970070300,6.0950703125,-0.488463608162105,-0.3357406056076288,-0.9049684800505636,0.0371978133916854,0.2598721385002136,0.4773716032505035
1783196674980007400,6.10500732421875,-0.3438813880957663,-0.3083969638690352,-0.8857809644997119,0.0695470198988914,0.2130065858364105,0.4805865287780761
1783196674989944600,6.114944580078125,-0.1667068119823932,-0.3162906397283077,-0.8707803792446851,0.0922280997037887,0.1649160385131836,0.5076159834861755
1783196674999881200,6.124881103515625,-0.0386181922078132,-0.3519119882076978,-0.837245773911476,0.1055343151092529,0.1210635751485824,0.5289713144302368
1783196675009818400,6.134818359375,-0.0080938746064901,-0.3542646888136863,-0.8073042246341705,0.1193976700305938,0.0991151332855224,0.549434244632721
1783196675019755300,6.14475537109375,-0.0173529936000704,-0.340143516741693,-0.8202227429181337,0.1498080641031265,0.1099414601922035,0.5602678656578064
1783196675029692400,6.1546923828125,-0.0167177644364535,-0.3101025987431406,-0.8109872970610856,0.2039722353219986,0.1237265169620513,0.5612273812294006
1783196675039629600,6.164629638671875,-0.019692542463541,-0.2449196402147412,-0.8167658804625272,0.2636294364929199,0.1578843593597412,0.556222140789032
1783196675049566200,6.174566162109375,-0.015296645592153,-0.1787391950815915,-0.6808207019686698,0.3124997913837433,0.1837061047554016,0.5498995184898376
1783196675059504400,6.18450439453125,0.042411008619517,-0.1462190274879336,-0.5065262113362551,0.330833375453949,0.1791780591011047,0.5494891405105591
1783196675069441300,6.194441162109375,0.1084321715377271,-0.184118842293322,-0.3644663493543863,0.3236987590789795,0.1625090688467025,0.5739575028419495
1783196675079378400,6.20437841796875,0.183408355936408,-0.23608166924268,-0.2529465870648622,0.3223835527896881,0.130814790725708,0.612709641456604
1783196675089315300,6.2143154296875,0.2296865613780915,-0.2599620187848806,-0.205624279397726,0.3388405442237854,0.0965143367648124,0.6553553938865662
1783196675099252500,6.22425244140625,0.2171241630554199,-0.1941311177417636,-0.1430780991137027,0.366359680891037,0.0592131353914737,0.6849992871284485
1783196675109189400,6.234189453125,0.1591612189084291,-0.0950467663943767,-0.0355418535023927,0.3977210819721222,0.0291953161358833,0.6960694789886475
1783196675119126300,6.244126220703125,0.0971086673602461,-0.0595803162157535,0.0993055928826332,0.4149790704250335,0.0019327290356159,0.7086375951766968
1783196675129063400,6.2540634765625,0.0520047663949429,-0.1175023438304662,0.2165343804687261,0.4151687026023865,-0.0069009764119982,0.7113686800003052
1783196675139000300,6.264000244140625,-0.0001345861651003,-0.1333157067731022,0.3561474338203668,0.4024594128131866,0.0060320845805108,0.7097413539886475
1783196675148937500,6.2739375,-0.0213264272756874,-0.1182806347265839,0.5250912110745907,0.3845885396003723,0.0175760891288518,0.7005939483642578
1783196675158875400,6.28387548828125,-0.0418511827796697,-0.1104480414047837,0.6163613815397023,0.3673356175422668,0.0205883923918008,0.6831406354904175
1783196675168812300,6.293812255859375,-0.067294836115837,-0.1043444638326764,0.6835445739746093,0.3431541323661804,0.0442460477352142,0.659571647644043
1783196675178749400,6.30374951171875,-0.0781052762046456,-0.0404106285825371,0.8335486729592084,0.3044385612010956,0.0717679560184478,0.6325443387031555
1783196675188686300,6.313686279296875,-0.0583756166011095,0.0008987024053931,0.9430828143894672,0.2509817481040954,0.0888670459389686,0.607473611831665
1783196675198623500,6.32362353515625,0.0158196465529501,-0.0394634108603,0.9834487270474432,0.1974926739931106,0.1189301908016204,0.6015061140060425
1783196675208560000,6.33356005859375,0.0989902433231472,-0.076728142632544,0.9954577292710542,0.1633802503347396,0.1498729288578033,0.5932095646858215
1783196675218497300,6.343497314453125,0.1629302160531282,-0.0267445068016648,1.0225058951944113,0.1282244622707367,0.1687376648187637,0.5711921453475952
1783196675228434400,6.353434326171875,0.2167854326203465,0.0597594721749424,1.0575281087368726,0.0949314981698989,0.193667784333229,0.5523795485496521
1783196675238371300,6.363371337890625,0.3207560947045683,0.1213598960414528,1.1037257962882518,0.0664018839597702,0.2117281556129455,0.5633320808410645
1783196675248308500,6.37330859375,0.4185938069917261,0.1357300744384527,1.0928536891400813,0.0263245049864053,0.2075397968292236,0.5922859907150269
1783196675258246400,6.383246337890625,0.4997999718211591,0.1753317247256636,1.0651187099963426,-0.0224879477173089,0.1853542476892471,0.6242846846580505
1783196675268183300,6.393183349609375,0.5376537555277348,0.1715197652220726,1.003893549183011,-0.0620116516947746,0.1681094765663147,0.66885906457901
1783196675278120200,6.4031201171875,0.5463768679484725,0.1396343884006142,0.9060369860649108,-0.0872053056955337,0.1791263371706009,0.694756269454956
1783196675288057300,6.413057373046875,0.5148679232239722,0.1009001685976982,0.8307534892827272,-0.0866210088133812,0.2170169949531555,0.7162748575210571
1783196675297994500,6.422994384765625,0.4405056329399347,0.1284872637033462,0.7663210568606853,-0.0822078809142112,0.262768805027008,0.7100833654403687
1783196675307931400,6.432931396484375,0.334744288046658,0.2348988891988992,0.8184662546396255,-0.0973796471953392,0.2954921424388885,0.6835984587669373
1783196675317868300,6.442868408203125,0.2806019251011312,0.3239443693518638,0.8848451449543238,-0.1288301050662994,0.3095787167549133,0.6637404561042786
1783196675327805200,6.45280517578125,0.2907153228364885,0.2826914447262883,0.924765067410469,-0.1867101788520813,0.3096796572208404,0.6629377603530884
1783196675337742300,6.462742431640625,0.3342018517330288,0.2394458849787712,0.9072861093431712,-0.2526172995567322,0.2850381135940552,0.6712844967842102
1783196675347679500,6.472679443359375,0.3710325760021805,0.2019143189638853,0.7590671402096748,-0.2993216812610626,0.2675954699516296,0.6972016096115112
1783196675357617400,6.482617431640625,0.3929201442919671,0.134506085601449,0.5967021568238735,-0.3197702765464782,0.2716686129570007,0.7242818474769592
1783196675367554300,6.49255419921875,0.3868251884177326,0.1492415901795029,0.4327180478036403,-0.3242982029914856,0.2838938534259796,0.7349944114685059
1783196675377491200,6.5024912109375,0.3457692476689815,0.1750987927526235,0.2551303608447313,-0.3157329261302948,0.2845915853977203,0.743574321269989
1783196675387428400,6.512428466796875,0.2869755517862737,0.1695534335851669,0.1469710148990154,-0.3114236891269684,0.2799561023712158,0.7469908595085144
1783196675397365200,6.522365234375,0.2479205755963921,0.16514613853693,0.0562374355286359,-0.3149579763412475,0.2558594048023224,0.7513698935508728
1783196675407302400,6.532302490234375,0.2182680723935365,0.1115294069007039,-0.0456499905407428,-0.3338038623332977,0.2411997616291046,0.767493724822998
1783196675417239600,6.542239501953125,0.1763318416789174,0.049351767668128,-0.1327326461881399,-0.3752228617668152,0.2127055078744888,0.7813887000083923
1783196675427176200,6.55217626953125,0.122411450920999,3.5363574326e-05,-0.3033423108279705,-0.4165045320987701,0.1883178800344467,0.7922466397285461
1783196675437113300,6.56211328125,0.1073193879902362,-0.0985220412895083,-0.5043652339100837,-0.4191102087497711,0.1851262003183365,0.8008196353912354
1783196675447050200,6.57205029296875,0.1338090432479977,-0.1988634069606661,-0.7832505643516778,-0.380450963973999,0.1703816056251526,0.7986257076263428
1783196675456988400,6.581988525390625,0.1422314191564917,-0.2038783125132322,-1.0343979930400848,-0.3140126764774322,0.173755407333374,0.7818860411643982
1783196675466925300,6.59192529296875,0.127690414237231,-0.1595616164028644,-1.1457114191025497,-0.259189635515213,0.1676186919212341,0.7692407965660095
1783196675476862500,6.601862548828125,0.0964737304575741,-0.1580894980236888,-1.2788631674855946,-0.2170102000236511,0.165929764509201,0.7728250026702881
1783196675486799400,6.61179931640625,0.0734461983524262,-0.233562087637186,-1.3777829759210347,-0.2012016773223877,0.1851178407669067,0.7937348484992981
1783196675496736300,6.621736328125,-0.0299009250059723,-0.2804243765771388,-1.4316197800487278,-0.1814041882753372,0.2151854783296585,0.8055537939071655
1783196675506673400,6.63167333984375,-0.1199985445603728,-0.2689157250910997,-1.5148592042714355,-0.1411070972681045,0.2491311877965927,0.7971357703208923
1783196675516610300,6.6416103515625,-0.1726667433001101,-0.2607175133273005,-1.5754671099692583,-0.0632126629352569,0.2765896022319793,0.7781378626823425
1783196675526547500,6.65154736328125,-0.1904974374145269,-0.2301683535456657,-1.5976619906425475,0.007917707785964,0.2676935791969299,0.7548722624778748
1783196675536484400,6.661484375,-0.2074285523407161,-0.2045429139018058,-1.526050460371375,0.0633659809827804,0.2551993131637573,0.7516878843307495
1783196675546421200,6.671421142578125,-0.1953948540672659,-0.2499818920403718,-1.4434294603079556,0.0921526253223419,0.2178836464881897,0.7701760530471802
1783196675556359200,6.681359130859375,-0.1949766286551952,-0.3306958894386887,-1.419123871091008,0.1178553104400634,0.1789429038763046,0.7940895557403564
1783196675566296300,6.69129638671875,-0.2576759536743164,-0.3612202070400118,-1.4014321470558642,0.1555893719196319,0.1613987982273101,0.7989828586578369
1783196675576233500,6.7012333984375,-0.3366182652249932,-0.2938511366441845,-1.3372697637468576,0.2317523062229156,0.1603853702545166,0.7826173305511475
1783196675586170400,6.71117041015625,-0.3776913032390177,-0.2151274362802505,-1.2289631182849403,0.3198643326759338,0.1547378599643707,0.7559814453125
1783196675596107800,6.721107666015625,-0.3495657173424959,-0.1557964186504483,-1.1022697522610423,0.3907032608985901,0.1396073102951049,0.7338677644729614
1783196675606044700,6.731044677734375,-0.3169058490172028,-0.1118999937787652,-0.8681377557814121,0.4223527908325195,0.1147573515772819,0.7200770974159241
1783196675615981800,6.74098193359375,-0.2981780599325895,-0.0721332160577178,-0.6358008260250091,0.4079528450965881,0.0892242267727851,0.7172439098358154
1783196675625919000,6.7509189453125,-0.2970173455901443,-0.1160161969259381,-0.4573229122281074,0.3752596080303192,0.070575974881649,0.7245817184448242
1783196675635856000,6.76085595703125,-0.2910081683032214,-0.1745958116665482,-0.3344838835448026,0.3588724136352539,0.0762678235769271,0.7173861265182495
1783196675645792800,6.770792724609375,-0.3200137519046664,-0.143952251599729,-0.2663794846117496,0.3681093454360962,0.1013340353965759,0.6869264841079712
1783196675655730700,6.780730712890625,-0.3597228080891072,-0.0335056714996695,-0.1811181991726159,0.3991939425468445,0.1294572055339813,0.6416097283363342
1783196675665667800,6.790667724609375,-0.3783380767099559,0.0568108515024185,-0.0885182414084672,0.4328600168228149,0.1572755277156829,0.5989456176757812
1783196675675604700,6.800604736328125,-0.3676023092925548,0.106114980636537,0.0712111327767372,0.4466203153133392,0.1549685150384903,0.5755645632743835
1783196675685542000,6.8105419921875,-0.3024380554646253,0.111870475423336,0.2227554469406604,0.4470629394054413,0.1427131742238998,0.5704891085624695
1783196675695479000,6.82047900390625,-0.2045478823378682,0.0763441117510199,0.3531342234790325,0.4299778640270233,0.1339030116796493,0.5763490796089172
1783196675705415700,6.830415771484375,-0.1522885566599667,0.0964531260609626,0.514575662279129,0.4140281677246094,0.1325879395008087,0.5770958065986633
1783196675715352800,6.840352783203125,-0.1455000655636191,0.1392056415945291,0.6149556063950061,0.4070678353309631,0.1644082069396972,0.5693325400352478
1783196675725289700,6.850289794921875,-0.1713647207908332,0.167712481893599,0.7591127329170704,0.4068268239498138,0.2089679539203643,0.5434474349021912
1783196675735227000,6.860226806640625,-0.2344406240373849,0.2370543136671185,0.8977958119422197,0.4123201072216034,0.2732345163822174,0.5009216666221619
1783196675745164000,6.8701640625,-0.2909171290189027,0.3146107238173484,1.0748024841427803,0.4014144539833069,0.296761155128479,0.4477814733982086
1783196675755102000,6.88010205078125,-0.2521235802441835,0.4169505698293447,1.2304729383260011,0.3661470413208008,0.3133147060871124,0.3996336758136749
1783196675765038800,6.890038818359375,-0.1324985451713204,0.4368883192256093,1.4292448676109313,0.3018908202648163,0.3265207707881927,0.3808626234531402
1783196675774975700,6.899975830078125,0.0066857613742351,0.3569391687199473,1.5152064102739096,0.2071433514356613,0.3058056831359863,0.3767180144786834
1783196675784913000,6.909912841796875,0.1746457882881164,0.2876961211457848,1.5169091225385665,0.1040433272719383,0.3017454147338867,0.3933417201042175
1783196675794849800,6.919849853515625,0.27576895198673,0.2450605099901557,1.50250474961102,0.0256625041365623,0.2883339524269104,0.4184954762458801
1783196675804787000,6.929786865234375,0.3081011957928538,0.238765501499176,1.3595704428821802,-0.0151733420789241,0.3047209084033966,0.4449435770511627
1783196675814723800,6.939723876953125,0.2993587941497564,0.2934989622056484,1.2778922766268253,-0.0180046111345291,0.3260036110877991,0.4685016870498657
1783196675824660700,6.94966064453125,0.2564621939703822,0.3851104934543371,1.2267793445050716,-0.0081120310351252,0.3156939744949341,0.4783982336521148
1783196675834598000,6.959597900390625,0.2031535053700208,0.447642352952063,1.1673206088423729,-0.0115514174103736,0.3035470843315124,0.4842467308044433
1783196675844535800,6.969535888671875,0.2080512142837047,0.3901458572730422,1.215388766440749,-0.0333355441689491,0.2839989364147186,0.4969902038574219
1783196675854473000,6.979472900390625,0.2327205222465097,0.2505114688724279,1.220792086789012,-0.0795584842562675,0.2638636827468872,0.5198434591293335
1783196675864409900,6.989409912109375,0.1850751201048493,0.1514674495354294,1.2225462369799611,-0.1405177116394043,0.2586864829063415,0.5370160341262817
1783196675874346800,6.9993466796875,0.0655976768091321,0.1308499011814594,1.2368424733579158,-0.1846638321876526,0.2635385990142822,0.5490654110908508
1783196675884284000,7.009283935546875,-0.0487651999518275,0.1273091598346829,1.2339841613173483,-0.2057872265577316,0.2602919340133667,0.5454286336898804
1783196675894220800,7.019220703125,-0.1607061102628707,0.1769493890553712,1.2395897262394429,-0.2170878648757934,0.2231363803148269,0.5280908346176147
1783196675904158000,7.029157958984375,-0.2348310846596956,0.1873483257338404,1.1836644253998994,-0.2246131598949432,0.1717501580715179,0.5134301781654358
1783196675914094600,7.039094482421875,-0.2773112129926681,0.1068131920337677,1.1857622744619845,-0.241466611623764,0.1566706597805023,0.4978663027286529
1783196675924031700,7.04903173828125,-0.3359168389573693,0.0517974072545766,1.2782014887064694,-0.2940166294574737,0.1344247460365295,0.4644287526607513
1783196675933969000,7.058968994140625,-0.4021989908993243,0.0309650471061468,1.2783511263102292,-0.3657871186733246,0.1128246486186981,0.4282757639884949
1783196675943906800,7.06890673828125,-0.4176601794034242,-0.0255266554445028,1.232778292658925,-0.4468089938163757,0.0952491164207458,0.3947463035583496
1783196675953843700,7.07884375,-0.410595940105617,-0.0702457948759198,1.1121394043684003,-0.5341939330101013,0.0914501696825027,0.3598432838916778
1783196675963780900,7.08878076171875,-0.4045212963670492,-0.0682736180201172,0.912170958775282,-0.6176949739456177,0.0948494300246238,0.322325736284256
1783196675973717800,7.0987177734375,-0.4032571216501295,-0.0889767988309264,0.6688719054996967,-0.6767023801803589,0.1342397928237915,0.2906326651573181
1783196675983654700,7.108654541015625,-0.4000722080036997,-0.1224482758000493,0.431083140078187,-0.7083980441093445,0.1692161411046981,0.2613557279109955
1783196675993591800,7.118591796875,-0.3729933546811342,-0.137221482039988,0.1270242054134607,-0.7018236517906189,0.2042687982320785,0.240591362118721
1783196676003529000,7.128529052734375,-0.3272206145435571,-0.1220613223090767,-0.1279109251201152,-0.6776400208473206,0.2089125514030456,0.226285383105278
1783196676013465900,7.1384658203125,-0.294341696640104,-0.1029436571240425,-0.3777893567860126,-0.6467188000679016,0.1604676097631454,0.21400947868824
1783196676023402800,7.14840283203125,-0.2948645514704286,-0.120910106447339,-0.5864589952290058,-0.624878466129303,0.0995430052280426,0.2030660212039947
1783196676033339600,7.158339599609375,-0.3025684038460254,-0.12085223878026,-0.7722656444787979,-0.6179733872413635,0.0379726067185401,0.2020718902349472
1783196676043277800,7.16827783203125,-0.2920112078659236,-0.1201280161589384,-0.9740127901822327,-0.5950568914413452,0.0263042338192462,0.2160439044237136
1783196676053214700,7.178214599609375,-0.2861991605862975,-0.1422816880390048,-1.1173469098836184,-0.5681290626525879,0.0735684931278228,0.2175867706537246
1783196676063151900,7.18815185546875,-0.3187577604942023,-0.0999117420822381,-1.2217103706777095,-0.5248281955718994,0.1232265904545784,0.2063253372907638
1783196676073088800,7.1980888671875,-0.3148762428857385,-0.0746736943207681,-1.3606944784760475,-0.473458468914032,0.1663792878389358,0.2010595649480819
1783196676083025700,7.208025634765625,-0.3611997487738728,-0.1024948904432356,-1.4688736981660129,-0.4271999001502991,0.1841886490583419,0.1799159348011016
1783196676092962800,7.217962890625,-0.4680938970893621,-0.1093690139964222,-1.5494886191040276,-0.3629624843597412,0.1805531233549118,0.1669837832450866
1783196676102899700,7.227899658203125,-0.5514784288711846,-0.079127458859235,-1.6357897689849137,-0.3159864544868469,0.1485861390829086,0.1201931163668632
1783196676112836900,7.2378369140625,-0.6153264855340123,0.0938496655642986,-1.6392273422181605,-0.2549351453781128,0.1305288076400756,0.0888122171163559
1783196676122773800,7.247773681640625,-0.5630285814113914,0.0666875178724527,-1.664765103578567,-0.1987073123455047,0.1204029396176338,0.0592119842767715
1783196676132712000,7.2577119140625,-0.4582344741150737,0.0845401315577328,-1.683508967015147,-0.1542122364044189,0.1219887807965278,0.0495318360626697
1783196676142648600,7.267648681640625,-0.3267562119022011,0.0640127457052469,-1.6283213328003885,-0.0977020785212516,0.1262868493795395,0.0660934969782829
1783196676152585700,7.277585693359375,-0.236111479859054,0.041386195616424,-1.6340969935923817,-0.0321105420589447,0.121955007314682,0.0825771763920784
1783196676162523000,7.28752294921875,-0.1983006585113704,0.1073857312247157,-1.6156559124946592,0.0380355194211006,0.1057275682687759,0.1003383323550224
1783196676172459800,7.297459716796875,-0.1364249248348176,0.1238856151267886,-1.5315525649189947,0.1131548881530761,0.0770678594708442,0.1284150928258896
1783196676182397000,7.30739697265625,-0.0769188428990542,0.0712798140987753,-1.501588803809881,0.185419499874115,0.0264710001647472,0.1561718881130218
1783196676192333800,7.317333740234375,-0.114535602979362,0.0761577953986823,-1.437992237690091,0.2323366403579712,0.0036273226141929,0.1637360155582428
1783196676202270700,7.327270751953125,-0.217343943285942,0.1725236815676093,-1.260883858680725,0.2704605758190155,0.0209573097527027,0.1567505449056625
1783196676212207900,7.337207763671875,-0.254949012928456,0.2152856955818831,-1.137668397900462,0.299100399017334,0.0511769726872444,0.1240937188267707
1783196676222144800,7.347144775390625,-0.2515815823219716,0.2991976122386753,-1.056729651835561,0.3232520818710327,0.0739075914025306,0.0990232601761818
1783196676232083000,7.3570830078125,-0.213358380781114,0.2690263458587229,-0.9583563713669776,0.3344261646270752,0.1171549260616302,0.0851519182324409
1783196676242019800,7.367019775390625,-0.1258385027602314,0.219526986413449,-0.8111813583284616,0.3498530685901642,0.1446941494941711,0.087490439414978
1783196676251956700,7.376956787109375,-0.0694860625497996,0.2411414368502795,-0.7021200951069593,0.3702234327793121,0.1470524966716766,0.0879770070314407
1783196676261893600,7.3868935546875,-0.0209394737847149,0.2433767946869134,-0.5951081656306981,0.4047518372535705,0.1211335435509681,0.0994048938155174
1783196676271830800,7.396830810546875,0.0373841203682124,0.2322331771209836,-0.4828232641875744,0.4550981819629669,0.0814535841345787,0.1118044182658195
1783196676281768000,7.406767822265625,0.0612386048167943,0.2308563358098268,-0.3819879775196313,0.508248507976532,0.039538886398077,0.1306420266628265
1783196676291704800,7.416704833984375,0.0511070869028568,0.2604039173334836,-0.2260112338662147,0.5426302552223206,0.011419054120779,0.1449217945337295
1783196676301641700,7.426641845703125,0.0080073653668165,0.2630252057477831,-0.0268061738610267,0.5408856272697449,-0.0044986596331,0.1584245562553405
1783196676311578600,7.43657861328125,-0.1155263675823807,0.2371253330767154,0.1697112544953823,0.5084705352783203,0.0022550208959728,0.160356268286705
1783196676321516800,7.446516845703125,-0.310833981757611,0.2345347320616245,0.3590209434300661,0.4588457643985748,0.0416045598685741,0.1381178200244903
1783196676331453700,7.45645361328125,-0.4548214508011937,0.2215019397482275,0.48816520973742,0.4402113258838653,0.1042961180210113,0.1055091395974159
1783196676341390800,7.466390869140625,-0.5214484706580639,0.2722144743755459,0.5260808066338301,0.4133530855178833,0.1147673949599266,0.0394726023077964
1783196676351328000,7.476327880859375,-0.5005848385885358,0.3503103982299566,0.5965718084424734,0.4092630445957184,0.1216014325618743,-0.0107677299529314
1783196676361264600,7.4862646484375,-0.3511231759175658,0.2891480735197663,0.6914923181086778,0.4011057615280151,0.1326199918985366,-0.0507463067770004
1783196676371201800,7.496201904296875,-0.201756205792725,0.3504834167093038,0.8006950356274842,0.3812068104743957,0.140367329120636,-0.0701880678534507
1783196676381138700,7.506138671875,-0.0683624653473496,0.4787865560173988,0.951315220683813,0.3351719379425049,0.1583420634269714,-0.0628563836216926
1783196676391075800,7.516075927734375,0.0604402940459549,0.4946557408004999,1.1042770004302265,0.2836543619632721,0.1734632104635238,-0.0310819689184427
1783196676401013000,7.526012939453125,0.1651164740510284,0.4672779045313596,1.2124041976720097,0.2251486927270889,0.1405417472124099,0.0170314982533454
1783196676410949600,7.53594970703125,0.2279265659682452,0.4593868590205907,1.2403045965105295,0.1821918338537216,0.0737099573016166,0.0616002231836319
1783196676420887800,7.5458876953125,0.2263908808335661,0.4247212038308381,1.2746668848395346,0.1448314189910888,-0.0045350492000579,0.0953717678785324
1783196676430824700,7.55582470703125,0.1251537353664636,0.4592056572347879,1.3051689906090498,0.1053658947348594,-0.0654607191681861,0.0970051065087318
1783196676440761900,7.565761962890625,0.0366889777109026,0.5311310757607222,1.341310563570261,0.0524675250053405,-0.0792447030544281,0.069210760295391
1783196676450698800,7.57569873046875,-0.0461541406705975,0.5518529612720012,1.3821575377434492,-0.0233437754213809,-0.0400739647448062,0.031408566981554
1783196676460636000,7.585635986328125,-0.0693837712191045,0.5582651664018631,1.365514445978403,-0.1119362264871597,0.0319323167204856,-7.772189565e-05
1783196676470572800,7.59557275390625,-0.0578217821106314,0.5352478634297847,1.3124351822197438,-0.2023565769195556,0.0990970507264137,-0.0185963939875364
1783196676480509700,7.605509765625,-0.0441211735382676,0.4928174194574355,1.1586094791203736,-0.2664016187191009,0.1474195718765258,-0.017979871481657
1783196676490446800,7.61544677734375,-0.003155541421473,0.4207932167321443,0.961740753108263,-0.2926710247993469,0.157100960612297,-0.0038531341124325
1783196676500383700,7.6253837890625,0.0502615759894251,0.3642354632079601,0.7342623692989348,-0.2742701768875122,0.1374771893024444,0.0262022372335195
1783196676510321000,7.63532080078125,0.103576694330573,0.2806634460300207,0.5774252094238996,-0.2307342737913131,0.0721813216805458,0.0544057451188564
1783196676520258800,7.6452587890625,0.1192583937175571,0.2071913825839758,0.4657949724972248,-0.1895423680543899,-0.0260917134582996,0.0916210263967514
1783196676530195700,7.65519580078125,0.1071419855967164,0.1195128068700432,0.4120288955181836,-0.1757691204547882,-0.1306083351373672,0.1371409595012664
1783196676540132900,7.6651328125,0.0295481660455465,0.0055228550747036,0.4163350682795047,-0.2033059448003769,-0.1984571665525436,0.1759445369243621
1783196676550069800,7.67506982421875,-0.1578597809210419,-0.0406517438620328,0.4253489803403615,-0.2509631514549255,-0.2016040235757827,0.1931295245885849
1783196676560007000,7.6850068359375,-0.3734549808435142,-0.0541346180304884,0.4278922350823879,-0.257684975862503,-0.1429393887519836,0.2048005759716034
1783196676569943800,7.69494384765625,-0.4888873865321278,-0.1038157637834548,0.2811538598954677,-0.2434662282466888,-0.1287990659475326,0.1932802349328994
1783196676579880700,7.704880615234375,-0.6587000555753707,-0.0642979923874139,0.0824795457661151,-0.2320394068956375,-0.1308659464120865,0.1593571603298187
1783196676589817900,7.71481787109375,-0.8119875601448118,-0.1413186882257461,0.1420095930993556,-0.2284388989210128,-0.1487635672092437,0.1194768920540809
1783196676599754200,7.724754150390625,-0.8837859912902116,-0.2468359952300786,0.119736971014738,-0.2587549984455108,-0.1751328557729721,0.0638929903507232
1783196676609692400,7.7346923828125,-0.9428205101914704,-0.1932268623784184,0.1055932948499917,-0.3148751854896545,-0.1475832909345626,0.0097026722505688
1783196676619629300,7.74462939453125,-0.9356427275165916,-0.1166758298784494,0.0329798940598964,-0.3666467666625976,-0.0882549807429313,-0.0298085175454616
1783196676629566500,7.75456640625,-0.8999895225942134,0.0079641107469797,-0.1604214481025934,-0.4052211344242096,-0.0180924255400896,-0.0671191662549972
1783196676639503400,7.76450341796875,-0.7784602613352238,0.0992190836429595,-0.3219043879568576,-0.4154761731624603,0.0496216416358947,-0.1057214215397834
1783196676649440300,7.774440185546875,-0.6571724076166748,0.065291971860826,-0.4830810383409261,-0.4122294783592224,0.0592737086117267,-0.1312029063701629
1783196676659377400,7.78437744140625,-0.5065463773414492,-0.0138996382758021,-0.6867331408828496,-0.3899571895599365,0.003273025387898,-0.1540778577327728
1783196676669314300,7.794314208984375,-0.3889176306523382,-0.1349205116212368,-0.8267822475641965,-0.3554322123527527,-0.0769226998090744,-0.1664201468229293
1783196676679251500,7.80425146484375,-0.2515026718668639,-0.1933411364078521,-0.9020493777334688,-0.3162161111831665,-0.1584958583116531,-0.1503879278898239
1783196676689188400,7.814188232421875,-0.1793251782760024,-0.2510356388770043,-0.9729758483499288,-0.2837271988391876,-0.2342138141393661,-0.1272695809602737
1783196676699126300,7.824126220703125,-0.1600887090168893,-0.2207932069569826,-1.054392148798704,-0.252056360244751,-0.2825991809368133,-0.0983500555157661
1783196676709063200,7.834063232421875,-0.2073113557018339,-0.2009402132347226,-1.1248124234586954,-0.2114619314670562,-0.3100073337554931,-0.0641843080520629
1783196676719000300,7.844000244140625,-0.318589564320445,-0.2742085708022117,-1.1753443408221005,-0.1548516452312469,-0.3125170767307281,-0.0336868502199649
1783196676728937500,7.8539375,-0.4569719068333506,-0.374615256794542,-1.194631225094199,-0.0782425627112388,-0.3253357708454132,-0.0270000491291284
