time,seconds_elapsed,ax,ay,az,gx,gy,gz
1783201289099431000,0.100430908203125,-2.6429405663982037,-2.157819838923216,0.377956530046463,0.4940798580646515,-0.0909042730927467,-0.8489521145820618
1783201289109366800,0.11036669921875,-2.442887803522497,-1.782041237437725,0.4607330129325389,0.4336521029472351,-0.108991652727127,-0.9768840670585632
1783201289119303700,0.1203037109375,-2.2660651095867155,-1.30949503711462,0.5185223540782928,0.4107766151428222,-0.130854070186615,-1.0822155475616455
1783201289129240800,0.13024072265625,-2.0962825434207915,-0.8210627008736133,0.6062731182456016,0.4037317633628845,-0.1305342018604278,-1.1692609786987305
1783201289139177700,0.140177734375,-1.864896338517964,-0.3703764501810073,0.729431880402565,0.3950967192649841,-0.1028937846422195,-1.225550889968872
1783201289149115000,0.150114990234375,-1.654411759607494,0.1072656119763851,0.9408195456326008,0.3780012428760528,-0.0520281381905078,-1.2569026947021484
1783201289159051800,0.1600517578125,-1.3697177428871392,0.5954612168520689,1.1530202808111905,0.357926607131958,-0.0269046761095523,-1.255890965461731
1783201289168987600,0.169987548828125,-1.0231716656267642,1.0396499222189188,1.3078706507831812,0.35824054479599,-0.020125301554799,-1.2227511405944824
1783201289178924800,0.1799248046875,-0.6283683379366993,1.398872525700927,1.5134873313963413,0.3837922513484955,-0.0359668470919132,-1.1562379598617554
1783201289188862000,0.189862060546875,-0.24204963773638,1.6958733585476875,1.7222271124660968,0.4319518804550171,-0.0786651074886322,-1.0634585618972778
1783201289198798800,0.199798828125,0.1302333767183125,1.930351976507902,1.9257260702729224,0.5010026097297668,-0.1391854435205459,-0.9562668204307556
1783201289208735700,0.20973583984375,0.4422887169644236,2.1287685164839028,2.156927273997664,0.5708822011947632,-0.2264443039894104,-0.8354126214981079
1783201289218672600,0.219672607421875,0.8008898275472224,2.233895362865925,2.375693943563104,0.6380209922790527,-0.3597288727760315,-0.6762775778770447
1783201289228609800,0.22960986328125,1.0820761284075675,2.239111636209488,2.527761989340186,0.6744657158851624,-0.5565027594566345,-0.487868994474411
1783201289238546000,0.2395458984375,1.192174333461374,2.158395592984557,2.684596226605773,0.6411160230636597,-0.8344939351081848,-0.2985365986824035
1783201289248482800,0.24948291015625,1.0937050452724095,1.911502314609289,2.5496669471561906,0.5557336211204529,-1.1958210468292236,-0.1539730131626129
1783201289258419700,0.259419677734375,0.6730065210863947,1.4691910935521124,2.092840878534317,0.4232101738452911,-1.506619215011597,-0.107034258544445
1783201289268356900,0.26935693359375,0.2047645938284695,1.092902788978815,1.620147963216901,0.2385680675506591,-1.703243851661682,-0.1644704341888427
1783201289278293800,0.279293701171875,-0.0534640252925455,0.717564916998148,0.9999690692156552,0.0246086306869983,-1.7702617645263672,-0.304475724697113
1783201289288231000,0.28923095703125,-0.2216569841794669,0.3119938193172216,0.1419382814288139,-0.1724015027284622,-1.71575129032135,-0.4787754416465759
1783201289298167800,0.299167724609375,-0.3749121939145028,0.0167430450081825,-0.7903893301904201,-0.308646410703659,-1.515529751777649,-0.6502851247787476
1783201289308103700,0.309103759765625,-0.4779164951846003,-0.1124888995826244,-1.524758082473278,-0.3874725997447967,-1.2155731916427612,-0.7925025820732117
1783201289318040800,0.319040771484375,-0.5027364636644721,-0.1593342373877763,-2.2324802353709936,-0.4288660883903503,-0.9154263734817504,-0.8934558033943176
1783201289327978000,0.32897802734375,-0.3095765290424228,-0.1896621556341648,-2.8183669836699963,-0.4427203834056854,-0.6907735466957092,-0.9346844553947448
1783201289337914600,0.33891455078125,0.0256999661847949,-0.3493926988631486,-3.364366542738676,-0.4129233658313751,-0.5476712584495544,-0.9047278761863708
1783201289347851800,0.348851806640625,0.3264548908680677,-0.6280927358657121,-3.830338040846586,-0.331470638513565,-0.4972988069057464,-0.8343350887298584
1783201289357789000,0.358788818359375,0.4167082855060696,-0.7196689035400747,-4.199916618648171,-0.1839754283428192,-0.4919200241565704,-0.7610872387886047
1783201289367725800,0.368725830078125,0.3395692239850759,-0.6584361439421773,-4.341393712306022,0.0375998653471469,-0.4632839560508728,-0.7094113826751709
1783201289377661700,0.37866162109375,0.2206532139644026,-0.5124553091242909,-4.209427374315261,0.2977081537246704,-0.3948553800582886,-0.6647517681121826
1783201289387598800,0.388598876953125,0.1152307456366717,-0.3890075008928775,-3.924675782188773,0.5407299399375916,-0.325624942779541,-0.6310755014419556
1783201289397535700,0.39853564453125,0.0511845360532403,-0.2669020471811294,-3.5842683538138864,0.7350943684577942,-0.2695800364017486,-0.608096718788147
1783201289407473000,0.408472900390625,-0.0167164492622017,-0.1307026016652584,-3.217486713254452,0.879514753818512,-0.2184288203716278,-0.5954944491386414
1783201289417409800,0.418409912109375,-0.1537595059953629,0.0633978286772966,-2.7098791364222765,0.9760919213294984,-0.1081555634737014,-0.5813666582107544
1783201289427346700,0.4283466796875,-0.3064293170578777,0.2724409766077995,-2.02985455326736,1.0247185230255127,0.0302840769290924,-0.5692968368530273
1783201289437283800,0.438283935546875,-0.4469543706879019,0.5193056134104729,-1.3573825774490833,1.021395206451416,0.167399600148201,-0.5774242877960205
1783201289447220700,0.448220703125,-0.5087316124260425,0.7145721649229526,-0.6780617586493491,0.9696344137191772,0.2743181884288788,-0.606316089630127
1783201289457156900,0.458156982421875,-0.4907227852657437,0.7862801413059234,-0.1851654287368059,0.8923489451408386,0.3372697234153747,-0.6633609533309937
1783201289467093800,0.46809375,-0.5085214768067002,0.9013006051927804,0.2687900528848171,0.8045737147331238,0.4145500063896179,-0.732420027256012
1783201289477030700,0.47803076171875,-0.53191842674613,1.0883312432795762,0.8570002756953239,0.7178246974945068,0.4735448658466339,-0.7932903170585632
1783201289486967800,0.4879677734375,-0.4820221769377589,1.28912970995605,1.3075140924304722,0.6294823884963989,0.4664293527603149,-0.8290329575538635
1783201289496905000,0.497905029296875,-0.3049129211455583,1.366450850045681,1.6207032590121029,0.5385657548904419,0.3848239779472351,-0.8273131251335144
1783201289506841900,0.507841796875,-0.0429176429674029,1.3332020759165286,1.880104721304774,0.4333508610725403,0.2455937564373016,-0.783237636089325
1783201289516778800,0.51777880859375,0.1998170544236898,1.242353345733881,2.120781024861336,0.3031931221485138,0.0986280143260955,-0.7246502041816711
1783201289526715600,0.527715576171875,0.3880095758967101,1.1658937909096478,2.379139700102806,0.1464779376983642,-0.0347110107541084,-0.6591100692749023
1783201289536651800,0.53765185546875,0.4996526723049581,1.1370850450545549,2.603098677614331,-0.0131652522832155,-0.1568891108036041,-0.5919907093048096
1783201289546589000,0.5475888671875,0.6460270364850759,1.1817805113494395,2.68683962161839,-0.1389621943235397,-0.2800221145153045,-0.5221267342567444
1783201289556525800,0.55752587890625,0.7334637662671506,1.1609954974740744,2.700675839269161,-0.2208463996648788,-0.3644664287567138,-0.4469688832759857
1783201289566462700,0.567462646484375,0.6823682236716151,1.2553326542943717,2.70120015540421,-0.2636144757270813,-0.4500733911991119,-0.3721286952495575
1783201289576400000,0.57739990234375,0.5256126046001911,1.2710247289448977,2.537199095249176,-0.2710737287998199,-0.6230760216712952,-0.3074468970298767
1783201289586336800,0.587336669921875,0.2461670099273324,1.134420794281363,2.195029917898774,-0.2257979214191436,-0.8070743083953857,-0.2458750605583191
1783201289596274000,0.59727392578125,-0.0072764207437634,0.9566974982440472,2.029415577328205,-0.1121943965554237,-0.8899435997009277,-0.2080909311771392
1783201289606209800,0.607209716796875,-0.2419100831352174,0.8012555921196937,2.01890587375164,0.0239464938640594,-0.9600759148597716,-0.2211816310882568
1783201289616146700,0.617146728515625,-0.5591532012827695,0.7926800714761019,1.6480635596245523,0.1321446001529693,-1.105459690093994,-0.2870077788829803
1783201289626083800,0.627083740234375,-0.7762446311123669,0.9079548023849724,1.1715168914884329,0.1757834255695343,-1.2159324884414673,-0.3820370435714721
1783201289636021000,0.63702099609375,-0.7520406025737524,0.934968481516838,1.0535948609411716,0.1109138876199722,-1.2232732772827148,-0.4826283454895019
1783201289645957600,0.64695751953125,-0.5445135582946241,0.867020734450221,0.922346315830946,-0.0669908672571182,-1.1697309017181396,-0.5778343677520752
1783201289655894800,0.656894775390625,-0.2001638220347464,0.7528314606904983,0.4385983380138873,-0.2903776168823242,-1.06681489944458,-0.6321399211883545
1783201289665831700,0.666831787109375,0.2238499641790985,0.6467559352815151,-0.1826256811261176,-0.4925473034381866,-0.8891134858131409,-0.6227051615715027
1783201289675768800,0.676768798828125,0.5542812113322317,0.5838496895134448,-0.8026865017056465,-0.6386638283729553,-0.6797922253608704,-0.579950749874115
1783201289685706000,0.6867060546875,0.7446402631893754,0.4925310037314891,-1.4622750305533407,-0.7151519060134888,-0.4935877323150635,-0.5169326663017273
1783201289695641900,0.696641845703125,0.8199453872814774,0.3696452132970094,-2.040941179949045,-0.7359914183616638,-0.3719356060028076,-0.4651685357093811
1783201289705578800,0.706578857421875,0.8383952362075447,0.2436673020660877,-2.523065940478444,-0.7183486819267273,-0.3137648403644562,-0.4146284759044647
1783201289715516000,0.716515869140625,0.846593447971344,0.1020908396869897,-2.9234686956107616,-0.6424834728240967,-0.2968969047069549,-0.371450126171112
1783201289725452800,0.726452880859375,0.8474293142735958,-0.0333165786683559,-3.3500925181925294,-0.5020291209220886,-0.2648101150989532,-0.3419835865497589
1783201289735389700,0.7363896484375,0.7838114131048322,-0.1375046828955411,-3.617866672033071,-0.2856693565845489,-0.1634497046470642,-0.3329392075538635
1783201289745326800,0.746326904296875,0.6837221224986016,-0.0882359173357486,-3.559033374792337,-0.0347504094243049,-0.0229870174080133,-0.3201696574687958
1783201289755263700,0.756263671875,0.6113235335029661,0.0795212804824113,-3.337888870179653,0.1931064575910568,0.1065893471240997,-0.2926341891288757
1783201289765201000,0.766200927734375,0.5705734438329935,0.1993511904776096,-2.9779905593931675,0.3480872213840484,0.2082672715187072,-0.260127991437912
1783201289775137500,0.776137451171875,0.6197860952913761,0.2989636573523282,-2.605982124096155,0.4280608892440796,0.2778900563716888,-0.2294563353061676
1783201289785073700,0.78607373046875,0.6400190282419324,0.4158072450131178,-2.3204133703678846,0.4520421922206878,0.3524028360843658,-0.1960702538490295
1783201289795010800,0.7960107421875,0.6680331165879965,0.5747691419571638,-1.7471061176568268,0.4840222299098968,0.6894333362579346,-0.182972565293312
1783201289804948000,0.805947998046875,0.8751524568490684,0.8510212012857198,-0.2834767498850822,0.4257774651050567,0.6168385148048401,-0.1902642697095871
1783201289814884900,0.815884765625,1.2020265960425138,0.9133499394267796,-0.8130161725401878,0.3391629457473755,0.3357669115066528,-0.1543789654970169
1783201289824821800,0.82582177734375,1.4645789235815403,0.6625304275184869,-0.6475193208694457,0.2743189632892608,0.130299761891365,-0.0700238794088363
1783201289834758700,0.835758544921875,1.3192794951565563,0.6173702663213014,-0.3551894024431705,0.2371452450752258,0.021051038056612,-0.0289281029254198
1783201289844695800,0.84569580078125,0.9083199824355542,1.0274562110781669,-0.3869441386222839,0.2406761199235916,0.0500874146819114,-0.044524896889925
1783201289854633000,0.855633056640625,0.5846763495959341,1.2551210573703049,-0.504196891605854,0.2988906800746918,0.2027738839387893,-0.077447161078453
1783201289864569600,0.865569580078125,0.4174056201204657,1.3365560625195505,-0.6388368327200412,0.3790910840034485,0.3843558430671692,-0.1198793798685073
1783201289874505700,0.875505615234375,0.4500396233521401,1.4932698882758615,-0.6018892040729522,0.4552939832210541,0.5263653993606567,-0.1447202861309051
1783201289884443000,0.88544287109375,0.6160363873690367,1.63126440051496,-0.3866501241117716,0.4960316121578216,0.5634932518005371,-0.134209856390953
1783201289894379800,0.8953798828125,0.9081099929466844,1.6307903532624244,-0.1763274577647447,0.4693235754966736,0.500137448310852,-0.0871009230613708
1783201289904316700,0.905316650390625,1.1389531770139931,1.511050459638238,-0.0394487978130579,0.3827607631683349,0.4016166925430298,-0.0212199613451957
1783201289914253800,0.91525390625,1.3500753231756388,1.428537011602521,0.2111696385651826,0.2741083204746246,0.3561163246631622,0.033119972795248
1783201289924190700,0.925190673828125,1.5489635723166166,1.4871008442521094,0.5481693043231963,0.1739445030689239,0.3151898682117462,0.0677239298820495
1783201289934127900,0.9351279296875,1.7790270041830836,1.6090426318347453,0.5657990690380335,0.0752387046813964,0.1871283203363418,0.125607743859291
1783201289944064800,0.945064697265625,2.0327425297938286,1.4984756402254105,0.2417711130559444,-0.0058492990210652,0.0357854627072811,0.2291589826345443
1783201289954001700,0.955001708984375,2.1153907101251184,1.3498480902910233,0.0496785154044628,-0.0444504879415035,-0.0307666677981615,0.3554346263408661
1783201289963938800,0.964938720703125,1.9282978204570709,1.4050848243445158,-0.0581201805353164,-0.0314377471804618,-0.0106461700052022,0.4666891098022461
1783201289973874700,0.974874755859375,1.6256364776305854,1.5416186163812875,-0.1564835241317748,0.031613390892744,0.0692260265350341,0.5604209303855896
1783201289983811800,0.984811767578125,1.3096220244951546,1.5632903499633073,-0.2399269464939832,0.1246215999126434,0.1651445031166076,0.6355942487716675
1783201289993748700,0.994748779296875,1.0553235844299196,1.584686189213395,-0.2366705750465393,0.2250507324934005,0.2478188723325729,0.6913149952888489
1783201290003685600,1.004685546875,0.8225986782692373,1.633776675596833,-0.0257499428063631,0.3026800155639648,0.3081474602222442,0.7235422134399414
1783201290013622800,1.014622802734375,0.6175155200108885,1.7020885798007248,0.2837573203921318,0.3295372128486633,0.3275550007820129,0.7215163111686707
1783201290023560000,1.024559814453125,0.462760134845972,1.770097701665759,0.5362538256019354,0.3046629130840301,0.3142413794994354,0.6915819048881531
1783201290033496800,1.034496826171875,0.4401882375538349,1.751785215383768,0.7614964131832123,0.2524668276309967,0.2914154231548309,0.6585824489593506
1783201290043433700,1.044433837890625,0.5142617740243673,1.6664830134123565,0.9332570014238356,0.1764665395021438,0.2732371091842651,0.6410598158836365
1783201290053371600,1.05437158203125,0.6050511752352118,1.6563748763740065,1.0652601642936468,0.0743497610092163,0.2657594978809356,0.6257264018058777
1783201290063308500,1.06430859375,0.6877215673983097,1.7553244954258205,1.1372709230154752,-0.029538894072175,0.2822453081607818,0.6222007274627686
1783201290073245400,1.074245361328125,0.6989899803876877,1.8217501474916933,1.1936106498748065,-0.1362810581922531,0.3545248508453369,0.6354800462722778
1783201290083181600,1.084181640625,0.741242729705572,1.892520550763607,1.297818627846241,-0.2281009256839752,0.4181910455226898,0.6471964120864868
1783201290093118700,1.09411865234375,0.7096440608710051,1.9989345143467188,1.223216099065542,-0.3211445808410644,0.4267563223838806,0.660324215888977
1783201290103055400,1.104055419921875,0.700721918746829,1.8962854562550784,1.0634639285266398,-0.4266298413276672,0.3707341253757477,0.7071241140365601
1783201290112992500,1.113992431640625,0.7650915150657296,1.670362485194206,0.9070505470216274,-0.5390812754631042,0.2850144207477569,0.7729161977767944
1783201290122929700,1.1239296875,0.69436056702137,1.5180296510010958,0.7040022555917501,-0.6526445746421814,0.1721786707639694,0.8384632468223572
1783201290132866600,1.133866455078125,0.6779010151296854,1.3719161297142506,0.5172317297458648,-0.7424628734588623,0.0898241400718689,0.8989111185073853
1783201290142803700,1.1438037109375,0.7580778369113802,1.2952519922286272,0.2644493933320045,-0.775784969329834,0.0210004448890686,0.9509096145629884
1783201290152740400,1.153740234375,0.7996690535806119,1.3127403026461602,-0.1172802255123853,-0.7585340738296509,-0.0174968801438808,0.992015779018402
1783201290162677500,1.163677490234375,0.8134588017411529,1.3682061692804095,-0.359763286229968,-0.717136025428772,-0.0122540295124053,1.0345932245254517
1783201290172614700,1.17361474609375,0.7803118805512785,1.3896505238473416,-0.4834370121717453,-0.6809297800064087,-0.0121179427951574,1.0823465585708618
1783201290182551600,1.183551513671875,0.658140083605051,1.224872634100914,-0.6341255862891674,-0.680659830570221,-0.0483738854527473,1.1626372337341309
1783201290192487400,1.1934873046875,0.4753858076632022,0.885370630133152,-0.8767261359065771,-0.7199352979660034,-0.0986519753932952,1.2599880695343018
1783201290202424600,1.203424560546875,0.2715639015123248,0.5774293010771274,-1.1791969245970249,-0.7594753503799438,-0.1366157084703445,1.3577184677124023
1783201290212361500,1.213361572265625,0.0555550062224268,0.3565565991431474,-1.5608043783664702,-0.7566537261009216,-0.1454035937786102,1.4184465408325195
1783201290222298600,1.223298583984375,-0.2225623355213552,0.2460562430292368,-2.001767691946029,-0.70741206407547,-0.1136575564742088,1.4324426651000977
1783201290232235800,1.23323583984375,-0.4281622841954231,0.2154699661076068,-2.2895441848516462,-0.6264340877532959,-0.0366517156362533,1.4054315090179443
1783201290242172400,1.24317236328125,-0.573574233084172,0.2408534136891365,-2.467400751879812,-0.5369839668273926,0.0677317753434181,1.3593876361846924
1783201290252109600,1.253109619140625,-0.6107078127574175,0.207698163062334,-2.548832249897718,-0.4648064970970154,0.2091070115566253,1.3191776275634766
1783201290262046500,1.26304638671875,-0.547960556943342,0.0493447534054517,-2.4938825160920617,-0.4263229966163635,0.3562704920768738,1.3024117946624756
1783201290271983600,1.272983642578125,-0.4833396162118762,-0.19610534042418,-2.4648019675582646,-0.424798846244812,0.4571491777896881,1.3191646337509155
1783201290281920800,1.282920654296875,-0.5052086989969015,-0.4678326158046722,-2.534697926083207,-0.4378805756568908,0.5108729004859924,1.347418189048767
1783201290291857400,1.292857421875,-0.6614988925136626,-0.6281950271964073,-2.6006582987248894,-0.4246329367160797,0.5484487414360046,1.3531601428985596
1783201290301794600,1.302794677734375,-0.9159113143473864,-0.6503133355021476,-2.5533085185289384,-0.3664179742336273,0.618414580821991,1.3211716413497925
1783201290311730700,1.312730712890625,-1.09824166578874,-0.625239684522152,-2.3820412667632103,-0.2648415565490722,0.713762640953064,1.257822036743164
1783201290321667600,1.32266748046875,-1.1940938302818684,-0.5347375758200884,-2.16883398489058,-0.15740567445755,0.7857747673988342,1.173591136932373
1783201290331604500,1.3326044921875,-1.1477652828924356,-0.4172597819089889,-1.870910191980004,-0.0595864318311214,0.8429373502731323,1.1078262329101562
1783201290341541600,1.342541748046875,-0.9999129551142454,-0.3461071013212203,-1.4647691854566334,0.0121785616502165,0.8742987513542175,1.0699368715286257
1783201290351478500,1.352478515625,-0.8930703908555209,-0.3204500974953174,-1.0868670159459113,0.0559172518551349,0.8713295459747314,1.0710331201553345
1783201290361415700,1.362415771484375,-0.8464166300997138,-0.3784095345109701,-0.790658210259676,0.0813016146421432,0.8475939035415649,1.1077557802200315
1783201290371352600,1.3723525390625,-0.915157719501108,-0.4574421546936035,-0.502583611190319,0.0895960256457328,0.8348591923713684,1.1483879089355469
1783201290381289500,1.38228955078125,-1.122511087713763,-0.4753443066090345,-0.1874877342045307,0.0861032009124755,0.8486841320991516,1.1619501113891602
1783201290391226600,1.3922265625,-1.3454616919003426,-0.39360944173038,0.1597919180274009,0.0894699692726135,0.8871910572052002,1.1534931659698486
1783201290401163500,1.40216357421875,-1.4863617163226008,-0.3562409573227167,0.5343909543395042,0.0868158563971519,0.9293968081474304,1.1355262994766235
1783201290411100700,1.4121005859375,-1.5381113389126957,-0.3209031019598245,0.9039356298714876,0.0797992199659347,0.9254156351089478,1.1198421716690063
1783201290421037600,1.42203759765625,-1.5020695730641482,-0.2950929533988237,1.2584399726599451,0.0798067152500152,0.8902208209037781,1.117509126663208
1783201290430974500,1.431974365234375,-1.423627173859626,-0.2487128950178623,1.6380770031392573,0.0870971232652664,0.835377037525177,1.1126854419708252
1783201290440910600,1.44191064453125,-1.3677677778631447,-0.1681815607100725,1.9455998145222664,0.1134367138147354,0.7462759613990784,1.100948452949524
1783201290450847700,1.45184765625,-1.3456342719882726,-0.1028039563924074,2.176469594335556,0.1435980796813964,0.6244211196899414,1.092492699623108
1783201290460784600,1.46178466796875,-1.3141001928225158,-0.1222556758373975,2.357550384107232,0.1719933301210403,0.5001199841499329,1.0815519094467163
1783201290470721500,1.471721435546875,-1.3425237387523057,-0.1623749202579259,2.5843413701742888,0.1459508091211319,0.3621080815792084,1.0472272634506226
1783201290480658400,1.481658447265625,-1.490152925299108,-0.1186240413367748,2.7797312558054923,0.0468973964452743,0.2102968692779541,0.963085949420929
1783201290490595600,1.491595703125,-1.6307592274717986,-0.1571352660387754,2.8254589877575635,-0.1055597886443138,0.0661090761423111,0.8568644523620605
1783201290500532700,1.50153271484375,-1.5859407193191348,-0.4378524880826473,2.625183083650469,-0.2725711166858673,-0.0433649122714996,0.7650367021560669
1783201290510469600,1.5114697265625,-1.4220049794852734,-0.7771388034731149,2.1252882731527087,-0.4217992126941681,-0.1344916224479675,0.7120840549468994
1783201290520406500,1.521406494140625,-1.3856943335674703,-0.985034534934163,1.3562392526328564,-0.5039557814598083,-0.2392936944961547,0.6841825246810913
1783201290530343400,1.531343505859375,-1.4917165213540196,-1.0947872875511646,0.6029080257266759,-0.4932916462421417,-0.2891882658004761,0.6602750420570374
1783201290540280600,1.541280517578125,-1.5847396729663012,-1.155733046901226,0.2201999172389507,-0.4104383885860443,-0.3276611864566803,0.6158103942871094
1783201290550217700,1.5512177734375,-1.6734718493863938,-1.1534084033459424,-0.101795656132698,-0.3034709095954895,-0.4478123784065246,0.5566677451133728
1783201290560154600,1.561154541015625,-1.7107978098265826,-1.17306996614933,-0.3316366774201393,-0.1908951550722122,-0.5683366060256958,0.5101684331893921
1783201290570091500,1.571091552734375,-1.668698935896158,-1.2684288672327997,-0.3157879509031772,-0.1311985403299331,-0.7067834734916687,0.4628076255321502
1783201290580027600,1.581027587890625,-1.6478562004841864,-1.2416337992876767,-0.3510223458915948,-0.1513292789459228,-0.7769725322723389,0.3908739984035492
1783201290589964500,1.590964599609375,-1.468183085553348,-1.1162369028151036,-0.4063029190868139,-0.2280549556016922,-0.5193535685539246,0.2621636688709259
1783201290599901700,1.600901611328125,-0.4457281898938119,-0.9022147974282504,-0.5106213716953992,-0.302352100610733,-0.2153842747211456,0.1379722207784652
1783201290609838600,1.610838623046875,-0.4803367080688476,-0.4965209501504898,-1.3638327765017748,-0.3926140964031219,-0.1014971137046814,0.0724027901887893
1783201290619775500,1.620775390625,-0.2464063899074681,-0.1817816315174102,-1.4715356108516453,-0.4579236507415771,0.1289094984531402,0.0660187155008316
1783201290629712600,1.630712646484375,0.3556372923411429,-0.0299982479006052,-1.1932944235324858,-0.4539632499217987,0.3502714335918426,0.1447702497243881
1783201290639649500,1.6406494140625,0.6701354956947266,0.0818608293458819,-1.1581178962111471,-0.4007120132446289,0.4843645989894867,0.2699189186096191
1783201290649586700,1.650586669921875,0.6991768812619149,0.2026677676796913,-1.1473048257738352,-0.296734482049942,0.5871798992156982,0.4169749319553375
1783201290659523600,1.660523681640625,0.7132704346746206,0.3179717246830463,-0.9113888684868812,-0.1622023731470108,0.6797832250595093,0.557503342628479
1783201290669460500,1.67046044921875,0.6990851113252341,0.4485474850982427,-0.4653741167366504,-0.0343432202935218,0.6987329721450806,0.6610339879989624
1783201290679397600,1.680397705078125,0.6189679107762873,0.6005155776321888,-0.1463210265576839,0.0733767673373222,0.6633638739585876,0.7236277461051941
1783201290689334500,1.69033447265625,0.7773742196641862,0.5297983658522367,0.1987204913586377,0.1890482455492019,0.894058346748352,0.8098798394203186
1783201290699271700,1.700271728515625,1.0469558613181114,0.3510509874641895,1.006769396880269,0.245602861046791,0.9819496273994446,0.8277581334114075
1783201290709208600,1.71020849609375,0.793248519013822,0.8913067421838641,0.9896937589168548,0.1824332028627395,0.8468086123466492,0.8151765465736389
1783201290719145500,1.7201455078125,0.8673518661007285,1.0051309820234775,1.6447218479812145,0.0047065904363989,0.7704338431358337,0.8329558372497559
1783201290729082600,1.73008251953125,0.9964213136062026,0.8122127472028136,2.463572133502364,-0.247108593583107,0.754136860370636,0.8910500407218933
1783201290739019500,1.74001953125,0.9942534680478274,0.856826672694087,2.747218979257345,-0.5158334374427795,0.8507419228553772,0.9378310441970824
1783201290748955400,1.749955322265625,0.8437458034552633,1.0953080965548754,3.0817285817652937,-0.7643990516662598,0.9531023502349854,0.9546944499015808
1783201290758892500,1.759892578125,0.7519364115469157,1.257302493062615,3.025483547452092,-0.9796677827835084,0.8748034238815308,0.9376495480537416
1783201290768829700,1.76982958984375,0.8411045682314783,1.4204717785686254,2.56449568297565,-1.1730111837387085,0.6588639616966248,0.9273545145988464
1783201290778766600,1.7797666015625,0.9791652045093476,1.486430397644639,2.4164988321602343,-1.323713779449463,0.3838597536087036,0.9299458265304564
1783201290788703700,1.789703857421875,0.9156652306318284,1.324328449109197,2.542484342175722,-1.4607126712799072,-0.0959044620394706,0.6228671073913574
1783201290798640400,1.799640380859375,-4.818902795733512,3.061260086493194,2.28129365837872,-1.6005867719650269,-0.6928964257240295,-0.4927846193313598
1783201290808577500,1.80957763671875,-4.015055725815892,0.8223927804335951,3.2677357220232484,-1.5737069845199585,-0.3805305659770965,-0.7876322269439697
1783201290818514700,1.8195146484375,0.3567880698114633,-1.9917782128512855,2.7746166892707347,-1.3251996040344238,0.0382294282317161,-0.5947754383087158
1783201290828451600,1.82945166015625,-1.8020578972890973,-2.463909987154603,0.8643149826228618,-0.9030126929283142,-0.2333791851997375,-0.2762441039085388
1783201290838388700,1.839388671875,-5.816113213890791,-0.3698360596939921,2.0273872863709927,-0.8831437230110168,-0.4822770059108734,-0.5811487436294556
1783201290848325400,1.849325439453125,-1.529399770799279,2.215603627111017,-1.4737123703688382,-0.7335512638092041,-1.6339088678359983,-0.8717560768127441
1783201290858262500,1.859262451171875,2.651309750814736,0.0441641358971595,-3.478518991619348,-0.7697838544845581,-0.8562144637107849,-0.6620185971260071
1783201290868199700,1.86919970703125,0.4605070952221751,-1.9723601034149527,0.4215723844110965,-1.1079965829849243,-0.0999321117997169,-0.5282043218612671
1783201290878136600,1.879136474609375,-0.348226614225842,-1.224154548959434,-0.7980296158105135,-1.5510529279708862,-0.3151018321514129,-0.4983887374401092
1783201290888073700,1.88907373046875,0.773856128540635,-0.860291718456149,-1.7589070300877094,-2.0345022678375244,-0.1731151193380355,-0.227253645658493
1783201290898010400,1.89901025390625,2.699889072805643,-0.3319035116627812,-1.606723248976469,-2.028032064437866,-0.2468484491109848,0.0895860865712165
1783201290907947500,1.908947509765625,1.9864137632086871,-0.2113449951320886,-5.30696717544496,-2.429481506347656,-2.152895927429199,0.1996247172355651
1783201290917884700,1.918884765625,2.613137548808753,-1.0111100564330815,-2.8791321257561444,-2.5224602222442627,-2.960484266281128,0.4724432229995727
1783201290927821600,1.928821533203125,3.6934365845412014,-1.749524576975405,-0.7032967376708984,-2.559619426727295,-3.0597939491271973,0.7612686157226562
1783201290937757400,1.93875732421875,1.9181091655284168,-1.9416662744656203,1.399800746461749,-2.566023111343384,-2.9502742290496826,0.8385615944862366
1783201290947694600,1.948694580078125,0.0238148100253194,-1.9542291111797088,1.7263561750948428,-2.53401780128479,-2.6806154251098637,0.808128833770752
1783201290957631500,1.958631591796875,-1.0753990617964415,-2.096178936915845,0.717156336197257,-2.2888600826263428,-2.287420749664306,0.7173210382461548
1783201290967568600,1.968568603515625,-2.0627681040927768,-1.7425820643611252,-0.3208990103065967,-2.2931270599365234,-1.5820136070251465,0.6455160975456238
1783201290977505800,1.978505859375,-1.734486436188966,-0.8877665853589772,1.6005916143536567,-2.547408103942871,-0.7480862736701965,0.561092734336853
1783201290987442400,1.9884423828125,-0.9294976488903164,-1.0538568728782236,2.5287118374109268,-2.81738543510437,-0.0373266749083995,0.5940296649932861
1783201290997379600,1.998379638671875,-0.9037208180770278,-1.6281752023279663,2.6957722851365804,-3.05078387260437,0.4716980755329132,0.6784372329711914
1783201291007316500,2.00831640625,-1.0087751837447283,-1.3903678783364593,2.822158777168393,-3.1964471340179443,0.4618933796882629,0.7142069339752197
1783201291017253600,2.018253662109375,-0.9192766991272568,-0.6638010319761931,1.849506169423461,-3.139856338500977,-0.0480579994618892,0.7238823771476746
1783201291027190800,2.028190673828125,-0.7696471325434744,0.2604612735439092,0.7738830165475606,-2.907475233078003,-0.3158742785453796,0.8296713829040527
1783201291037127400,2.03812744140625,-1.1872091122694313,2.0220666758701205,-0.4351180946826934,-2.1373167037963867,0.6766355633735657,0.811123788356781
1783201291047064600,2.048064697265625,-1.8502081802129744,4.162136338569224,-3.8206723868787287,-1.6794415712356567,-0.1557791382074356,0.9539622068405152
1783201291057001500,2.05800146484375,0.1721510488629341,3.4970682092666623,-5.512762135234475,-1.2342448234558103,-0.6702172756195068,1.143285632133484
1783201291066938600,2.067938720703125,1.288822397572547,3.3254970061182973,-6.3751563789278265,-0.7810227870941162,-1.293753743171692,1.1076706647872925
1783201291076875500,2.07787548828125,1.761756720430404,2.048035522124171,-7.374787009969353,-0.3696734011173248,-2.1579530239105225,0.9357184767723083
1783201291086812400,2.0878125,1.9291316409327088,0.3289078369781374,-6.147286365452408,-0.3247522711753845,-2.074784517288208,0.5069844126701355
1783201291096749600,2.09774951171875,1.7707395067006348,-0.2438419279806315,-3.5787101351648567,-0.6149078011512756,-1.939902424812317,-0.145729050040245
1783201291106686700,2.107686767578125,0.9562092763356864,-0.6852957284908742,-2.7141058142066,-0.9280609488487244,-2.341675043106079,-0.4466779828071594
1783201291116623600,2.11762353515625,0.4507417802721262,-0.8443202423423528,-3.059640668597817,-1.0849405527114868,-2.4311447143554688,-0.3742557466030121
1783201291126560500,2.127560546875,0.3427385016709566,-1.7512436558529734,-2.2750638240784404,-0.8771947622299194,-2.110187768936157,-0.1076962277293205
1783201291136497400,2.137497314453125,-0.4019438470944762,-2.8400954158753158,-1.8552204554170368,-0.5578475594520569,-1.5138355493545532,0.032137706875801
1783201291146434600,2.1474345703125,-1.0719733981966972,-2.276332528840005,-1.205869827467203,-0.3778833448886871,-0.5929087996482849,0.0364640094339847
1783201291156371700,2.157371826171875,-0.3090542587339878,-1.7480436907678842,0.006887421426177,-0.278601735830307,0.3589420318603515,-0.0351588800549507
1783201291166308600,2.16730859375,0.7900356944471597,-1.7000236100949346,-0.0311392346292734,-0.1409666240215301,1.221089482307434,-0.1212863102555275
1783201291176244500,2.177244384765625,1.107943413983285,-1.572327058377862,-1.0624445223510264,0.0514937900006771,1.9464936256408687,-0.1213530153036117
1783201291186181600,2.187181640625,0.9900196298703552,-0.7630313676655293,-2.2877666537851096,-0.4855462312698364,0.37348073720932,-0.1094769164919853
1783201291196118500,2.197118408203125,0.6631269321069121,-0.8409566111281513,-9.271527808776495,-0.0538033097982406,-0.0468668602406978,-0.1803490072488784
1783201291206055700,2.2070556640625,2.1853458514913915,-2.3745814522765576,-3.3306127416968345,0.8864656686782837,0.1013271361589431,-0.2305477261543274
1783201291215992600,2.21699267578125,2.41135065561682,-1.4765211441792547,-2.693991246938705,1.3325425386428833,0.6888715028762817,-0.1178816258907318
1783201291225929500,2.226929443359375,1.836194414038211,-1.81723442363292,-2.979817774820328,1.74171245098114,1.2882689237594604,-0.1150070056319236
1783201291235866600,2.23686669921875,1.608030532182753,-2.4368068761736152,-2.7910622126370668,2.0571913719177246,1.485258936882019,-0.0932229682803154
1783201291245803500,2.246803466796875,1.4978532705433665,-2.2107719691708683,-3.021569004356861,2.2355127334594727,1.6041048765182495,-0.0914061591029167
1783201291255740700,2.25674072265625,1.889094375707209,-1.732262914920598,-2.570116445466876,2.2988381385803223,1.6123411655426023,-0.0642462223768234
1783201291265677600,2.266677490234375,2.3025275850653646,-1.6900509360045193,-2.0112176573365925,2.31208610534668,1.5551990270614624,0.0171245336532592
1783201291275614500,2.276614501953125,2.6022978826254604,-1.849658437375724,-1.4887544566780329,2.311962127685547,1.5187665224075315,0.1538041681051254
1783201291285551600,2.286551513671875,2.7764894974052905,-1.8624764178946611,-0.8029401842057704,2.2622878551483154,1.5243510007858276,0.339073896408081
1783201291295488500,2.296488525390625,2.7434271857589483,-1.717683623817563,0.1143313125789165,2.114079713821411,1.5731825828552246,0.5432233810424805
1783201291305425700,2.30642578125,2.5667320637255906,-1.4608230781793594,1.052131802651286,1.855540752410889,1.5933622121810913,0.7429441809654236
1783201291315362600,2.316362548828125,2.532289695897698,-0.9678452074632048,1.7443541886001823,1.5443538427352903,1.4998760223388672,0.948930561542511
1783201291325299500,2.326299560546875,2.5343618259966374,-0.4345047120247036,2.2260475719749926,1.208757758140564,1.324236273765564,1.17366623878479
1783201291335236600,2.336236572265625,2.35461272322014,-0.0341370282057672,2.517726333016157,0.8844741582870483,1.1478370428085327,1.408857822418213
1783201291345173500,2.346173583984375,2.028974263301492,0.3152044519267976,2.713520707795024,0.5969052314758301,0.9978885650634766,1.6288237571716309
1783201291355110700,2.356110595703125,1.7662375191062687,0.5667357653662562,2.847399601408839,0.3624708652496338,0.8228948712348938,1.830044627189636
1783201291365047600,2.366047607421875,1.5226472277991472,0.836846472395584,2.714588044765592,0.2033128887414932,0.5606922507286072,1.9361811876297
1783201291374984400,2.375984375,0.906376008760929,1.5583216216400264,2.52747557361424,0.1070417538285255,0.3101636171340942,1.971360206604004
1783201291384921600,2.385921630859375,0.4624064260374754,2.087319484764337,2.8617963755518194,0.0843734592199325,0.1487012207508087,1.880865454673767
1783201291394858500,2.3958583984375,0.1691063474047928,2.3580302765786647,3.388321418821812,0.1190020069479942,0.0779327824711799,1.6838165521621704
1783201291404795600,2.405795654296875,-0.0155653795309364,2.3268574319407342,3.963068933469057,0.178722858428955,0.179566204547882,1.4226347208023071
1783201291414732500,2.415732666015625,0.1274266487345099,2.102915113303065,4.64143931967616,0.181669071316719,0.5425023436546326,1.1474475860595703
1783201291424669400,2.42566943359375,0.6737710757181048,1.7232713608220218,5.052415491271018,0.0848192274570465,1.031724214553833,1.035318374633789
1783201291434606600,2.435606689453125,1.4236834340915083,0.8973146773617714,4.829442017665505,-0.1047407761216163,1.4756230115890503,1.094487547874451
1783201291444543500,2.44554345703125,2.0058695743069053,-0.0117697866402566,3.793692025494576,-0.3915493786334991,1.7536914348602295,1.301959753036499
1783201291454480600,2.455480712890625,2.2459796222828325,-0.6709650783866643,1.8365899892270563,-0.694724977016449,1.813192129135132,1.5765460729599
1783201291464417500,2.46541748046875,2.2857501993961638,-0.9085529144085944,-0.701973380112648,-0.9221088886260986,1.6554250717163086,1.8506481647491453
1783201291474354400,2.4753544921875,2.2890067169740798,-0.7921008102834224,-3.326364436602592,-1.0069644451141355,1.272438406944275,2.087409019470215
1783201291484291600,2.48529150390625,2.1169287333473563,-0.5493680856537073,-5.668813113167881,-0.9466203451156616,0.7452605366706848,2.249253511428833
1783201291494227700,2.495227783203125,1.7734981577590108,-0.2459728755947202,-7.261060093024373,-0.7407127618789673,0.1789808720350265,2.293843030929565
1783201291504164400,2.505164306640625,1.1736838602639734,-0.0609834975445643,-7.903982733753323,-0.4247481226921081,-0.245608240365982,2.2144312858581543
1783201291514101500,2.5151015625,0.4571139821851626,0.0320988734416663,-7.724968228861689,-0.0433905012905597,-0.4476032853126526,2.06645131111145
1783201291524038700,2.52503857421875,-0.0154668510599061,-0.0406576621461659,-7.150649168759584,0.3774438202381134,-0.4288868606090545,1.912631154060364
1783201291533975600,2.5349755859375,-0.2566446926641277,-0.3661161623880267,-6.497453555819392,0.812087893486023,-0.2691583633422851,1.8058100938797
1783201291543912700,2.54491259765625,-0.3304255115320906,-0.7984361507847905,-5.864731991109252,1.2247190475463867,-0.0076982639729976,1.760647177696228
1783201291553849300,2.554849365234375,-0.1244789048448204,-1.1063928235404192,-5.14340742931664,1.576415777206421,0.2363389134407043,1.7807180881500244
1783201291563786500,2.564786376953125,0.3122444696100429,-1.1676304054439066,-4.392198601391911,1.826404333114624,0.3957386910915375,1.845438838005066
1783201291573723600,2.5747236328125,0.7423001298040152,-1.0300964964538812,-3.525914949044585,1.9283510446548464,0.4475023746490478,1.92435884475708
1783201291583660500,2.58466064453125,1.0110463435471058,-0.8029376999877392,-2.579062552988529,1.894059896469116,0.426272451877594,2.0129663944244385
1783201291593597700,2.59459765625,1.11769338523373,-0.6386836879849433,-1.6697382158160208,1.7880401611328125,0.3517945110797882,2.116906881332397
1783201291603534300,2.604534423828125,1.0849323946215212,-0.4369806736841797,-0.7347568748176098,1.6405023336410522,0.2864858210086822,2.1987690925598145
1783201291613471500,2.614471435546875,0.9454312041465192,-0.1343491414740681,0.2596960613250732,1.4877188205718994,0.2440145909786224,2.2363476753234863
1783201291623408600,2.62440869140625,0.772421638758108,0.2134688554182648,1.1638783594340083,1.3641891479492188,0.1954987198114395,2.232540369033813
1783201291633345500,2.634345458984375,0.5877338374704122,0.5492347415976226,1.9647423218876123,1.2803620100021362,0.1504136174917221,2.1944854259490967
1783201291643282400,2.644282470703125,0.4201126871220767,0.908487594087422,2.805365463277697,1.2161850929260254,0.1456217914819717,2.1432313919067383
1783201291653219600,2.654219482421875,0.1843842152312398,1.1362272591814395,3.65518839468956,1.1292269229888916,0.1884148269891739,2.084081649780273
1783201291663156500,2.664156494140625,-0.0739419459801167,1.137379644086957,4.416089764589071,1.0127397775650024,0.238878533244133,2.048753023147583
1783201291673093600,2.67409375,-0.2771677128687501,0.9411629522427916,4.853004679560661,0.8881148099899292,0.3199355602264404,2.0392889976501465
1783201291683030500,2.684030517578125,-0.3515947389520704,0.8345455750420689,5.16573207384944,0.7733312845230103,0.4716529250144958,2.021759271621704
1783201291692967400,2.693967529296875,-0.2820480322562158,1.296653091198206,5.4214691684156655,0.6658356189727783,0.6283722519874573,1.965246319770813
1783201291702904600,2.703904541015625,-0.250229729321599,1.3481722660332918,5.546528795757889,0.6279769539833069,0.6958351731300354,1.9605615139007568
1783201291712841500,2.713841552734375,0.1095043308138847,1.2952607600569723,5.63668194489181,0.6225026249885559,0.7664972543716431,2.0290441513061523
1783201291722778600,2.723778564453125,0.4819270460002124,1.946438018912077,5.756859060889482,0.5637386441230774,1.0237250328063965,2.1058387756347656
1783201291732715500,2.733715576171875,0.5613398976720869,2.671504982103407,5.88689180046916,0.4047593772411346,1.3601783514022827,2.140687227249145
1783201291742652400,2.74365234375,0.4555089946739375,3.2900115589782595,5.677617181870341,0.179606944322586,1.49554181098938,2.168718099594116
1783201291752589600,2.753589599609375,0.1136020484562963,3.6673356363400815,5.101805837383866,-0.0514822974801063,1.4129010438919067,2.1649105548858643
1783201291762526500,2.7635263671875,-0.3542696572497487,3.917045433440805,4.717935114857554,-0.261861115694046,1.2724201679229736,2.081146478652954
1783201291772463600,2.773463623046875,-0.7847018591385334,4.071083025725185,4.5383606379956,-0.4494428038597107,1.1667014360427856,1.9116777181625368
1783201291782400500,2.783400390625,-1.2316333604075014,4.060478629602492,4.259479399207234,-0.5717272162437439,1.116546630859375,1.655442237854004
1783201291792337400,2.79333740234375,-1.4888962032362818,3.9427655656307934,3.6987902205288408,-0.609347403049469,1.0296441316604614,1.4172102212905884
1783201291802274600,2.803274658203125,-1.02828973929286,3.8266134673655032,3.0957822415590286,-0.6259258389472961,0.9397690892219543,1.2662415504455566
1783201291812211500,2.81321142578125,-0.2662610093312338,3.901839973263442,2.691992766597867,-0.6916993260383606,0.8592459559440613,1.2008795738220217
1783201291822148600,2.823148681640625,0.299579085836932,3.973850439724326,2.359659339085221,-0.8092901706695557,0.7656837701797485,1.2043025493621826
1783201291832085500,2.83308544921875,0.8741218716923147,3.970405267706514,1.9934166277080771,-0.972709059715271,0.5939580798149109,1.2493681907653809
1783201291842022400,2.8430224609375,1.3676006046026945,3.9435990938454863,1.597299002549052,-1.118180751800537,0.3752491772174835,1.30836284160614
1783201291851959600,2.85295947265625,1.622411816495657,3.7723999388799063,1.1131617331534625,-1.1986373662948608,0.1755636930465698,1.3681302070617676
1783201291861896400,2.862896484375,1.8239917889386412,3.462627887265384,0.4803168343245982,-1.219099998474121,0.0192193556576967,1.449241280555725
1783201291871833600,2.87283349609375,2.0224919155448675,3.209607065920532,-0.0805377640485763,-1.2150591611862185,-0.0314832292497158,1.512791872024536
1783201291881770500,2.8827705078125,1.98905638667196,3.2532728969067333,-0.5341466241896152,-1.2170591354370115,0.0305820032954216,1.5161595344543457
1783201291891707400,2.892707275390625,1.5766009363047775,3.4626752335384485,-1.2013812838762998,-1.258806228637695,0.1483087539672851,1.4429829120635986
1783201291901644500,2.90264453125,0.8406585049644112,3.498520161640644,-2.2182225774377584,-1.329959750175476,0.3204456567764282,1.3277472257614136
1783201291911581400,2.91258154296875,-0.1269660089528188,3.2322242636591194,-3.482318383902311,-1.4561856985092163,0.5577645897865295,1.2042292356491089
1783201291921518600,2.9225185546875,-1.0767382014457136,2.6689000603020188,-4.725834928196669,-1.6564383506774902,0.7263011336326599,1.054653882980347
1783201291931455500,2.93245556640625,-1.794876169091463,2.0078665933430195,-5.942126196435093,-1.8805787563323972,0.7684778571128845,0.8289487957954407
1783201291941392400,2.942392333984375,-1.9623001894325016,1.4530470373503863,-7.223776364290714,-2.022512435913086,0.6724858283996582,0.5852988958358765
1783201291951329500,2.95232958984375,-1.408758544421196,0.9709816057927906,-8.535227796170116,-2.034173011779785,0.3846106827259063,0.4161234200000763
1783201291961266400,2.962266357421875,-0.3937162631057203,0.3111657709952443,-9.648901570498944,-1.923366665840149,-0.0572886727750301,0.4133811593055725
1783201291971203600,2.97220361328125,0.7053700368136168,-0.6204443400043994,-10.34056398447752,-1.6855558156967163,-0.5326224565505981,0.5456858277320862
1783201291981140700,2.982140625,1.6640370815649628,-1.4323625612400472,-10.411293471217157,-1.3394376039505005,-1.0287950038909912,0.7779401540756226
1783201291991077400,2.992077392578125,2.44215115981102,-1.8049363753348588,-9.630681438675522,-0.9167035222053528,-1.4599218368530271,1.046708345413208
1783201292001014500,3.0020146484375,3.002267799298465,-1.7497930186532438,-8.305775481939316,-0.4250506460666656,-1.73615825176239,1.3019791841506958
1783201292010950700,3.01195068359375,3.263628286704421,-1.336371353602409,-6.6170689462810754,0.1053763777017593,-1.8336198329925537,1.4961225986480713
1783201292020888600,3.021888671875,3.0559216480746865,-0.7611898314520716,-4.835255672380328,0.630492627620697,-1.7746376991271973,1.6151901483535769
1783201292030824400,3.031824462890625,2.6468565707981586,-0.1979726321334019,-3.200874016627669,1.074837565422058,-1.619937777519226,1.6926000118255615
1783201292040762400,3.041762451171875,2.170622621873021,0.2298939205184579,-1.7191314845383163,1.3675466775894165,-1.4000048637390137,1.7569140195846558
1783201292050699000,3.051698974609375,1.7846264316253364,0.4796367431059479,-0.1917886462688446,1.480280518531799,-1.164509892463684,1.807996392250061
1783201292060636200,3.06163623046875,1.5107887399621307,0.645560588017106,1.1934312016546726,1.4166640043258667,-0.9784181118011476,1.8481565713882449
1783201292070573000,3.071572998046875,1.2755005591847002,0.7651803623929619,2.234851640677452,1.2023279666900637,-0.8405119180679321,1.8830771446228027
1783201292080510200,3.08151025390625,1.1026393162257968,0.8435054188281297,2.922391421768069,0.9183545708656312,-0.7616541385650635,1.8988763093948364
1783201292090446800,3.09144677734375,1.0078577766388654,0.9526729189030826,3.2772581681281325,0.6384081840515137,-0.7256966829299927,1.905528545379639
1783201292100384000,3.101384033203125,0.9604663492582738,1.0440994489736857,3.584055003324151,0.3716058135032654,-0.6840479969978333,1.906256914138794
1783201292110321200,3.111321044921875,0.9306641353864222,1.1677959712691603,3.99441508884728,0.1234729439020156,-0.5944054126739502,1.8792978525161743
1783201292120258000,3.121258056640625,0.9582637977126984,1.3735066137760876,4.509866949439049,-0.1056225597858429,-0.4475096464157104,1.8226544857025144
1783201292130195200,3.1311953125,0.9748434688527136,1.4717942617878317,4.92456827903688,-0.2897924780845642,-0.2562585473060608,1.74347186088562
1783201292140131800,3.1411318359375,0.8758363474600016,1.3902633950486778,5.1257671432077885,-0.4005776047706604,0.0301314052194356,1.633940577507019
1783201292150069000,3.151069091796875,0.7961302119299769,1.2327186714261769,5.226031351989508,-0.4649763703346252,0.3782764375209808,1.5396409034729004
1783201292160006100,3.161006103515625,0.8114760304260998,1.069441395501047,5.2673237318426365,-0.5137593746185303,0.7484545111656189,1.448830485343933
1783201292169943000,3.170943115234375,0.9872446852643042,0.7937409056406468,5.1748137904495,-0.5568353533744812,1.0610907077789309,1.4293410778045654
1783201292179880200,3.180880126953125,1.086779264597222,0.315229221041873,4.708994268032908,-0.575453519821167,1.3185853958129885,1.481393575668335
1783201292189816800,3.19081689453125,1.2008918929241597,0.038736996281892,4.105962323665619,-0.6173462867736816,1.4644328355789185,1.5678935050964355
1783201292199754000,3.20075390625,1.3160425590619445,-0.0036564766809344,3.650020052140951,-0.7397302389144897,1.5138168334960938,1.65453839302063
1783201292209691100,3.210691162109375,1.3483094825468958,0.1006624143190682,3.318811244744062,-0.93096661567688,1.4216963052749634,1.745976209640503
1783201292219628000,3.2206279296875,1.3191098376780748,0.255698625719361,2.948367574545741,-1.1327852010726929,1.2077925205230713,1.8219072818756104
1783201292229565200,3.230565185546875,1.155152251338586,0.6171516551345586,2.411572481673956,-1.2971587181091309,1.0390067100524902,1.88009774684906
1783201292239502000,3.240502197265625,0.8384198591921478,1.1059973944820465,2.0457021107405424,-1.3810666799545288,1.0667377710342407,1.9146476984024048
1783201292249439000,3.25043896484375,0.3728964701779186,1.6333819771908222,1.8470014931261536,-1.37071692943573,1.384010672569275,1.9173747301101685
1783201292259376000,3.260376220703125,0.2008248980256728,2.303071190422773,1.7963076631993051,-1.256244659423828,1.9667556285858157,1.8803246021270752
1783201292269313000,3.27031298828125,0.1624803716600872,2.9084909067094324,1.0816963353097435,-1.009258270263672,2.5351011753082275,1.8767980337142944
1783201292279250200,3.280250244140625,0.0179254962584003,2.983573912483453,-0.8928010723948478,-0.7128023505210876,2.9240400791168213,1.919908046722412
1783201292289187000,3.29018701171875,-0.2476665277700871,2.96611453589946,-3.0343840622663496,-0.493444561958313,3.063030242919922,1.9475750923156736
1783201292299124000,3.3001240234375,-0.518794814344123,3.3568677114158865,-5.142098100283742,-0.3860920071601867,2.6840262413024902,1.8844728469848635
1783201292309061000,3.31006103515625,-0.6030035950556397,3.7885605078250166,-7.039305347558855,-0.4516377747058868,1.9792604446411133,1.7453856468200684
1783201292318998000,3.319998046875,-0.642121553479135,4.434068781132996,-8.282959254497289,-0.615828275680542,1.215288519859314,1.5641884803771973
1783201292328935200,3.32993505859375,-1.0500203634552656,4.754285946655274,-9.297177798339725,-0.6812024116516113,0.3692197501659393,1.3581174612045288
1783201292338872000,3.3398720703125,-1.5955597576662897,4.530756008210778,-10.120758034992216,-0.5880841612815857,-0.4355126917362213,1.1116491556167605
1783201292348809000,3.34980908203125,-2.0500876323483883,4.263520783552528,-10.286032768344878,-0.3717783391475677,-1.0616614818572998,0.8417871594429016
1783201292358746000,3.35974609375,-2.404606149792671,4.175457300174236,-9.842335061365365,-0.0396134667098522,-1.5267157554626465,0.5547213554382324
1783201292368683000,3.36968310546875,-2.6065894423395397,4.092309645888209,-8.969666676416992,0.3863369226455688,-1.7952207326889038,0.2517582774162292
1783201292378620200,3.3796201171875,-2.575707981863618,3.925985111221671,-7.6559163199454545,0.8557180166244507,-1.870973229408264,-0.0423766784369945
1783201292388557000,3.38955712890625,-2.319035652273893,3.712374216984212,-6.149048698949813,1.3215038776397705,-1.815479516983032,-0.2914490401744842
1783201292398494000,3.399493896484375,-1.9337895497411488,3.510852696730196,-4.745942481201887,1.731675148010254,-1.7154569625854492,-0.4648471772670746
1783201292408431000,3.40943115234375,-1.4728855641558765,3.4217335668191318,-3.498736434739828,2.0223324298858643,-1.6502327919006348,-0.5858294367790222
1783201292418368000,3.419367919921875,-1.050045497896522,3.583768879859149,-2.2902158005028963,2.1430935859680176,-1.657384753227234,-0.7083052396774292
1783201292428305200,3.42930517578125,-0.7788669424399733,3.836655845691264,-1.177510578945279,2.117412567138672,-1.7682043313980105,-0.8418092727661133
1783201292438242000,3.439241943359375,-0.588426203648746,3.936833252972364,-0.1244300972670316,1.9721596240997317,-1.9261116981506348,-0.9756541848182678
1783201292448179000,3.449178955078125,-0.4518079481989145,3.91644717528671,1.0085042578488588,1.7636892795562744,-2.0657920837402344,-1.084432601928711
1783201292458116000,3.4591162109375,-0.344415714168176,3.903782047241926,2.1167454857349397,1.5276535749435425,-2.12785005569458,-1.1803092956542969
1783201292468053000,3.469052978515625,-0.2938697682794183,3.753781455388665,3.129246119743585,1.2827385663986206,-2.1041598320007324,-1.2762856483459473
1783201292477990100,3.478990234375,-0.3487441718265414,3.5354669135048984,3.9703766261339184,1.0442110300064087,-1.9891119003295896,-1.3776594400405884
1783201292487927000,3.488927001953125,-0.452458301866427,3.3203321707010267,4.569810253748297,0.8365022540092468,-1.812209725379944,-1.4613139629364014
1783201292497864000,3.498864013671875,-0.5269450953129678,3.06597688588202,4.944620886984467,0.6643791794776917,-1.583475112915039,-1.5208947658538818
1783201292507801000,3.508801025390625,-0.5378304272688925,2.854540997596085,5.27321162083745,0.5079950094223022,-1.2909711599349976,-1.567969560623169
1783201292517738000,3.518738037109375,-0.5983860182575881,2.6429081254333258,5.525412942492961,0.3783080875873565,-0.9721319079399108,-1.6225132942199707
1783201292527675000,3.5286748046875,-0.6915599765174091,2.4348392293624577,5.580417621356249,0.260333776473999,-0.6812792420387268,-1.6868352890014648
1783201292537612000,3.538612060546875,-0.776596805550903,2.214993678519129,5.41571688849926,0.1341186016798019,-0.4534076750278473,-1.7566471099853516
1783201292547549000,3.548548828125,-0.8412856969520449,2.090971869792044,5.121989378234744,0.0011570807546377,-0.2956004738807678,-1.8383973836898804
1783201292557486000,3.558486083984375,-0.8187817503295839,2.122877851010114,4.841373278477787,-0.150521382689476,-0.2398189753293991,-1.9353188276290891
1783201292567423200,3.56842333984375,-0.7442106396004557,2.2015106582202018,4.624409274420142,-0.3428816497325897,-0.2512366473674774,-2.049868583679199
1783201292577360000,3.57835986328125,-0.6454967290006578,2.2045628853976726,4.554752385348081,-0.5605258941650391,-0.2700324356555938,-2.186121940612793
1783201292587297000,3.588297119140625,-0.4968409758850932,2.094550312800705,4.487082286179065,-0.7903925180435181,-0.2836129069328308,-2.314723491668701
1783201292597234000,3.59823388671875,-0.2484776249572634,1.9416496155917644,4.477840410581231,-1.0580612421035769,-0.2618958950042724,-2.4469757080078125
1783201292607171000,3.608171142578125,0.0264329566344618,1.757515429598838,4.591929146575928,-1.358327031135559,-0.2040018886327743,-2.573251724243164
1783201292617108200,3.618108154296875,0.3994869554616511,1.402744544828683,4.456148218733072,-1.6488009691238403,-0.1555904150009155,-2.651251554489136
1783201292627044900,3.628044921875,1.0111270806331187,0.8458177143584936,3.854111715143919,-1.868346929550171,-0.1375684142112732,-2.6658730506896973
1783201292636982000,3.63798193359375,1.829548546282947,0.2980060643665492,2.955696894520521,-2.011268377304077,-0.1447483003139495,-2.5973660945892334
1783201292646919000,3.6479189453125,2.6753128499537704,-0.0833306096374988,1.9426403801947831,-2.102144956588745,-0.1928147971630096,-2.4620749950408936
1783201292656856000,3.65785595703125,3.3327202353700995,-0.2965339459873736,0.8532242642879485,-2.167832136154175,-0.2245948314666748,-2.278585910797119
1783201292666793200,3.667793212890625,3.686559976769984,-0.4298426019651815,-0.1827934389084577,-2.2153475284576416,-0.2181929051876068,-2.0646204948425293
1783201292676729900,3.677729736328125,3.768964995995164,-0.6016130174800753,-1.216845394989848,-2.21687650680542,-0.1076115369796752,-1.837014317512512
1783201292686667000,3.6876669921875,3.656856035640836,-0.799747087252885,-2.3731816684812306,-2.1335554122924805,0.0883934795856475,-1.6086022853851318
1783201292696604000,3.69760400390625,3.4052781065806745,-0.947684901357442,-3.6937329371392726,-1.9353718757629397,0.2597527205944061,-1.386737823486328
1783201292706541000,3.707541015625,3.0718107066020366,-1.0606246865127236,-5.020737911981344,-1.6373885869979858,0.3617183864116668,-1.2009810209274292
1783201292716478200,3.717478271484375,2.5652125990733503,-1.099576713784784,-6.218011760538816,-1.2760509252548218,0.4084347486495971,-1.0663254261016846
1783201292726414800,3.727414794921875,1.9978344441503288,-1.0531693290054798,-7.069869412648678,-0.9062384366989136,0.3847098648548126,-0.9622408151626588
1783201292736352000,3.73735205078125,1.551752180121839,-0.8614641963016241,-7.611837524244189,-0.5442546606063843,0.2932713031768799,-0.8667891621589661
1783201292746289000,3.747288818359375,1.196531651888043,-0.4388981246780604,-7.850230685299635,-0.1744368821382522,0.1474599540233612,-0.806950569152832
1783201292756226000,3.75722607421875,0.7658994704477489,0.0330365196179598,-7.740069351881742,0.2155183404684066,-0.0395038016140461,-0.8213422894477844
1783201292766163200,3.7671630859375,0.2256961765676736,0.4048489939514547,-7.261879592713713,0.6124106645584106,-0.191315695643425,-0.9096620082855223
1783201292776099800,3.777099853515625,-0.2699476254221051,0.7164817979365586,-6.412136156278848,0.9907915592193604,-0.2957054674625397,-1.0448784828186035
1783201292786037000,3.787037109375,-0.5000264009881764,1.0321216456059366,-5.320437482392788,1.3119192123413086,-0.3414061665534973,-1.1608113050460815
1783201292795974100,3.79697412109375,-0.4774340454299002,1.4149575451917946,-4.124858162793517,1.5560944080352783,-0.3730970025062561,-1.2501492500305176
1783201292805911000,3.8069111328125,-0.4942849347267299,1.7011656197369098,-2.978402062803507,1.726562261581421,-0.4256869256496429,-1.3279560804367063
1783201292815848200,3.81684814453125,-0.5718949747603387,1.8536643120162188,-1.8178040402144195,1.7964133024215698,-0.4681161344051361,-1.4020075798034668
1783201292825784800,3.826784912109375,-0.6511924564242363,1.9447965353153644,-0.5655377877533435,1.7672274112701416,-0.4556096792221069,-1.4609063863754272
1783201292835722000,3.836721923828125,-0.710424543724209,1.9086980708435175,0.7944237002730369,1.6295461654663086,-0.3459601700305938,-1.4933620691299438
1783201292845659100,3.8466591796875,-0.7258658584840595,1.8070389005720613,2.0313801553994417,1.404599905014038,-0.2330859154462814,-1.5087722539901731
1783201292855596000,3.856595947265625,-0.7613475062318146,1.606663627743721,2.7317174587428568,1.1318882703781128,-0.1689703166484832,-1.494723558425903
1783201292865533200,3.866533203125,-0.7777338467568159,1.3167340484574437,3.0673966895520683,0.8241097927093506,-0.1481445133686065,-1.480483889579773
1783201292875469800,3.8764697265625,-0.7333961078584194,1.1872807162009178,3.2826258326411244,0.4980978965759277,-0.1999033093452453,-1.4720818996429443
1783201292885407000,3.886406982421875,-0.6820023129686713,1.178435950161889,3.306597659859061,0.2061861008405685,-0.3257654905319214,-1.4919848442077637
1783201292895344000,3.89634423828125,-0.5171688936427236,1.2502546203777194,3.317776640999317,-0.0342060029506683,-0.4383740723133087,-1.5363099575042725
1783201292905281000,3.906281005859375,-0.3592620587095618,1.288087653557211,3.462302016311884,-0.2247219234704971,-0.4820915460586548,-1.6025400161743164
1783201292915218200,3.91621826171875,-0.2492768125109374,1.2702093209087848,3.668401512005925,-0.3666833341121673,-0.454172283411026,-1.689298391342163
1783201292925154800,3.92615478515625,-0.0976025883570313,1.2332289590358734,3.840786954146624,-0.4594301581382751,-0.3657942712306976,-1.7886567115783691
1783201292935092000,3.936092041015625,0.1020078375786542,1.162017826259136,3.96159126213193,-0.5284531712532043,-0.218796044588089,-1.872633934020996
1783201292945029000,3.946029052734375,0.4513341932073235,1.0540360288374124,4.074899076882004,-0.5714244246482849,-0.0178750846534967,-1.917779803276062
1783201292954966000,3.955966064453125,0.7881314682610332,0.8523989193797111,4.122957297608256,-0.6089068055152893,0.2186903059482574,-1.9288265705108645
1783201292964903200,3.965903076171875,1.0598479299865662,0.5915395864289253,4.156549770608544,-0.6562146544456482,0.4715269804000854,-1.9226884841918943
1783201292974839800,3.97583984375,1.3007120112001895,0.2814304118145257,4.04803269726634,-0.7244583964347839,0.692412257194519,-1.885305643081665
1783201292984777000,3.98577685546875,1.5954299938067793,-0.0270813375405967,3.741293729737401,-0.8182487487792969,0.8530969023704529,-1.8292326927185056
1783201292994714000,3.995714111328125,1.973194362282008,-0.204662887019664,3.095616821864247,-0.924493670463562,0.8259251713752747,-1.751137614250183
1783201293004651000,4.005651123046875,2.3586463626503944,-0.2702455854553729,2.054694395491481,-1.0243579149246216,0.5763900876045227,-1.6741571426391602
1783201293014588200,4.015588134765625,2.566141696617007,-0.3879350493557751,0.95812840783,-1.080441117286682,0.2889775335788727,-1.5768449306488037
1783201293024524800,4.02552490234375,2.6412632808357475,-0.6057421531740576,0.0828401957720518,-1.1042102575302124,0.0677025541663169,-1.4626634120941162
1783201293034462000,4.0354619140625,2.588461957235634,-0.6878073459856212,-0.4101987574815749,-1.153761625289917,-0.0421254113316535,-1.3488612174987793
1783201293044399000,4.045399169921875,2.359918866804242,-0.7032763524699955,-0.6254220553517341,-1.2160813808441162,-0.0212827511131763,-1.2496100664138794
1783201293054336000,4.0553359375,2.0569164554551245,-0.8321494736857712,-0.9086661655247212,-1.2432349920272827,0.1481392979621887,-1.1628681421279907
1783201293064273200,4.065273193359375,1.8007042907230555,-1.0014541201416405,-1.5415309380978346,-1.2001845836639404,0.423042893409729,-1.054973840713501
1783201293074210000,4.0752099609375,1.6785814474850893,-1.0429539322003722,-2.5206512805521486,-1.0804941654205322,0.7110208868980408,-0.9193646907806396
1783201293084147000,4.08514697265625,1.6738719546198844,-0.9138524821214378,-3.67945131380856,-0.922053337097168,0.8834454417228699,-0.7746953368186951
1783201293094084000,4.095083984375,1.6840101945355537,-0.6640702043063939,-4.9120495737254615,-0.7506128549575806,0.8820925354957581,-0.6471893191337585
1783201293104021000,4.10502099609375,1.572001625815779,-0.371383471799083,-6.057329031151533,-0.5651947855949402,0.6756522059440613,-0.5238437056541443
1783201293113958100,4.114958251953125,1.1543046215333044,-0.3177543556053191,-6.995545700809359,-0.3350092470645904,0.3384984135627746,-0.4364482760429382
1783201293123895000,4.12489501953125,0.48917234095335,-0.3660718483222648,-7.54931940101087,-0.0633866786956787,-0.0689601078629493,-0.3979156017303467
1783201293133832000,4.13483203125,-0.1046029321057721,-0.2272297610768117,-7.472007028749585,0.2093521803617477,-0.4927726089954376,-0.4135419726371765
1783201293143769000,4.14476904296875,-0.5575480311084539,0.0784105153620708,-6.750864253264665,0.4813699722290039,-0.8549286723136902,-0.4886650741100311
1783201293153706000,4.1547060546875,-0.8037591724384575,0.3709305403998121,-5.6143777586251495,0.7414396405220032,-1.0876973867416382,-0.6011292934417725
1783201293163643100,4.16464306640625,-0.8615322200365364,0.5966192277807743,-4.133165972411632,0.9680890440940856,-1.1384302377700806,-0.7142177224159241
1783201293173580000,4.174580078125,-0.6547282293349505,0.7580877737835049,-2.4622780020385977,1.141926646232605,-1.0213319063186646,-0.7908496856689453
1783201293183517000,4.184516845703125,-0.4626848045874386,0.8635984318513422,-1.0193640900373455,1.2817888259887695,-0.8338971734046936,-0.846724808216095
1783201293193454000,4.1944541015625,-0.393849241835624,0.9746477270849048,0.044763855355978,1.3707575798034668,-0.619714617729187,-0.884085476398468
1783201293203391000,4.204390869140625,-0.3551359186902642,1.1240874701850117,0.8875216706871986,1.4079371690750122,-0.4145591557025909,-0.9182602763175964
1783201293213328100,4.214328125,-0.3700542324893176,1.2625634823307397,1.6009300525277852,1.3753297328948977,-0.2608002424240112,-0.9559349417686462
1783201293223265000,4.22426513671875,-0.3931333486512303,1.3721186665490268,2.136426922282576,1.2879635095596311,-0.1830238401889801,-0.9985339045524596
1783201293233202000,4.234201904296875,-0.4613226493887603,1.4397241760492323,2.4968939728677277,1.154510736465454,-0.182971641421318,-1.0409090518951416
1783201293243139000,4.24413916015625,-0.502534072960168,1.5117545162543653,2.7555525078386065,0.9990856051445008,-0.2328993678092956,-1.096095323562622
1783201293253076000,4.254075927734375,-0.5479944592129439,1.5407362805888056,2.9863959841668604,0.8436856269836426,-0.2997271120548248,-1.1627930402755735
1783201293263013000,4.26401318359375,-0.560238512301445,1.5566018121100962,3.3039427614361045,0.689373254776001,-0.3280853033065796,-1.2647490501403809
1783201293272950000,4.273949951171875,-0.5352569965843111,1.5961659068658949,3.729792677035928,0.5327916145324707,-0.2787920534610748,-1.399675726890564
1783201293282887000,4.283886962890625,-0.4655167400777339,1.564823112488538,4.083035621586442,0.3864717781543731,-0.1746193468570709,-1.5534557104110718
1783201293292824000,4.293823974609375,-0.3115503863986581,1.3638549883335829,4.325981039118767,0.2468395680189132,-0.0181831493973732,-1.6853923797607422
1783201293302761000,4.303760986328125,-0.0662662237204611,1.0818886430114507,4.502576792430878,0.1176542118191719,0.17645925283432,-1.7794716358184814
1783201293312698000,4.313697998046875,0.2719100115362554,0.7384365862436593,4.638953348079324,-0.011732536368072,0.4081625044345855,-1.8158326148986816
1783201293322635000,4.323635009765625,0.633212563097477,0.3258465497113764,4.619688091117143,-0.135733425617218,0.6559178829193115,-1.8110041618347168
1783201293332572000,4.333572021484375,0.9498881104901432,-0.0603496931530535,4.356462686622143,-0.2690195739269256,0.8624521493911743,-1.7638367414474487
1783201293342509000,4.343509033203125,1.3060086563035844,-0.2519939625151455,3.699194709676504,-0.3969834148883819,0.931609034538269,-1.6818859577178955
1783201293352446000,4.353446044921875,1.653331563155353,-0.2949257801383733,2.7262901729971167,-0.4895596802234649,0.8461188673973083,-1.5790412425994873
1783201293362383000,4.363383056640625,1.9074853340528903,-0.3299095613665878,1.5621727441102264,-0.518059492111206,0.6357302069664001,-1.4485454559326172
1783201293372320000,4.373320068359375,1.9812752312764523,-0.4508144071169197,0.5996043080061674,-0.5158988833427429,0.4006519019603729,-1.3118174076080322
1783201293382257000,4.3832568359375,1.823292700758576,-0.5650941356390714,0.0885626650720834,-0.505961537361145,0.2673620581626892,-1.2018628120422363
1783201293392194000,4.393194091796875,1.5760501705542205,-0.516517151735723,-0.1347042385220527,-0.5166423916816711,0.232128694653511,-1.1301058530807495
1783201293402131200,4.403131103515625,1.368169198270887,-0.3730808868341148,-0.3620271395087241,-0.5268099308013916,0.2576878070831299,-1.0904967784881592
1783201293412068000,4.413068115234375,1.2348451620608567,-0.3046034168049693,-0.7620271590590476,-0.5226316452026367,0.3204174935817718,-1.0386117696762085
1783201293422005000,4.4230048828125,1.2015051294516772,-0.2590169930197298,-1.29972241564095,-0.488668143749237,0.4023758471012115,-0.9597246646881104
1783201293431942000,4.43294189453125,1.1597503197185697,-0.1729945139497518,-1.9772358927577731,-0.4393240213394165,0.4639385640621185,-0.8652871251106262
1783201293441879000,4.442879150390625,0.9897484847787767,-0.0980675024550408,-2.6894343142867085,-0.3913633823394775,0.4828341007232666,-0.7642837762832642
1783201293451816200,4.452816162109375,0.6834349030550569,0.0230666950717568,-3.359334393790364,-0.3380588889122009,0.4538629055023193,-0.676362931728363
1783201293461753000,4.462753173828125,0.1755999106751754,0.1375100897230207,-3.980252707982063,-0.2509529590606689,0.3404111564159393,-0.6278164982795715
1783201293471690000,4.47268994140625,-0.3254012170966714,0.20585925719738,-4.495731456580758,-0.1587367355823516,0.1941607296466827,-0.6165124177932739
1783201293481628000,4.4826279296875,-0.6040849240189418,0.4314215051870793,-4.79573205576539,-0.0771878734230995,-0.0272705927491188,-0.632375180721283
1783201293491565000,4.49256494140625,-0.7254772975578904,0.74546604648903,-4.942706577795744,-0.0007151998579502,-0.3128876984119415,-0.6700053811073303
1783201293501502000,4.502501953125,-0.7108519022908061,0.9720749539874494,-4.7642543829619886,0.0544030182063579,-0.5926691889762878,-0.7051211595535278
1783201293511439000,4.512439208984375,-0.5973852437172085,1.2032589143164456,-4.2604391841501,0.089293360710144,-0.8331795334815979,-0.7285559177398682
1783201293521376300,4.522376220703125,-0.6375972079224884,1.2202189630761742,-3.5631115840166805,0.1299829483032226,-1.005149006843567,-0.7531593441963196
1783201293531313000,4.53231298828125,-0.711592126198858,1.0533864058222622,-2.654720728302002,0.1605342030525207,-1.0789737701416016,-0.7892388105392456
1783201293541250000,4.54225,-0.6730166040889919,0.9946856489200144,-1.703244179576635,0.1787421703338623,-1.0681748390197754,-0.8259816765785217
1783201293551187000,4.55218701171875,-0.5853579021193087,1.0513071883954108,-0.8900982431769371,0.1966340839862823,-1.036186456680298,-0.869380533695221
1783201293561124000,4.5621240234375,-0.5425545331813395,1.0271456107590349,-0.2327425879478454,0.2388768345117569,-0.982100546360016,-0.934772789478302
1783201293571061200,4.572061279296875,-0.5267459194790571,0.9146454591300338,0.3593617196917533,0.3030750155448913,-0.9057852625846864,-1.0177547931671145
1783201293580998000,4.581997802734375,-0.465460260650143,0.8407680297534912,0.9124866005957126,0.3840662539005279,-0.8402234315872192,-1.1063109636306765
1783201293590935000,4.59193505859375,-0.3802109579097479,0.7967335846506058,1.4146364965438842,0.4631980955600738,-0.7699021100997925,-1.1914348602294922
1783201293600872000,4.601871826171875,-0.2249686660107225,0.749839439267665,1.946178491193056,0.5234591960906982,-0.7011387944221497,-1.2680765390396118
1783201293610809000,4.61180908203125,-0.0693798987615853,0.7220607671126723,2.5339532451957463,0.5607514381408691,-0.6234903335571289,-1.3371970653533936
1783201293620746200,4.621746337890625,0.1092246370896697,0.7390669931016862,3.089460637322068,0.5658720135688782,-0.5506669282913208,-1.3945025205612185
1783201293630683000,4.631682861328125,0.3097502781741321,0.7418927180469036,3.637479134997725,0.5328264236450195,-0.4589945375919342,-1.4254218339920044
1783201293640620000,4.6416201171875,0.529054707878083,0.7225296997986733,4.221304859113693,0.4415488243103027,-0.3378930985927582,-1.4319671392440796
1783201293650557000,4.651556884765625,0.7857819094602018,0.7015345503039657,4.824697453486919,0.2705320715904236,-0.1615630537271499,-1.4163365364074707
1783201293660494000,4.661494140625,1.0887863666359334,0.7831120326638221,5.446277446457743,-0.0230670012533664,0.0901221334934234,-1.3991847038269043
1783201293670431200,4.67143115234375,1.214255159300938,0.816337425917387,5.759663596916198,-0.3831277191638946,0.2612986862659454,-1.3853003978729248
1783201293680367900,4.681367919921875,1.16164482822828,0.5988108195409179,5.537859751611948,-0.7416340112686157,0.4914698004722595,-1.4195702075958252
1783201293690305000,4.691304931640625,1.2551765869498253,0.4222309944503009,5.07246050043404,-1.0556522607803345,0.6772758960723877,-1.4347246885299685
1783201293700242000,4.701241943359375,1.1601827197864651,0.103797789735347,3.922348800545931,-1.224323272705078,0.7243858575820923,-1.4160680770874023
1783201293710179000,4.711178955078125,1.0972416219007224,-0.1522698519594967,2.549832366850972,-1.242942214012146,0.7080971598625183,-1.389446258544922
1783201293720116200,4.7211162109375,1.1680679931435731,-0.1790507452487945,1.1932096678584814,-1.1448445320129397,0.5503311157226562,-1.3640295267105105
1783201293730052900,4.731052978515625,1.3564052568495273,0.0197768597461283,0.0451741897225379,-1.0011036396026611,0.3078652024269104,-1.352564811706543
1783201293739990000,4.740989990234375,1.473879689759761,0.2762497943062335,-0.5194178416132926,-0.8986008763313293,0.1095151901245117,-1.3625856637954712
1783201293749927200,4.75092724609375,1.421240717114508,0.3501534541025757,-0.545564674782753,-0.8718007206916809,-0.0161282233893871,-1.3814126253128052
1783201293759864000,4.760864013671875,1.2708539024226366,0.2351316750414669,-0.4136819234222173,-0.9010804295539856,-0.040789034217596,-1.3655821084976196
1783201293769801200,4.77080126953125,1.1916425646722315,-0.0108564711876213,-0.3548720070570707,-0.9685023427009584,0.0441431663930416,-1.3166873455047607
1783201293779737900,4.78073779296875,1.1429305562123655,-0.3321325711783021,-0.5217711267411709,-1.0487765073776243,0.1949629187583923,-1.2167364358901978
1783201293789675000,4.790675048828125,1.0773474193852397,-0.5260813911557197,-1.0178314736425875,-1.1078256368637085,0.3339335918426513,-1.0809167623519895
1783201293799612200,4.800612060546875,1.0040354418717323,-0.5284209400191903,-1.7394032881945372,-1.1371554136276243,0.3995938599109649,-0.9586451649665833
1783201293809549000,4.810549072265625,0.7881739922285079,-0.405677736393176,-2.5082301903963087,-1.122707486152649,0.4257988333702087,-0.8831448554992676
1783201293819486200,4.820486328125,0.4828230815244838,-0.222796874929592,-3.2442659991085527,-1.0278173685073853,0.4182243347167969,-0.853164553642273
1783201293829422800,4.8304228515625,0.1919346488771028,0.0459013897522352,-3.966877093580365,-0.8603412508964539,0.3390035331249237,-0.8538007736206055
1783201293839360000,4.840360107421875,-0.0739525769719854,0.2968313945639878,-4.59748268904984,-0.6471064686775208,0.1723422855138778,-0.8921071290969849
1783201293849297200,4.850297119140625,-0.2954066041915677,0.455921228736639,-4.828270051276683,-0.4601011872291565,0.0238699987530708,-0.9589969515800476
1783201293859234000,4.860234130859375,-0.3546185437526554,0.5962676378641277,-4.685794594231248,-0.3187628388404846,-0.1309782266616821,-1.014914631843567
1783201293869171200,4.870171142578125,-0.3079756697170436,0.6073936101755127,-4.422952636095881,-0.2077068984508514,-0.2682764232158661,-1.0662555694580078
1783201293879107800,4.88010791015625,-0.2234752673815004,0.4680764344979077,-3.967994699433446,-0.1166071370244026,-0.3624476492404938,-1.113461971282959
1783201293889045000,4.890044921875,-0.1471547557017765,0.1926788183079101,-3.4721669922441243,-0.0109944185242056,-0.4228985011577606,-1.1510189771652222
1783201293898982100,4.899982177734375,0.0294423675835132,-0.0962680518176406,-2.988226122203469,0.1222285628318786,-0.4485897421836853,-1.1654411554336548
1783201293908919000,4.9099189453125,0.2538647613557055,-0.2979983925167471,-2.4286159709334374,0.2747960090637207,-0.4537464082241058,-1.1646808385849
1783201293918856200,4.919856201171875,0.4956940343396738,-0.4473128652693703,-1.7864771740585563,0.4095372259616852,-0.4401438236236572,-1.1447243690490725
1783201293928792800,4.929792724609375,0.6899202464863657,-0.537063315353915,-1.0686059675902129,0.5125522613525391,-0.4098298549652099,-1.1188312768936155
1783201293938730000,4.93972998046875,0.8825453435793519,-0.5340911676753312,-0.3084136227428913,0.5763891935348511,-0.3752205669879913,-1.0804749727249146
1783201293948667100,4.949667236328125,1.0116201979123056,-0.5046887667760253,0.4490630334049463,0.6100877523422241,-0.3243584632873535,-1.0263619422912598
1783201293958604000,4.95960400390625,1.0300342448726296,-0.515789714244008,1.1738543945252895,0.6071522831916809,-0.2631836831569671,-0.9671816229820251
1783201293968541200,4.969541259765625,0.9964860494054854,-0.5207080275543033,1.853139557489753,0.5734880566596985,-0.1888785809278488,-0.9108730554580688
1783201293978478000,4.97947802734375,0.8952813449032604,-0.4429017342962324,2.455153264725208,0.5133970379829407,-0.1031958907842636,-0.8648982048034668
1783201293988415000,4.9894150390625,0.7873571959529072,-0.2811072077421471,2.934634817269444,0.4412248134613037,-0.0190874096006155,-0.8385438323020935
1783201293998352100,4.99935205078125,0.6752886406742036,-0.0862643615344539,3.2987118750452997,0.3601424396038055,0.0512591004371643,-0.8427707552909851
1783201294008289000,5.0092890625,0.5514455129822716,0.0891225274445489,3.6581782241553062,0.266479879617691,0.1107879430055618,-0.879467248916626
1783201294018226200,5.01922607421875,0.3737641198579222,0.2044957502918317,3.9720997966647142,0.1827936470508575,0.1763498783111572,-0.9478278756141664
1783201294028163000,5.0291630859375,0.2316034643827006,0.2287444947550073,4.183779138317704,0.1071510836482048,0.2512661814689636,-1.034814953804016
1783201294038100000,5.039099853515625,0.1856432753816247,0.2530374802187085,4.292412531515955,0.0302172973752021,0.3606740534305572,-1.1233327388763428
1783201294048037000,5.049037109375,0.2633825312854722,0.362787456356734,4.353219759178161,-0.0726675391197204,0.5130009651184082,-1.1916619539260864
1783201294057973500,5.058973388671875,0.5395785130452364,0.5521923858268186,4.34839219289124,-0.2498787492513656,0.7141067981719971,-1.2096644639968872
1783201294067910400,5.068910400390625,0.8096866627912968,0.7622958929978311,4.190308832347393,-0.5104344487190247,0.8854578137397766,-1.213396072387695
1783201294077847600,5.07884765625,0.9768999629911036,0.80210409870781,3.6043279760241504,-0.8084309697151184,1.004763960838318,-1.200608730316162
1783201294087784200,5.0887841796875,1.2798892956629395,0.528650255263038,2.5348534089058634,-1.0711594820022583,1.0888983011245728,-1.145471453666687
1783201294097721300,5.098721435546875,1.5225412832066416,0.0460119557209312,1.091730822589993,-1.2804405689239502,1.1002079248428345,-1.0346965789794922
1783201294107658500,5.108658447265625,1.662030856309086,-0.4571511723903939,-0.5746808791518211,-1.398133397102356,0.9762346148490906,-0.8742111325263977
1783201294117595400,5.118595458984375,1.7403478755682706,-0.9575847294073552,-2.321676522171497,-1.4098037481307983,0.7518894672393799,-0.6898816227912903
1783201294127532500,5.128532470703125,1.7333444265469908,-1.378434279436618,-3.840926070356369,-1.3145309686660769,0.5007456541061401,-0.5171913504600525
1783201294137470500,5.138470458984375,1.695926550039649,-1.5264919205285608,-4.898268301132321,-1.1400573253631592,0.2754424512386322,-0.3842392861843109
1783201294147407400,5.148407470703125,1.7120197528369725,-1.5672770815119146,-5.542038498601317,-0.913219392299652,0.0916025638580322,-0.3046773672103882
1783201294157344300,5.15834423828125,1.7609975726261733,-1.6764046879678964,-5.888711417111754,-0.6643332242965698,-0.0109739722684025,-0.2518564760684967
1783201294167281400,5.168281494140625,1.855723436503112,-1.860720221877098,-6.036718204799294,-0.3851431012153625,-0.0644238740205764,-0.2131498306989669
1783201294177218600,5.178218505859375,2.02769971332103,-2.063710937900841,-6.060490710052847,-0.0987603366374969,-0.0759781524538993,-0.1651974320411682
1783201294187155500,5.188155517578125,2.286753238958865,-2.216945104847848,-5.925713990816473,0.171997919678688,-0.0564230903983116,-0.1074795424938201
1783201294197092400,5.19809228515625,2.57813871614188,-2.329179883538932,-5.745639747738838,0.418231725692749,-0.0816322192549705,-0.03015011921525
1783201294207029200,5.208029296875,2.8580335158869623,-2.491982235428691,-5.560248109030724,0.6361062526702881,-0.1579770594835281,0.0729634761810302
1783201294216966400,5.21796630859375,3.104949882876873,-2.6110709716677665,-5.225674793636799,0.8238032460212708,-0.2653622329235077,0.2032546699047088
1783201294226903600,5.227903564453125,3.319899916763604,-2.6410446696490046,-4.759488191473484,0.9857466220855712,-0.38925701379776,0.3434676826000213
1783201294236840400,5.23784033203125,3.4940745804086326,-2.534476392287016,-4.148380492678284,1.1222894191741943,-0.5053966045379639,0.4943946003913879
1783201294246777300,5.24777734375,3.632034313595295,-2.368078500123322,-3.3948090272754428,1.2340495586395264,-0.5987441539764404,0.6488925218582153
1783201294256714200,5.25771435546875,3.733451491804421,-2.205841965422779,-2.4529952099084853,1.306718826293945,-0.63369220495224,0.8179569840431213
1783201294266651400,5.2676513671875,3.749730134171248,-2.024954798527062,-1.4427379709124564,1.3331565856933594,-0.622265636920929,0.991169273853302
1783201294276588500,5.277588623046875,3.703630646297336,-1.8286694253608584,-0.4978863932847976,1.3351808786392212,-0.5616639852523804,1.1685168743133545
1783201294286525400,5.287525390625,3.54244815069437,-1.608459863510728,0.3236205442249775,1.3340977430343628,-0.4503840804100036,1.3369090557098389
1783201294296462300,5.29746240234375,3.283712166573107,-1.3339239604502915,1.024046694895625,1.3430267572402954,-0.30918750166893,1.4819374084472656
1783201294306399200,5.307399169921875,2.9266099162459374,-1.0001825658358634,1.5755413442492483,1.358076095581055,-0.1582611054182052,1.5954463481903076
1783201294316336400,5.31733642578125,2.5151833705350755,-0.6175029527902602,2.023318429496884,1.3847095966339111,0.0036667552776634,1.6776103973388672
1783201294326273500,5.3272734375,2.080338978227228,-0.2407513415541499,2.42036836706996,1.3930662870407104,0.1589948236942291,1.734616756439209
1783201294336210400,5.33721044921875,1.672802279561758,0.1187669569388032,2.818244818595052,1.360045313835144,0.2729964852333069,1.7719794511795044
1783201294346147300,5.347147216796875,1.3164924947865306,0.4606538102164864,3.2552351368904118,1.266347885131836,0.3491591513156891,1.7872270345687866
1783201294356084200,5.357084228515625,0.8929888500519096,0.7129051084935665,3.682367493516207,1.124327301979065,0.3732901811599731,1.7636158466339111
1783201294366021400,5.367021484375,0.4828828854203223,0.8423485038779676,4.098326129698753,0.96478533744812,0.3799704611301422,1.716496825218201
1783201294375958500,5.37695849609375,0.1711276423656381,0.9650025313831864,4.565786989581585,0.7826980352401733,0.4030282497406006,1.6338608264923096
1783201294385895400,5.3868955078125,-0.0309420680893585,1.1392330168686806,5.02294623568058,0.5854182243347168,0.4516093730926513,1.519882082939148
1783201294395832300,5.396832275390625,-0.1833093890739604,1.312732996122539,5.436099166792631,0.3829240500926971,0.5553585290908813,1.3819423913955688
1783201294405769500,5.40676953125,-0.2678288797024637,1.4237076917499305,5.8019227759748695,0.1754917651414871,0.7438887357711792,1.2318881750106812
1783201294415706400,5.416706298828125,-0.3403518987953662,1.5286578663907944,5.976961362972856,-0.0402032621204853,0.9914270639419556,1.093921184539795
1783201294425643500,5.4266435546875,-0.3474618038658053,1.5624891165830197,5.948298747590184,-0.2623271644115448,1.238991379737854,0.9797544479370116
1783201294435580400,5.436580322265625,-0.2517697801041417,1.5791117500819265,5.624080821993947,-0.5000054836273193,1.4621124267578125,0.920731782913208
1783201294445517300,5.446517333984375,-0.0532210833821445,1.5810853882424531,4.874674659577011,-0.715660810470581,1.656269907951355,0.9187280535697936
1783201294455454500,5.456454345703125,0.2506464934289455,1.571018459997326,3.689440792903304,-0.8924225568771362,1.8173075914382932,0.9701969623565674
1783201294465391400,5.466391357421875,0.509370860177651,1.5742878370568156,2.0925930412530898,-1.0112284421920776,1.873679280281067,1.0707789659500122
1783201294475328500,5.47632861328125,0.750538454382494,1.3831028557695448,0.0978279215455055,-1.0505493879318235,1.798393726348877,1.1929185390472412
1783201294485265400,5.486265380859375,0.7525665261439979,1.054221906798333,-2.0791350092649457,-1.023340344429016,1.6158974170684814,1.320946455001831
1783201294495202300,5.496202392578125,0.6284294935394078,0.9013576691422612,-4.059215770059824,-0.9629215002059937,1.2740215063095093,1.427497386932373
1783201294505139500,5.506139404296875,0.4404712192136794,0.8879101585481315,-5.617199245786667,-0.9179769158363342,0.8573922514915466,1.4888787269592283
1783201294515076400,5.516076416015625,0.250161486390978,0.9935981459442526,-6.5071800000637765,-0.94877827167511,0.4983337223529815,1.5172502994537354
1783201294525013500,5.526013427734375,-0.0062488312616944,1.090293483263254,-6.879941884076595,-1.0268563032150269,0.1957413554191589,1.5031920671463013
1783201294534950400,5.535950439453125,-0.3344038040459156,1.005203535803035,-7.25043406959176,-1.0746783018112185,-0.1004604399204254,1.4669420719146729
1783201294544887300,5.54588720703125,-0.5777862978212535,0.7313190823886543,-7.782671060767769,-1.0123193264007568,-0.4018727540969848,1.4322272539138794
1783201294554824400,5.555824462890625,-0.6781533824555576,0.4376948863681406,-8.317440200769902,-0.8078628778457642,-0.7352187633514404,1.39996337890625
1783201294564761300,5.56576123046875,-0.6745499511361122,0.3118072107039392,-8.565583771467209,-0.4963569343090057,-1.0956627130508425,1.3467140197753906
1783201294574698500,5.575698486328125,-0.6262294262118637,0.3688532957343384,-8.196156584835052,-0.1248353645205497,-1.4109289646148682,1.260261297225952
1783201294584636400,5.585636474609375,-0.5030008136890828,0.513654821107164,-7.102004672577976,0.2447831779718399,-1.5928140878677368,1.155813217163086
1783201294594573600,5.595573486328125,-0.3377952731151133,0.6510680993922054,-5.474274875929951,0.5717564821243286,-1.6186692714691162,1.0489294528961182
1783201294604510200,5.60551025390625,-0.1194293298376724,0.6899545871473849,-3.716393097236753,0.8110252618789673,-1.5288938283920288,0.9550637006759644
1783201294614447400,5.615447265625,0.1247366972644813,0.6589830372352152,-2.093360518494248,0.9705448150634766,-1.3679616451263428,0.8787346482276917
1783201294624384500,5.625384521484375,0.4652425262462347,0.606356777941063,-0.7049070954769849,1.0490667819976809,-1.1614646911621094,0.8401430249214172
1783201294634321400,5.6353212890625,0.8334541265435517,0.5200353889897465,0.4275923753529786,1.0700931549072266,-0.9455063939094543,0.8337025046348572
1783201294644258600,5.645258544921875,1.1381953443840145,0.350603389827162,1.277553253930807,1.0477616786956787,-0.7451109886169434,0.8625195026397705
1783201294654195200,5.6551953125,1.3669694670923054,0.191971090163663,1.888983024287224,1.002252221107483,-0.5578023791313171,0.9148674607276917
1783201294664132400,5.66513232421875,1.5172928611591456,0.11022636147812,2.3884061256200075,0.9314556121826172,-0.4205533862113952,0.9638150334358216
1783201294674069500,5.675069580078125,1.543739115666598,0.0953691302165389,2.6712399014264343,0.8615809082984924,-0.3370948433876037,1.01020085811615
1783201294684006400,5.68500634765625,1.561377940470725,0.0632156039781868,2.861886976444721,0.7881982922554016,-0.284248948097229,1.0618720054626465
1783201294693943600,5.694943603515625,1.5784622001320123,0.0671523589052259,3.1401673267304897,0.7013789415359497,-0.2727649807929992,1.1012388467788696
1783201294703880200,5.704880126953125,1.5177002729162572,0.1300017599195241,3.3833588279783724,0.6019895076751709,-0.3099038302898407,1.1229194402694702
1783201294713817300,5.7148173828125,1.4562927412733435,0.1674392179101705,3.669009414771199,0.5007352828979492,-0.3425854444503784,1.149795651435852
1783201294723754500,5.72475439453125,1.3726793691717087,0.1445735983684659,4.090625053802133,0.388745903968811,-0.3270397782325744,1.174620270729065
1783201294733691400,5.73469140625,1.2468027263581751,0.1136558975353837,4.62277085956335,0.2541312873363495,-0.2320872694253921,1.188130259513855
1783201294743628500,5.744628662109375,1.1744441771119831,0.1161084052540361,5.19633647094965,0.0851310864090919,-0.0636993199586868,1.168022632598877
1783201294753565200,5.754565185546875,1.0116250202178954,0.0643228345677256,5.512745184099674,-0.0873585194349289,0.1386424154043197,1.1234287023544312
1783201294763502300,5.76450244140625,0.8746730027690529,-0.0553607988245785,5.475534520602226,-0.2314925342798233,0.3398964405059814,1.0884292125701904
1783201294773439500,5.774439453125,0.8056251855060458,-0.2021250391051173,5.060918531200289,-0.3193661272525787,0.5300199389457703,1.084765076637268
1783201294783376400,5.78437646484375,0.831140881165117,-0.2608936005465686,4.369492264065146,-0.3428128361701965,0.6661365032196045,1.106578707695007
1783201294793313500,5.7943134765625,0.9369631624653936,-0.1286497607886791,3.5428771897614,-0.3273100256919861,0.7273956537246704,1.1417526006698608
1783201294803250400,5.80425048828125,1.1697545579910278,0.297147547841072,2.681077989351749,-0.3195351958274841,0.7104302644729614,1.2010656595230105
1783201294813187300,5.814187255859375,1.2689635586313903,0.8340615909174084,1.9194588265717027,-0.3528898954391479,0.6705395579338074,1.2784658670425415
1783201294823124500,5.82412451171875,0.9789106452263892,1.0786297873459756,1.3029618359535933,-0.4130035638809204,0.6376338005065918,1.3508034944534302
1783201294833061400,5.834061279296875,0.5430779725335538,1.1176090679511428,0.5822223805725574,-0.472650945186615,0.6097238659858704,1.3899363279342651
1783201294842998500,5.84399853515625,0.0669961271638981,1.2232704596012831,-0.1922884124845266,-0.5222267508506775,0.5960655808448792,1.419755458831787
1783201294852935400,5.853935302734375,-0.4138816837780177,1.416070474869758,-0.974435984030366,-0.5713126063346863,0.5776435732841492,1.426735758781433
1783201294862872300,5.863872314453125,-0.8719476694583892,1.6060861201167105,-1.7662638225913048,-0.6168361306190491,0.5529725551605225,1.3805376291275024
1783201294872809500,5.8738095703125,-1.2340262468934058,1.72378778591156,-2.456421677225828,-0.6836815476417542,0.5408826470375061,1.313538908958435
1783201294882746400,5.883746337890625,-1.3571883700512348,1.8511884234219789,-3.04650587721467,-0.771641194820404,0.5052818059921265,1.245969295501709
1783201294892683500,5.89368359375,-1.3312535721972585,1.8807403888598084,-3.7588779017448415,-0.8417602181434631,0.4037355184555053,1.2053143978118896
1783201294902620400,5.903620361328125,-1.1910152265541254,1.8201960499174887,-4.612748062720894,-0.8877279758453369,0.2145434767007827,1.1992038488388062
1783201294912557300,5.913557373046875,-1.074920265303552,1.727014054481685,-5.462186378729343,-0.8747491836547852,-0.0783410668373107,1.188011646270752
1783201294922494500,5.923494384765625,-1.1073536313965917,1.5726131818428637,-6.159453773108124,-0.7661489248275757,-0.4158450663089752,1.1441727876663208
1783201294932431400,5.933431396484375,-1.114918075301498,1.4170876890882849,-6.5209916677951805,-0.5502231121063232,-0.7464795708656311,1.0658568143844604
1783201294942368500,5.943368408203125,-1.0303949679438025,1.311599315917492,-6.363863416019082,-0.2691735923290252,-1.0140039920806885,0.9650768637657166
1783201294952306400,5.953306396484375,-0.9106309627916664,1.2051429014321415,-5.6534822730451815,0.0228564757853746,-1.1636996269226074,0.8503655791282654
1783201294962243300,5.963243408203125,-0.7314099024772643,1.0136710660275072,-4.51480674392879,0.2955423295497894,-1.18608558177948,0.7502791881561279
1783201294972180500,5.973180419921875,-0.3950642436485737,0.801863933276385,-3.1684079173088078,0.5181611180305481,-1.088481903076172,0.6794267296791077
1783201294982117400,5.983117431640625,0.0605864245183765,0.6062330054309218,-1.802153466618061,0.6709876656532288,-0.9221825003623962,0.6414758563041687
1783201294992054500,5.993054443359375,0.4281672526314854,0.3664323156651109,-0.7108633735328912,0.7563653588294983,-0.7359428405761719,0.6318984031677246
1783201295001991400,6.002991455078125,0.7047308621272445,0.1484011207673698,0.0719867933243513,0.7922391891479492,-0.5573437809944153,0.6460030674934387
1783201295011928300,6.01292822265625,0.9073489454463124,-0.0645703795880079,0.6072638828486204,0.8043256998062134,-0.41712087392807,0.6770194172859192
1783201295021865500,6.022865478515625,1.066641681779921,-0.262409996458888,0.9195873725116251,0.8170883655548096,-0.3147407174110412,0.7357528209686279
1783201295031802400,6.03280224609375,1.2208227741882205,-0.3794851278532296,1.168633445006609,0.8220236301422119,-0.2705878317356109,0.8150466680526733
1783201295041739500,6.042739501953125,1.3040621984109282,-0.3872803848393261,1.45323130787611,0.8061652779579163,-0.2569298148155212,0.9021487832069396
1783201295051676400,6.052676513671875,1.3204755730733275,-0.2922157905273139,1.818934505549073,0.7660494446754456,-0.2690972089767456,0.9798122644424438
1783201295061613600,6.062613525390625,1.2408730440482496,-0.1532230610311031,2.201170320349932,0.7041552066802979,-0.2793740928173065,1.0424295663833618
1783201295071550700,6.07255078125,1.129569700988382,0.0205918293908238,2.6227953117311,0.6176251769065857,-0.2625011503696441,1.0831786394119265
1783201295081487600,6.082487548828125,0.9575355565033852,0.2239646765999496,3.0127111596405505,0.5052576661109924,-0.2436640858650207,1.0736069679260254
1783201295091424500,6.092424560546875,0.6958583312984555,0.3219192932650446,3.2490988260924816,0.3920924365520477,-0.2233354747295379,1.0444767475128174
1783201295101361400,6.102361328125,0.4576470296159386,0.3037082215309143,3.478379875409603,0.2755778133869171,-0.1559793353080749,0.9986210465431212
1783201295111298600,6.112298583984375,0.2684460617527365,0.2268675584346056,3.672677874150872,0.1670994311571121,-0.0610462538897991,0.946599543094635
1783201295121235700,6.122235595703125,0.1044669211685657,0.0511684617012739,3.769963943904638,0.0757729858160018,0.0664547160267829,0.8899698257446289
1783201295131172600,6.132172607421875,0.032253333351016,-0.0852725374855101,3.820956464517116,-0.0027228044345974,0.2261199802160263,0.8337441682815552
1783201295141109500,6.142109619140625,0.084173197941482,-0.1950159377522766,3.786475518244505,-0.0664418637752533,0.3764373064041137,0.7777144908905029
1783201295151046400,6.15204638671875,0.2242601524151861,-0.3353970528669655,3.6442443913489577,-0.107554905116558,0.5096932649612427,0.7430797219276428
1783201295160983600,6.161983642578125,0.3815497322328388,-0.4681729536749422,3.477104448646307,-0.1412702649831771,0.631465494632721,0.7358942031860352
1783201295170920700,6.171920654296875,0.5283807541392743,-0.5594166745245457,3.2468139300256964,-0.1738542467355728,0.7479651570320129,0.7443337440490723
1783201295180857600,6.181857666015625,0.7051239530980586,-0.5701430895917117,2.8819781628370285,-0.2152783870697021,0.8452698588371277,0.7666611671447754
1783201295190794500,6.19179443359375,1.06271537518166,-0.3749991415455937,2.366100770309567,-0.2682231664657593,0.9112635254859924,0.8186371922492981
1783201295200731400,6.2017314453125,1.5497107374221086,-0.0905957783348858,1.5887076998144387,-0.3259935081005096,0.9232895970344543,0.9317216873168944
1783201295210668500,6.21166845703125,1.919494628537446,0.1332839964605867,0.5864005430400371,-0.3995007574558258,0.8626722693443298,1.0773823261260986
1783201295220605700,6.221605712890625,1.9022338432654735,0.2165675520859658,-0.5327081158190965,-0.4722601771354675,0.7565815448760986,1.2078971862792969
1783201295230542600,6.23154248046875,1.4999797611780463,0.2536614573359489,-1.5979887383788822,-0.5271129012107849,0.6290445923805237,1.2903770208358765
1783201295240479500,6.2414794921875,0.9496719835214316,0.2845114266950637,-2.538394442513585,-0.5523152351379395,0.5312471985816956,1.3316890001296997
1783201295250416600,6.251416748046875,0.4946003573514521,0.3374574194628745,-3.338618353497982,-0.5338920950889587,0.4403062462806701,1.3161804676055908
1783201295260353500,6.261353515625,0.1779312396995723,0.426443278383091,-4.10540059812963,-0.4889440238475799,0.3301752209663391,1.2600151300430298
1783201295270291500,6.27129150390625,0.105130024719797,0.5210526762735098,-4.777331891199946,-0.4375437200069427,0.1969553977251052,1.2108893394470217
1783201295280228600,6.281228515625,0.2256726495616138,0.5299997336432337,-5.250556136915088,-0.384818971157074,0.0067215478047728,1.1691298484802246
1783201295290165800,6.291165771484375,0.3897747954709455,0.4426188987668603,-5.6561716582596295,-0.3039829432964325,-0.2258780598640442,1.1434415578842163
1783201295300102400,6.301102294921875,0.5237186806123704,0.3345085795946419,-5.876563883200287,-0.1727668344974517,-0.4388281106948852,1.1302440166473389
1783201295310039600,6.31103955078125,0.660246554365009,0.2084302036639302,-5.762587375408411,0.0213957503437995,-0.5923989415168762,1.1255961656570437
1783201295319976400,6.3209765625,0.7584498120289296,0.1243080052573233,-5.374613893738388,0.2598639726638794,-0.6916840076446533,1.112305998802185
1783201295329913600,6.33091357421875,0.8418935997173189,0.0882039147622883,-4.757039044755697,0.5252305865287781,-0.7308083176612854,1.0944077968597412
1783201295339850800,6.340850830078125,0.952178486449644,0.0592971884254366,-3.970633815765381,0.7729812860488892,-0.7360922694206238,1.0846660137176514
1783201295349787400,6.350787353515625,1.0880209352213888,0.0684477324780076,-3.059508566650748,0.9663105010986328,-0.7192527651786804,1.0912737846374512
1783201295359724500,6.360724609375,1.1803140189934522,0.0949650063950568,-2.0875708291769026,1.1009671688079834,-0.6859754920005798,1.1112115383148191
1783201295369661700,6.37066162109375,1.2796069715902207,0.1396486361216753,-1.1510042648136616,1.161855936050415,-0.6471489071846008,1.136601448059082
1783201295379598600,6.3805986328125,1.3766257687099277,0.2172542191758751,-0.2378799508363008,1.1363074779510498,-0.6079877018928528,1.1636502742767334
1783201295389535700,6.39053564453125,1.4593553437143565,0.2561294548846781,0.5410480741411448,1.058199167251587,-0.5948825478553772,1.19366717338562
1783201295399472400,6.400472412109375,1.4940112081624566,0.2208703638464212,1.1553028387904167,0.9439553618431092,-0.5943970680236816,1.237495183944702
1783201295409409500,6.410409423828125,1.4966756050661203,0.1394568398766219,1.653935666528344,0.8295919299125671,-0.5702664852142334,1.3008524179458618
1783201295419346700,6.4203466796875,1.4790274279117583,0.1023413073167204,2.100091872575879,0.7421140074729919,-0.5229783058166504,1.3636870384216309
1783201295429283600,6.43028369140625,1.354849113448709,0.1237694414012134,2.4270734176665543,0.7023662328720093,-0.4285079836845398,1.4076529741287231
1783201295439220700,6.440220703125,1.2330495108157395,0.2085762610711157,2.700104761382937,0.7045425772666931,-0.2957866787910461,1.4346661567687988
1783201295449157400,6.450157470703125,1.0946642456933855,0.3123984545953571,2.972208468860388,0.7540961503982544,-0.1209893673658371,1.447322964668274
1783201295459094500,6.460094482421875,0.9794441675812006,0.3962036960072815,3.2318641981750726,0.8161525726318359,0.0836037248373031,1.4513925313949585
1783201295469031700,6.47003173828125,0.8259928507521748,0.4573974387690425,3.5266578763663765,0.8577147126197815,0.3066011071205139,1.4427897930145264
1783201295478968600,6.479968505859375,0.6484948879033327,0.478416845922172,3.8041619815826415,0.8749565482139587,0.5003303289413452,1.4357246160507202
1783201295488905700,6.48990576171875,0.5109999957494438,0.4628565809577703,4.011419999662041,0.8456416130065918,0.6371638178825378,1.438217043876648
1783201295498842400,6.49984228515625,0.356120107422024,0.4265137863360345,4.114875697961449,0.7460409998893738,0.7037846446037292,1.4629212617874146
1783201295508779500,6.509779541015625,0.2997290887668729,0.4617731696352362,4.312326607775688,0.5735608339309692,0.7104069590568542,1.4817874431610107
1783201295518716700,6.519716552734375,0.298171630191803,0.551344134967029,4.570257997515798,0.3455169796943664,0.6945680975914001,1.4898474216461182
1783201295528653600,6.529653564453125,0.3490191893756389,0.651754181960225,4.803749942526221,0.0892612934112548,0.6679421663284302,1.482912302017212
1783201295538590700,6.5395908203125,0.4374722565934061,0.6870553585745394,4.917451725029945,-0.15755595266819,0.6333362460136414,1.4810075759887695
1783201295548527400,6.54952734375,0.5651720231808721,0.6842381091967225,4.840968789330125,-0.3572501540184021,0.6637013554573059,1.5003498792648315
1783201295558464500,6.559464599609375,0.7253370123043656,0.677711630037427,4.652755663460493,-0.5160225033760071,0.7690509557723999,1.5513262748718262
1783201295568401700,6.569401611328125,0.9175674109913408,0.7739926144018768,4.330463737490773,-0.6621391177177429,0.9168005585670472,1.6302353143692017
1783201295578338600,6.579338623046875,1.056100706282258,1.016476551902294,3.848973183211684,-0.8020290732383728,1.0319156646728516,1.7198984622955322
1783201295588275700,6.589275634765625,0.998742450030148,1.1880081536926328,3.1751959700137373,-0.9163987636566162,1.0907235145568848,1.7926112413406372
1783201295598212600,6.599212646484375,0.8277335569396614,1.2799549082450568,2.4082196641147133,-1.0024348497390747,1.1027311086654663,1.8372389078140257
1783201295608149500,6.6091494140625,0.6318353564601391,1.431269066914916,1.6058108103066682,-1.0437577962875366,1.0715007781982422,1.877184629440308
1783201295618086700,6.619086669921875,0.4081635253269225,1.5703737323530018,0.8532704415172337,-1.0422813892364502,1.0284489393234253,1.905605912208557
1783201295628024600,6.629024658203125,0.1636120608374476,1.7120485405400394,0.1701397090405225,-1.0154846906661987,0.9676491022109984,1.907886743545532
1783201295637961700,6.638961669921875,-0.0029003976166248,1.9666272588513791,-0.4386597128123045,-0.975864052772522,0.8549001812934875,1.8910295963287356
1783201295647898600,6.648898681640625,-0.095974987155199,2.2416022839814422,-0.922948373377323,-0.9358339905738832,0.7237458229064941,1.8695297241210935
1783201295657835500,6.65883544921875,-0.2025556856073439,2.4809289264947174,-1.2090192314088344,-0.9108940362930298,0.5929710268974304,1.8582863807678225
1783201295667772400,6.6687724609375,-0.337267669044435,2.6830495816856623,-1.3609236110568046,-0.9156448245048524,0.5040753483772278,1.869035124778748
1783201295677709600,6.67870947265625,-0.5329463084891438,2.7675229316174983,-1.3656892180234192,-0.940552055835724,0.5209744572639465,1.8984249830245967
1783201295687646700,6.688646728515625,-0.9788808346100152,2.791805724480748,-1.3941782304048538,-0.9926313757896424,0.6337815523147583,1.893493413925171
1783201295697583600,6.69858349609375,-1.571325480119884,2.8544758234053846,-1.602918011474609,-1.058209776878357,0.7419106960296631,1.810095191001892
1783201295707520500,6.7085205078125,-2.067438726252317,3.0556635816603896,-2.1075848586797714,-1.107329487800598,0.7859306335449219,1.660297393798828
1783201295717457400,6.71845751953125,-2.3349659195944668,3.3141508517175917,-2.7877012117713686,-1.115694522857666,0.7519451975822449,1.4817243814468384
1783201295727394600,6.72839453125,-2.408335691709816,3.459186806900799,-3.47952378474772,-1.0954313278198242,0.6330117583274841,1.303359866142273
1783201295737331700,6.738331787109375,-2.295574112665653,3.3462475332021717,-4.1240947772055865,-1.0337849855422974,0.4615870118141174,1.1655117273330688
1783201295747268600,6.7482685546875,-2.218645771285892,3.008533289434016,-4.703277643951774,-0.9439670443534852,0.2706169486045837,1.0685834884643557
1783201295757205500,6.75820556640625,-2.2404862855635583,2.6375498132705686,-5.007957925385236,-0.8151438236236572,0.1021280512213707,0.9656680226325988
1783201295767142700,6.768142578125,-2.2441908391699195,2.4368980615884066,-5.145293096932768,-0.5952965617179871,-0.0122843366116285,0.8307764530181885
1783201295777079600,6.77807958984375,-2.2105273467600344,2.4205738265141843,-5.161760832130908,-0.2939033806324005,-0.0328516624867916,0.6824035048484802
1783201295787016700,6.7880166015625,-2.03332734394446,2.591178230457008,-4.943676884132623,0.0350402891635894,0.0508774667978286,0.5365464091300964
1783201295796953600,6.79795361328125,-1.8825426159761844,2.803113300436735,-4.556790028655529,0.3608053624629974,0.1905027329921722,0.3852117657661438
1783201295806890500,6.807890380859375,-1.7339422463096676,2.9184242717027664,-4.266774816912412,0.666971743106842,0.3276069164276123,0.2370356172323227
1783201295816827600,6.81782763671875,-1.6121844369918108,2.993326367951929,-4.138973197385669,0.9576432704925536,0.3895754814147949,0.0957325547933578
1783201295826764500,6.8277646484375,-1.6153127981454134,2.9079002473399043,-4.043572795248031,1.2230180501937866,0.3589221835136413,-0.0426389910280704
1783201295836701700,6.83770166015625,-1.6662962586686014,2.683318169493973,-3.9018519559621807,1.435478687286377,0.2190465629100799,-0.1690461933612823
1783201295846638600,6.847638671875,-1.6459456906877457,2.525570032253861,-3.593500292539596,1.5477217435836792,-0.0280538126826286,-0.2960775196552276
1783201295856575500,6.857575439453125,-1.4898013353824615,2.4695260734707114,-2.954387565487623,1.5374810695648191,-0.3316227495670318,-0.4092003405094147
1783201295866512600,6.8675126953125,-1.3737123654812573,2.4165740893535315,-1.9826666856348516,1.4206249713897705,-0.647007942199707,-0.5194352269172668
1783201295876449500,6.877449462890625,-1.2743236243598162,2.335353165346384,-0.96487963565588,1.2426326274871826,-0.9287051558494568,-0.6250303387641907
1783201295886386700,6.88738671875,-1.1371872633200135,2.300691894070804,0.0281266088098287,1.039482593536377,-1.1379286050796509,-0.7202510833740234
1783201295896323600,6.897323486328125,-0.9797866974085568,2.2743910393834117,1.000942882683873,0.8276761174201965,-1.2668136358261108,-0.7892959117889404
1783201295906260500,6.907260498046875,-0.8542725312318652,2.222580918777734,1.8853432064801452,0.6478157639503479,-1.2880522012710571,-0.8508703112602234
1783201295916197600,6.91719775390625,-0.7610131597109139,2.1502239769667386,2.592751471123099,0.5390748977661133,-1.2092231512069702,-0.9023202061653136
1783201295926134500,6.927134521484375,-0.7088526912976056,2.166011328685284,3.124433751025796,0.495057463645935,-1.0222787857055664,-0.9513986110687256
1783201295936071700,6.93707177734375,-0.6751303083073348,2.377237081351876,3.511977609106898,0.4867076575756073,-0.7505375146865845,-1.000523328781128
1783201295946008600,6.947008544921875,-0.6831342396080493,2.736021293416619,3.7838609518319366,0.4838743209838867,-0.4378829002380371,-1.069139838218689
1783201295955945500,6.956945556640625,-0.8388913491614163,2.985495235934853,3.9689457165479656,0.4500255584716797,-0.1118880286812782,-1.1723071336746216
1783201295965882600,6.966882568359375,-1.2058401629813014,3.015484716007113,3.949520300588012,0.3697537183761596,0.1641758680343628,-1.3379179239273071
1783201295975819500,6.976819580078125,-1.6078304795660077,2.8873300452589987,3.6349586766093966,0.2548692226409912,0.3400366604328155,-1.5319608449935913
1783201295985756700,6.986756591796875,-1.790877454844117,2.815810577185452,3.1573364881962536,0.1221572011709213,0.4187612235546112,-1.7188152074813845
1783201295995693600,6.996693603515625,-1.7834388292759655,2.787053561517596,2.6738912927180527,-0.0420144200325012,0.4078939259052276,-1.8880283832550049
1783201296005630500,7.00663037109375,-1.63789974687621,2.6746435723900794,2.2357769388288258,-0.2386415600776672,0.3257561922073364,-2.0403075218200684
1783201296015567600,7.016567626953125,-1.3216320496320724,2.384642243041843,1.7992396249979734,-0.4563390016555786,0.1802618503570556,-2.156910181045532
1783201296025504500,7.02650439453125,-0.9734326522067188,1.9099227903328837,1.2904782019555567,-0.6629458069801331,0.0230944827198982,-2.241674423217773
1783201296035441700,7.036441650390625,-0.5650945374978706,1.418972041530162,0.7233230421334504,-0.8177617192268372,-0.0845462307333946,-2.275477647781372
1783201296045378600,7.046378662109375,0.0647999140275642,1.0405967015497386,0.0859159499555826,-0.8877443671226501,-0.1778006255626678,-2.2482802867889404
1783201296055316700,7.056316650390625,0.761408296508342,0.8263284393820911,-0.5605944861322641,-0.881402850151062,-0.2202420979738235,-2.1726291179656982
1783201296065253600,7.066253662109375,1.3734218581020832,0.6298997852876782,-0.9285112682014705,-0.8299921751022339,-0.1737275570631027,-2.077643632888794
1783201296075190500,7.0761904296875,1.8319059230640529,0.3911155790880322,-1.097150509551167,-0.779920756816864,-0.0883359685540199,-1.9785258769989011
1783201296085127700,7.086127685546875,2.014334912574291,-0.037203064712882,-1.4040414527714251,-0.7217317223548889,0.0101237166672945,-1.8731374740600584
1783201296095064600,7.096064697265625,2.079441444865614,-0.5486804687157273,-1.8530688303411005,-0.6512213349342346,0.0897058993577957,-1.7461590766906738
1783201296105001700,7.106001708984375,2.1645526543095706,-0.9478628882728516,-2.454029229131341,-0.5736141800880432,0.0932090580463409,-1.5845905542373655
1783201296114938600,7.115938720703125,2.31470039954856,-1.1946280102238058,-3.079960403048992,-0.4713240563869476,0.0403077602386474,-1.3999842405319214
1783201296124874500,7.12587451171875,2.4668989398375154,-1.2038992580465973,-3.5244495526671407,-0.3494125604629516,-0.0587107390165329,-1.201684594154358
1783201296134811600,7.135811767578125,2.490692487879097,-0.9856761938385664,-3.758866795828938,-0.2282241135835647,-0.1777194142341613,-1.04621160030365
1783201296144748800,7.145748779296875,2.2674194468051194,-0.6980436394482851,-3.710871703466773,-0.123756930232048,-0.3008237779140472,-0.9743767976760864
1783201296154685700,7.155685791015625,1.889826927765459,-0.4703066047027707,-3.54097515553236,-0.0219365656375885,-0.4074277281761169,-0.9581307172775269
1783201296164622600,7.16562255859375,1.5897500484742224,-0.3228606657683849,-3.286423471358418,0.061522252857685,-0.4611965119838714,-0.956075131893158
1783201296174559500,7.1755595703125,1.403670865893364,-0.102001846229285,-2.9621242972195145,0.1490574181079864,-0.4926329851150512,-0.9488680958747864
1783201296184496600,7.18549658203125,1.230019933861494,0.0597997311200946,-2.7521903379291293,0.2764666974544525,-0.5359600186347961,-0.9476711750030518
1783201296194433800,7.195433837890625,0.9777397017508744,0.1098022908471524,-2.4876854150176047,0.4527477324008941,-0.5673144459724426,-0.9584111571311952
1783201296204370700,7.20537060546875,0.7078911527890711,0.215323762569949,-2.131666576012969,0.6671096086502075,-0.5618523359298706,-0.9721384048461914
1783201296214307600,7.2153076171875,0.5009179430004209,0.4250374301731586,-1.6218506754815578,0.8936007618904114,-0.5196430683135986,-0.9875847697257996
1783201296224244500,7.225244384765625,0.2958512244202196,0.6281533069465309,-1.0110685553789138,1.125489592552185,-0.4468488097190857,-1.0199095010757446
1783201296234181600,7.235181640625,0.0349131271447986,0.7947421185724437,-0.3875806829601526,1.337642788887024,-0.3789334297180176,-1.0687758922576904
1783201296244118800,7.245118896484375,-0.2088923412829637,0.9699114923432468,0.2163467489421367,1.5079292058944702,-0.3327007293701172,-1.1241825819015503
1783201296254055700,7.2550556640625,-0.4090440344884991,1.2283794731780886,0.8869453321039676,1.5989989042282104,-0.2844218909740448,-1.180262327194214
1783201296263992600,7.26499267578125,-0.5517483318537474,1.543887145835161,1.6233879680514334,1.5756314992904663,-0.2208092361688614,-1.2425479888916016
1783201296273929500,7.274929443359375,-0.577622193300724,1.9081705398380755,2.377436987838149,1.4115192890167236,-0.1673867553472519,-1.3096399307250977
1783201296283866600,7.28486669921875,-0.6088238256417214,2.211240463465452,2.984406856176257,1.1268998384475708,-0.1376724243164062,-1.3862531185150146
1783201296293803800,7.2948037109375,-0.7635550992786884,2.2241288788720963,3.3314521151304244,0.7901191711425781,-0.120050273835659,-1.471405029296875
1783201296303740700,7.30474072265625,-0.9067025373015551,2.014616213733703,3.327864904293418,0.4858539700508117,-0.1084505468606948,-1.551397681236267
1783201296313677600,7.314677490234375,-0.9048987758152186,1.7742019221141934,3.0287463486403223,0.2761694490909576,-0.090808168053627,-1.610545992851257
1783201296323614700,7.32461474609375,-0.7523494493272155,1.6444263721659778,2.5866186674565075,0.1620039939880371,-0.0954707339406013,-1.6420642137527466
1783201296333551600,7.334551513671875,-0.513101351942867,1.6591440488263964,2.1656442489385603,0.1210581511259079,-0.1072826460003852,-1.6606701612472534
1783201296343488800,7.34448876953125,-0.3330604996781796,1.6431436388790606,1.943013305160403,0.1320061832666397,-0.1040588393807411,-1.68073570728302
1783201296353425700,7.35442578125,-0.23651070830971,1.5011695554845037,1.8414865290969609,0.1685841679573059,-0.0713325887918472,-1.709491729736328
1783201296363362600,7.364362548828125,-0.1660479827474802,1.3362573718339203,1.8093050919383764,0.2186161279678344,-0.0023723151534795,-1.74609375
1783201296373299700,7.3742998046875,-0.0896445420246571,1.1932935467496513,1.749291645002365,0.2755776941776275,0.0614135898649692,-1.7874538898468018
1783201296383236600,7.384236572265625,0.0059505789674818,1.0652081418454646,1.6702070023715494,0.3256434202194214,0.1189386472105979,-1.8243932723999023
1783201296393173800,7.394173828125,0.1605061307113617,0.9943301865458488,1.65830730574131,0.3237094581127167,0.1727121323347091,-1.8362072706222532
1783201296403110700,7.404110595703125,0.4007253381501883,0.9815268190741538,1.687940227460861,0.233021080493927,0.2193880975246429,-1.8193260431289675
1783201296413046500,7.414046630859375,0.6865202287845313,1.0088425498925149,1.6638713696092369,0.0593491569161415,0.2198589444160461,-1.8005810976028442
1783201296422983700,7.423983642578125,0.9151754012882708,0.9948062796249983,1.3852584263682364,-0.141277477145195,0.1756311655044555,-1.7799493074417114
1783201296432920600,7.433920654296875,1.0593271209828554,0.8417512686371803,0.941850642246008,-0.3327963054180145,0.1042280867695808,-1.7232942581176758
1783201296442857700,7.443857666015625,1.1255080045074224,0.6244480957530438,0.3507803538292646,-0.462900698184967,0.0166152566671371,-1.6450986862182615
1783201296452794600,7.453794677734375,1.1894148786853995,0.4622070310078561,-0.2546919694274663,-0.5266061425209045,-0.0564658790826797,-1.5498783588409424
1783201296462731500,7.4637314453125,1.2961011564038694,0.5124005101971328,-0.7250029580444097,-0.5413914322853088,-0.0947479233145713,-1.440729022026062
1783201296472668700,7.473668701171875,1.4101776174388825,0.7776587356939911,-1.0412848299443722,-0.5327268242835999,-0.0836044624447822,-1.3317219018936155
1783201296482605600,7.48360546875,1.4395163785174487,1.124109535886347,-1.2593816374242306,-0.5536421537399292,-0.047585692256689,-1.2712687253952026
1783201296492542700,7.493542724609375,1.373985337203741,1.433522106538713,-1.5264081877678632,-0.6016690135002136,-0.0184541717171669,-1.241138219833374
1783201296502479600,7.503479736328125,1.240151890166849,1.560405003785342,-2.1369261039763687,-0.6171454787254333,-0.0344659239053726,-1.217128872871399
1783201296512416500,7.51341650390625,1.0530476023219526,1.562762818957865,-2.8867203889280555,-0.602371096611023,-0.1235558539628982,-1.2044899463653564
1783201296522353700,7.523353759765625,0.7090793396603315,1.4256829373456537,-3.559378242707252,-0.5496862530708313,-0.290594071149826,-1.2118035554885864
1783201296532290800,7.533290771484375,0.3625112697638571,1.1604669435553252,-4.066089162960648,-0.4699192643165588,-0.5317214131355286,-1.2173336744308472
1783201296542227700,7.543227783203125,0.0646889827326871,0.9567718786545096,-4.305013069891929,-0.3629831075668335,-0.7835942506790161,-1.210684895515442
1783201296552164600,7.55316455078125,-0.0831734463144093,0.9486720126986504,-4.070145744875073,-0.2628501057624817,-0.9991832375526428,-1.199539303779602
1783201296562101500,7.5631015625,-0.1598700978301465,1.0866890290305018,-3.5366263126730915,-0.1481721699237823,-1.1783486604690552,-1.2178020477294922
1783201296572038700,7.57303857421875,-0.1950832673674449,1.2824078543551265,-2.784171868601441,-0.0437048859894275,-1.259138822555542,-1.2903079986572266
1783201296581974800,7.582974853515625,-0.0879977611983195,1.4843644050255418,-1.7944927227318286,0.0448177903890609,-1.2160507440567017,-1.3877620697021484
1783201296591911700,7.59291162109375,0.1450274065505713,1.5872846812739967,-0.7553098335027695,0.1309414952993393,-1.0859739780426023,-1.4983689785003662
1783201296601848600,7.6028486328125,0.2724593159820884,1.555469885470718,0.0053664954692125,0.2380649447441101,-0.9271863698959352,-1.6120344400405884
1783201296611785700,7.61278564453125,0.2053219354502856,1.2026382982000707,0.5415151071310043,0.367740124464035,-0.729405403137207,-1.71503484249115
1783201296621722600,7.62272265625,0.1002647933036088,0.8515414257675409,0.9863555544048548,0.4792281687259674,-0.5125109553337097,-1.7817137241363523
1783201296631659800,7.63265966796875,0.1501351780183613,0.6872437207534909,1.4504828859508037,0.5147541761398315,-0.28886479139328,-1.8227213621139529
1783201296641596700,7.6425966796875,0.3540409630604088,0.7243260816961526,1.88630474498868,0.4692427217960357,-0.1862671971321106,-1.856839895248413
1783201296651533600,7.652533447265625,0.5372568651646376,0.5916444350428879,1.9029712176293132,0.4157848358154297,-0.2359780371189117,-1.886011838912964
1783201296661470700,7.662470703125,0.7637011566858738,0.2713957053385675,1.7257675615519283,0.3818025887012481,-0.3529664278030395,-1.8880324363708496
1783201296671407600,7.67240771484375,0.9631737815860658,0.0708893534764647,1.8381641066759824,0.3448179364204407,-0.4594068527221679,-1.8730316162109373
1783201296681344800,7.6823447265625,1.114300454859808,0.0179395613163709,2.286211825558543,0.2780410647392273,-0.5096875429153442,-1.8749572038650515
1783201296691281700,7.69228173828125,1.2760036864012478,0.036675241446495,2.8775743749201297,0.1694421470165252,-0.4527443647384643,-1.91536557674408
1783201296701218600,7.702218505859375,1.545859468821436,0.1366954123392701,3.477607137471437,0.0007504876703023,-0.2994637191295624,-1.9657946825027464
1783201296711154700,7.71215478515625,1.8224224937953053,0.1442354524552822,3.7293537010967728,-0.1769990026950836,-0.1518779844045639,-1.9950348138809204
1783201296721091800,7.722091796875,1.9967399269118904,-0.111227939736098,3.540542609333992,-0.3231605887413025,-0.0311942920088768,-1.993036866188049
1783201296731028500,7.732028564453125,2.087049435651302,-0.5200464949056506,3.150541421228647,-0.4073910415172577,0.0972960442304611,-1.94679856300354
1783201296740965600,7.741965576171875,2.247391388776898,-0.854133488087356,2.654679227247834,-0.4216514229774475,0.2308372110128402,-1.8346930742263796
1783201296750902500,7.751902587890625,2.477587214851379,-0.98544106990844,2.130382965943217,-0.3818584680557251,0.360249251127243,-1.6756722927093506
1783201296760839700,7.761839599609375,2.6478824067145585,-0.9752832485094666,1.6987345931977034,-0.3557958006858825,0.4780133962631225,-1.5296990871429443
1783201296770776800,7.77177685546875,2.717147666120529,-0.8550305830575525,1.3383575589835643,-0.3756555318832397,0.5767908692359924,-1.420347809791565
1783201296780713500,7.78171337890625,2.689690919396281,-0.6841451702162623,0.8365916939169168,-0.4236425161361694,0.6207953095436096,-1.2866015434265137
1783201296790650600,7.791650634765625,2.570731654755771,-0.5759880162276327,0.0746755940169096,-0.4699988067150116,0.5737103819847107,-1.1308987140655518
1783201296800587800,7.801587890625,2.1840236629769203,-0.5322865294061601,-0.7307061381220817,-0.5035908818244934,0.4589504599571228,-1.000527262687683
1783201296810524700,7.811524658203125,1.6019009433865543,-0.4765045825600624,-1.364863873115182,-0.508847177028656,0.3167262077331543,-0.9131709933280944
1783201296820461800,7.8214619140625,1.1073445713073014,-0.2884258967250585,-1.770868101516366,-0.4942396879196167,0.2295068353414535,-0.8302679657936096
1783201296830397700,7.831397705078125,0.8889926200225948,0.0699525110177695,-1.799484539669752,-0.505126416683197,0.2886044979095459,-0.7550027966499329
1783201296840334600,7.84133447265625,0.7171572860453277,0.4798604688592255,-1.8032979604780672,-0.5269976854324341,0.3353322744369507,-0.723528265953064
1783201296850271700,7.851271728515625,0.3792630826003849,0.673702540526539,-2.2816811963915824,-0.5038124918937683,0.3201197683811188,-0.730786919593811
1783201296860208600,7.861208740234375,0.0824189746852964,0.6952212755039334,-2.9419477706313133,-0.4175179600715637,0.2607442438602447,-0.7448222637176514
1783201296870145500,7.8711455078125,-0.1774289892658591,0.6907192879095673,-3.4728578971177337,-0.2645963430404663,0.1487870514392852,-0.7541556358337402
1783201296880082700,7.881082763671875,-0.4606084367047995,0.6299336875572801,-3.683426647180319,-0.0730150938034057,0.0157622843980789,-0.7881303429603577
1783201296890019600,7.89101953125,-0.7724453849598765,0.6024196576878428,-3.547767884412408,0.1543235182762146,-0.0973925068974495,-0.8656089305877686
1783201296899956700,7.900956787109375,-1.0230583414454013,0.7297995446711778,-3.1227503279834985,0.4043314754962921,-0.1569719612598419,-0.9591598510742188
1783201296909893600,7.9108935546875,-1.132499982286617,0.9269935571148992,-2.4885171896666285,0.6741322875022888,-0.1498053967952728,-1.050489902496338
1783201296919830500,7.92083056640625,-1.0915104578375816,1.0472772022269663,-1.6196984658837317,0.9081671833992004,-0.056851252913475,-1.1646404266357422
