time,seconds_elapsed,ax,ay,az,gx,gy,gz
1783201485420683800,0.094683837890625,0.5707905937150121,-0.1971557262599468,-0.2240413950979709,0.4461535215377807,0.1873203068971634,0.4924328327178955
1783201485430620000,0.104619873046875,0.4965498839840292,-0.1457014333546161,0.1609609618067741,0.4249454140663147,0.2214817404747009,0.4905526340007782
1783201485440556800,0.114556884765625,0.377863298805058,-0.1293482644468545,0.5742512555629015,0.378385454416275,0.3063086867332458,0.4643893837928772
1783201485450493700,0.12449365234375,0.2252858239348046,-0.1281008947342634,0.8791220911324024,0.3263656497001648,0.4193745255470276,0.4273000955581665
1783201485460430800,0.134430908203125,0.1808478577986359,-0.1429962660491466,1.033011507117748,0.2741528749465942,0.5242424011230469,0.4096482098102569
1783201485470368000,0.144367919921875,0.2380956394135951,-0.1969663411676883,1.0222183104246854,0.2375559657812118,0.5926600694656372,0.4184518158435821
1783201485480303900,0.154303955078125,0.3709878235450014,-0.2333276943594217,0.9020756812185048,0.2046897411346435,0.6071884632110596,0.4496441781520843
1783201485490240800,0.16424072265625,0.5209103817259892,-0.1910544867753982,0.8239975852817296,0.1549248397350311,0.591468095779419,0.488258421421051
1783201485500178000,0.174177978515625,0.5952373084357008,-0.1265296998947858,0.8398813831120729,0.0943624824285507,0.5612635016441345,0.5347499251365662
1783201485510114800,0.18411474609375,0.6083771047875285,-0.032799861317873,0.9411842872917652,0.0208499189466238,0.5269918441772461,0.577130138874054
1783201485520052000,0.194052001953125,0.578541646233201,0.1275578738987445,1.1255354770362376,-0.0705574750900268,0.4873278439044952,0.6036615967750549
1783201485529988900,0.20398876953125,0.5011731598705053,0.3225426858603954,1.4045739522129297,-0.1829660385847091,0.4561344981193542,0.6180580854415894
1783201485539924700,0.2139248046875,0.4297305564254522,0.5493348409712314,1.7588439017236233,-0.3137598037719726,0.4465889036655426,0.6065237522125244
1783201485549862000,0.22386181640625,0.2550996369129046,0.7198895605534315,2.1944167544364928,-0.4566362500190735,0.4671722054481506,0.5777981281280518
1783201485559799000,0.233799072265625,0.0302521861290559,0.8167705566376448,2.4047902741879223,-0.5779781937599182,0.551918089389801,0.5507410764694214
1783201485569735700,0.243735595703125,-0.271112066091597,0.7234335167706012,2.3439129038989543,-0.6634950041770935,0.6682910323143005,0.5110469460487366
1783201485579672800,0.2536728515625,-0.6444064495459199,0.5596954914659261,1.9562264224767685,-0.7046658396720886,0.8012515902519226,0.4586803615093231
1783201485589610000,0.26360986328125,-0.7315051795452833,0.4641232398927211,1.2895949893802403,-0.6903436183929443,0.8501232266426086,0.3959985971450805
1783201485599545900,0.2735458984375,-0.494026064594835,0.4778875613510608,0.528740381231904,-0.6302846074104309,0.8233028054237366,0.3380614519119262
1783201485609482800,0.283482666015625,-0.0848177794553339,0.4328852210640907,0.054568041011691,-0.5614208579063416,0.7807122468948364,0.3166600167751312
1783201485619420000,0.293419921875,0.4205849808089434,0.1334288117587566,-0.2295931840062141,-0.504714846611023,0.7279947996139526,0.366474986076355
1783201485629356800,0.303356689453125,0.8128850935064256,-0.1738560992151498,-0.4212304391056299,-0.4805216193199157,0.6753185391426086,0.4664487242698669
1783201485639294000,0.3132939453125,0.9469881512649356,-0.4212555735468864,-0.5604366652220487,-0.5009567141532898,0.6223021149635315,0.5822718739509583
1783201485649230800,0.32323095703125,0.8410513767395168,-0.5282458757132291,-0.7002952177673578,-0.5804752111434937,0.5714448094367981,0.6655697226524353
1783201485659166700,0.333166748046875,0.6105509416952729,-0.4653086502850055,-0.799834034883976,-0.6931019425392151,0.5274422764778137,0.7053329944610596
1783201485669103900,0.343103759765625,0.3944279185064137,-0.4281710520237684,-0.9930892465740442,-0.7959729433059692,0.4840759038925171,0.7303621768951416
1783201485679041000,0.353041015625,0.2394306874096393,-0.4357838651150464,-1.3441478328227996,-0.8686079382896423,0.4207402467727661,0.755032479763031
1783201485688978000,0.36297802734375,0.2445297641143202,-0.4000871133118868,-1.7126117273807524,-0.9014772176742554,0.3320090472698211,0.7756519913673401
1783201485698914800,0.372914794921875,0.2896506162144243,-0.4137824611872434,-2.0361510230630637,-0.8765680193901062,0.2454939633607864,0.7910778522491455
1783201485708851700,0.382851806640625,0.3529614241953939,-0.4593970881536602,-2.3069389717668294,-0.7915120124816895,0.1550152003765106,0.7929476499557495
1783201485718787800,0.392787841796875,0.3917095994584262,-0.3943637672290205,-2.509761053225398,-0.6378834843635559,0.0580593384802341,0.7745852470397949
1783201485728725000,0.40272509765625,0.4353602328754961,-0.3394587493479252,-2.6413433603346346,-0.4263373911380768,-0.0389966368675231,0.749087929725647
1783201485738662000,0.412661865234375,0.4598542573366314,-0.306067936399579,-2.6052894656568766,-0.1890792846679687,-0.0903640836477279,0.721784770488739
1783201485748598800,0.422598876953125,0.401164679415524,-0.2993988338991999,-2.32674432695508,0.0447824746370315,-0.0809149220585823,0.6954895257949829
1783201485758536000,0.432535888671875,0.3584787993773818,-0.2818108624994754,-1.8753882141768927,0.2431329041719436,-0.0193546842783689,0.667327344417572
1783201485768472800,0.442472900390625,0.3167487222267314,-0.206519474671781,-1.3463210852086542,0.4012924432754516,0.0669069662690162,0.6398853063583374
1783201485778408700,0.45240869140625,0.316334771130979,-0.1185264261811971,-0.8617816647529601,0.5115469098091125,0.1485134363174438,0.6174237728118896
1783201485788345900,0.462345947265625,0.3437976553350687,-0.0311880422070622,-0.4651917459070682,0.581676185131073,0.2055503576993942,0.602838933467865
1783201485798282800,0.47228271484375,0.3637185631943866,0.0239902396574616,-0.1068260515153408,0.6120085120201111,0.2652480900287628,0.5887255668640137
1783201485808220000,0.482219970703125,0.3586313230579718,0.0079953826680779,0.2461240475684404,0.6197835803031921,0.3208828568458557,0.5931764841079712
1783201485818157000,0.492156982421875,0.3816727740906179,0.0286801510393619,0.5142278717547655,0.6128929257392883,0.3529954552650451,0.6108147501945496
1783201485828093700,0.50209375,0.3587947334587574,0.1391752464562654,0.7141811197787523,0.5965722799301147,0.3750967681407928,0.6264535784721375
1783201485838030800,0.51203076171875,0.2906253064654767,0.3358347136318683,0.924746362709999,0.5853492617607117,0.4134802520275116,0.6304025053977966
1783201485847967000,0.521967041015625,0.221853529664874,0.5622615425616503,1.1872025363981724,0.5634964108467102,0.4638193249702453,0.6171612739562988
1783201485857903900,0.53190380859375,0.1412942844368517,0.6465221265256405,1.4424784431934357,0.5264296531677246,0.5027796626091003,0.5905104279518127
1783201485867840800,0.5418408203125,0.070495056929253,0.654589113125205,1.6261609398961063,0.4676427841186523,0.5265944600105286,0.563147246837616
1783201485877778000,0.55177783203125,0.0336358737505972,0.7173620879024267,1.7640595905452965,0.3895336091518402,0.5195354223251343,0.5434279441833496
1783201485887714800,0.56171484375,-0.0381295319080352,0.7238947045415639,1.9185253451138733,0.2933870851993561,0.507680356502533,0.5370312929153442
1783201485897652000,0.57165185546875,-0.1625334718205034,0.6381394981056452,2.050710878813266,0.1957228332757949,0.5291151404380798,0.5354815721511841
1783201485907588900,0.5815888671875,-0.3495055115878582,0.4940355630755424,2.033800076022744,0.1161204203963279,0.5642291903495789,0.5337094664573669
1783201485917524700,0.591524658203125,-0.4522711817964911,0.3995078521192073,1.8811153596520425,0.0631460174918174,0.6057016253471375,0.5093392729759216
1783201485927462000,0.6014619140625,-0.4845652855493128,0.3827946177273988,1.6834312256038189,0.0332813337445259,0.6400811672210693,0.4656184613704681
1783201485937398800,0.611398681640625,-0.3340571825653314,0.3471376134127378,1.4785551342248917,0.0244092233479022,0.6522766351699829,0.4311436414718628
1783201485947336000,0.6213359375,-0.0935739173628389,0.1951139912992715,1.273105042350292,0.0130750760436058,0.6479862928390503,0.4215131402015686
1783201485957272800,0.63127294921875,0.2298955279536545,-0.0085316815018653,1.149651096639037,-0.0090386644005775,0.6719016432762146,0.454479455947876
1783201485967209700,0.641209716796875,0.4952189276412129,-0.2095692176312208,1.0764081657737492,-0.0329272150993347,0.7354377508163452,0.5236015319824219
1783201485977147000,0.65114697265625,0.6609571868523955,-0.3625742519974708,0.8906605532348155,-0.0757258683443069,0.810738742351532,0.6133371591567993
1783201485987083000,0.6610830078125,0.7398243873402476,-0.3541390166074037,0.6231757377296686,-0.1431027799844741,0.8799406886100769,0.6836104989051819
1783201485997019600,0.67101953125,0.6832084738880395,-0.231489957538247,0.184133747601509,-0.2293979525566101,0.9032869935035706,0.7183477878570557
1783201486006956800,0.680956787109375,0.514934704849869,-0.0889642316102981,-0.4125532116532325,-0.3136020600795746,0.8704214692115784,0.7284627556800842
1783201486016894000,0.69089404296875,0.3304290551960468,-0.0124175830245018,-0.96553196208477,-0.3866851329803467,0.8124019503593445,0.7277832627296448
1783201486026830800,0.700830810546875,0.2264718371152877,0.0041705636829137,-1.379796653831005,-0.4307202100753784,0.7296777963638306,0.7205120325088501
1783201486036768000,0.71076806640625,0.1726604596897959,0.0042851299732923,-1.7489888626635073,-0.4427398145198822,0.6303910613059998,0.7059922218322754
1783201486046705000,0.720704833984375,0.1472987855486571,-0.0083504797160625,-2.045975082463026,-0.4219178855419159,0.5146474242210388,0.6923390030860901
1783201486056641800,0.730641845703125,0.1685313970610499,-0.0280716637521982,-2.3152309992939237,-0.3664690554141998,0.3825571238994598,0.6877408027648926
1783201486066578000,0.740577880859375,0.2153111222840845,-0.0443693030804395,-2.4738345843195915,-0.290725827217102,0.2599475681781769,0.6782228946685791
1783201486076515000,0.75051513671875,0.2919793514229357,-0.0454722958862781,-2.5232529874831435,-0.1910479068756103,0.145161285996437,0.6763660311698914
1783201486086451700,0.76045166015625,0.3489491928793489,-0.0517179122775793,-2.4715707310408352,-0.0905487313866615,0.0588706098496913,0.675879716873169
1783201486096388900,0.770388916015625,0.3361502093218266,-0.0416331561148166,-2.265350239315629,0.0020665992051362,0.0244985930621624,0.6803612112998962
1783201486106325800,0.78032568359375,0.2545291800811887,-0.0220715465545654,-1.9847908381819723,0.0888084173202514,0.017327232286334,0.6799244284629822
1783201486116263000,0.790262939453125,0.1659362660013139,-0.000755202281475,-1.7011135972887277,0.1666877269744873,0.0292177163064479,0.6819660663604736
1783201486126200000,0.800199951171875,0.0755628982454538,0.0600017564982175,-1.412492470252514,0.2235390245914459,0.0330089926719665,0.6738037467002869
1783201486136136000,0.810135986328125,0.063555649587512,0.1273866089850664,-1.1347411122769118,0.2535412609577179,0.0288834199309349,0.6527642011642456
1783201486146072800,0.82007275390625,0.1197021919623017,0.1701110674679279,-0.8419663726925849,0.2581117749214172,0.0260921604931354,0.6463534235954285
1783201486156010000,0.830010009765625,0.2003112676814198,0.1350695647031068,-0.6127507898271084,0.2610466480255127,0.0131613761186599,0.6491320133209229
1783201486165947000,0.83994677734375,0.2872472813997417,0.1168301436573266,-0.4655313531249761,0.2704761028289795,-0.0039563584141433,0.6584546566009521
1783201486175883800,0.8498837890625,0.3005591098502278,0.1188607727020978,-0.2927174564391374,0.2844277620315552,-0.0013466249220073,0.6653568744659424
1783201486185821000,0.859821044921875,0.2319777045225724,0.1281920801490545,-0.098791213619709,0.3059967160224914,0.0238985456526279,0.6614007353782654
1783201486195757800,0.8697578125,0.1805527838421985,0.1400964529544115,0.09231763369143,0.3265310823917389,0.0588037222623825,0.6578159332275391
1783201486205695000,0.879695068359375,0.1741942085957154,0.1659475180476904,0.2602805832147598,0.3472659289836883,0.0866606533527374,0.6464421153068542
1783201486215630800,0.889630859375,0.1440367150127887,0.1462614053249359,0.3916010245174169,0.3608443737030029,0.1107715591788292,0.6399899125099182
1783201486225567700,0.899567626953125,0.159463380192779,0.1834171237647533,0.5691109700649977,0.3523475527763366,0.1300176829099655,0.6357810497283936
1783201486235505000,0.9095048828125,0.2087523482903838,0.2285287696450948,0.7852350161671638,0.3154619038105011,0.1592970490455627,0.6345601081848145
1783201486245440800,0.919440673828125,0.2466723291009664,0.2266027700185775,0.959698433625698,0.2572521269321441,0.1933916360139846,0.6403828859329224
1783201486255377400,0.92937744140625,0.2431719197645783,0.2230073758751153,1.0669675527334213,0.1961477994918823,0.2233631163835525,0.6460158824920654
1783201486265314600,0.939314453125,0.2184561057789251,0.2382049450069665,1.0974205586642023,0.1416059881448745,0.2524594664573669,0.6500439047813416
1783201486275251700,0.949251708984375,0.1574295728102326,0.2849193499088287,1.0439753842025994,0.1079540103673935,0.2627424597740173,0.6545515060424805
1783201486285188600,0.959188720703125,0.038193208261393,0.3618979601711035,0.9740648126304148,0.0924869030714035,0.271955668926239,0.6485146880149841
1783201486295125800,0.969125732421875,-0.1022498296409845,0.4443552941054105,0.9548287817627192,0.069300428032875,0.2779485285282135,0.6349599957466125
1783201486305061600,0.9790615234375,-0.1806491203561425,0.5076444017112255,1.042018404915929,0.041811279952526,0.2815488576889038,0.6135228276252747
1783201486314998500,0.98899853515625,-0.2324411207832395,0.5520283178389072,1.1320376985371112,0.0156061416491866,0.2843738198280334,0.5935724973678589
1783201486324935700,0.998935791015625,-0.2166384253650903,0.5556307262450456,1.2383663219243288,-0.0080214226618409,0.2918658256530761,0.5809254050254822
1783201486334872800,1.008872802734375,-0.2215978013381362,0.588859042108059,1.341851246318221,-0.0268641300499439,0.306657612323761,0.5736217498779297
1783201486344809500,1.0188095703125,-0.2364734450392425,0.5778840591073036,1.4212357486784457,-0.041049987077713,0.3391465544700622,0.5652825832366943
1783201486354746600,1.02874658203125,-0.2892161703199148,0.5793319198280572,1.4246832587838172,-0.0369309335947036,0.3747999668121338,0.5419781804084778
1783201486364683500,1.03868359375,-0.3399143841609358,0.6503501603811979,1.373486155509949,-0.0154682546854019,0.4137569367885589,0.5106601715087891
1783201486374620700,1.04862060546875,-0.3016467589564621,0.6588175444751978,1.30626847628355,0.0287345834076404,0.4574085772037506,0.4820266962051391
1783201486384557800,1.058557861328125,-0.2629763981699943,0.6732330233186483,1.3109727084517475,0.0656758248805999,0.5030703544616699,0.4650993645191192
1783201486394493700,1.06849365234375,-0.224161697009392,0.6634773529797792,1.401063313743472,0.0880940556526184,0.5672733187675476,0.4494948983192444
1783201486404430600,1.0784306640625,-0.1154218842945992,0.67033905544281,1.5365215855032204,0.0648353397846221,0.6543722748756409,0.4507758915424347
1783201486414367700,1.08836767578125,-0.0002864157259464,0.6532242545127869,1.6464543708622454,0.0210029277950525,0.74232417345047,0.4497243463993072
1783201486424304600,1.0983046875,0.0164398242779076,0.5943383503019809,1.5797142460197209,-0.0491071827709674,0.8299379348754883,0.4511206448078155
1783201486434241500,1.108241455078125,-0.0100610830262303,0.5985130056381225,1.37141344088912,-0.1497282683849334,0.8928235769271851,0.4583263993263244
1783201486444178700,1.1181787109375,0.0309961728967726,0.5537210932314396,0.9707529116034508,-0.2780526876449585,0.9260611534118652,0.4677020311355591
1783201486454115600,1.128115478515625,0.1278590122697875,0.4950754275172948,0.5078986687332392,-0.438435435295105,0.9105770587921144,0.4838127195835113
1783201486464052700,1.138052734375,0.195451370027475,0.3457137180894613,-0.0140536597937345,-0.612743616104126,0.8291868567466736,0.4918882250785827
1783201486473989600,1.14798974609375,0.2429677754946053,0.1122854859650135,-0.5641705910533666,-0.7760571837425232,0.7101156115531921,0.5063652992248535
1783201486483925500,1.157925537109375,0.357235375187546,-0.1074719482034444,-1.076936573562026,-0.8864836096763611,0.5663408637046814,0.5311241745948792
1783201486493862700,1.167862548828125,0.4508825769823044,-0.3046218292444944,-1.618618269431591,-0.9261994957923888,0.4168764650821686,0.5684119462966919
1783201486503799600,1.177799560546875,0.508308272447437,-0.3981336411565542,-2.0555413677096364,-0.8913613557815552,0.3133362233638763,0.611748456954956
1783201486513736700,1.18773681640625,0.4840161272339522,-0.4494038096666335,-2.3297885169565675,-0.7942478060722351,0.2547615468502044,0.6328290700912476
1783201486523673600,1.197673583984375,0.3897629954352974,-0.47557636179924,-2.492398999536037,-0.669400155544281,0.2551359832286834,0.62210613489151
1783201486533610500,1.207610595703125,0.3517228953763842,-0.468767266306281,-2.5219553488880395,-0.5379047393798828,0.2910942435264587,0.5978291034698486
1783201486543547600,1.217547607421875,0.393983389609307,-0.5007435362815856,-2.5164181730270383,-0.4147063195705414,0.3308770656585693,0.588168740272522
1783201486553484800,1.22748486328125,0.4993253400467335,-0.5715466727793216,-2.5025743565917016,-0.3099967241287231,0.3583715558052063,0.5891696810722351
1783201486563421700,1.237421630859375,0.5782067151904106,-0.6178717861026525,-2.4779168851971627,-0.2343999445438385,0.3504539728164673,0.6067808866500854
1783201486573358600,1.247358642578125,0.6226547825954855,-0.6428846468061208,-2.434658173707128,-0.1848179847002029,0.2867785692214966,0.6294987797737122
1783201486583294700,1.257294677734375,0.6614364948019384,-0.6401555141031742,-2.40768541110754,-0.1613760441541671,0.1477767527103424,0.6499598622322083
1783201486593231600,1.267231689453125,0.6950638929851353,-0.6646943275541066,-2.340804416489601,-0.1561015397310257,-0.0295933205634355,0.6685900688171387
1783201486603168800,1.277168701171875,0.7654651706837117,-0.6672393358618021,-2.119468773218989,-0.1470987200736999,-0.2010460346937179,0.6851120591163635
1783201486613105400,1.28710546875,0.8280975679464637,-0.6629121203124523,-1.7057675605744125,-0.1276059448719024,-0.3208553493022918,0.710282564163208
1783201486623042600,1.29704248046875,0.8134145242080092,-0.6779191353082656,-1.1958330020993948,-0.0874121934175491,-0.3488238751888275,0.7332350015640259
1783201486632979700,1.306979736328125,0.7434662509739398,-0.6350187357366085,-0.7227759296447038,-0.0123375374823808,-0.3118806183338165,0.7479552030563354
1783201486642916600,1.31691650390625,0.6855819250211119,-0.4833990182489156,-0.3810410520583391,0.0894540771842002,-0.2526242136955261,0.7537491321563721
1783201486652853800,1.326853759765625,0.6493500434279441,-0.2516992173522711,-0.1026525652229785,0.1960796266794204,-0.1716471165418625,0.753750741481781
1783201486662790700,1.336790771484375,0.5733019920140504,-0.0461994411170482,0.1483393806427717,0.3030406832695007,-0.0892142876982688,0.751362144947052
1783201486672727600,1.3467275390625,0.4636313647225499,0.1010153194099664,0.3878513165950775,0.3939146995544433,-0.0013844240456819,0.7461124062538147
1783201486682663700,1.35666357421875,0.3448066862471401,0.2779717227280139,0.6932832931786775,0.4476695656776428,0.0838947892189025,0.7336458563804626
1783201486692600800,1.366600830078125,0.2079151668138802,0.4324117583334446,0.9877712664216756,0.4666379988193512,0.1580036133527755,0.7137864232063293
1783201486702537500,1.376537353515625,0.0636081104271113,0.5202724126160144,1.277102003031969,0.4369570910930633,0.2282378375530243,0.6953490972518921
1783201486712474600,1.386474609375,-0.0293856689602136,0.5838882679581642,1.4986042350411417,0.3636943995952606,0.2728614211082458,0.683824896812439
1783201486722411500,1.39641162109375,-0.0897189955003559,0.676833093637228,1.6180635581582783,0.2638522386550903,0.2728997468948364,0.6775720715522766
1783201486732348700,1.4063486328125,-0.0930709362767636,0.7629524572104215,1.685831272482872,0.1461161524057388,0.2563261389732361,0.6732228994369507
1783201486742285600,1.41628564453125,-0.0613818126797676,0.8149719827830791,1.8113100020200013,0.0210666358470916,0.250722587108612,0.6713868975639343
1783201486752222500,1.426222412109375,0.0209267604336142,0.7754068651139736,1.9489479559063911,-0.1036471426486969,0.2844526171684265,0.6847739815711975
1783201486762159600,1.43615966796875,0.107321726077795,0.6891594912469386,1.962290252560377,-0.2065820395946502,0.3407728672027588,0.7136937975883484
1783201486772096500,1.446096435546875,0.1102475503966212,0.6232499720096588,1.7717951532334089,-0.2708788216114044,0.4026755094528198,0.7528601288795471
1783201486782033700,1.45603369140625,0.0378039532154798,0.6209545545488595,1.430616155964136,-0.3057124316692352,0.4504217207431793,0.7800890803337097
1783201486791970600,1.465970458984375,-0.0398684845298528,0.6789695211440324,1.0218868865132331,-0.3088975846767425,0.4774304330348968,0.7941082715988159
1783201486801906700,1.47590673828125,-0.1598284506455063,0.729786100667715,0.6722305682778358,-0.3032314479351043,0.4983277320861816,0.7913452386856079
1783201486811843600,1.485843505859375,-0.2886728572234511,0.8134019569873809,0.406511593401432,-0.2818998098373413,0.5037770867347717,0.7695496678352356
1783201486821780700,1.49578076171875,-0.4020917311325669,0.8757090678185224,0.1696890426635742,-0.2532460689544678,0.5085809230804443,0.751142680644989
1783201486831717400,1.50571728515625,-0.5142397083230317,0.9387719654530288,-0.008688917890191,-0.2184177339076995,0.514076828956604,0.7168177962303162
1783201486841654500,1.515654541015625,-0.5841077559277414,1.0114555088698864,-0.1505009425908327,-0.1831316500902176,0.5262607932090759,0.6787015795707703
1783201486851591700,1.525591796875,-0.5950882918864489,1.078219599109888,-0.2048953806012868,-0.1534705609083175,0.5539840459823608,0.6518190503120422
1783201486861528600,1.535528564453125,-0.5971354336746036,1.1234025566607713,-0.1833025574743747,-0.133573293685913,0.6064831614494324,0.6307268142700195
1783201486871465700,1.5454658203125,-0.5897293952018022,1.1909522443205118,-0.1461994460046291,-0.1145194545388221,0.6621079444885254,0.6173326373100281
1783201486881402400,1.55540234375,-0.5781466555662453,1.2976128761410712,-0.1262871233105659,-0.0985767096281051,0.7064272165298462,0.6153984069824219
1783201486891339500,1.565339599609375,-0.6122888714037835,1.4155623792171477,-0.1226654256820678,-0.0905622392892837,0.7272911667823792,0.612606942653656
1783201486901276700,1.575276611328125,-0.7020669036149978,1.512033040934801,-0.0852092629909515,-0.1082165986299514,0.7202321887016296,0.6127738952636719
1783201486911213600,1.585213623046875,-0.8668554608859121,1.590930052039027,0.0111573538303375,-0.1527919024229049,0.678534984588623,0.5906250476837158
1783201486921149400,1.5951494140625,-1.097254700578004,1.6943962717324494,0.1361468385457992,-0.2271084785461425,0.6164937019348145,0.5340198278427124
1783201486931086600,1.605086669921875,-1.252304830905795,1.8233108209371565,0.2749661111712456,-0.3284449577331543,0.5244977474212646,0.4588225185871124
1783201486941023500,1.6150234375,-1.3205559448331594,1.808667378556728,0.4092337118417024,-0.4491234421730041,0.4208842813968658,0.3739987015724182
1783201486950960600,1.624960693359375,-1.3069813007280229,1.6627017413079737,0.5982850421011447,-0.5859338045120239,0.3574472963809967,0.2997253537178039
1783201486960897800,1.634897705078125,-1.2449326947025954,1.49927818877995,0.7913520377427339,-0.7127402424812317,0.3394363224506378,0.238944798707962
1783201486970834400,1.64483447265625,-1.1115580973491073,1.3515627852544188,0.9300976606100796,-0.8240312337875366,0.3646160960197449,0.18769471347332
1783201486980771600,1.654771484375,-0.8994814269416034,1.1484078185796738,0.9927373643964528,-0.9012395143508912,0.4185909330844879,0.1610444635152816
1783201486990708500,1.66470849609375,-0.6955300491921603,0.8448997957959771,0.9082587537676096,-0.9365851283073424,0.5077430605888367,0.1524788588285446
1783201487000645600,1.674645751953125,-0.5320739461014047,0.5223755223751068,0.6288987915515899,-0.920916736125946,0.5924667119979858,0.1671131998300552
1783201487010582800,1.684582763671875,-0.3770208566315471,0.2353019170418381,0.1496568929821252,-0.8627035617828369,0.6410292387008667,0.1804544329643249
1783201487020519400,1.69451953125,-0.2290493594530969,0.06678571754992,-0.3892664440900087,-0.758098304271698,0.6642320156097412,0.1936557292938232
1783201487030456600,1.70445654296875,-0.144537942533195,0.0273243525162339,-0.8415700668513775,-0.6299259066581726,0.6704747676849365,0.2033933401107788
1783201487040393500,1.7143935546875,-0.1617525505758822,0.0130514970138669,-1.09697807559371,-0.5021820068359375,0.7237014770507812,0.1947391331195831
1783201487050329600,1.72432958984375,-0.1710938679601997,0.0544666264638304,-1.1947089665055275,-0.4004973173141479,0.8451045751571655,0.1799994558095932
1783201487060266500,1.7342666015625,-0.0410973687376826,0.1153171087458729,-1.3315870419353246,-0.3277341723442077,0.9672904014587402,0.1664564907550811
1783201487070203600,1.74420361328125,0.1005301662415266,0.1221367256328463,-1.664569873267412,-0.2671485245227813,1.0534756183624268,0.182407408952713
1783201487080140500,1.754140625,0.1605436131775379,0.0899535349085926,-2.0824907494336364,-0.2263065427541732,1.0836694240570068,0.2036540955305099
1783201487090077700,1.76407763671875,0.1802999415922909,0.16205957069844,-2.4736036981731653,-0.2250769734382629,1.0564689636230469,0.2245021313428878
1783201487100014600,1.7740146484375,0.129645420762524,0.2953390371143817,-2.8367297388345003,-0.2585726380348205,0.9475525617599488,0.234277531504631
1783201487109951500,1.783951416015625,0.0024026772275567,0.3648269993603229,-3.235865250509977,-0.3169728219509125,0.7585418224334717,0.2342253774404525
1783201487119888600,1.793888671875,-0.0962253086544573,0.3329197029680013,-3.6794787863373752,-0.3801608383655548,0.4950564205646515,0.2274875789880752
1783201487129825500,1.803825439453125,-0.1936089204985648,0.3027288551047444,-4.103665152639151,-0.4131923615932464,0.147787794470787,0.1957480609416961
1783201487139762700,1.8137626953125,-0.2930279836930334,0.3709565881565212,-4.3916222628086805,-0.3972253799438476,-0.2397175878286361,0.1269695311784744
1783201487149699600,1.823699462890625,-0.3961716934338212,0.5457867931008339,-4.4472085409522055,-0.3224571645259857,-0.6053969264030457,0.03461205214262
1783201487159636500,1.833636474609375,-0.509659906252101,0.7581012177869677,-4.166285567203164,-0.1955652683973312,-0.8547726273536682,-0.0465547069907188
1783201487169573600,1.84357373046875,-0.6287370251186192,0.8517179513782263,-3.572150045996904,-0.0357005447149276,-0.973589301109314,-0.1119232773780822
1783201487179510500,1.853510498046875,-0.6924355903081596,0.8984680121153592,-2.959028084769845,0.1424633264541626,-1.0426921844482422,-0.1738806664943695
1783201487189446700,1.86344677734375,-0.7086926053650677,1.0900301561519503,-2.3904858545035124,0.3037561178207397,-1.0486353635787964,-0.2346175014972686
1783201487199383600,1.873383544921875,-0.7563282167650759,1.3081839545160532,-1.7255992192476988,0.4324014186859131,-1.0058884620666504,-0.2952257394790649
1783201487209320400,1.883320556640625,-0.8011195446498691,1.4233692535758018,-1.096052777442336,0.523799479007721,-0.94121652841568,-0.3463471531867981
1783201487219257600,1.893257568359375,-0.785764300738275,1.4680200039461255,-0.5883148522287607,0.5712583065032959,-0.8999074101448059,-0.4063180685043335
1783201487229194800,1.90319482421875,-0.8598764156535267,1.3988903536185622,-0.1052390745848417,0.5560598373413086,-0.8512964844703674,-0.4651847779750824
1783201487239131600,1.913131591796875,-0.8451837273038924,1.33980191257298,0.3251028917372227,0.4916515350341797,-0.830998957157135,-0.5109381079673767
1783201487249070000,1.923070068359375,-0.7742084491096437,1.2498062920883295,0.6651368106245994,0.3984737694263458,-0.8386737704277039,-0.5460328459739685
1783201487259007200,1.93300732421875,-0.6642224722586572,1.191173193594813,0.938926279231906,0.3029192686080932,-0.8550615310668945,-0.5742772817611694
1783201487268944100,1.942944091796875,-0.5840376863662153,1.145731000585854,1.210565876328945,0.2179738730192184,-0.8578848838806152,-0.6035298109054565
1783201487278881000,1.952881103515625,-0.5651017344236373,1.0836042147576808,1.4064841697484254,0.1679120361804962,-0.8349665403366089,-0.6333553194999695
1783201487288818200,1.962818115234375,-0.566601909853518,1.043593983669579,1.564641180050373,0.1625551134347915,-0.7877793312072754,-0.6654448509216309
1783201487298755000,1.972755126953125,-0.578795328733325,1.049181428413093,1.743427721405029,0.197428673505783,-0.7268741726875305,-0.7075414657592773
1783201487308692200,1.982692138671875,-0.6355073960363865,1.0522276642411947,1.9965648626059291,0.2434042990207672,-0.6131845712661743,-0.7620553970336914
1783201487318629000,1.992629150390625,-0.6691692810110748,1.0376672239691018,2.281827326864004,0.3007909059524536,-0.461951345205307,-0.8277121782302856
1783201487328566000,2.00256591796875,-0.656912149245292,1.0140087004840372,2.506426355844736,0.3593521416187286,-0.2929452061653137,-0.8926994204521179
1783201487338503200,2.012503173828125,-0.6149108904704451,0.9830646961659192,2.601948338535428,0.4090853333473205,-0.1193206906318664,-0.9460260272026062
1783201487348439300,2.022439208984375,-0.5045413211293518,0.9378829076588152,2.647334709703922,0.4470434486865997,0.0602262914180755,-0.9688035845756532
1783201487358376000,2.0323759765625,-0.351243149035424,0.8576289289876818,2.5945821936815974,0.4533884525299072,0.2040593475103378,-0.9772130250930786
1783201487368313000,2.04231298828125,-0.16784107670933,0.8069447436720132,2.434392800769209,0.4130688011646271,0.3093967139720917,-0.9716047048568726
1783201487378250200,2.052250244140625,-0.0902199672924354,0.8175181601345538,2.238102166905999,0.3236909806728363,0.3851923942565918,-0.9737868905067444
1783201487388187100,2.062187255859375,-0.055780339410901,0.9499380871117116,1.9904472565084692,0.1979817450046539,0.4450581669807434,-0.9878702759742736
1783201487398124300,2.072124267578125,0.0156102415859699,1.1367892769783734,1.7336416559278964,0.033467624336481,0.4878628849983215,-1.0034308433532717
1783201487408061000,2.08206103515625,0.0080748776450753,1.1239692506328225,1.4005436737835406,-0.1674830615520477,0.5051217675209045,-1.047507405281067
1783201487417998000,2.091998046875,-0.0204334970239549,0.8016156576037407,0.940190600079298,-0.4007059335708618,0.5079572796821594,-1.0923737287521362
1783201487427935200,2.101935302734375,0.1987492059964686,0.3751131233140826,0.3038730567038059,-0.6281588077545166,0.4535484611988067,-1.0967600345611572
1783201487437872000,2.1118720703125,0.5034774912901222,-0.0474620083987712,-0.4990840786367654,-0.8198366165161133,0.3833922743797302,-1.0472099781036377
1783201487447809300,2.121809326171875,0.7377056416206061,-0.3884887377157807,-1.368722302109003,-0.9433412551879884,0.2678238749504089,-0.9854999780654908
1783201487457746000,2.131745849609375,0.8834883235178888,-0.5995400105983019,-2.231192533648014,-0.9670239686965942,0.1303206086158752,-0.9123150110244752
1783201487467683000,2.14168310546875,1.0693438534107058,-0.5005766552820802,-2.983478635415435,-0.9017394781112672,-0.0376158505678176,-0.8225981593132019
1783201487477620200,2.1516201171875,1.1897811547145247,-0.2487359836325049,-3.5242455545276403,-0.7585684657096863,-0.2409378141164779,-0.7313218116760254
1783201487487557000,2.16155712890625,1.0671298306230457,0.0101654201835393,-3.79903630913198,-0.5716847777366638,-0.4349449872970581,-0.6721312403678894
1783201487497494300,2.171494384765625,0.7356747933801263,0.2422062896028161,-3.7433512467890977,-0.3730129897594452,-0.5644950270652771,-0.6406031847000122
1783201487507431000,2.181430908203125,0.3337404447663575,0.519316427065432,-3.351756067490577,-0.1893811672925949,-0.6251823902130127,-0.6520277857780457
1783201487517368000,2.1913681640625,-0.0514959400899708,0.8095774302631616,-2.833674442917109,-0.0651031583547592,-0.6527926921844482,-0.7030414342880249
1783201487527304200,2.20130419921875,-0.3551350419074296,0.94435502628237,-2.293386247232556,-0.0114709343761205,-0.6749677658081055,-0.7750065922737122
1783201487537241300,2.211241455078125,-0.4923462217491119,0.8952110561460256,-1.800954027700424,-0.0177032630890607,-0.6894007921218872,-0.841006875038147
1783201487547178000,2.221177978515625,-0.4951810067836195,0.7758812046274542,-1.3915981507837771,-0.0442629419267177,-0.7221706509590149,-0.8850244879722595
1783201487557115100,2.231115234375,-0.3974537691336124,0.7348655958890914,-1.1056237388640642,-0.0640880465507507,-0.7781132459640503,-0.9013866782188416
1783201487567052000,2.241052001953125,-0.291322348818928,0.8077586904034018,-0.8549638014316558,-0.0705229118466377,-0.8357833623886108,-0.9157326817512512
1783201487576989200,2.2509892578125,-0.2122215587709099,0.9740890702888368,-0.577680060967803,-0.0651774108409881,-0.8810371160507202,-0.926069974899292
1783201487586926300,2.26092626953125,-0.1842487522833049,1.1286322740077972,-0.27930326359272,-0.0485609173774719,-0.921923816204071,-0.9437608122825624
1783201487596863000,2.270863037109375,-0.2322835190687328,1.26162094078362,-0.0231488203972578,-0.0260667949914932,-0.9469333291053772,-0.9689873456954956
1783201487606800100,2.280800048828125,-0.3094854897581041,1.3618717055618763,0.295982011193037,-0.0092015415430068,-0.9304813146591188,-1.013576865196228
1783201487616737000,2.290737060546875,-0.4117698061905801,1.4100588133648038,0.665182403331995,0.005223736166954,-0.8716720342636108,-1.0687214136123655
1783201487626674200,2.300674072265625,-0.4987514126162976,1.3826979282304643,0.9616583355218172,0.0136976484209299,-0.7972028851509094,-1.141836643218994
1783201487636611300,2.310611328125,-0.5679862768840045,1.2860562938600777,1.2104986563116311,6.8694353103e-06,-0.7052180767059326,-1.2181614637374878
1783201487646548000,2.3205478515625,-0.5776108316564932,1.138783957926929,1.4945774637430906,-0.0292341113090515,-0.5745892524719238,-1.2898463010787964
1783201487656485000,2.330485107421875,-0.556736787790805,0.971131097266078,1.6882769120693206,-0.0553890168666839,-0.4392614960670471,-1.3522344827651978
1783201487666422000,2.340422119140625,-0.4796479951523244,0.8128466611921786,1.7346446954905983,-0.0807361379265785,-0.3273907601833343,-1.3806222677230835
1783201487676359200,2.350359130859375,-0.3652144643079489,0.6933133960559964,1.7115578344136475,-0.1147558912634849,-0.2531642019748688,-1.3849904537200928
1783201487686296300,2.36029638671875,-0.2440155309818684,0.6180711080670357,1.6759154431462286,-0.1687376648187637,-0.2026212513446808,-1.3827495574951172
1783201487696233000,2.37023291015625,-0.082914795378223,0.5241980616271495,1.608781935071945,-0.2225148826837539,-0.175164595246315,-1.3803889751434326
1783201487706170000,2.380170166015625,0.203117191947624,0.3675193071842193,1.4015876298785208,-0.2797512710094452,-0.1530481427907943,-1.3803753852844238
1783201487716107000,2.39010693359375,0.487774968310818,0.1975046858280897,1.1757219419628382,-0.3408785462379455,-0.1024046763777732,-1.3756605386734009
1783201487726044200,2.400044189453125,0.7136253125268965,-0.0014735796838998,0.878973622572422,-0.3887313306331634,-0.0197489876300096,-1.3625776767730713
1783201487735980000,2.40997998046875,0.7868035075929015,-0.2450689855575561,0.464186952778697,-0.4056874215602875,0.0714701414108276,-1.351313829421997
1783201487745917200,2.419917236328125,0.7993386525824665,-0.4046212496101856,0.0048883565634489,-0.3914137482643127,0.19158835709095,-1.3368738889694214
1783201487755854000,2.42985400390625,0.8791535091839731,-0.4156447479277849,-0.440396911868453,-0.3384655714035034,0.3260199427604675,-1.305460810661316
1783201487765791200,2.439791259765625,0.9264633957609534,-0.4238236704692244,-0.9216519038259984,-0.2602252662181854,0.4175872206687927,-1.2652082443237305
1783201487775728000,2.44972802734375,0.9216686357650904,-0.5433464142113924,-1.446560159549117,-0.1731151044368744,0.4623919725418091,-1.1971664428710938
1783201487785665000,2.4596650390625,0.9834715234011412,-0.5789759459972381,-1.9030957207918169,-0.1248044744133949,0.4566254615783691,-1.1117682456970217
1783201487795602200,2.469602294921875,0.9899706761620938,-0.593773117634654,-2.3180168306201696,-0.111066035926342,0.3650422692298889,-1.0556559562683103
1783201487805539000,2.4795390625,0.93610245398283,-0.5884136364281177,-2.6710417485058304,-0.1167071834206581,0.1945217251777649,-1.0365986824035645
1783201487815476200,2.489476318359375,0.969566039906442,-0.5154255571067333,-2.9955174482554194,-0.1125454679131507,-0.0419989377260208,-1.010669827461243
1783201487825413000,2.4994130859375,1.049100033739954,-0.4031871251538396,-3.224774532175064,-0.0884765684604644,-0.3174325227737427,-0.9749662280082704
1783201487835350000,2.50935009765625,1.0123527499705554,-0.3401797570988535,-3.2534920926153656,-0.0409782901406288,-0.5653994679450989,-0.9335700273513794
1783201487845287200,2.519287109375,0.9098260030843316,-0.188671391031146,-3.045080228325725,0.0211149957031011,-0.7340341210365295,-0.8974184989929199
1783201487855224000,2.52922412109375,0.7725321864604949,0.0615665215969085,-2.6358126142144203,0.0954914912581443,-0.8359519839286804,-0.868575394153595
1783201487865161200,2.5391611328125,0.5057745161861181,0.2709545374423265,-2.1979969510108237,0.1957514882087707,-0.8661239743232727,-0.8654704093933105
1783201487875098000,2.54909814453125,0.1732689469769597,0.4717860296055674,-1.754369971179962,0.3364292681217193,-0.8420074582099915,-0.8873264789581299
1783201487885035000,2.559034912109375,-0.1226051468621939,0.7164759527176618,-1.3459534209400414,0.489225298166275,-0.7935970425605774,-0.9316242337226868
1783201487894972200,2.56897216796875,-0.3485134318105876,0.976313760600984,-0.9818576584637164,0.6154090762138367,-0.7439666390419006,-0.9795709848403932
1783201487904909000,2.578908935546875,-0.5349635665956884,1.159969077035785,-0.629146628832817,0.6870954036712646,-0.6736029386520386,-1.0441229343414309
1783201487914846200,2.58884619140625,-0.6864726633157581,1.2650269498348234,-0.2546364398479461,0.6966572403907776,-0.6085240840911865,-1.1111680269241333
1783201487924783000,2.598783203125,-0.7556769863147288,1.3010606785073875,0.0410837055385112,0.6684722900390625,-0.5476090312004089,-1.1643751859664917
1783201487934720000,2.608719970703125,-0.8081421367630363,1.3014911788791417,0.1503875453442335,0.6321808695793152,-0.5400182008743286,-1.2246081829071045
1783201487944657200,2.6186572265625,-0.8507477181065827,1.3092869473218918,0.1228998189598321,0.6077418923377991,-0.5954997539520264,-1.2786976099014282
1783201487954594000,2.628593994140625,-0.8691644684806465,1.3459025675356386,0.1924000561654567,0.5893863439559937,-0.6735692024230957,-1.3262587785720823
1783201487964531200,2.63853125,-0.8913939820758998,1.4382137714862822,0.3873872062146663,0.5511771440505981,-0.7575816512107849,-1.3794854879379272
1783201487974468000,2.648468017578125,-0.8930728020083158,1.5586533378124237,0.7089473107784986,0.4895321726799011,-0.8208562135696411,-1.4385474920272827
1783201487984405000,2.658405029296875,-0.857276170027256,1.663029950349033,1.0918260996580125,0.3971493542194366,-0.8554471135139465,-1.496997594833374
1783201487994341000,2.668341064453125,-0.8190763493619859,1.7621610634475946,1.4692343481719492,0.2938834130764007,-0.8622640371322632,-1.5649127960205078
1783201488004278300,2.6782783203125,-0.8062860605675727,1.7684519802853464,1.770629032063484,0.1718189120292663,-0.8531797528266907,-1.629133939743042
1783201488014215000,2.68821484375,-0.7794605244189501,1.6803952189087867,2.061153946894408,0.0635877922177314,-0.7732324600219727,-1.681286334991455
1783201488024152000,2.698152099609375,-0.6326807943083346,1.4926169773250817,2.322932659712434,-0.024101223796606,-0.6754524111747742,-1.727905511856079
1783201488034089200,2.708089111328125,-0.4592122331060468,1.291781101247668,2.447887073114514,-0.0806649029254913,-0.5693789720535278,-1.7607394456863403
1783201488044026000,2.718026123046875,-0.2837685724385083,1.1181845297515391,2.429882629868388,-0.1057856306433677,-0.4760068953037262,-1.7833545207977295
1783201488053963300,2.72796337890625,-0.0885828310772776,0.9921490431144832,2.303338901448249,-0.1091425418853759,-0.416511595249176,-1.8116443157196045
1783201488063900000,2.73789990234375,0.0704682054549455,0.8685247092723846,2.223501394623518,-0.1102297604084014,-0.3679789006710052,-1.8324295282363887
1783201488073837000,2.747837158203125,0.2949338173143565,0.7143512156486511,2.2146108166813847,-0.1243482455611229,-0.322537899017334,-1.8414167165756223
1783201488083774200,2.757774169921875,0.5806311658583581,0.5997323183000087,2.224655240833759,-0.1596030443906784,-0.2781806290149688,-1.8421801328659055
1783201488093711000,2.767711181640625,0.8682135244313627,0.5298214544668793,2.263033194544912,-0.2354940772056579,-0.216469332575798,-1.835824966430664
1783201488103648300,2.777648193359375,1.076489852707833,0.3778182906195521,2.2729379179656504,-0.3250015676021576,-0.1316022127866745,-1.8148139715194704
1783201488113585000,2.7875849609375,1.2092374042041598,0.1664110439062118,2.111198957523704,-0.4076000452041626,-0.0543449819087982,-1.7832539081573486
1783201488123522000,2.79752197265625,1.402273566316068,-0.001214051964879,1.818109160640836,-0.4670716226100921,0.0736018791794776,-1.7389706373214722
1783201488133459200,2.807459228515625,1.651900945830345,-0.1306613928720355,1.410852886351943,-0.4990868270397186,0.2202277928590774,-1.642064332962036
1783201488143396000,2.81739599609375,1.7467577426105736,-0.3590758884876966,0.8936889611452817,-0.4996312856674194,0.3562560081481933,-1.518750548362732
1783201488153333200,2.827333251953125,1.5690879303261638,-0.6174804486975074,0.2121042890667915,-0.4694832265377044,0.4574449360370636,-1.39421284198761
1783201488163270000,2.837269775390625,1.3414376970812678,-0.7588736634641885,-0.5436509501159191,-0.4241959452629089,0.4829757213592529,-1.2897026538848877
1783201488173207000,2.84720703125,1.200519114089012,-0.6749304748862981,-1.2033850249141451,-0.3878949284553528,0.4320483803749084,-1.2105343341827393
1783201488183144200,2.857144287109375,1.134636921250075,-0.4609738359510898,-1.7413064914673566,-0.360317051410675,0.2914984822273254,-1.142672419548035
1783201488193081000,2.8670810546875,1.011460915697366,-0.2885699813708662,-2.192155823767185,-0.3469058871269226,0.0740180909633636,-1.088332176208496
1783201488203018200,2.877018310546875,0.774244981727749,-0.1677522293820977,-2.4943682537823912,-0.343576967716217,-0.1407523453235626,-1.0353925228118896
1783201488212955000,2.886954833984375,0.4948172149725258,0.0121352589517831,-2.513550508636236,-0.3614145517349243,-0.3009854257106781,-0.9985567331314088
1783201488222892000,2.89689208984375,0.1810223375827074,0.3527612985134125,-2.456696402513981,-0.4055676162242889,-0.4583759605884552,-1.001139760017395
1783201488232829200,2.9068291015625,-0.1823942104578018,0.7047399222165346,-2.58075825099051,-0.4458785355091095,-0.6232998967170715,-1.0440722703933716
1783201488242766000,2.91676611328125,-0.545089166225493,0.9418158631935716,-2.748834597760439,-0.4810336828231811,-0.7545974254608154,-1.10328471660614
1783201488252702700,2.92670263671875,-0.8383833996392785,1.0626163717865944,-2.8834774614840746,-0.5074463486671448,-0.8670893311500549,-1.1530044078826904
1783201488262639900,2.936639892578125,-1.2065784141279756,1.077713257022947,-3.074173636341095,-0.5114439725875854,-0.9791736602783204,-1.213901162147522
1783201488272576800,2.94657666015625,-1.5835665375337005,1.0795479251042008,-3.255380098319053,-0.4705045819282532,-1.108955144882202,-1.2800180912017822
1783201488282513700,2.956513671875,-1.8898060311079024,1.143329054010659,-3.35818580827713,-0.392309159040451,-1.2458724975585938,-1.3656400442123413
1783201488292450600,2.966450439453125,-2.089509249893576,1.3379970551081002,-3.2812644811600444,-0.2786001861095428,-1.3348910808563232,-1.4890810251235962
1783201488302387700,2.9763876953125,-2.126597309924662,1.615932683609426,-3.0727088244855403,-0.1469783037900924,-1.3849114179611206,-1.6338980197906494
1783201488312324900,2.986324951171875,-2.0321704289942977,1.8408289419710635,-2.764761065688729,-0.0106494892388582,-1.4098042249679563,-1.779778242111206
1783201488322261800,2.99626171875,-1.8359671811535956,1.9367847860343752,-2.340903200688958,0.1018618270754814,-1.4060629606246948,-1.9049164056777956
1783201488332198700,3.00619873046875,-1.6581434934817254,1.8859148688882588,-1.8552292232453824,0.1840957105159759,-1.3979967832565308,-2.006761312484741
1783201488342135600,3.016135498046875,-1.5323571593001484,1.748081392429769,-1.2951187212377786,0.2299933433532714,-1.3648546934127808,-2.095308542251587
1783201488352071700,3.02607177734375,-1.3262797293074429,1.646093720856309,-0.6498018788486719,0.222405195236206,-1.286453366279602,-2.1695072650909424
1783201488362008800,3.0360087890625,-1.077296639046073,1.5704846453815695,-0.1391004276543855,0.1953217089176178,-1.2068898677825928,-2.235219717025757
1783201488371945700,3.04594580078125,-0.8403457857534289,1.4518796010062098,0.0773912827163934,0.1731948256492614,-1.1627609729766846,-2.2779579162597656
1783201488381882600,3.055882568359375,-0.5351393615540116,1.3087836739748715,0.0976104794025421,0.15469790995121,-1.157478094100952,-2.29365873336792
1783201488391819800,3.06581982421875,-0.2813242480263114,1.1101792102113366,0.1131418105334043,0.1649422943592071,-1.2565457820892334,-2.2848122119903564
1783201488401756700,3.075756591796875,-0.3239812307635322,0.6235441326506436,-0.1730161412596702,0.2129585742950439,-1.4259716272354126,-2.251579523086548
1783201488411693800,3.08569384765625,0.2027571264635771,0.4644282141886651,0.1739887856841087,0.2077640742063522,-1.3968576192855835,-2.1594927310943604
1783201488421630700,3.095630615234375,0.6078652828078717,0.5877164479441941,1.005926516315341,0.1533990800380706,-1.296902775764465,-2.09065055847168
1783201488431567600,3.105567626953125,0.33060967245996,0.3848404443413019,1.4073247122257948,0.0441729947924613,-1.111694097518921,-2.097575187683105
1783201488441504800,3.1155048828125,0.249023349206522,0.3333629166908562,1.8226456350266933,-0.0987650901079177,-0.8804097175598145,-2.106250524520874
1783201488451441700,3.125441650390625,0.1751274343252181,0.2237052950114011,1.985035752853751,-0.2184283882379531,-0.6180415153503418,-2.113410711288452
1783201488461378800,3.13537890625,0.2443089609704911,0.1083411322534084,1.9988035814434288,-0.327670693397522,-0.3510835170745849,-2.101543664932251
1783201488471315700,3.145315673828125,0.3545825956564396,0.1286915541037917,2.011416394779086,-0.4775938987731933,-0.1137010753154754,-2.1020352840423584
1783201488481252600,3.155252685546875,0.5086277136601507,0.2612358381129801,2.2317197723925117,-0.6831828355789185,0.0064570000395178,-2.1326708793640137
1783201488491189800,3.165189697265625,0.6448701215349137,0.2821358566701412,2.239637705910205,-0.8974799513816833,-0.0851717218756675,-2.1941285133361816
1783201488501126700,3.175126708984375,0.4855395008763298,0.0499555787801742,1.7297013938695192,-1.08598530292511,-0.1948908120393753,-2.2603745460510254
1783201488511063800,3.185063720703125,0.5948081597708166,-0.216223122562468,1.5078081167161463,-1.2272378206253052,-0.2763305604457855,-2.321361780166626
1783201488521000700,3.195000732421875,0.8450802669294178,-0.2499607031218707,0.908729878410697,-1.205926537513733,-0.3504320383071899,-2.3678267002105717
1783201488530937600,3.2049375,1.213374504008889,0.0050498307354748,-0.5240303038448095,-0.939166247844696,-0.5322684049606323,-2.4007363319396973
1783201488540874800,3.214874755859375,1.9774900136493143,0.2270404307834803,-2.0721943963468075,-0.5397310256958008,-0.9458406567573548,-2.402646780014038
1783201488550811600,3.224811767578125,2.414371318612248,0.0998752094641327,-2.562892923954129,-0.1508317738771438,-1.3161777257919312,-2.342728614807129
1783201488560748800,3.234748779296875,2.5697940816447136,-0.3697996732063591,-2.180875135818124,0.1322795003652572,-1.4537439346313477,-2.21898889541626
1783201488570685700,3.244685791015625,2.551045249772072,-0.7759644989967346,-1.3796709816247223,0.309138149023056,-1.3707576990127563,-2.070206642150879
1783201488580622600,3.25462255859375,2.511032680596411,-0.7670628151386976,-0.5589999104171991,0.415982186794281,-1.158869981765747,-1.89588725566864
1783201488590559700,3.264559814453125,2.26010824700892,-0.5410068653479219,0.04306289665699,0.4787102937698364,-0.828774094581604,-1.733751893043518
1783201488600497000,3.274496826171875,1.733803714621812,-0.3767075528986752,0.5863210480630398,0.5252852439880371,-0.4034904539585113,-1.601779580116272
1783201488610433800,3.284433837890625,1.2152796069778502,-0.3096057551369071,1.1117886912345885,0.5337868332862854,0.0284236650913953,-1.5189327001571655
1783201488620370700,3.29437060546875,0.93124149688296,-0.1500968918345868,1.1539596074879168,0.5251027345657349,0.5659841299057007,-1.5413153171539309
1783201488630307600,3.3043076171875,1.3972604143291711,-0.2951134116649627,1.231443244662881,0.4783480167388916,0.8199002742767334,-1.5084795951843262
1783201488640244700,3.31424462890625,1.206167495239526,0.0243542506642639,0.6317027430564165,0.4350016415119171,1.3746124505996704,-1.5730732679367063
1783201488650182000,3.324181884765625,1.337822721454501,0.2043913766019046,1.5368734676808118,0.2699301540851593,1.6567176580429075,-1.5706748962402344
1783201488660118800,3.334118896484375,0.934561946542561,-0.179503895843774,1.1609639332920312,0.0695065781474113,1.819123148918152,-1.6590399742126465
1783201488670055700,3.3440556640625,1.3581218515090645,-0.219001939626038,0.2052560306072235,0.0146848764270544,1.228322148323059,-1.5789155960083008
1783201488679992600,3.35399267578125,3.369540145984292,-1.1218693557441235,-4.91449521331191,0.1463970094919204,0.3181761503219604,-1.2772208452224731
1783201488689929700,3.3639296875,4.526255774182081,-2.2431727481685577,-6.088606212946773,0.2500872015953064,0.1953040510416031,-1.1010605096817017
1783201488699867000,3.373866943359375,1.9129227028012277,-1.645739208330214,-3.346214215454459,0.5113637447357178,-0.2275174856185913,-1.1003494262695312
1783201488709803800,3.3838037109375,0.4951332221191376,-1.0394514770373702,-3.1499960623055694,0.7222282886505127,-0.5255576968193054,-0.9635222554206848
1783201488719740700,3.39374072265625,-0.01644691160582,-0.349339799632132,-1.543182796958089,0.8833765983581543,-0.4460804164409637,-0.7786849737167358
1783201488729677600,3.403677490234375,-0.305564370791614,0.7396069451972842,-0.3036474312543868,1.0488526821136477,-0.3634544909000397,-0.6572930216789246
1783201488739614700,3.41361474609375,-0.3910458017874509,1.1851311369515956,-0.1974918263465166,1.1934046745300293,-0.1224135980010032,-0.6006460785865784
1783201488749551900,3.4235517578125,-0.090513726074621,0.8288242747858167,0.3557838612049818,1.3421016931533811,0.0640223249793052,-0.5153765082359314
1783201488759488800,3.43348876953125,0.7143285654254258,0.1085971528410911,0.2158212637633085,1.1872665882110596,-0.0654318779706955,-0.3849489986896515
1783201488769425700,3.44342578125,1.3637778314441442,0.2209371454723179,-0.1747457415312528,0.6286757588386536,-0.2654986679553985,-0.3665524125099182
1783201488779362600,3.453362548828125,1.6043595885850488,0.4252876055419445,0.5353150834470987,0.1265397518873214,-0.3033855259418487,-0.3008632063865661
1783201488789299700,3.4632998046875,0.9465643728949128,-0.0142217098370194,0.8555319567084312,-0.1590403318405151,-0.2036837041378021,-0.2944798767566681
1783201488799236900,3.47323681640625,0.0090039751887321,-0.1285759649001061,0.7543716758698225,-0.2514525651931762,-0.2509945034980774,-0.266427993774414
1783201488809173800,3.483173828125,0.2641439806446433,-0.0071072016566991,0.5319552516251802,-0.2289429754018783,-0.2815383076667785,-0.1525288522243499
1783201488819110700,3.493110595703125,0.6637764820568263,0.0828819890871644,0.553175734308362,-0.14055897295475,-0.3286448121070862,0.0140882199630141
1783201488829047600,3.503047607421875,0.8275450486302375,0.4030221438504755,0.7460030759751797,-0.1220137774944305,-0.3798941373825073,0.1680290549993515
1783201488838984700,3.512984619140625,1.084110995236039,0.7187821838334202,1.0473615195095538,-0.2199550122022628,-0.4626086354255676,0.2878801226615906
1783201488848921900,3.522921875,1.0362788383506238,0.6704504068627953,1.360780987715721,-0.357031375169754,-0.5936720967292786,0.350119799375534
1783201488858858800,3.532858642578125,1.0197912294082343,0.5163439871259033,1.8523750028580424,-0.5501005053520203,-0.6286963820457458,0.344946414232254
1783201488868795600,3.542795654296875,0.8611741273138671,0.1957112265400588,2.408684943538904,-0.8135833144187927,-0.6003488898277283,0.25162073969841
1783201488878732800,3.55273291015625,0.5305013995550573,-0.0012527765400707,2.334094105195999,-1.1431198120117188,-0.4882041215896606,0.0129932723939418
1783201488888669700,3.562669677734375,0.2474612327226437,-0.1851994771368801,2.4919120928019285,-1.516664743423462,-0.2920127809047699,-0.387584775686264
1783201488898606800,3.57260693359375,-0.0740389035485684,-0.5489838355764747,2.817936191037297,-1.9344549179077148,-0.0308649037033319,-0.8032121062278748
1783201488908543700,3.582543701171875,-0.0810332924805581,-0.4923005559764802,2.2290900084108114,-1.918467164039612,0.0708627924323082,-0.9915354251861572
1783201488918480600,3.592480712890625,-0.1186656519887968,-1.0649741869591176,1.4723007500052452,-1.832090973854065,0.469017744064331,-1.2686504125595093
1783201488928417800,3.602417724609375,0.0517776065755635,-0.8438931029714644,2.006868814477325,-1.874076247215271,0.8402178883552551,-1.540030837059021
1783201488938354700,3.612354736328125,1.097924562663585,-0.8448246116679161,1.8605898734956976,-1.9751367568969729,0.9749568700790404,-1.577301263809204
1783201488948291800,3.622291748046875,2.120410145722329,-1.7601709125436842,1.4662030176520346,-2.181398630142212,0.9414093494415284,-1.3474787473678589
1783201488958228700,3.632228759765625,2.480853230910003,-2.220838020633161,0.8815981258571147,-2.4320549964904785,0.6790895462036133,-0.9831950664520264
1783201488968165600,3.64216552734375,1.2112280665647237,-1.9904545630320905,0.146352590739727,-2.37074613571167,-0.1309021115303039,-0.7043623924255371
1783201488978102800,3.652102783203125,-1.1795315633788703,-1.844481034737825,-1.132362692707777,-2.010178327560425,-1.236270546913147,-0.6287558078765869
1783201488988039700,3.662039794921875,-2.0813767968423664,-2.013949128127098,-2.400344400694966,-1.4370660781860352,-2.485880851745605,-0.5689220428466797
1783201488997976800,3.671976806640625,-1.5672992933437226,-2.4812284939631817,-3.2593034092426296,-0.5261656045913696,-2.301033973693848,-0.4078268110752105
1783201489007913700,3.681913818359375,0.1446671949360519,-1.7470606710799037,-2.178169968512654,0.1550150960683822,1.1210137605667114,-0.4097011387348175
1783201489017850600,3.6918505859375,-0.2364402734220027,0.6864459945045411,-0.4840291328459978,0.5105152726173401,2.853943347930908,-0.6473634243011475
1783201489027787800,3.701787841796875,-1.538701706021279,1.4696401524938645,-4.785893383318186,0.8289806246757507,1.1309471130371094,-1.159597873687744
1783201489037724700,3.711724609375,-0.0619249796457588,-0.1123178173320367,-10.005801283991335,0.4015371799468994,-0.0630300492048263,-0.999537229537964
1783201489047661800,3.721661865234375,4.166274169026315,-3.321222982060909,-5.8833735632151365,-0.0498941726982593,-0.0565132983028888,-0.8216290473937988
1783201489057598700,3.7315986328125,2.9946950259566307,-1.3217562605336308,-3.023143121805787,-0.1728926599025726,0.5619635581970215,-0.8158971667289734
1783201489067535600,3.74153564453125,1.4714689753562211,0.1918712465183809,-2.78900528010726,0.0028671845793724,1.2281967401504517,-0.6366323232650757
1783201489077472800,3.75147265625,0.411846378558129,-0.0016172624709084,-3.786713418653607,0.2894229292869568,1.396432876586914,-0.4576550424098968
1783201489087409700,3.76140966796875,-0.1760484946928918,0.4640776106527075,-4.249671121898293,0.6707077026367188,1.2723513841629028,-0.4250933825969696
1783201489097346800,3.771346923828125,-0.0823848532199859,0.8829980557829141,-3.8100621455371377,1.1737322807312012,0.973548412322998,-0.4738907516002655
1783201489107283700,3.78128369140625,0.6120234984658658,1.2038606796018778,-3.1152637716203926,1.732629418373108,0.46710866689682,-0.5193729996681213
1783201489117220600,3.791220703125,1.3387092950306831,1.542571533191949,-2.607044784891605,2.292631149291992,-0.2388261407613754,-0.5361773371696472
1783201489127157800,3.80115771484375,2.0497540164798496,1.622300611206144,-2.041829068699479,2.7458856105804443,-0.6471034288406372,-0.6220259070396423
1783201489137094700,3.8110947265625,2.414258213626593,1.916444739447534,-1.577880600851774,3.094904661178589,-1.1891391277313232,-0.7736314535140991
1783201489147031800,3.82103173828125,2.390801496323943,2.452773091590404,-1.0757809737861157,3.211858034133911,-1.4244519472122192,-0.8688695430755615
1783201489156969000,3.830968994140625,2.662756735241413,2.791982542352378,0.3367395535171031,3.152322769165039,-1.4632643461227417,-0.793438732624054
1783201489166905600,3.840905517578125,2.971708118122816,2.993559884446859,1.4965432108581065,2.9486663341522217,-1.3745243549346924,-0.5749103426933289
1783201489176842800,3.8508427734375,3.215646638345718,3.004315963999927,2.3508079241096973,2.736092329025269,-1.2312312126159668,-0.290440946817398
1783201489186779600,3.860779541015625,3.196706375554204,3.055140726830065,2.82072845210433,2.5919766426086426,-1.1290085315704346,-0.0317715778946876
1783201489196716800,3.870716796875,3.0314392409861086,3.21513138229996,3.1446605464965103,2.536848783493042,-1.0639829635620115,0.1967886090278625
1783201489206654000,3.880654052734375,3.0650200235486027,3.141095255230367,3.4546529628634453,2.538183689117432,-1.0217641592025757,0.4167800843715668
1783201489216590600,3.890590576171875,3.253189310276508,3.087638098070025,3.5511101805776355,2.572209358215332,-1.024029016494751,0.5997571349143982
1783201489226527700,3.90052783203125,3.224009977543354,3.293885185541213,3.604295242798328,2.5623295307159424,-1.0700061321258545,0.7194436192512512
1783201489236464600,3.910464599609375,3.3135976017490028,3.403945396672189,3.66921224386692,2.4337873458862305,-1.0485981702804563,0.8070661425590515
1783201489246400800,3.92040087890625,3.6059371647864578,3.2045880687147377,4.273838179427385,2.0977888107299805,-0.7286641597747803,0.8183448910713196
1783201489256338000,3.930337890625,3.0330607047080997,3.080117347176373,4.661379114899039,1.6441842317581177,-1.0633115768432615,0.7891570925712585
1783201489266274800,3.94027490234375,2.97508577786237,2.941765692062676,2.4046710317224265,1.170618772506714,-1.353261947631836,0.7154983282089233
1783201489276212000,3.9502119140625,2.505800917422772,2.7085964031353598,3.132645114532113,0.6628606915473938,-1.0902464389801023,0.6271330118179321
1783201489286148900,3.96014892578125,1.98956988915205,2.8253549428611997,4.066268026658892,0.2056619673967361,-0.7539017200469971,0.5697629451751709
1783201489296085800,3.970085693359375,1.9648120261229571,3.074149086421728,3.3721056125581264,-0.167693555355072,-0.4430127441883087,0.628524899482727
1783201489306023000,3.98002294921875,1.9752897271260617,2.9900849018126725,2.341132917791605,-0.3768531680107116,-0.243466317653656,0.797086238861084
1783201489315959800,3.989959716796875,2.207588516829163,2.825116750191152,1.0724018527418375,-0.3745561838150024,-0.0517279468476772,1.014781832695007
1783201489325897000,3.99989697265625,2.154971025363356,2.428034371653199,-0.0923778394460678,-0.1814615577459335,0.0928787738084793,1.1715911626815796
1783201489335833900,4.009833740234375,1.8070684189274904,2.0463433312535284,-1.5355384196847677,0.1136815026402473,0.1850754767656326,1.2254493236541748
1783201489345770800,4.019770751953125,1.4251017764568328,1.6894973937749862,-2.4968320135474205,0.4148977994918823,0.1593890190124511,1.1985684633255005
1783201489355708000,4.0297080078125,1.096418030558154,1.4305243860274552,-3.205084327799081,0.6428013443946838,0.0376015193760395,1.1392091512680054
1783201489365645000,4.03964501953125,1.3161919044047594,0.9319836204871534,-3.134358932712674,0.7435370087623596,0.0633071511983871,1.1370676755905151
1783201489375582000,4.04958203125,1.6840793142490087,0.4141545093700289,-2.356954171779752,0.7278316617012024,0.0525293350219726,1.1528552770614624
1783201489385518800,4.059518798828125,1.5090326900750397,0.3229895528450608,-2.336378416740894,0.6696445345878601,-0.0363611206412315,1.1828672885894775
1783201489395455700,4.069455810546875,1.4403047524161636,-0.0417515217974781,-2.3323475537896154,0.6222141981124878,0.0822766050696373,1.269992113113403
1783201489405393000,4.079392822265625,1.3608632591716945,-0.4836652679696678,-2.21133749409914,0.571622908115387,0.1049217358231544,1.2973171472549438
1783201489415330000,4.089330078125,0.7589639720961451,-0.3951064022898674,-2.843312039834261,0.4744089841842651,0.0854020118713378,1.243477463722229
1783201489425267000,4.099266845703125,0.2800042514689266,-0.5925576043650508,-2.9074668243587016,0.3552245497703552,0.1744879484176635,1.144757628440857
1783201489435203800,4.109203857421875,-0.1106353806704282,-0.9386766883850096,-2.6204642384350296,0.2531256377696991,0.3425028622150421,1.0219378471374512
1783201489445140700,4.119140625,-0.3771462365768849,-1.1065873231992125,-2.5457284386634824,0.2124903500080108,0.4741863310337066,0.8902105093002319
1783201489455078000,4.129077880859375,-0.4072952911250293,-0.9173676506355404,-2.7569869245558976,0.2816881835460663,0.5516510605812073,0.7721335887908936
1783201489465015000,4.13901513671875,-0.2575312845066189,-0.5208648255512118,-2.9098505046248437,0.4579135477542877,0.6071609258651733,0.6976393461227417
1783201489474952000,4.148951904296875,-0.1285620825052261,-0.2340858192503452,-2.746364992776513,0.6544049382209778,0.6574593782424927,0.6760890483856201
1783201489484888800,4.158888916015625,-0.1086873153425753,-0.0970589829996228,-2.319717204797268,0.814207911491394,0.7097590565681458,0.7005278468132019
1783201489494825700,4.16882568359375,-0.1126084343090653,-0.0280555894002318,-1.686079109764099,0.9010650515556335,0.7521464228630066,0.7266411781311035
1783201489504763000,4.178762939453125,-0.1948546827759593,0.2049377584382891,-1.1070143164396284,0.9124708771705629,0.7499887347221375,0.7346509099006653
1783201489514700000,4.188699951171875,-0.1705525276251137,0.4658274134621024,-0.6079805066853762,0.8832237720489502,0.7527616620063782,0.7555925250053406
1783201489524637000,4.198636962890625,-0.1229088059838861,0.6735138860866428,-0.0448176313698291,0.8222126364707947,0.7854165434837341,0.7750604748725891
1783201489534573800,4.20857373046875,-0.0870724265143275,0.9005983021423221,0.5110165084928274,0.7113910913467407,0.8384037613868713,0.8011577129364014
1783201489544510700,4.2185107421875,-0.0533140954278409,1.0380471631973982,1.045814874589443,0.5305233001708984,0.884378969669342,0.820154070854187
1783201489554448000,4.22844775390625,-0.2676299961294979,1.206440320831537,1.4661375512003898,0.2911872267723083,0.9189605116844176,0.8187811374664307
1783201489564385000,4.238385009765625,-0.5593380563303828,1.3073597786515951,1.7390630964547396,0.0682825073599815,0.9446973204612732,0.7969663739204407
1783201489574322000,4.248322021484375,-0.8211047864496708,1.227634500029683,1.7674042247980832,-0.078389436006546,0.9697332978248596,0.7489472031593323
1783201489584258800,4.2582587890625,-0.9557513034351168,1.3598422455608845,1.6643120991140603,-0.1436901539564132,0.9827297925949096,0.6838286519050598
1783201489594196000,4.268196044921875,-0.9402204837609082,1.4255515660509466,1.5954577585965397,-0.1514637023210525,0.9609732627868652,0.660778284072876
1783201489604132900,4.2781328125,-0.695329996575415,1.3131734333664178,1.5435913777589798,-0.1333824396133422,0.8751744627952576,0.6770195364952087
1783201489614070000,4.288070068359375,-0.4370272893048822,1.3791338060081004,1.4799614938914776,-0.0961017087101936,0.7418193817138672,0.7211573719978333
1783201489624007000,4.2980068359375,-0.2661322318524122,1.4381009587615727,1.5374129813849926,-0.0472548156976699,0.5873475074768066,0.7933284640312195
1783201489633943800,4.30794384765625,-0.1864759268134832,1.454365280342102,1.5880091961562632,0.0019054058939218,0.4177952408790588,0.8689808249473572
1783201489643881000,4.317880859375,-0.2685870045933872,1.4767618210673332,1.6777578561425208,0.0435870736837387,0.2637260258197784,0.9146234393119812
1783201489653817900,4.32781787109375,-0.4235194268256426,1.4508099259480831,1.7988865737766029,0.0414835475385189,0.1444033086299896,0.9214248061180116
1783201489663755000,4.337755126953125,-0.5753931921396405,1.3709002306699751,1.8478209928154945,-0.003573409281671,0.1067254319787025,0.9039124250411988
1783201489673692000,4.34769189453125,-0.6261294729687273,1.1643787101715803,2.0478017133682966,-0.0863732919096946,0.1658125668764114,0.8858065605163574
1783201489683628800,4.35762890625,-0.7061814993269742,1.1341127512454985,2.0586860954761503,-0.1881641000509262,0.1866906881332397,0.8421674370765686
1783201489693566000,4.36756591796875,-0.8639658038590103,1.3392293733820315,1.7623177153140306,-0.2647543549537658,0.1706341207027435,0.8266752362251282
1783201489703502800,4.3775029296875,-0.8587970229189843,1.365971542096138,1.5073837538242338,-0.2984910011291504,0.1420134007930755,0.8073776960372925
1783201489713440000,4.38743994140625,-0.8641931828740984,1.4491659581333398,1.3566776440501211,-0.3016933500766754,0.1461412012577057,0.7905649542808533
1783201489723377000,4.397376953125,-0.8604908942900598,1.467429636837542,1.328159990096092,-0.3100610077381134,0.1440295875072479,0.7755955457687378
1783201489733313800,4.407313720703125,-0.8653514129985124,1.4328320784479378,1.2877765417814253,-0.3536185622215271,0.0926273688673973,0.7701934576034546
1783201489743251000,4.4172509765625,-0.9048696958512068,1.3816270841285585,1.1692401787281037,-0.4315061569213867,-0.0317385233938694,0.7825062870979309
1783201489753187800,4.427187744140625,-0.8560480895370245,1.2412126512661577,0.8539274441212416,-0.5068283081054688,-0.2055623829364776,0.814609169960022
1783201489763125000,4.437125,-0.7157782527770846,1.0606932947695256,0.4496259279847144,-0.5711444616317749,-0.3749660551548004,0.8470911979675293
1783201489773062000,4.447061767578125,-0.5749034358613193,0.8826417896911501,0.0429945075958967,-0.619459867477417,-0.5048336386680603,0.8700809478759766
1783201489782998800,4.456998779296875,-0.5133006739072501,0.6114952368080616,-0.4069306955963373,-0.6827509999275208,-0.5829084515571594,0.8643668293952942
1783201489792936000,4.46693603515625,-0.5597587659604847,0.2710428002476692,-0.8013631441473961,-0.7663486003875732,-0.5987094640731812,0.8432291150093079
1783201489802872800,4.476872802734375,-0.6918032837539911,-0.1420920106858015,-1.1909954989403486,-0.8633004426956177,-0.5849494338035583,0.8086810111999512
1783201489812810000,4.48681005859375,-0.8278069144368171,-0.5057847453191876,-1.7437848642796276,-0.9448375701904296,-0.5335714221000671,0.7879638075828552
1783201489822747000,4.496746826171875,-0.9139917444616557,-0.8177996074244379,-2.333720595708489,-0.991500198841095,-0.4870643317699432,0.7609396576881409
1783201489832683800,4.506683837890625,-1.0824832479037343,-0.9188368464052676,-3.122590753507614,-0.9593337178230286,-0.4082599878311157,0.729381263256073
1783201489842621000,4.516620849609375,-1.2692495359659195,-1.0555533015325664,-3.722138362890482,-0.850673258304596,-0.2727476954460144,0.6968744397163391
1783201489852557800,4.526557861328125,-1.3918082864031194,-1.1469050128012894,-4.131017269945144,-0.6742625832557678,-0.0815981924533844,0.6597215533256531
1783201489862495000,4.536494873046875,-1.4155902901373802,-1.1933116669282315,-4.3000808741867536,-0.464855283498764,0.1358190774917602,0.6048705577850342
1783201489872431900,4.546431884765625,-1.3990512432686983,-1.270149407415092,-4.272997636950016,-0.2645327746868133,0.3545630872249603,0.537327766418457
1783201489882368800,4.55636865234375,-1.298883334468305,-1.3705308128356932,-3.94650124502778,-0.0868999361991882,0.5530961751937866,0.4683133065700531
1783201489892306000,4.566305908203125,-1.085082032225281,-1.3616063326239585,-3.454505663347244,0.0677937716245651,0.6892135739326477,0.3922196626663208
1783201489902242800,4.576242919921875,-0.8718393867783248,-1.245909869171679,-2.898861493098736,0.2049785256385803,0.747313380241394,0.320397675037384
1783201489912180000,4.586179931640625,-0.6928260509304702,-1.0736848782896995,-2.302120173308253,0.3120567500591278,0.7606894969940186,0.2635941803455353
1783201489922117000,4.5961171875,-0.5188362423330545,-0.8679337576419115,-1.6936738026767968,0.3833655416965484,0.7273176908493042,0.2277517765760421
1783201489932053800,4.6060537109375,-0.3356495663233101,-0.7083987369850278,-1.1400286972910163,0.4044465124607086,0.6995530724525452,0.2120375484228134
1783201489941991000,4.615990966796875,-0.2839537197470664,-0.558591621877253,-0.558841504985094,0.3597133755683899,0.6794722676277161,0.1869899928569793
1783201489951927800,4.625927734375,-0.3705607207067311,-0.399939229273796,-0.0217518130809068,0.279019147157669,0.6768676042556763,0.1677995771169662
1783201489961865000,4.635864990234375,-0.4794666472360491,-0.272471664007008,0.4100549650967121,0.1913058012723922,0.7120155096054077,0.1426284462213516
1783201489971802000,4.645802001953125,-0.5398351912200451,-0.0916124080315232,0.7461737563669681,0.1332580000162124,0.7843949198722839,0.1094520837068557
1783201489981738800,4.65573876953125,-0.5264417489007115,0.0684358228445053,0.961925462025404,0.1093617156147956,0.9019385576248168,0.0784158706665039
1783201489991676000,4.665676025390625,-0.4593160588067024,0.238737444448471,1.1635013428151606,0.1082854121923446,0.9974483847618104,0.0774030461907386
1783201490001612800,4.67561279296875,-0.3140364310607313,0.3913730609804391,1.3962065213620662,0.1133150532841682,1.054260492324829,0.1108507513999939
1783201490011550000,4.685550048828125,-0.1292732995145022,0.4791220715820789,1.7439795100688933,0.1163753047585487,1.0686771869659424,0.1806168407201767
1783201490021487000,4.695487060546875,0.0440894632257521,0.5483724256798624,2.17252699418962,0.1192869395017623,1.0338422060012815,0.2765678763389587
1783201490031425000,4.705425048828125,0.1762096766039729,0.6381573260232806,2.587446934974193,0.1141578555107116,0.8845549821853638,0.3771428763866424
1783201490041361000,4.71536083984375,0.2167852864898741,0.755704093517363,2.657795313441753,0.1137410700321197,0.6132909655570984,0.4640162587165832
1783201490051298800,4.725298828125,0.1543158247038722,0.7873769966319203,2.561766550272703,0.1195436865091323,0.3494136929512024,0.5062817931175232
1783201490061236000,4.735236083984375,-0.0316693959832191,0.7630722841978073,2.6321044073462483,0.1180925369262695,0.1776120960712433,0.4943151473999023
1783201490071172900,4.7451728515625,-0.2747118441492319,0.750506232613325,2.8396768982023,0.0623457171022892,0.1210461184382438,0.4597188234329223
1783201490081110000,4.755110107421875,-0.5564643275249749,0.6938570014134049,2.9715877066135405,-0.0547393634915351,0.1397960931062698,0.4174371659755707
1783201490091047000,4.765046875,-0.6934439636331051,0.6191665020883083,3.017652123174071,-0.2034990340471267,0.1630686372518539,0.3871484994888305
1783201490100983800,4.77498388671875,-0.6394760804716497,0.5180220033407211,2.958024460685253,-0.3506730496883392,0.1420155465602874,0.3813883364200592
1783201490110921000,4.7849208984375,-0.416026367656514,0.3609811375871301,2.7344033368259666,-0.4686160385608673,0.0687611326575279,0.39000204205513
1783201490120857900,4.79485791015625,-0.1683582324512302,0.281828398156166,2.470483520326018,-0.5566356182098389,-0.0428311750292778,0.4209514558315277
1783201490130795000,4.804794921875,-0.0212782772850245,0.2996761895358562,1.987040662935376,-0.5794165134429932,-0.2106312960386276,0.4886952042579651
1783201490140732000,4.81473193359375,-0.0015198299784213,0.2878258850052952,1.2771166160792111,-0.5280992984771729,-0.3780855536460876,0.5822701454162598
1783201490150668800,4.824668701171875,-0.0266574130401015,0.143133628693223,0.6160498313724995,-0.4209637343883514,-0.5274638533592224,0.693132758140564
1783201490160606000,4.83460595703125,-0.1836978404022753,-0.1524853944063186,-0.2465349664568901,-0.2842887043952942,-0.6648563146591187,0.7656890153884888
1783201490170542800,4.84454296875,-0.6220164116267114,-0.4607902960777282,-0.9293336905002594,-0.1520114094018936,-0.7473811507225037,0.7626259326934814
1783201490180480000,4.85447998046875,-1.062141447751224,-0.82167498755306,-1.3897265116930009,-0.0715442672371864,-0.7343183159828186,0.6758058071136475
1783201490190417000,4.8644169921875,-1.1918234741970897,-1.326475982531905,-1.7666554522573947,-0.0374167189002037,-0.6474019289016724,0.5148206353187561
1783201490200353800,4.874353759765625,-1.3813088119596242,-1.700188006876409,-2.06034672216475,-0.0393235422670841,-0.556573748588562,0.3032090365886688
1783201490210291000,4.884291015625,-1.3962569363750517,-1.8188614403128625,-2.379566985604167,-0.0637349262833595,-0.4738894402980804,0.1000154912471771
1783201490220227800,4.894227783203125,-1.0774524141296744,-1.833899434968829,-2.50222247441411,-0.1064403131604194,-0.350974977016449,-0.0351119674742221
1783201490230165000,4.9041650390625,-0.7085594805046915,-1.8891636415511368,-2.415039281001687,-0.1644735336303711,-0.2094696313142776,-0.0844569355249404
1783201490240102000,4.914101806640625,-0.4219989392600953,-1.9107775074660776,-2.316330484968424,-0.2180709838867187,-0.0995093137025833,-0.052308052778244
1783201490250039800,4.924039794921875,-0.2127836496330797,-1.8849331643745304,-2.256440956673026,-0.2656117081642151,-0.0246244799345731,0.0180529560893774
1783201490259976700,4.933976806640625,-0.1644460274435579,-1.7803575221344827,-2.174158979305625,-0.2852842211723327,0.0554306767880916,0.0698080286383628
1783201490269913600,4.94391357421875,-0.2975786327347159,-1.6399790373682974,-2.1549276246130464,-0.2605473399162292,0.1720646768808365,0.0627069473266601
1783201490279850800,4.953850830078125,-0.5971813186429441,-1.374768596535921,-2.108850933092832,-0.1872345060110092,0.3207553625106811,0.0127574987709522
1783201490289787600,4.96378759765625,-0.8326404720731079,-1.1384008038282394,-1.992790604764223,-0.0791528597474098,0.4529935419559479,-0.0518616698682308
1783201490299724800,4.973724853515625,-0.8542141521081328,-1.1098135917693377,-1.8357354182243344,0.0424633212387561,0.5401079058647156,-0.119536317884922
1783201490309661700,4.98366162109375,-0.9095316963128744,-0.8880278666436672,-1.6428431946277615,0.1543537229299545,0.6050294041633606,-0.2118678987026214
1783201490319598600,4.9935986328125,-1.0441387580707668,-0.632128859513998,-1.2655980277210472,0.2405871450901031,0.626526951789856,-0.2968717217445373
1783201490329535700,5.00353564453125,-0.9591387539163232,-0.537350973188877,-0.9083990390211344,0.295363575220108,0.60808926820755,-0.3561155498027801
1783201490339473000,5.013472900390625,-0.7932773067168891,-0.3901826821520924,-0.516045150309801,0.3011375665664673,0.5838409066200256,-0.3814682960510254
1783201490349409800,5.023409912109375,-0.7390930043257773,-0.2355973928570747,-0.0815793820559978,0.2681442201137543,0.5795173645019531,-0.3810251355171203
1783201490359346700,5.0333466796875,-0.719891460249573,-0.0938794761806726,0.2903302690416574,0.2176759839057922,0.5832457542419434,-0.3594351410865783
1783201490369283600,5.04328369140625,-0.7006810752797872,0.0301484700262546,0.5569961693793535,0.1683222204446792,0.5836869478225708,-0.3261972963809967
1783201490379220700,5.053220703125,-0.7333967654455452,0.1121323412299156,0.7264262688457965,0.1302603185176849,0.5669346451759338,-0.3077352046966553
1783201490389158000,5.063157958984375,-0.7860112612366675,0.1741223489359021,0.8674223009884356,0.0970685333013534,0.5115817785263062,-0.3022922873497009
1783201490399094800,5.0730947265625,-0.7879654640443623,0.0987190251663327,0.9351508523464204,0.0755762904882431,0.4061118364334106,-0.2926697432994842
1783201490409031700,5.08303173828125,-0.7912436819974332,-0.0729413175702095,0.8472007662147283,0.0681851878762245,0.3008706271648407,-0.2914461493492126
1783201490418968600,5.092968505859375,-0.9915370486959816,-0.1550552448943257,0.7572294033885002,0.090077169239521,0.2609114944934845,-0.3010982573032379
1783201490428905700,5.10290576171875,-1.317527536922693,-0.1667845533937215,0.593995235952735,0.1433575302362442,0.3162466287612915,-0.3353222012519836
1783201490438843600,5.11284375,-1.608439112983644,-0.1726505228176713,0.556720859569311,0.2150879055261612,0.432615578174591,-0.3865603506565094
1783201490448780800,5.12278076171875,-1.724470507478714,-0.1953960231110453,0.6669786390990018,0.2977231442928314,0.5874733328819275,-0.4436387121677398
1783201490458717700,5.1327177734375,-1.5792933902591466,-0.1940957541674375,1.2821698078155517,0.3497682511806488,0.5422475337982178,-0.5119383931159973
1783201490468654600,5.142654541015625,-1.105955966493115,-0.3257721693009138,1.3723843317478894,0.3352212309837341,0.1577709168195724,-0.5606124401092529
1783201490478591700,5.152591796875,-0.8112101460315286,-0.4802984218850731,1.460637784740329,0.2622698247432709,-0.284806489944458,-0.5774116516113281
1783201490488528600,5.162528564453125,-0.7385197344824671,-0.534174973501265,1.6702654545605182,0.16533163189888,-0.6490241289138794,-0.5619087815284729
1783201490498465800,5.1724658203125,-0.7738800939381122,-0.482531003242731,1.3652759610474108,0.0863460153341293,-0.8095799684524536,-0.5372244715690613
1783201490508403000,5.18240283203125,-0.8651030642606318,-0.4385314102575182,0.8323205924689769,0.0519877299666404,-0.779538631439209,-0.5179582834243774
1783201490518339600,5.192339599609375,-0.959773325492814,-0.3629311026111245,0.3036176206380128,0.0525384731590747,-0.6715953946113586,-0.5375730395317078
1783201490528276700,5.20227685546875,-1.1453408322244882,-0.2599640646114945,-0.1346229899793863,0.0636009573936462,-0.529660165309906,-0.579012930393219
1783201490538213600,5.212213623046875,-1.352772014913708,-0.2171940134212374,-0.5148457113921642,0.0870463624596595,-0.3981609940528869,-0.6276531219482422
1783201490548150800,5.22215087890625,-1.454795342322439,-0.2190051544964313,-0.7770587239742278,0.128207579255104,-0.2857061922550201,-0.6768273711204529
1783201490558088000,5.232087890625,-1.5688064830362796,-0.161373341999948,-0.750834733915329,0.1644529402256012,-0.22132508456707,-0.7208539247512817
1783201490568024600,5.242024658203125,-1.5449996371217072,-0.2068792478948831,-0.7004822647720574,0.1672458499670028,-0.3119264841079712,-0.757262110710144
1783201490577961700,5.251961669921875,-1.2846005420938134,-0.2771329338163137,-0.8512485803008079,0.1466233879327774,-0.4793556928634643,-0.7697038650512695
1783201490587898600,5.261898681640625,-1.068104593939334,-0.2832973016649484,-0.9447826040446756,0.1263221800327301,-0.6254203915596008,-0.7699030637741089
1783201490597835800,5.271835693359375,-0.9982303357895465,-0.2956058713570237,-0.9973843134194612,0.1309888362884521,-0.6769158244132996,-0.763757586479187
1783201490607773000,5.28177294921875,-1.0993456084426492,-0.2496732644826173,-1.0055991840571163,0.1406497955322265,-0.6677977442741394,-0.7551906704902649
1783201490617709600,5.29170947265625,-1.256710080127418,-0.2154913011565804,-1.086345622420311,0.1701608151197433,-0.6395972371101379,-0.7315428256988525
1783201490627646700,5.301646728515625,-1.443581728260219,-0.2421656653314828,-1.1010504395991565,0.2034540772438049,-0.5682145953178406,-0.7004996538162231
1783201490637583600,5.31158349609375,-1.6628908341392874,-0.2300423890784382,-1.0016881480932236,0.2593730092048645,-0.4806013405323028,-0.664055585861206
1783201490647520800,5.321520751953125,-1.870770052856952,-0.2158092810645699,-0.8705448169231415,0.3386447727680206,-0.4041101038455963,-0.6340506076812744
1783201490657458000,5.3314580078125,-2.052230343465507,-0.2280605676114559,-0.6399310576975346,0.4230547249317169,-0.3639839887619018,-0.6240182518959045
1783201490667394600,5.34139453125,-2.176172657215595,-0.2417185060858726,-0.3813005797773599,0.5174450278282166,-0.3718731105327606,-0.6390979886054993
1783201490677331700,5.351331787109375,-2.141331353197992,-0.2581885793715715,-0.1046861168771982,0.5978610515594482,-0.4183529913425445,-0.6731105446815491
1783201490687268600,5.3612685546875,-1.9875173405364157,-0.2377227144479751,0.170690913182497,0.662523090839386,-0.5007553696632385,-0.7224556803703308
1783201490697205800,5.371205810546875,-1.767891423793137,-0.1606055724978446,0.4321376175671815,0.6994885802268982,-0.5939763784408569,-0.7694559097290039
1783201490707143000,5.381142822265625,-1.5009556204728782,-0.0689016867905855,0.7283359018594027,0.7112849354743958,-0.6726557016372681,-0.8011000752449036
1783201490717079600,5.39107958984375,-1.2205055249325931,0.0113066991731524,1.0017869322925803,0.6847217679023743,-0.7443008422851562,-0.8178265690803528
1783201490727016700,5.4010166015625,-0.9402012676037848,0.1381815592437982,1.2551894464313984,0.6354696750640869,-0.8086271286010742,-0.8292679190635681
1783201490736953900,5.410953857421875,-0.7135285741541534,0.3297340586692094,1.4887199698865412,0.5523369908332825,-0.8660134673118591,-0.8383309245109558
1783201490746891800,5.420891845703125,-0.5057162101276219,0.5086722834542393,1.65196641228199,0.4622893631458282,-0.9242340326309204,-0.8447104096412659
1783201490756828700,5.43082861328125,-0.3725874042287468,0.7015604153975844,1.6874550742924213,0.3688733875751495,-1.0000511407852173,-0.8578214049339294
1783201490766765800,5.440765869140625,-0.5030718330986798,0.950358650611341,1.6074854655206203,0.2989543676376343,-1.0246564149856567,-0.868276834487915
1783201490776702700,5.45070263671875,-0.7580103976983577,1.157858953014016,1.6566244672209025,0.2669476866722107,-0.9537506699562072,-0.8839977383613586
1783201490786639600,5.4606396484375,-0.8229428155317902,1.319909171362221,1.729686780822277,0.2837147712707519,-0.8565090298652649,-0.8879169225692749
1783201490796576800,5.47057666015625,-0.5810246221553534,1.435312497086823,1.777466184607148,0.3331092000007629,-0.7902088761329651,-0.8625942468643188
1783201490806513700,5.480513671875,-0.225293221789971,1.5116130619570611,1.824911826393008,0.3872579038143158,-0.777556300163269,-0.812153160572052
1783201490816450800,5.490450927734375,0.1224563129760324,1.5573475159108638,1.9120406592696904,0.4123510122299194,-0.8121622204780579,-0.7433850169181824
1783201490826387700,5.5003876953125,0.3427490230649709,1.6550857133463024,2.0690198579639194,0.359752893447876,-0.8917670249938965,-0.6905694007873535
1783201490836324600,5.51032470703125,0.456970299398154,1.7293918895289302,2.183262323215604,0.2194802016019821,-1.0172624588012695,-0.6618373394012451
1783201490846261800,5.52026171875,0.6077054891362786,1.5909610316991805,2.1509213115811345,0.0108872605487704,-1.1437550783157349,-0.6463693976402283
1783201490856199000,5.530198974609375,0.8260546639420092,1.276124682432413,1.971248050519824,-0.2199733853340149,-1.2711817026138306,-0.640937089920044
1783201490866135800,5.5401357421875,0.9939571154497564,0.9934987041577696,1.4977870734393597,-0.4285470843315124,-1.3891693353652954,-0.6568137407302856
1783201490876072700,5.55007275390625,1.0789004209809006,0.8666942789748311,0.8125970703452825,-0.5685547590255737,-1.4835094213485718,-0.677181601524353
1783201490886009600,5.560009521484375,1.2197954769670962,0.7538029360711574,0.0004600187271833,-0.6267627477645874,-1.4470340013504028,-0.6758456826210022
1783201490895946800,5.56994677734375,1.109012796780467,0.5840495959997177,-0.5254600443869829,-0.6415358185768127,-1.3919109106063845,-0.644250214099884
1783201490905884000,5.5798837890625,1.0211192631416022,0.3921729791864752,-1.369438341423869,-0.6131938099861145,-1.3187087774276731,-0.6005891561508179
1783201490915820800,5.58982080078125,0.9878846636682748,0.1118412493288517,-2.049314456018805,-0.5289870500564575,-1.1729995012283323,-0.5389574766159058
1783201490925757700,5.5997578125,0.989396821796894,-0.2499544195115566,-2.4401620318204165,-0.4179168045520782,-0.9879415035247804,-0.5028675198554993
1783201490935694600,5.609694580078125,0.8694494229018688,-0.5801046577662229,-2.687286780864,-0.3165893852710724,-0.8523479700088501,-0.5153665542602539
1783201490945631700,5.6196318359375,0.786874015545845,-0.843984142255783,-2.833585595589876,-0.2151669561862945,-0.7703863978385925,-0.5755321979522705
1783201490955569000,5.62956884765625,0.9238856542274356,-1.202149345639348,-2.9581314281910656,-0.113154835999012,-0.816735029220581,-0.692054271697998
1783201490965505800,5.639505859375,1.1610052882157265,-1.530977687640488,-3.420869935727119,0.0064246770925819,-0.9474986791610718,-0.8543031215667725
1783201490975442700,5.649442626953125,1.1406816082417963,-1.635108508722484,-3.7234985453277822,0.1074756607413292,-1.027950644493103,-1.0000603199005127
1783201490985379600,5.659379638671875,1.0646361871764063,-1.6199951107427475,-3.814765208661556,0.1687343120574951,-1.0329889059066772,-1.1116106510162354
1783201490995316700,5.669316650390625,0.8702106165327131,-1.4385972178459168,-3.850000188171864,0.1989023387432098,-0.9757958054542542,-1.2177541255950928
1783201491005254000,5.67925390625,0.5070201323330402,-1.107610236506164,-3.882676130849122,0.2325245141983032,-0.76987624168396,-1.2560542821884155
1783201491015190800,5.689190673828125,0.5464790131486952,-0.7122530743256211,-3.6526726124763487,0.273143857717514,-0.5211513638496399,-1.2773345708847046
1783201491025129000,5.69912890625,0.2206806864932179,0.179818222489953,-3.4207927788376806,0.3121190667152405,-0.2847663462162018,-1.3618793487548828
1783201491035065600,5.709065673828125,-0.3058130848556756,0.718361035811901,-3.139928841799497,0.3836966156959533,-0.0729100257158279,-1.4065847396850586
1783201491045002800,5.719002685546875,-0.2365994095064699,0.6268412744998931,-2.750997328752279,0.4836666882038116,0.083166055381298,-1.3331092596054075
1783201491054939600,5.728939697265625,-0.0053135962381958,0.4747685525476932,-2.2485528337717056,0.5943418145179749,0.128648042678833,-1.2094621658325195
1783201491064876800,5.738876708984375,-0.0164256496220827,0.7026064173191785,-1.7220780593842266,0.7401438355445862,0.0857764407992363,-1.09382963180542
1783201491074814000,5.74881396484375,-0.0729252432182431,0.8988841917008161,-1.059345971813798,0.906402349472046,-0.0300713274627923,-0.9851827025413512
1783201491084750600,5.75875048828125,-0.1448544611364603,0.9379407753258944,-0.447938997811079,1.067180633544922,-0.1785971820354461,-0.8972293734550476
1783201491094687700,5.768687744140625,-0.2018050133705139,1.026726727759838,0.2153887175649404,1.2081382274627686,-0.3271451294422149,-0.8404529094696045
1783201491104624600,5.778624755859375,-0.3391337551772594,1.2295271819084883,0.818107358199358,1.3025239706039429,-0.415457934141159,-0.793887734413147
1783201491114561800,5.788561767578125,-0.29320217121616,1.401139886111021,1.5399240874230862,1.3413379192352295,-0.3613353073596954,-0.7587811350822449
1783201491124499000,5.7984990234375,0.2017215728707611,1.441143395197391,2.2661527878701686,1.3212530612945557,-0.3452171385288238,-0.6855027079582214
1783201491134435600,5.808435546875,0.0900410670615732,1.490263107675314,2.460775780782104,1.1825486421585083,-0.4116337299346924,-0.6295214891433716
1783201491144372700,5.818372802734375,-0.0960517056532204,1.9645728105396032,2.782844419389963,0.9419580101966858,-0.3582140505313873,-0.5634311437606812
1783201491154309600,5.8283095703125,0.3664168989002704,1.639813617673516,3.4351533126235005,0.6598538756370544,-0.1748189330101013,-0.4223464131355285
1783201491164246800,5.838246826171875,0.7948080234155058,1.551328694012761,3.512352872160077,0.3939763009548187,-0.0673805922269821,-0.340544193983078
1783201491174184000,5.848183837890625,0.9021179129250348,2.14529704195857,2.9771418336093425,0.2910363376140594,-0.2192281782627105,-0.3115207850933075
1783201491184120600,5.85812060546875,0.8994371494084596,2.206934290704131,1.398594293281436,0.4070412218570709,-0.5449168086051941,-0.3082192242145538
1783201491194057700,5.8680576171875,1.0549867536909878,2.0193045176804065,0.4237520665377378,0.5493573546409607,-0.7452123761177063,-0.3216996192932129
1783201491203994600,5.87799462890625,1.317652186215669,1.99984578397274,0.6371954952538013,0.5917578935623169,-0.8378382325172424,-0.3454516232013702
1783201491213931800,5.887931884765625,1.4734662866532802,2.001455557256937,0.7697615527033805,0.5275275111198425,-0.8821686506271362,-0.3837825059890747
1783201491223869000,5.897868896484375,1.5197366010494529,1.9552923564970488,0.6338432622164487,0.3736231327056885,-0.903384804725647,-0.4162436723709106
1783201491233805600,5.9078056640625,1.7200151355050504,1.6062708290338514,0.4616033660262822,0.1984137594699859,-0.8677173256874084,-0.4037553071975708
1783201491243742700,5.91774267578125,2.119386501763016,1.008606549179554,0.1727671349346637,0.0455848239362239,-0.7377206087112427,-0.385487824678421
1783201491253679600,5.9276796875,2.188329251216352,0.8938029429137706,-0.1905705026507377,-0.1219841986894607,-0.607374370098114,-0.4036271572113037
1783201491263616500,5.937616455078125,1.9976007815249264,1.0960124454319475,-0.5367974309593438,-0.3052370846271515,-0.4798872768878937,-0.4422021508216858
1783201491273554700,5.9475546875,1.8646297965362664,1.0561346085518597,-0.7991220872223377,-0.5121175646781921,-0.3078454732894897,-0.4678987264633178
1783201491283491300,5.9574912109375,1.982394882956147,0.8261942185431719,-0.9775450559616088,-0.6965158581733704,-0.2074348330497741,-0.4789081513881683
1783201491293428500,5.967428466796875,2.16643349962011,0.7013660618692636,-1.4821516974121332,-0.8220990896224976,-0.1251338422298431,-0.4759552478790283
1783201491303365400,5.977365478515625,2.2716154371902344,0.6400163978934288,-1.8658868108600375,-0.8887386918067932,-0.0606491789221763,-0.4392707049846649
1783201491313302500,5.987302490234375,2.285343956682831,0.660458297419548,-2.154811889278889,-0.9210055470466614,-0.0308539997786283,-0.3516370058059692
1783201491323239700,5.99723974609375,2.259562888085842,0.6639584144949913,-2.380055061382055,-0.9030832052230836,-0.0388150438666343,-0.2198873162269592
1783201491333176300,6.00717626953125,2.17032086244747,0.6392237862110137,-2.5656524517953394,-0.8669219613075256,-0.0516722537577152,-0.0717961117625236
1783201491343113500,6.017113525390625,1.9055122804142532,0.6695020200967788,-2.529554133453965,-0.8345493674278259,-0.0758070275187492,0.0522937774658203
1783201491353050400,6.02705029296875,1.507188231252134,0.6972533658534288,-2.533764444625377,-0.7690121531486511,-0.0893169790506362,0.1268548369407653
1783201491362987500,6.036987548828125,1.1695483678944407,0.7590455128997564,-2.526999188274145,-0.6768885850906372,-0.0677821859717369,0.1521007567644119
1783201491372924700,6.046924560546875,0.8997777795396744,0.8447083648771047,-2.382977670830488,-0.6117508411407471,-0.0156079307198524,0.1511209905147552
1783201491382861300,6.056861328125,0.749276544687897,0.8260515952020883,-2.213773781335353,-0.5717373490333557,0.0198323223739862,0.1596922129392624
1783201491392798500,6.066798583984375,0.656686231534928,0.5849035824805497,-2.268541144311428,-0.5272090435028076,0.066219262778759,0.1823786050081253
1783201491402735400,6.0767353515625,0.4990107211396097,0.3549830662161111,-2.3746587552964686,-0.4500989019870758,0.1952131390571594,0.195042073726654
1783201491412672500,6.086672607421875,0.1984432818524539,0.2976987519830465,-2.2678350418686866,-0.3477525413036346,0.3440375030040741,0.1869745850563049
1783201491422609700,6.096609619140625,0.0661912587881088,0.2863023286998272,-2.2930887255907058,-0.3158234357833862,0.4315070509910583,0.1654680520296096
1783201491432546300,6.10654638671875,0.3132438193783163,0.4076987573593855,-1.6473603797912597,-0.4321841299533844,0.4855750799179077,0.1666656732559204
1783201491442483500,6.1164833984375,0.6188134508669376,0.4547492623478174,-0.8632984990566969,-0.5296781063079834,0.5472263097763062,0.1619053930044174
1783201491452420400,6.12642041015625,0.6702138216279446,0.4666828612476587,-0.8375655073851347,-0.540316641330719,0.5978662967681885,0.1495081037282943
1783201491462357500,6.136357421875,0.6620233547791838,0.5185515801727771,-1.0584925698548555,-0.4747372269630432,0.6167126297950745,0.1405486315488815
1783201491472294700,6.146294677734375,0.5895717204220593,0.5120400063216686,-1.3093769636929034,-0.3514512479305267,0.6300590634346008,0.1503687649965286
1783201491482231300,6.156231201171875,0.476071597970277,0.4336965374469756,-1.44480133318305,-0.1873735040426254,0.6703718900680542,0.1763878166675567
1783201491492168400,6.16616845703125,0.3514689206153154,0.4148977289527654,-1.3954226775079963,-0.0024044513702392,0.742938756942749,0.1957122534513473
1783201491502105600,6.176105712890625,0.3155409904047846,0.4923001175850629,-1.1969582067370417,0.183372676372528,0.8083907961845398,0.2166583836078643
1783201491512042500,6.18604248046875,0.4722504322469234,0.5409498744636774,-0.9766577517330646,0.3309914171695709,0.7989197969436646,0.2346011698246002
1783201491521979600,6.195979736328125,0.7293639297328889,0.5139110608905554,-0.765461809682846,0.4482813477516174,0.7231269478797913,0.2796105444431305
1783201491531916300,6.205916259765625,0.9775864108853042,0.4728735325813293,-0.5680073927372694,0.531461238861084,0.6280113458633423,0.3420795202255249
1783201491541853400,6.215853515625,1.083655944944918,0.4236462680757045,-0.3740484166920185,0.5894961357116699,0.5319506525993347,0.4191185534000397
1783201491551790600,6.22579052734375,1.171609538207948,0.4209638971239328,-0.1840314562708139,0.6414309740066528,0.4936770498752594,0.5367559790611267
1783201491561727500,6.2357275390625,1.2713434395052492,0.3630079672396182,0.0554208584487438,0.6624646782875061,0.4560291469097137,0.6702529788017273
1783201491571664600,6.24566455078125,1.1849584107331932,0.3772860834389925,0.1870546034842729,0.6596406698226929,0.4194506108760834,0.8053207993507385
1783201491581601300,6.255601318359375,1.0833094695948065,0.4090864123255014,0.4016097928345203,0.6381152868270874,0.3824355006217956,0.9147968888282776
1783201491591538400,6.265538330078125,0.8408727322369813,0.3387146529823541,0.5753355436682701,0.5975788235664368,0.3389351665973663,0.987760603427887
1783201491601475600,6.2754755859375,0.4935027713730931,0.3179378224134445,0.7176689618945121,0.5390322804450989,0.3184506297111511,1.0049653053283691
1783201491611412500,6.28541259765625,0.1363438224226236,0.3672036653637885,0.835423819181323,0.4842406809329986,0.3410763144493103,0.9763312935829164
1783201491621349600,6.295349609375,-0.1494219151824712,0.3322024946093559,0.8973919073164462,0.4378989338874817,0.3974097073078155,0.911805272102356
1783201491631286300,6.305286376953125,-0.2818409653767943,0.3202712337970733,0.9781786776900292,0.3952252268791199,0.4534202516078949,0.8259356617927551
1783201491641223400,6.315223388671875,-0.288075329721719,0.3645587038129568,1.0862158585608004,0.3432835638523102,0.4984065592288971,0.7442627549171448
1783201491651160600,6.32516064453125,-0.190314482063055,0.3778267661869525,1.262109601083398,0.2688561975955963,0.5191054344177246,0.6862386465072632
1783201491661097500,6.335097412109375,-0.0767138218462467,0.4136865995973348,1.406430978256464,0.14594566822052,0.4992104768753052,0.6444305777549744
1783201491671034600,6.34503466796875,-0.000303951382637,0.4799631985813379,1.574293974536657,-0.0382127203047275,0.4723351597785949,0.6269159913063049
1783201491680972500,6.35497265625,0.1088672019541263,0.4663730646461248,1.6875865917176007,-0.2442420870065689,0.4230643510818481,0.6406978964805603
1783201491690908400,6.364908447265625,0.2374951893024146,0.3444149104505777,1.503914616408944,-0.4309304654598236,0.3448033630847931,0.6921682357788086
1783201491700845600,6.374845458984375,0.2937456304430961,0.1535936479091644,1.140704989117384,-0.5753107666969299,0.276851087808609,0.7581228017807007
1783201491710782500,6.384782470703125,0.3129555039562284,0.0058878889948129,0.7073088959217071,-0.6330488920211792,0.1858215779066085,0.8231881260871887
1783201491720720600,6.394720703125,0.2708129370145499,-0.1584697295129299,0.0826923117339611,-0.6146933436393738,0.0725787952542305,0.8671905398368835
1783201491730657500,6.404657470703125,0.033112142137438,-0.259748668295145,-0.5101636910557746,-0.5269427299499512,-0.0112394066527485,0.8830081224441528
1783201491740593400,6.414593505859375,-0.2816274687565863,-0.28609190081954,-0.909229644626379,-0.3914704322814941,-0.0281670466065406,0.8778356313705444
1783201491750531300,6.42453125,-0.6462322036683559,-0.2761743179172277,-1.175433188149333,-0.2287899106740951,0.0219611041247844,0.8482763767242432
1783201491760468500,6.434468505859375,-0.9604701486505568,-0.2162356897830963,-1.2501906152307989,-0.0710218176245689,0.1328165680170059,0.7888501882553101
1783201491770405600,6.444405517578125,-1.0161126870259642,-0.2030921305716037,-1.294748718881607,0.0614366270601749,0.2023130804300308,0.7349236011505127
1783201491780342500,6.454342529296875,-0.8494871235862373,-0.322735578083992,-1.5121984606295824,0.1738243550062179,0.2212152779102325,0.6907612681388855
1783201491790279400,6.464279541015625,-0.682314447657764,-0.3947714712470769,-1.5940601667582988,0.2487127184867859,0.239021435379982,0.6545646786689758
1783201491800216300,6.47421630859375,-0.6342804845899344,-0.3991588925510644,-1.4596499427467584,0.2961215674877167,0.2725005447864532,0.6176276206970215
1783201491810153500,6.484153564453125,-0.6494121488787233,-0.4496031316310167,-1.3376765909820794,0.3217744529247284,0.3297151029109955,0.5849863290786743
1783201491820089600,6.494089599609375,-0.7000636009685695,-0.4606313061237335,-1.216989187374711,0.3182793259620666,0.4024688303470611,0.5239450335502625
1783201491830026500,6.504026611328125,-0.8171266765989362,-0.3848527193009853,-1.0646791495352983,0.2939513325691223,0.4924021661281585,0.4350508749485016
1783201491839964400,6.51396435546875,-0.905882087764144,-0.3190016522526741,-0.8873486522078513,0.245297834277153,0.5796196460723877,0.3388730883598327
1783201491849900500,6.523900634765625,-0.8835171112209558,-0.3043815907478332,-0.7559785265445709,0.187339186668396,0.6442135572433472,0.2414038032293319
1783201491859837400,6.53383740234375,-0.7793795681372284,-0.2787988212019205,-0.6326636970430612,0.1430739313364029,0.6801942586898804,0.1640139371156692
1783201491869774600,6.543774658203125,-0.6550144989304244,-0.2008966663539409,-0.6142857443094253,0.1202493011951446,0.7001818418502808,0.1036754846572876
1783201491879711500,6.55371142578125,-0.5148188233852387,-0.0797796391576528,-0.5450117170751094,0.1151323914527893,0.7119815349578857,0.066621296107769
1783201491889648400,6.5636484375,-0.3348050783231854,0.0204296245664358,-0.5338444263726473,0.136729285120964,0.6960704326629639,0.0523643307387828
1783201491899585500,6.57358544921875,-0.1611741661660373,0.1168809970617294,-0.5132856224685907,0.1824923306703567,0.6814457178115845,0.0671218261122703
1783201491909522400,6.5835224609375,-0.0249580617763102,0.1973240685641765,-0.409788423115015,0.2503211796283722,0.6644566655158997,0.11123788356781
1783201491919459600,6.59345947265625,0.0797113962270319,0.3042453971475362,-0.2592360425978899,0.3255632519721985,0.6442962288856506,0.170489877462387
1783201491929396500,6.603396484375,0.1450010300002992,0.3940630307167768,-0.058762570092082,0.388170450925827,0.615585446357727,0.2389200776815414
1783201491939333400,6.61333349609375,0.124295072710514,0.4588946915894746,0.184553434318304,0.4204213619232178,0.5787045359611511,0.3033410906791687
1783201491949270500,6.6232705078125,0.0389748966909945,0.451402290007472,0.3124976771861315,0.4287897944450378,0.533358633518219,0.3548921644687652
1783201491959207400,6.63320751953125,-0.0962779156245291,0.3699620241612196,0.3535924886405467,0.4403214454650879,0.5410520434379578,0.3831241726875305
1783201491969144600,6.64314453125,-0.2701761004157364,0.3171720987379551,0.4516442820698023,0.4634009301662445,0.5834596753120422,0.3838975429534912
1783201491979081500,6.65308154296875,-0.4055098690129816,0.3641699967563152,0.6034598143905401,0.4729896783828735,0.6184984445571899,0.3564864099025726
1783201491989018400,6.663018310546875,-0.4870885204166174,0.4114905508577823,0.817150495865941,0.4640278816223144,0.6394767165184021,0.3244453966617584
1783201491998955500,6.67295556640625,-0.4647309965275227,0.3842085761785507,1.0619126074314116,0.4036257266998291,0.6241956949234009,0.2872746884822845
1783201492008892400,6.682892333984375,-0.487050964885205,0.4067512473762035,1.2129618315547703,0.3100829720497131,0.6214033961296082,0.2634500563144684
1783201492018829600,6.69282958984375,-0.3119764297910034,0.2910328643530607,1.385673436909914,0.197776660323143,0.6200786232948303,0.2676941156387329
1783201492028766500,6.702766357421875,-0.2449278235211968,0.2591279060482979,1.475894975104928,0.0879367142915725,0.6133109927177429,0.2839023768901825
1783201492038703400,6.712703369140625,-0.1472049697853624,0.3492997598826885,1.4929121608793734,-0.0046115415170788,0.5888218283653259,0.3045756220817566
1783201492048640500,6.722640625,-0.1369432496204972,0.391330390882492,1.3669126223385333,-0.0585679821670055,0.5616280436515808,0.3312607407569885
1783201492058577700,6.73257763671875,-0.1315958972431719,0.3481026590526104,1.1843512386202812,-0.0739895775914192,0.538566529750824,0.3605523705482483
1783201492068514600,6.7425146484375,-0.1302469668522477,0.2921148143708705,1.0394184515506029,-0.0870167016983032,0.4803437292575836,0.3904058635234833
1783201492078451500,6.752451416015625,-0.1490051510751247,0.1819961510509252,0.8799433443874121,-0.0771073698997497,0.4098724126815796,0.4171688258647918
1783201492088388400,6.762388427734375,-0.1356787095773965,0.0913712927520275,0.8065402545243501,-0.052500020712614,0.3471296429634094,0.4482337832450866
1783201492098325500,6.772325439453125,-0.1626381743039935,0.0672270315766334,0.7462585120409727,-0.0201829690486192,0.2804977297782898,0.4667196869850158
1783201492108262700,6.7822626953125,-0.21473909454979,0.0463373882830142,0.664156567415595,0.0105637591332197,0.219887375831604,0.4828318059444427
1783201492118199600,6.792199462890625,-0.2213965796776116,-0.0108323596596717,0.6299041692018509,0.0380008481442928,0.1859684735536575,0.5049564838409424
1783201492128136400,6.802136474609375,-0.2215684291131794,-0.0215536601603031,0.6330430517494678,0.0645445734262466,0.1505553573369979,0.527924656867981
1783201492138073300,6.8120732421875,-0.2622483761563897,0.0318406608968973,0.6168810214996338,0.0957756116986274,0.1040410250425338,0.5573744773864746
1783201492148010500,6.822010498046875,-0.1513181041926145,-0.0156242701113224,0.5683890855312347,0.1053811013698577,0.0477071739733219,0.5936381816864014
1783201492157947600,6.83194775390625,-0.1025806690305471,-0.1598527083039283,0.5176116689741611,0.0795570537447929,-0.030889693647623,0.619606614112854
1783201492167884500,6.841884521484375,-0.1592905443765223,-0.224084065195918,0.3928273514419794,0.0164433326572179,-0.1097906380891799,0.6201416254043579
1783201492177821400,6.851821533203125,-0.3021196371652185,-0.3171872963070869,0.2565770525217056,-0.0801969394087791,-0.1822491139173507,0.6126999855041504
1783201492187758300,6.86175830078125,-0.431996017139405,-0.5269359621584415,0.0113046533465385,-0.1994777917861938,-0.2347602546215057,0.5829985737800598
1783201492197695500,6.871695556640625,-0.5568607064314186,-0.7241828738331795,-0.2860270188897848,-0.3065395951271057,-0.2560824453830719,0.5295290350914001
1783201492207632600,6.881632568359375,-0.6723445500463247,-0.8795183969736099,-0.7231704819202422,-0.3711881041526794,-0.2240054756402969,0.4531893134117126
1783201492217569500,6.891569580078125,-0.7841656333699822,-0.9429162256509064,-1.1772452060073613,-0.3603668808937073,-0.1157065331935882,0.3536522984504699
1783201492227506400,6.90150634765625,-0.9161464382775129,-0.8735223714292049,-1.575564140602946,-0.2729084193706512,0.0571637786924839,0.2483924627304077
1783201492237443300,6.911443359375,-0.9900479791820048,-0.8404384324729443,-1.8662422001689671,-0.142108142375946,0.245074987411499,0.1495996564626693
1783201492247380500,6.92138037109375,-1.0271839700080454,-0.8342559444457293,-1.986653124922514,0.0170399583876132,0.3962312042713165,0.056473184376955
1783201492257316600,6.931316650390625,-0.9452740408234298,-0.7665086883872747,-1.9732634819954635,0.1669574677944183,0.4854934215545654,-0.0214441604912281
1783201492267253800,6.941253662109375,-0.7474262406460941,-0.6917348946928977,-1.7920634497582912,0.2953018546104431,0.5227275490760803,-0.0729691311717033
1783201492277190700,6.951190673828125,-0.5046110253646969,-0.6053337915688752,-1.5068834030866622,0.3951243460178375,0.5255396962165833,-0.0854162648320198
1783201492287127800,6.9611279296875,-0.3494470593988895,-0.4929460142731666,-1.1602958247721191,0.466623306274414,0.5050359964370728,-0.090479202568531
1783201492297064400,6.971064453125,-0.2188625311553478,-0.3010164982289076,-0.8163643139243125,0.5193496346473694,0.490545392036438,-0.0670242011547088
1783201492307001600,6.981001708984375,-0.0834264712274074,-0.2560182495951652,-0.5183078345447778,0.5545781850814819,0.4660994410514831,-0.0307335760444402
1783201492316938800,6.990938720703125,-0.1087339309632778,-0.1306757136583328,-0.2622539291143417,0.5627323985099792,0.4474356770515442,-0.0020282506011426
1783201492326875600,7.000875732421875,-0.1563873702809214,0.006857610809803,0.0819546451091766,0.542284369468689,0.4351997971534729,0.0069695054553449
1783201492336812800,7.010812744140625,-0.2166089070096611,0.0893307268351316,0.3346557329803705,0.5063740015029907,0.4248781204223633,0.0026130634360015
1783201492346749400,7.02074951171875,-0.2273447474922984,0.1436976923167705,0.5154904390364885,0.4660023748874664,0.4300033748149872,-0.0159859210252761
1783201492356686600,7.0306865234375,-0.2458516603678464,0.2208393841862678,0.7211924598455428,0.4360584914684295,0.4370748698711395,-0.0389542207121849
1783201492366623700,7.040623779296875,-0.233356555127725,0.333420053705573,0.9104653239011764,0.4042869806289673,0.4451780617237091,-0.0557758137583732
1783201492376560600,7.050560546875,-0.26323621814996,0.4461468536972999,1.1240846937060356,0.3637432754039764,0.4404926002025604,-0.0689781680703163
1783201492386497800,7.060497802734375,-0.3114615390714257,0.5445429305195808,1.3621411701530215,0.3198895156383514,0.4431166052818298,-0.0684061199426651
1783201492396434400,7.070434326171875,-0.3234590700529515,0.5424006577938795,1.6448609641909595,0.2663367092609405,0.4184669256210327,-0.059223499149084
1783201492406371600,7.08037158203125,-0.3242714824143797,0.5538718998789787,1.8675041829288004,0.2138157337903976,0.3698274791240692,-0.0378862507641315
1783201492416308700,7.090308837890625,-0.2782328578822314,0.5406961919635535,2.071577141231298,0.1603966355323791,0.3052736222743988,-0.0062056835740804
1783201492426245600,7.10024560546875,-0.2267381599012762,0.5036310744166373,2.219939318227768,0.1154355406761169,0.2167067527770996,0.0378078483045101
1783201492436182800,7.110182861328125,-0.1953632168199867,0.5061544554144144,2.35009480740428,0.0755320265889167,0.1225870102643966,0.0962420776486396
1783201492446118700,7.12011865234375,-0.1858228697322309,0.5355734421223401,2.512660866320133,0.0296180620789527,0.0206420011818408,0.1640248447656631
1783201492456055600,7.1300556640625,-0.2102832111194729,0.5429588761985301,2.6507828043311834,-0.0441197864711284,-0.1116178408265113,0.2381898909807205
1783201492465992700,7.13999267578125,-0.2330485120918601,0.4728010518670081,2.730572380360961,-0.1350467652082443,-0.2635479867458343,0.3123650550842285
1783201492475929900,7.149929931640625,-0.283869694725424,0.3986638025104999,2.7596505908071998,-0.2389653325080871,-0.4175365269184112,0.3769447207450866
1783201492485866500,7.159866455078125,-0.4086019167441874,0.3087017920345067,2.710278949394822,-0.362025499343872,-0.5880925059318542,0.4063164591789245
1783201492495803600,7.1698037109375,-0.6584012918245047,0.1881780545562505,2.523815882062912,-0.5016127228736877,-0.7409529685974121,0.3914417624473572
1783201492505740500,7.179740478515625,-0.8725850905790925,0.0650035103082656,2.33278536068499,-0.644743025302887,-0.8391434550285339,0.3456702828407287
1783201492515677700,7.189677734375,-1.0687960833348331,-0.0809668031156063,2.091850113931298,-0.7862406969070435,-0.8628799319267273,0.2651415467262268
1783201492525614800,7.19961474609375,-1.262540101455152,-0.2013432410776615,1.805105886682868,-0.9309161305427552,-0.8417608141899109,0.1593887358903885
1783201492535551500,7.209551513671875,-1.3233126961953938,-0.3050941229313612,1.4040630800813436,-1.0511319637298584,-0.8136501312255859,0.0559586621820926
1783201492545488600,7.219488525390625,-1.2248062908664346,-0.4545984557002782,0.8356547053277492,-1.122895359992981,-0.778525173664093,-0.0385207049548625
1783201492555425500,7.229425537109375,-1.0375576261147856,-0.5805342813551425,0.290944601547718,-1.1440869569778442,-0.7208390831947327,-0.0947852730751037
1783201492565362700,7.23936279296875,-0.9130620623961092,-0.637733255392313,-0.11471651250422,-1.125171422958374,-0.6660722494125366,-0.1050118133425712
1783201492575299800,7.2492998046875,-0.8110000104121864,-0.7085434061527252,-0.4881570264309644,-1.0855656862258911,-0.6326889991760254,-0.0762185081839561
1783201492585236500,7.259236572265625,-0.7741454668760299,-0.8168833693623543,-0.7816852147310972,-1.029634952545166,-0.6039393544197083,-0.0362449958920478
1783201492595172600,7.269172607421875,-0.851698808286339,-0.9607400516331196,-1.008979474145174,-0.9645118713378906,-0.5640220642089844,-0.0037275315262377
1783201492605109800,7.27910986328125,-0.9918449456013738,-1.1733142962992191,-1.166592294567823,-0.908511757850647,-0.5007922053337097,-0.0065864352509379
1783201492615046700,7.289046630859375,-1.249336921010911,-1.3727946661144494,-1.2746791597992182,-0.8757339715957642,-0.4326151609420776,-0.0571770444512367
1783201492624983600,7.298983642578125,-1.6419816093623638,-1.489578632542491,-1.33836574229002,-0.8786051273345947,-0.3466589748859405,-0.1514292508363723
1783201492634920700,7.308920654296875,-1.970072576999664,-1.5643196930110457,-1.4124217431038617,-0.8853014707565308,-0.2456000447273254,-0.2835476100444793
1783201492644857600,7.318857666015625,-2.1479598314270376,-1.5521686519682407,-1.466359084996581,-0.8802494406700134,-0.1526237577199936,-0.4365898966789245
1783201492654794800,7.328794677734375,-2.207411845088005,-1.4876754292696714,-1.601428065177798,-0.830923318862915,-0.0672400072216987,-0.5971464514732361
1783201492664731600,7.338731689453125,-2.114372034601867,-1.3691297138661145,-1.7661369813412426,-0.7212178707122803,-0.0108646154403686,-0.7415481209754944
1783201492674668500,7.34866845703125,-1.8799053993403911,-1.1614201526269317,-1.933310241791606,-0.5672498941421509,0.0245874039828777,-0.8603515625
1783201492684605700,7.358605712890625,-1.5960468105308712,-0.9130521255239844,-1.9771844548314808,-0.3859216868877411,0.0659889057278633,-0.9350907802581788
1783201492694542600,7.36854248046875,-1.352971629139036,-0.6772457660913467,-1.8300497738033528,-0.2090373635292053,0.1127494275569915,-0.995396077632904
1783201492704479700,7.378479736328125,-1.2254910582602023,-0.405411230944097,-1.5385171432346103,-0.054676815867424,0.1574505716562271,-1.0345852375030518
1783201492714416600,7.388416748046875,-0.8240265191152691,-0.3090045743733644,-1.191041676169634,0.0612854659557342,0.1463823020458221,-1.0132994651794434
1783201492724353500,7.398353515625,-0.5873579898953437,-0.3343538274243474,-0.8973287789523601,0.1384670734405517,0.0862894058227539,-0.9655327796936036
1783201492734289700,7.40828955078125,-0.4155276974193752,-0.19079934297055,-0.581449058112502,0.2074118852615356,0.0301027372479438,-0.9084560871124268
1783201492744226800,7.418226806640625,-0.2557626673988998,-0.0685749390542507,-0.2425274843811988,0.2699237465858459,-0.0298194549977779,-0.8419665098190308
1783201492754163700,7.428163818359375,-0.161767748145014,-0.0052995677128434,-0.0114531219065189,0.3312029242515564,-0.0767122656106948,-0.7791839241981506
1783201492764100600,7.4381005859375,-0.1487168356530368,0.1368441731601953,0.2982166383773088,0.3948023915290832,-0.1093639507889747,-0.7377398014068604
1783201492774037500,7.44803759765625,-0.1874471099331975,0.3239157277792692,0.6701777274012565,0.4513119757175445,-0.1191611588001251,-0.7080540060997009
1783201492783974700,7.457974609375,-0.1982652949370443,0.50478258253932,1.0633242277950048,0.4905890822410583,-0.128342404961586,-0.6873884201049805
1783201492793911800,7.467911865234375,-0.1554706938274204,0.6591781944811343,1.4369471125513311,0.5173197388648987,-0.132585272192955,-0.6555013656616211
1783201492803848700,7.4778486328125,-0.1145601528987288,0.8259171551674604,1.7921897064864634,0.5365357398986816,-0.1673448532819748,-0.6340173482894897
1783201492813785600,7.48778564453125,0.0457381072156131,1.0065209750771522,2.0434020171046257,0.5448273420333862,-0.247329831123352,-0.593514084815979
1783201492823722500,7.497722412109375,0.2627612941145896,1.044489178943634,2.1775766787946225,0.5191741585731506,-0.3853966295719147,-0.5399536490440369
1783201492833659600,7.50765966796875,0.2976454143606126,1.045329721421003,2.225554235500097,0.4229577481746673,-0.5308364629745483,-0.4906079471111297
1783201492843595800,7.517595703125,0.1862698828473687,1.0311556501179933,2.321585921278596,0.2561192512512207,-0.6350811123847961,-0.4669026136398315
1783201492853532700,7.52753271484375,-0.003791501237452,0.9879694193422792,2.3475346015274523,0.0357077307999134,-0.689805805683136,-0.4802693128585815
1783201492863469600,7.537469482421875,-0.0142487439744174,0.893600698339939,2.208383320468664,-0.1978546977043151,-0.7316845655441284,-0.5202534198760986
1783201492873406700,7.54740673828125,0.2357639815956354,0.7713865235567092,1.7605419378131626,-0.3977016806602478,-0.7818930149078369,-0.5756954550743103
1783201492883343600,7.557343505859375,0.5020527191840112,0.7044441541403531,1.152452710056305,-0.5416389107704163,-0.7959153652191162,-0.6079950928688049
1783201492893280800,7.56728076171875,0.7657990788131952,0.662560238134861,0.5680529854446649,-0.618599534034729,-0.7634708881378174,-0.5999125242233276
1783201492903217700,7.5772177734375,0.9947134867750108,0.5780868882030248,0.0182686471402645,-0.629497230052948,-0.7044464349746704,-0.5372350215911865
1783201492913154600,7.587154541015625,1.0891353992693125,0.4805629180401563,-0.4688841706842184,-0.6016132235527039,-0.6391628980636597,-0.4363887906074524
1783201492923091700,7.597091796875,1.0064866344161332,0.3383259459257126,-0.8522884447425604,-0.5407959222793579,-0.6031612157821655,-0.3348549902439117
1783201492933028600,7.607028564453125,0.8465811730116606,0.1387362705171108,-1.2198656195938586,-0.4426174759864807,-0.6317917704582214,-0.2483686059713363
1783201492942964500,7.616964599609375,0.6293211086168885,-0.1039028575450181,-1.561528600987792,-0.3126834630966186,-0.6648373603820801,-0.2228270322084427
1783201492952901600,7.626901611328125,0.2432233576908707,-0.2351432193487882,-1.6374293528854846,-0.1670597493648529,-0.6876930594444275,-0.2485193163156509
1783201492962838500,7.636838623046875,-0.0337418183431029,-0.3052285629659891,-1.7227578583419323,-0.0067579681053757,-0.6941595077514648,-0.3076412379741668
1783201492972775700,7.646775634765625,-0.1497451557874679,-0.3766109606564045,-1.7774340359032152,0.1489729136228561,-0.6892767548561096,-0.3789590001106262
1783201492982712800,7.656712890625,-0.2226103393815457,-0.4440133487999439,-1.7263251954346894,0.2639804482460022,-0.6676723957061768,-0.441144585609436
1783201492992649500,7.6666494140625,-0.2318586447201669,-0.5044353765368461,-1.598279830279946,0.3053216934204101,-0.6415149569511414,-0.4800242483615875
1783201493002586600,7.676586669921875,-0.4159188886940479,-0.5660621038883924,-1.2837404181331395,0.2348552197217941,-0.5567004680633545,-0.5447208881378174
1783201493012523800,7.686523681640625,-0.92692662935853,-0.6391448757559061,-0.7166723520725965,0.0656473040580749,-0.4221407771110534,-0.6269297003746033
1783201493022460700,7.696460693359375,-1.2755614955917,-0.549380433678627,-0.2858791348516941,-0.1399436742067337,-0.2784661650657654,-0.7093359231948853
1783201493032397800,7.706397705078125,-1.5262204101108017,-0.4345803345441818,-0.0961667103350162,-0.3196228146553039,-0.1039064303040504,-0.7948331832885742
1783201493042333700,7.716333740234375,-1.6979232768148182,-0.2067588363856077,0.1200496902257204,-0.4368229508399963,0.0550901405513286,-0.8798040151596069
1783201493052270600,7.7262705078125,-1.6847946229115127,-0.0630973844259977,0.157777655595541,-0.4869122505187988,0.1090653017163276,-0.9528531432151794
1783201493062207700,7.736207763671875,-1.6551228304862975,0.0231768774479627,0.1706301229059696,-0.4971012473106384,0.0466538593173027,-1.002557396888733
1783201493072144600,7.74614453125,-1.5759193837814032,0.0513233600020408,0.1625152055114507,-0.4734001457691192,-0.076626069843769,-1.0182099342346191
1783201493082081500,7.75608154296875,-1.4629052912808953,0.039638767427206,0.2330728428155183,-0.4161815941333771,-0.1936059594154358,-0.999525785446167
1783201493092018700,7.766018798828125,-1.1926486729748549,0.0637199002385139,0.148836808770895,-0.317186176776886,-0.3219246566295624,-0.9803231358528136
1783201493101955600,7.77595556640625,-0.8229913308486342,0.1027764838635921,-0.0738274527549743,-0.1605739295482635,-0.3990343511104584,-0.9504435658454896
1783201493111892700,7.785892822265625,-0.5710150501206517,0.1060527290552854,-0.2908674446582794,0.0188141204416751,-0.5446292161941528,-0.9141392707824708
1783201493121829600,7.79582958984375,-0.7750804096385836,0.4888029231190681,-0.228964822974801,0.1397581249475479,-0.4464308023452759,-0.9179254770278932
1783201493131765500,7.805765625,-0.653017041502893,0.9135515994787216,0.3402022611916065,0.1804038137197494,-0.4826028943061828,-0.8710325956344604
1783201493141702700,7.81570263671875,-0.538146361350268,0.5583522601634263,0.2052940245300531,0.1591224819421768,-0.4555385112762451,-0.8269436955451965
1783201493151639800,7.825639892578125,-0.5242540295980871,0.523117280653119,0.5778846436291932,0.1035264059901237,-0.4255479276180267,-0.817963182926178
1783201493161576700,7.83557666015625,-0.4267740447074175,0.752755472844839,0.4434638982236385,0.0903887674212455,-0.5066018104553223,-0.8696327805519104
1783201493171513600,7.845513671875,-0.1843276627384126,0.820731276962161,-0.0484048422068357,0.1121455281972885,-0.5926802754402161,-0.9318772554397584
1783201493181450500,7.855450439453125,0.313816212438792,0.7906886053979396,-0.2568675599008798,0.1340958327054977,-0.6428526043891907,-0.9817619919776917
1783201493191387600,7.8653876953125,0.7381953248336911,0.8187199371397494,-0.3489496312707662,0.1364496350288391,-0.6831895112991333,-1.022851824760437
1783201493201324800,7.87532470703125,1.0351038032218811,0.993671430376172,-0.4166939647197723,0.1291677504777908,-0.7128984332084656,-1.0518132448196411
1783201493211261700,7.88526171875,1.3272187637232242,1.1169997038811446,-0.5029559516340494,0.1110977455973625,-0.7569650411605835,-1.0568723678588867
