time,seconds_elapsed,ax,ay,az,gx,gy,gz
1783201277115640800,0.101640869140625,-0.9509656035285442,-0.5587164173007011,0.6673059713572264,-0.0044457539916038,0.2071233093738556,-0.4224347770214081
1783201277125578000,0.111577880859375,-0.915471388560161,-0.4951183898761868,0.7825748570472002,-0.0280441623181104,0.2151281982660293,-0.4835518598556518
1783201277135515000,0.121514892578125,-0.8442617901533842,-0.4448334330111742,0.9304133024305103,-0.0282388422638177,0.1848161071538925,-0.5249592065811157
1783201277145452000,0.1314521484375,-0.711098935854435,-0.3811719849616289,1.015493386083841,-0.0160893984138965,0.1330291628837585,-0.5598610043525696
1783201277155389200,0.14138916015625,-0.5164028777062892,-0.2822758496627211,1.0296458300769329,0.0140389408916234,0.0627496838569641,-0.5831689834594727
1783201277165324800,0.15132470703125,-0.350295639052242,-0.1426478910028934,1.06760409707129,0.0756501927971839,-0.0185352731496095,-0.5947972536087036
1783201277175262000,0.161261962890625,-0.2336190785214305,0.0286520939886569,1.1710644715458154,0.1385242342948913,-0.0816122442483902,-0.5903721451759338
1783201277185199000,0.17119921875,-0.0736376292712986,0.2249286993265151,1.3457757262855767,0.1954608708620071,-0.1611167937517166,-0.5694153308868408
1783201277195136000,0.181135986328125,0.1186940378330647,0.3869669349759816,1.415151460328698,0.2464678585529327,-0.2517793178558349,-0.5316117405891418
1783201277205072000,0.19107177734375,0.297648336970061,0.4952005152016878,1.5326128876268863,0.2757126092910766,-0.3280758857727051,-0.4797073304653168
1783201277215009000,0.201009033203125,0.4379657391987741,0.5356251723095774,1.641059818342328,0.2937057316303253,-0.4244370460510254,-0.417373925447464
1783201277224946000,0.21094580078125,0.4469382963359355,0.5186082787960767,1.515947584030032,0.3062648475170135,-0.5465264916419983,-0.3621707558631897
1783201277234883000,0.220883056640625,0.2423850802358239,0.4755649636223912,1.3988321936905384,0.326960802078247,-0.6559454202651978,-0.3239149749279022
1783201277244820000,0.230820068359375,-0.097270141532272,0.4058715419322252,1.3247557346105574,0.3235554695129394,-0.7537612318992615,-0.3092527389526367
1783201277254756900,0.2407568359375,-0.4508515242569148,0.3550941253751516,1.112343402507901,0.2723716199398041,-0.8225848078727722,-0.3331431746482849
1783201277264693000,0.25069287109375,-0.5991681085459888,0.21696546536237,0.8231541201949119,0.169579192996025,-0.8001902103424072,-0.3878963589668274
1783201277274630100,0.260630126953125,-0.5817525345711038,-0.031598668834567,0.4168891950309276,0.0320458263158798,-0.7393295168876648,-0.4514159560203552
1783201277284566800,0.27056689453125,-0.5643555191662162,-0.2524310387581586,-0.2410363690406083,-0.1298411339521408,-0.6887478828430176,-0.5112460851669312
1783201277294504000,0.28050390625,-0.4039414506524801,-0.4430304752424359,-0.8661655789256095,-0.2756896615028381,-0.6026662588119507,-0.5520532131195068
1783201277304441000,0.290441162109375,-0.2097939662978053,-0.6050730948060751,-1.4141285470217466,-0.3672993183135986,-0.519368052482605,-0.5737386345863342
1783201277314377000,0.300376953125,-0.1233637832097709,-0.6667687957406043,-1.9947610280543564,-0.3741010427474975,-0.3934191465377807,-0.5689082145690918
1783201277324313900,0.31031396484375,-0.1799431640438735,-0.66023997849375,-2.334814236164093,-0.289434015750885,-0.2055677473545074,-0.5385075807571411
1783201277334251000,0.3202509765625,-0.263127058687061,-0.6364940689861774,-2.6326193711310624,-0.131352499127388,-0.0468268319964408,-0.5009561777114868
1783201277344188000,0.33018798828125,-0.3739778356738388,-0.620606764024496,-2.8727555764615533,0.0760252624750137,0.0630247294902801,-0.4647943377494812
1783201277354125000,0.340125,-0.4318800626095384,-0.5820145830407738,-2.853987163105607,0.2998692691326141,0.1329095363616943,-0.441758781671524
1783201277364061000,0.35006103515625,-0.4727596969433129,-0.4830915597349405,-2.581321145570278,0.5136920809745789,0.2216837853193283,-0.4378486573696136
1783201277373997800,0.359997802734375,-0.5576829825997353,-0.378724884070456,-2.1259400150597094,0.6867557168006897,0.2996891140937805,-0.4371921718120575
1783201277383935000,0.36993505859375,-0.6656834116566925,-0.2820581152588129,-1.6716291441291569,0.810665488243103,0.3468215763568878,-0.4456713497638702
1783201277393872100,0.3798720703125,-0.6866113411340862,-0.2103361103504896,-1.2836807969003916,0.8934296369552612,0.3568944633007049,-0.446842610836029
1783201277403809000,0.38980908203125,-0.6692616354696452,-0.1857940820291638,-0.8218044591516256,0.9152473211288452,0.3764872848987579,-0.4581515192985534
1783201277413746000,0.399745849609375,-0.7016494088552891,-0.1961924341857433,-0.2842611782610416,0.8713549971580505,0.3856200575828552,-0.4862020611763
1783201277423682000,0.40968212890625,-0.7614195485547185,-0.2326841357588767,0.183309571737051,0.7822110652923584,0.3843014538288116,-0.5304664969444275
1783201277433619000,0.419618896484375,-0.8205303475625813,-0.2348296233549714,0.5786123733818531,0.6783826947212219,0.3586387038230896,-0.5872701406478882
1783201277443556000,0.42955615234375,-0.8273867893286049,-0.1528480902388692,0.8157365374147891,0.5979980230331421,0.2886791527271271,-0.6508874893188477
1783201277453493000,0.439492919921875,-0.8069089417062699,-0.0074371642634272,0.8043290082156658,0.5599092245101929,0.1879666745662689,-0.696725070476532
1783201277463430000,0.449429931640625,-0.7234039984151721,0.1924336661741137,0.881713276669383,0.5717843174934387,0.1284708678722381,-0.7144660353660583
1783201277473366000,0.459365966796875,-0.5401470336481928,0.3882598973959684,1.131982168957591,0.6224547028541565,0.1018594950437545,-0.6955460906028748
1783201277483303200,0.46930322265625,-0.3704185357570648,0.5750628642067313,1.2762901021271944,0.7049229145050049,0.0577837526798248,-0.6467815041542053
1783201277493239800,0.47923974609375,-0.1761679015551693,0.7553945891767739,1.349109839144349,0.8068665862083435,-0.0561771690845489,-0.5741443037986755
1783201277503177000,0.489177001953125,0.0881092222161591,0.9384791199862956,1.3326988025695086,0.911141574382782,-0.2394073009490966,-0.4912885427474975
1783201277513113900,0.49911376953125,0.2997165215462446,1.0738310087621212,1.3640408662945032,0.9855284690856934,-0.4202937185764313,-0.411460816860199
1783201277523051000,0.509051025390625,0.4240247459992766,1.240749417668581,1.5388286934018134,0.9818540811538696,-0.5310572981834412,-0.376178503036499
1783201277532987000,0.51898681640625,0.3745509593866765,1.5003700756698846,1.7187474536567926,0.8931788206100464,-0.5846201181411743,-0.38316211104393
1783201277542924000,0.528924072265625,0.3863584476888179,1.7685048795163631,1.7673399273902175,0.7343564629554749,-0.5979346632957458,-0.3879352807998657
1783201277552861000,0.53886083984375,0.5768978245489299,1.9522183558791877,1.8217764509767291,0.5375943779945374,-0.568623423576355,-0.3572940230369568
1783201277562798000,0.548798095703125,0.8821161583818494,2.058736364358664,1.884468761733174,0.3304631114006042,-0.5300043225288391,-0.2885521650314331
1783201277572735000,0.55873486328125,1.15882166056633,2.0638947700351475,1.7798153780817985,0.1332696229219436,-0.5436884164810181,-0.1960821598768234
1783201277582672000,0.568671875,1.2802952461153267,1.917448071271181,1.4294628942757843,-0.0477512553334236,-0.6102781891822815,-0.1033780723810195
1783201277592608000,0.57860791015625,1.237731092760712,1.6865531570166348,1.0371405697464942,-0.2135998904705047,-0.6553881764411926,-0.0432034134864807
1783201277602545000,0.588544921875,1.1279637270964682,1.3405033388406038,0.7533791577011346,-0.3663162291049957,-0.6677969694137573,-0.0058936420828104
1783201277612482000,0.59848193359375,1.007590796265751,0.8947323327183723,0.2901590041279792,-0.4906775951385498,-0.6998196244239807,0.0149471908807754
1783201277622419000,0.6084189453125,0.8738206237234175,0.5359247397780418,-0.3925309988439083,-0.5766081809997559,-0.7252819538116455,-0.0075054224580526
1783201277632355800,0.61835595703125,0.7726041557181627,0.2799970910757779,-0.9782616797983644,-0.6175627708435059,-0.7264524102210999,-0.0627002343535423
1783201277642293000,0.62829296875,0.7244223816774785,0.025641806256771,-1.5152262840181587,-0.6264559030532837,-0.6873757839202881,-0.1191371530294418
1783201277652229000,0.63822900390625,0.7709638411652296,-0.1803133125305175,-1.9629612836897368,-0.590868353843689,-0.6220231652259827,-0.1586813628673553
1783201277662165800,0.648165771484375,0.7606930609110742,-0.333075185790658,-2.40140121627152,-0.5100372433662415,-0.5278807878494263,-0.1766972988843917
1783201277672103000,0.65810302734375,0.6048686948077753,-0.4523831177383661,-2.6449820090979337,-0.4188545942306518,-0.4239908456802368,-0.1667195111513137
1783201277682040000,0.6680400390625,0.3426061439955606,-0.5892512562960386,-2.8472441185861825,-0.3117483854293823,-0.3553932309150696,-0.1404018253087997
1783201277691977000,0.67797705078125,0.089416140096262,-0.6797761613518,-2.922416556209326,-0.2065425962209701,-0.276722103357315,-0.1275808364152908
1783201277701914000,0.6879140625,-0.1637038307741284,-0.7056383323609828,-2.70586288651824,-0.1241862252354621,-0.1802126467227935,-0.1531321555376052
1783201277711851000,0.69785107421875,-0.3794121722148731,-0.7224304772078991,-2.4371353774756197,-0.055065207183361,-0.066759318113327,-0.204273372888565
1783201277721787000,0.707786865234375,-0.4761520427953452,-0.7724000845134258,-2.2977198925226925,0.026322029531002,0.0395893268287181,-0.2593350410461426
1783201277731724000,0.71772412109375,-0.5053960382625461,-0.7529577174186706,-2.173755659201741,0.1231321915984153,0.1462390720844268,-0.2994947135448456
1783201277741661200,0.7276611328125,-0.493545368405804,-0.5664063872814178,-1.9178934769511224,0.2133037745952606,0.2656485140323639,-0.3308251798152923
1783201277751597800,0.737597900390625,-0.41680546227023,-0.3243254776239395,-1.6266835024654864,0.2766968607902527,0.3522656857967376,-0.3499482870101928
1783201277761535000,0.747534912109375,-0.2877565460961312,-0.1393804136395454,-1.5086018974423407,0.3053204417228699,0.3979400396347046,-0.3654918968677521
1783201277771472000,0.757471923828125,-0.1773033901248127,-0.0596224017918109,-1.4674451266676187,0.2962377369403839,0.4648948311805725,-0.3840554654598236
1783201277781408000,0.767407958984375,-0.1564769482605159,-0.0313765505164861,-1.2204653390526772,0.2350281476974487,0.5604847073554993,-0.4226208031177521
1783201277791345000,0.777344970703125,-0.2124349823258817,0.0336713834553957,-0.8672720788627862,0.1431570798158645,0.7182828783988953,-0.4677456617355346
1783201277801282000,0.787281982421875,-0.1710935756992548,0.1223708266496658,-0.6078823070079088,0.0798042640089988,0.8738628029823303,-0.4862544536590576
1783201277811219000,0.797218994140625,-0.0816691792313009,0.2589607327878475,-0.6609902123391628,0.075548268854618,0.9982728958129884,-0.4784346222877502
1783201277821156000,0.807156005859375,0.0085826079715043,0.4738759876221418,-0.6570645633280277,0.1109190508723259,1.1057674884796145,-0.4448445439338684
1783201277831093000,0.817093017578125,0.1137499872933141,0.7184820318430661,-0.4060065664887428,0.1700486838817596,1.159974455833435,-0.3760047554969787
1783201277841030000,0.82702978515625,0.2505575365038588,0.9029775984942912,0.0208364518016576,0.2481462210416793,1.1440426111221311,-0.2947261035442352
1783201277850966000,0.836966064453125,0.5201766971565783,0.960996656742692,0.925067265227437,0.3668430149555206,1.019786715507507,-0.229351595044136
1783201277860903000,0.84690283203125,1.157744240593165,0.7671113304555416,1.685254933899641,0.3778786063194275,0.3900741338729858,-0.1697955131530761
1783201277870840000,0.856840087890625,1.5524667581319809,0.474666261216998,0.9200579126328228,0.241408884525299,-0.4294044971466064,-0.0995367914438247
1783201277880777000,0.86677685546875,1.3788662411130963,0.2421399463683366,0.4483423179149627,0.0710115581750869,-1.0347447395324707,-0.0192207135260105
1783201277890713900,0.8767138671875,1.0259322163812816,0.3394897290080785,0.1226648411601781,-0.0227066799998283,-1.2155885696411133,0.0264389179646968
1783201277900651000,0.886651123046875,0.7427561299432068,0.6425479621976614,-0.0915653540194034,-0.0082937078550457,-1.0619161128997805,0.0315377451479435
1783201277910588000,0.896587890625,0.5049867998745292,0.7640560345381497,-0.3616109599232673,0.0902099609375,-0.7461032867431641,0.0250721219927072
1783201277920523800,0.906523681640625,0.3456611841846257,0.7923048084229231,-0.3792524150758981,0.1974075734615326,-0.344944953918457,0.0255869720131158
1783201277930461000,0.9164609375,0.0767060038659721,0.8175690135389566,-0.2769949866503477,0.2684956192970276,-0.0240556262433528,0.0311308726668357
1783201277940398000,0.926398193359375,-0.1284108557325787,0.6963268986582756,-0.4295949473470449,0.2498867064714431,0.0978727415204048,0.0292624942958354
1783201277950335000,0.9363349609375,0.0735453478779643,0.5043021055459976,-0.4865969375073909,0.1723221391439438,0.0345401093363761,0.0118390284478664
1783201277960272100,0.946272216796875,0.4586498499829322,0.27454759349823,-0.4859942954391241,0.0857658088207244,-0.0863973274827003,-0.0052077933214604
1783201277970208800,0.956208740234375,0.719743503146246,0.096101828405261,-0.5440957712739706,-0.0028223833069205,-0.1811126470565796,-0.0176487490534782
1783201277980146000,0.96614599609375,0.7730279340881854,0.0961082581460475,-0.5512333680689334,-0.0873606950044632,-0.1943129152059555,-0.0228050481528043
1783201277990083000,0.9760830078125,0.7423469646204263,0.1994429604142904,-0.5652022721886635,-0.1667883992195129,-0.1344541013240814,-0.0271116457879543
1783201278000019200,0.986019287109375,0.6587943097300827,0.3072942633241415,-0.6357236691355704,-0.2213018834590912,-0.0488857477903366,-0.0336858071386814
1783201278009955800,0.995955810546875,0.6546039453681558,0.4506652079045772,-0.8139449778228998,-0.2406646758317947,0.0295534022152423,-0.0569887310266494
1783201278019893000,1.00589306640625,0.70344769044891,0.6721861446142197,-1.0408248112171887,-0.2283973842859268,0.120459645986557,-0.0732987895607948
1783201278029830000,1.015829833984375,0.771365992225334,0.9159797034084796,-1.0981149706691502,-0.2041783332824707,0.2387415319681167,-0.0745784416794776
1783201278039767000,1.02576708984375,0.917349822717905,1.133006251308322,-1.0545774422377348,-0.1858130991458892,0.362674355506897,-0.0552182085812091
1783201278049704000,1.035703857421875,1.1400579233855008,1.291451430901885,-0.921786928382516,-0.1696218699216842,0.4870463609695434,-0.0108318338170647
1783201278059640800,1.045640869140625,1.384810536470264,1.397484286212921,-0.7321960844188928,-0.1607671827077865,0.5583722591400146,0.0505527891218662
1783201278069577000,1.055576904296875,1.5941171576425432,1.497028948548436,-0.5351596006244421,-0.1513273417949676,0.5682110786437988,0.1157999709248542
1783201278079514000,1.06551416015625,1.742177575213462,1.6150070931971072,-0.4258914166539907,-0.1416486948728561,0.5093792080879211,0.1869114190340042
1783201278089450800,1.07545068359375,1.8442831740781664,1.7178928826540707,-0.3557897064238786,-0.1120908036828041,0.4581269025802612,0.2704564034938812
1783201278099388000,1.085387939453125,1.901030312694609,1.8091408412873744,-0.146432670238614,-0.0812856703996658,0.4265747964382171,0.3526021242141723
1783201278109325000,1.095324951171875,1.8990002681717275,1.883420713984966,0.010214520022273,-0.0487229339778423,0.4124171733856201,0.4332082867622375
1783201278119262000,1.105261962890625,1.843243309636414,1.869211571368575,0.1531622707545757,-0.0143679752945899,0.41401007771492,0.5150810480117798
1783201278129198800,1.11519873046875,1.7918546293132005,1.8715175102233883,0.2822527610480785,0.0155867282301187,0.4282441437244415,0.6033552885055542
1783201278139135700,1.1251357421875,1.7252980443440378,1.8601970747858283,0.4743400980025529,0.0274450499564409,0.4384402632713318,0.7084022164344788
1783201278149073000,1.135072998046875,1.634614295464754,1.7854536762297153,0.6788134537994861,0.0036555649712681,0.4307722449302673,0.8207039833068848
1783201278159009000,1.145009033203125,1.4704355406552552,1.6402233675181863,0.8220645713925361,-0.0561306960880756,0.415321797132492,0.928477942943573
1783201278168945700,1.154945556640625,1.1841831885769962,1.4515718502312898,0.9883417597860096,-0.1277739852666854,0.3872073292732239,1.0163938999176023
1783201278178882800,1.1648828125,0.8443287179097533,1.2696037562310696,1.0697679971069096,-0.184712141752243,0.3300897479057312,1.0940922498703003
1783201278188820000,1.174820068359375,0.4807582944817841,1.1063386091351508,0.9813596458137036,-0.2044496387243271,0.2470257580280304,1.1574230194091797
1783201278198756900,1.1847568359375,0.1325510060109198,0.9545593171715736,0.8340092762082815,-0.200750932097435,0.1037931442260742,1.1849993467330933
1783201278208694000,1.194694091796875,-0.118240448846668,0.860789731106162,0.5597837542712688,-0.1634224653244018,-0.0791380703449249,1.1691157817840576
1783201278218631000,1.204630859375,-0.3456302775897085,0.757813340756297,0.3367699486553668,-0.099267654120922,-0.1975364238023758,1.1221294403076172
1783201278228567800,1.21456787109375,-0.4106380256816744,0.6428875694155692,0.3125789257287979,-0.051341138780117,-0.2798542082309723,1.0543224811553955
1783201278238504000,1.22450390625,-0.3812383281961083,0.5427291590958834,0.0876180776983499,-0.0603746138513088,-0.3261931538581848,0.9982823133468628
1783201278248441000,1.234441162109375,-0.2972372719511389,0.398061160442233,-0.010820669221878,-0.1267288774251938,-0.2888748049736023,0.9709575176239014
1783201278258377700,1.244377685546875,-0.1594958576902747,0.2388672083079814,-0.021747721427679,-0.2188834697008133,-0.1947127878665924,0.9639652371406556
1783201278268315000,1.25431494140625,-0.1209632979393005,0.1898807668209075,-0.1632826827526092,-0.3136885464191437,-0.073522187769413,0.9543232917785645
1783201278278251800,1.264251708984375,-0.1612780649319291,0.1692570809870958,-0.3504015836447477,-0.3671714067459106,0.0558293499052524,0.9359145760536194
1783201278288189000,1.27418896484375,-0.1977437552809715,0.2137047100007534,-0.582789951327443,-0.3812190592288971,0.1579442620277404,0.9049537777900696
1783201278298126000,1.2841259765625,-0.2643728209644556,0.3554050910204648,-0.7685825720518827,-0.3698321878910064,0.2010785043239593,0.8695961236953735
1783201278308062700,1.294062744140625,-0.2807368035271763,0.50552843247056,-0.9446002332150936,-0.3628358244895935,0.1789793223142624,0.8431794047355652
1783201278317999900,1.303999755859375,-0.2265758089464157,0.4842781391710042,-1.1814286291718483,-0.3656754195690155,0.1083348467946052,0.8299821019172668
1783201278327936000,1.31393603515625,-0.1432999251708388,0.2998193973988294,-1.473638136088848,-0.3774292767047882,0.0488275736570358,0.8210155367851257
1783201278337873000,1.323872802734375,-0.0584597877532243,0.113940559695661,-1.657083901426196,-0.3867023587226867,0.0570824965834617,0.8041061758995056
1783201278347809800,1.333809814453125,0.0173491942077875,0.0341129897430539,-1.7835346908658742,-0.3826301097869873,0.1172028258442878,0.7755421996116638
1783201278357747000,1.343746826171875,0.0526673950221389,0.027331659039855,-1.9818962857842444,-0.3445741832256317,0.2188449054956436,0.7406829595565796
1783201278367683800,1.353683837890625,0.1103914889119565,0.0222016026750206,-2.017473210600018,-0.2677611708641052,0.3677683174610138,0.7201561331748962
1783201278377621000,1.36362109375,0.1529514775481075,0.0940142084762453,-1.8590724546700717,-0.1784490048885345,0.5206323266029358,0.7125869989395142
1783201278387558000,1.373557861328125,0.1319752154169604,0.2888388614401221,-1.6556763727158308,-0.0940496921539306,0.6572844386100769,0.7076833248138428
1783201278397494800,1.383494873046875,0.0330210297878831,0.5243345474883914,-1.4263596675634382,-0.0229068472981452,0.7663044333457947,0.7066941857337952
1783201278407432000,1.393431884765625,-0.0140803651375696,0.7258563600033521,-1.10889530788064,0.0270455330610275,0.8458501100540161,0.7349103689193726
1783201278417368800,1.403368896484375,-0.0006907587431371,0.8135217839747667,-0.7339853059232234,0.0526400953531265,0.8587366342544556,0.7896522879600525
1783201278427305000,1.413304931640625,-0.0107391284182667,0.7926081752836703,-0.4889607440292834,0.054762102663517,0.8106324672698975,0.8658469319343567
1783201278437241900,1.423241943359375,-0.0515134757466614,0.637332273375988,-0.3369195862591266,0.0523699820041656,0.7470114827156067,0.9462340474128724
1783201278447178800,1.4331787109375,-0.1001844215437769,0.4055450864568352,-0.2183522435456514,0.0795323550701141,0.6895692348480225,1.028106927871704
1783201278457116000,1.443115966796875,-0.1716715947829186,0.2360360765352845,-0.1111275481015443,0.1400773525238037,0.6498720049858093,1.092452883720398
1783201278467053000,1.453052978515625,-0.2771057535484433,0.1750514464795589,-0.0294587341964244,0.2292024344205856,0.6185441613197327,1.1372041702270508
1783201278476990000,1.462989990234375,-0.4244169601872563,0.1696642004832625,0.1611094303667545,0.3241041600704193,0.6026675701141357,1.1633118391036987
1783201278486926800,1.4729267578125,-0.6281421279653906,0.1494593245834112,0.4843973816365003,0.4087194502353668,0.5810309648513794,1.1752161979675293
1783201278496863700,1.48286376953125,-0.8297548336341977,0.1395797356039285,0.830707312053442,0.4597966074943542,0.5480677485466003,1.1877447366714478
1783201278506801000,1.49280078125,-0.9795223473839462,0.0839238993555307,1.1147785207003351,0.483798623085022,0.4915118217468261,1.208441972732544
1783201278516738000,1.502738037109375,-1.098391449522972,0.0008674304842948,1.3092238189578056,0.4876734614372253,0.410303920507431,1.2414071559906006
1783201278526674000,1.512673828125,-1.2621323974370957,-0.0700841745734214,1.4514467625468968,0.4811843931674957,0.3270436525344848,1.261706829071045
1783201278536610800,1.52261083984375,-1.4411736442051828,-0.1052560257196426,1.6408569892466067,0.451549768447876,0.2358005195856094,1.2519453763961792
1783201278546548000,1.5325478515625,-1.618924705032259,-0.1762842031449079,1.6695400628954171,0.4040155112743377,0.1236286982893943,1.2088381052017212
1783201278556484900,1.54248486328125,-1.7408920654475688,-0.3481114268809557,1.592590094205737,0.359860748052597,0.0434806160628795,1.1417908668518066
1783201278566422000,1.552422119140625,-1.80289683233127,-0.4954138656914233,1.5293857422739263,0.2975515723228454,-0.0159944295883178,1.041272759437561
1783201278576359000,1.56235888671875,-1.7880849015161393,-0.5152718278497457,1.4023504309445618,0.202417716383934,-0.0602358020842075,0.9244906902313232
1783201278586295800,1.5722958984375,-1.7489593443080782,-0.5458358929395676,1.1334802985608576,0.0645677000284195,-0.1004034578800201,0.8110421895980835
1783201278596233000,1.58223291015625,-1.612205041388422,-0.6076087507635355,0.8309381981998681,-0.0925035178661346,-0.0739075317978859,0.7098405361175537
1783201278606169900,1.592169921875,-1.3982488408446312,-0.6468909598380327,0.5791670846551656,-0.2492433190345764,0.0148769337683916,0.6182166337966919
1783201278616107000,1.60210693359375,-1.2490621957227588,-0.5875947212606668,0.2892658546805381,-0.3718250691890716,0.1521113067865371,0.5371832251548767
1783201278626044000,1.6120439453125,-1.139137812865898,-0.4629208783656358,0.029797172370553,-0.4625831842422485,0.3227804899215698,0.4648408591747284
1783201278635980800,1.621980712890625,-0.8873692566044629,-0.3495195401132107,-0.2396539747714996,-0.5069543123245239,0.4490576684474945,0.4064536690711975
1783201278645917000,1.6319169921875,-0.6002330343637615,-0.226557177311182,-0.5333136804968118,-0.5244120955467224,0.5312355756759644,0.3748518228530884
1783201278655854000,1.64185400390625,-0.3404670496076345,-0.0872024826347827,-0.6953460709273814,-0.5376279950141907,0.5658260583877563,0.3533565700054168
1783201278665790700,1.651790771484375,-0.1171229891240596,0.0245943430304527,-0.7964467305332422,-0.5475956797599792,0.5511406064033508,0.355254054069519
1783201278675728000,1.661727783203125,0.068821461161226,0.0617728578239679,-0.8897533752620219,-0.561726450920105,0.5098809003829956,0.3795966804027557
1783201278685664800,1.671664794921875,0.246758473014459,0.0235012870967388,-1.0093377860635515,-0.5521792769432068,0.4725428223609924,0.4125072062015533
1783201278695602000,1.681601806640625,0.4211044746384024,-0.0425344888687133,-1.1824158866435288,-0.5026711821556091,0.4630108177661896,0.4354661703109741
1783201278705539000,1.6915390625,0.4740838216865435,0.0063280339777469,-1.30613812790215,-0.3949567079544067,0.5026586651802063,0.4459150731563568
1783201278715475700,1.701475830078125,0.4239027635874226,0.1505018193736672,-1.3324632402479648,-0.2552465498447418,0.5821747183799744,0.4516487121582031
1783201278725412900,1.711412841796875,0.3968483140537515,0.3107768447428941,-1.226509879913926,-0.1086845248937606,0.6568875312805176,0.4720120429992676
1783201278735350000,1.72135009765625,0.4818656712017953,0.4330199533596635,-1.0501204628288745,0.0314266420900821,0.6856709718704224,0.5231479406356812
1783201278745287000,1.731286865234375,0.6066460432112216,0.493719336733222,-0.804542943227291,0.1525517404079437,0.6985665559768677,0.5988893508911133
1783201278755224000,1.74122412109375,0.6972339305005967,0.5452054860815405,-0.3847866683274507,0.2425141483545303,0.6880072951316833,0.6906920075416565
1783201278765160000,1.751159912109375,0.7058607429400086,0.6476227812439203,0.0923988822340965,0.3020896017551422,0.6626963019371033,0.7908433675765991
1783201278775096800,1.761096923828125,0.6545064032778144,0.7327142630740999,0.5796265188604592,0.3181617259979248,0.6144868731498718,0.8811952471733093
1783201278785034000,1.771033935546875,0.5349484420917928,0.7495546309769153,0.9894354002416134,0.3017739653587341,0.5437272191047668,0.9575520157814026
1783201278794971000,1.780970947265625,0.3605994447931647,0.7403317523404955,1.3574591498166322,0.2637958526611328,0.4660123586654663,1.0118939876556396
1783201278804907800,1.79090771484375,0.1297458854623139,0.7048205862373114,1.6929904965877531,0.2115976363420486,0.3801919817924499,1.0383657217025757
1783201278814845000,1.800844970703125,-0.0974919675894081,0.6696294458687305,1.9559826768487687,0.1538178324699401,0.2903230190277099,1.0490068197250366
1783201278824781800,1.81078173828125,-0.2010962805792689,0.6299179054662585,2.1748931387990718,0.1022944524884224,0.2057325094938278,1.0653045177459717
1783201278834719000,1.820718994140625,-0.2289626310177147,0.5840940196633339,2.3230606700062757,0.0468553751707077,0.1227195113897323,1.0909096002578735
1783201278844655900,1.83065576171875,-0.2990201733125373,0.5100424027636646,2.338693123424053,-0.0417051166296005,0.0402163788676261,1.129509687423706
1783201278854592800,1.8405927734375,-0.4709373038217425,0.3179085963189602,2.2282091339230536,-0.1521955281496048,-0.0517085306346416,1.1597648859024048
1783201278864530000,1.850530029296875,-0.7537672802358866,0.0406853538706898,1.9003601583480836,-0.2709671854972839,-0.1706439852714538,1.1780333518981934
1783201278874466800,1.860466796875,-1.0192045886266976,-0.1936757751896977,1.5224123961299656,-0.3663790822029114,-0.2737520635128021,1.1639833450317385
1783201278884404000,1.870404052734375,-1.2319646381884812,-0.3807274560645222,1.237153439003229,-0.4308238327503204,-0.3408224582672119,1.1157866716384888
1783201278894340900,1.8803408203125,-1.394171800664067,-0.5307008676499128,0.9189724554836748,-0.4768739342689514,-0.4024319648742676,1.04067063331604
1783201278904276700,1.89027685546875,-1.4911045269355176,-0.7246233110770582,0.4565443290710449,-0.5127323269844055,-0.4852136671543121,0.9656217098236084
1783201278914214000,1.9002138671875,-1.524792423134297,-1.067450952336192,-0.117525140184164,-0.5417004823684692,-0.5885406732559204,0.905508518218994
1783201278924151000,1.910151123046875,-1.602097781132907,-1.430269534483552,-0.6925456265538931,-0.5580310225486755,-0.6543380618095398,0.8535653948783875
1783201278934088000,1.920087890625,-1.8277406200781463,-1.7432140786543489,-1.1725211000949145,-0.5610542297363281,-0.628844678401947,0.7904168963432312
1783201278944024800,1.93002490234375,-2.1163604319401084,-1.9567653516590595,-1.4508856215327977,-0.5333549380302429,-0.5001895427703857,0.6963385939598083
1783201278953961700,1.939961669921875,-2.3830568735465407,-2.0601275264561174,-1.6686404837071895,-0.4805276393890381,-0.3086994588375091,0.5606880784034729
1783201278963899000,1.94989892578125,-2.564582192215324,-2.1423671259865165,-1.907073976773024,-0.3943136632442474,-0.1032206043601036,0.3976283669471741
1783201278973836000,1.9598359375,-2.634836462658644,-2.195171956717968,-2.0325211421281097,-0.2723836302757263,0.081774964928627,0.2252632826566696
1783201278983773000,1.96977294921875,-2.62825153131038,-2.178846260339021,-2.054817145088315,-0.1413483768701553,0.2178475707769394,0.0654621496796608
1783201278993709800,1.979709716796875,-2.572807584246993,-2.108418679155409,-1.9397528420597316,-0.0197476223111152,0.289686381816864,-0.0718025341629982
1783201279003647000,1.98964697265625,-2.4480827418170867,-2.0085361631676557,-1.7467279319941995,0.0749440044164657,0.2988130450248718,-0.1840278804302215
1783201279013584000,1.999583984375,-2.255492862167954,-1.9163541385546323,-1.5293454102635382,0.1480315625667572,0.2717391550540924,-0.2798128128051758
1783201279023521000,2.00952099609375,-2.055070827588439,-1.822220979873836,-1.2317588864833116,0.1995307058095932,0.2437762469053268,-0.3798771202564239
1783201279033458000,2.0194580078125,-1.91151926574409,-1.6111030714958905,-0.8889835599333047,0.2376004159450531,0.2280764579772949,-0.4872970879077911
1783201279043395300,2.029395263671875,-1.8142957398325203,-1.3350479960441588,-0.5638672241926193,0.2665319144725799,0.2478664070367813,-0.5969197154045105
1783201279053332200,2.039332275390625,-1.6832487086437642,-1.0018433386549352,-0.210173028743267,0.2753627002239227,0.2944730222225189,-0.6926147937774658
1783201279063268000,2.04926806640625,-1.5295495545335114,-0.6772182935625314,0.147126497721672,0.2821313738822937,0.3538665771484375,-0.7663118839263916
1783201279073205200,2.059205322265625,-1.3477084479138255,-0.3859492823660373,0.4831956046313047,0.2761486768722534,0.4075939059257507,-0.8097052574157715
1783201279083142400,2.069142333984375,-1.1460080639615655,-0.1282055241525173,0.8207914827167987,0.267662763595581,0.4395212233066559,-0.8283162117004395
1783201279093079300,2.079079345703125,-0.8969314501978456,0.0942433410570025,1.1068494812667369,0.2612073421478271,0.4447631537914276,-0.8211992979049683
1783201279103016200,2.08901611328125,-0.6776933637283742,0.2714116335600614,1.3431255040377377,0.2652939558029175,0.4316204488277435,-0.8048224449157715
1783201279112953000,2.098953125,-0.4802705840300768,0.4120262651696801,1.5708505560845136,0.2639724612236023,0.4027754962444305,-0.7888175249099731
1783201279122890200,2.10889013671875,-0.313830094833672,0.5316793572932481,1.8309855933487411,0.248519480228424,0.3771324455738067,-0.7728835940361023
1783201279132827400,2.118827392578125,-0.1263572659373283,0.6232587398380041,2.0659049408137795,0.2121205478906631,0.3714632987976074,-0.744570791721344
1783201279142764300,2.128764404296875,0.0096757369704544,0.6482423744469881,2.3059517142951487,0.1477586030960083,0.2745229005813598,-0.7143527269363403
1783201279152701200,2.138701171875,0.149746909353137,0.6948083107888698,2.2529227194190025,0.0803973525762558,0.1493674367666244,-0.6763771176338196
1783201279162638000,2.14863818359375,0.3241387228801846,0.6867299260124564,2.3406799133270977,0.0332689881324768,0.0427150204777717,-0.6235423684120178
1783201279172575200,2.1585751953125,0.4864821154886856,0.6266013282641768,2.416314707764983,0.0206546522676944,-0.0442128740251064,-0.5526138544082642
1783201279182512400,2.168512451171875,0.575076637003757,0.5949959374278784,2.437837388265133,0.0384110137820243,-0.1142076700925827,-0.4635343253612518
1783201279192449300,2.17844921875,0.5482559596933424,0.6313000074744224,2.4495143820554017,0.0905816406011581,-0.1926848590373993,-0.3493002355098724
1783201279202386200,2.18838623046875,0.4467562177672982,0.6877069543510675,2.445722588557005,0.1571604013442993,-0.2847303748130798,-0.2195132225751876
1783201279212323000,2.198322998046875,0.3069711688496172,0.6425958929926157,2.446418169605732,0.2334422469139099,-0.4231148958206177,-0.0892373621463775
1783201279222260200,2.20826025390625,0.1018623281607404,0.5816697151258587,2.284544184607267,0.3009728193283081,-0.6483389139175415,0.0001132877077907
1783201279232197400,2.218197265625,-0.1885207305140793,0.6341413683801889,1.9747160188913344,0.327805608510971,-0.9269673824310304,0.0348517335951328
1783201279242134300,2.22813427734375,-0.4413669259443878,0.6857245483621954,1.685314555132389,0.2876682877540588,-1.182220220565796,0.0109352190047502
1783201279252070100,2.238070068359375,-0.6106818015333265,0.5641580238327384,1.443192144420743,0.1489191651344299,-1.3879938125610352,-0.0439303815364837
1783201279262007300,2.24800732421875,-0.8073479176454246,0.2387535188004374,1.1169441743016242,-0.1186893805861473,-1.547333598136902,-0.1303907036781311
1783201279271944200,2.257944091796875,-0.9285909093089402,-0.143927993941307,0.6174713886082172,-0.492338478565216,-1.6517716646194458,-0.2705955803394317
1783201279281881300,2.26788134765625,-0.94923198466897,-0.4335726188063621,-0.0486556020975112,-0.9089221358299256,-1.65285325050354,-0.4453996121883392
1783201279291818200,2.277818359375,-0.9683616325527428,-0.7020619351789354,-0.776014183357358,-1.304533839225769,-1.5364136695861816,-0.6228901147842407
1783201279301755100,2.287755126953125,-1.0046781236894429,-0.84091247972548,-1.5621820964604616,-1.617238998413086,-1.2472018003463743,-0.7932037711143494
1783201279311692300,2.2976923828125,-1.0683480473063889,-0.8156929905340075,-2.2973019593715667,-1.8074874877929688,-0.7271161675453186,-0.928432047367096
1783201279321629200,2.307629150390625,-1.1444456369504332,-0.7863119977489114,-2.9453415047228333,-1.861197590827942,-0.1746742874383926,-1.0403826236724854
1783201279331566300,2.31756640625,-1.0526599181786178,-0.814526284842193,-3.7561031763345,-1.7692818641662598,0.3139093220233917,-1.1188753843307495
1783201279341503200,2.327503173828125,-0.8723138724222779,-0.8787477048620581,-4.19447238176763,-1.5580271482467651,0.7038158178329468,-1.1769546270370483
1783201279351440100,2.337440185546875,-0.7227235418703407,-0.87913582739681,-4.2351030828416345,-1.2584359645843506,0.9363595843315125,-1.2176421880722046
1783201279361377300,2.347377197265625,-0.6384366544213146,-0.7907160779267549,-3.9774183613389726,-0.9234100580215454,0.9960660338401794,-1.2389885187149048
1783201279371314200,2.357314208984375,-0.4844344257112592,-0.6796724087163806,-3.565231060388684,-0.5796781778335571,0.9325591921806335,-1.2247825860977173
1783201279381251300,2.367251220703125,-0.3491900889631361,-0.6395449809893965,-2.9842233163028955,-0.2552700042724609,0.810737669467926,-1.184070348739624
1783201279391188200,2.377188232421875,-0.278358164762333,-0.4257268737420439,-2.3885358894795177,0.0279117375612258,0.6320552825927734,-1.131323218345642
1783201279401125000,2.387125,-0.2119367504801601,-0.2148445276856422,-1.8858061478167767,0.2844034433364868,0.4583138823509216,-1.0704803466796875
1783201279411062300,2.397062255859375,-0.1521518150703981,-0.0465861023470759,-1.3078987078338862,0.4873609840869903,0.3271158039569855,-1.0116045475006104
1783201279420999200,2.406999267578125,-0.1296838530767708,0.1547311275064945,-0.739799545159936,0.6362226605415344,0.2173845022916793,-0.9459482431411744
1783201279430936300,2.416936279296875,-0.1471472117161378,0.307690569165349,-0.2766203081190586,0.724166989326477,0.1453805565834045,-0.8756887912750244
1783201279440873200,2.426873291015625,-0.1913609223760664,0.3912999957442283,0.3062888856738806,0.7523472309112549,0.1333430707454681,-0.8151050806045532
1783201279450810000,2.43681005859375,-0.2749088280260562,0.4640142265602946,0.8903712148994207,0.7362894415855408,0.130042627453804,-0.7721264362335205
1783201279460747300,2.446747314453125,-0.3216821235083043,0.510946365866065,1.2923808207064866,0.7002019882202148,0.092852383852005,-0.7362930774688721
1783201279470683400,2.456683349609375,-0.2759055839784443,0.4771685994267463,1.5257587839484217,0.6706803441047668,0.0562415048480033,-0.70391446352005
1783201279480620000,2.4666201171875,-0.2100819894589483,0.490619617152214,1.7854910856306552,0.6702834963798523,0.0146834114566445,-0.6669260859489441
1783201279490557200,2.47655712890625,-0.1005789738193154,0.5697592048406601,1.9856524234473705,0.6918359398841858,-0.0549932681024074,-0.6132510304450989
1783201279500494300,2.486494384765625,-0.0182106333427131,0.63369187104702,2.0903554914593694,0.7270874381065369,-0.1409212201833725,-0.5357280373573303
1783201279510431200,2.49643115234375,-0.0268481133066117,0.6680068131029605,2.230086618232727,0.745444655418396,-0.2935907542705536,-0.4508393108844757
1783201279520368400,2.506368408203125,-0.1732854414540343,0.7085290853664279,2.197745022076368,0.7089942693710327,-0.4843569695949554,-0.4049685001373291
1783201279530305000,2.516304931640625,-0.4550232569836079,0.8339555001944303,2.2148545623093843,0.596858024597168,-0.6488474011421204,-0.4265182912349701
1783201279540242200,2.5262421875,-0.6608445202581584,0.9098959995806216,2.233210303211212,0.3998687863349914,-0.7786890268325806,-0.4982031583786011
1783201279550179300,2.536179443359375,-0.6074981299959122,0.796629978145659,2.105804989525676,0.154362291097641,-0.8652257919311523,-0.581937849521637
1783201279560116200,2.5461162109375,-0.3406833227068185,0.5742883727028966,1.7836381512403487,-0.0923622548580169,-0.8996903300285339,-0.6410722732543945
1783201279570053400,2.556053466796875,0.0378173972189426,0.3986044735386967,1.3433908769756555,-0.2926042377948761,-0.8874037861824036,-0.6494958996772766
1783201279579990300,2.565990234375,0.3371139397874474,0.3572217850536108,0.7592378206014633,-0.4036977291107178,-0.8282738924026489,-0.5889942049980164
1783201279589927200,2.57592724609375,0.4477845379017293,0.355785322509706,0.1498182210236787,-0.4188444018363952,-0.7207784056663513,-0.4816150367259979
1783201279599864300,2.5858642578125,0.4001487803712487,0.2756707523092627,-0.4124509203225374,-0.3637039065361023,-0.6850648522377014,-0.3793248832225799
1783201279609801200,2.59580126953125,0.211438007177785,0.1178150630414485,-1.0169523527204989,-0.2523842453956604,-0.7110050916671753,-0.3191903233528137
1783201279619738400,2.60573828125,-0.0969697703462094,-0.0490817185550928,-1.464814778164029,-0.1034450978040695,-0.7601196765899658,-0.3263446390628814
1783201279629675300,2.61567529296875,-0.4461989492107182,-0.193703247718513,-1.8339800989896056,0.0695818811655044,-0.7787893414497375,-0.3856439590454101
1783201279639612200,2.625612060546875,-0.6914556393601,-0.3300248583093285,-2.0816642354816195,0.2436175942420959,-0.7141072750091553,-0.4725634157657623
1783201279649549300,2.63554931640625,-0.7785956512179225,-0.392033570715785,-2.1576579263597724,0.396773487329483,-0.5853258967399597,-0.5746089816093445
1783201279659486200,2.645486328125,-0.7681769138604402,-0.402371132595837,-2.1352409273684025,0.4958087205886841,-0.4275205731391907,-0.6640296578407288
1783201279669423400,2.65542333984375,-0.6576771422684192,-0.4191372662186622,-2.140990869197249,0.5108845233917236,-0.3180372714996338,-0.7529044151306152
1783201279679360300,2.6653603515625,-0.6068512103945016,-0.394885160754621,-2.1729770760446785,0.4542364478111267,-0.1862994879484176,-0.8449110388755798
1783201279689297200,2.675297119140625,-0.5234790266375988,-0.3015866993322968,-1.927729811310768,0.3705373704433441,-0.0361964032053947,-0.9254480004310608
1783201279699234300,2.685234375,-0.4161385958593338,-0.1929158967331051,-1.7340987520456312,0.2815592885017395,0.0670418366789817,-0.9828894138336182
1783201279709171200,2.695171142578125,-0.1851958969403058,-0.0605509148135781,-1.6679191836953162,0.2353566288948059,0.1023861616849899,-1.0018298625946045
1783201279719108400,2.7051083984375,0.1411593329455703,0.0358680167168378,-1.7216402524888514,0.2391665428876876,0.0956166759133338,-0.9961775541305542
1783201279729045200,2.715045166015625,0.3579902486754581,0.2031324625819921,-1.6595827325046062,0.2798736691474914,0.0932894051074981,-0.972922384738922
1783201279738982100,2.724982177734375,0.529836944296956,0.3899661167919636,-1.4137468542277811,0.3413926661014557,0.1041303351521492,-0.9423421025276184
1783201279748919300,2.734919189453125,0.6600592150993645,0.5705693521797657,-1.1255874994844195,0.3897761404514313,0.0958226919174194,-0.9040720462799072
1783201279758856200,2.744856201171875,0.707693219064176,0.7947805508866905,-0.8637100024670362,0.4208744168281555,0.0697183907032013,-0.8675156831741333
1783201279768793300,2.75479345703125,0.7548632587790489,1.011982455353439,-0.5728904886037111,0.443872720003128,0.0609034225344657,-0.8344516754150391
1783201279778730200,2.764730224609375,0.7619440108202398,1.225182430702448,-0.2423486206829547,0.4689189493656158,0.0888224095106124,-0.8015099167823792
1783201279788667100,2.774667236328125,0.7594765977934003,1.3665265456303954,0.1210720190107822,0.4778238832950592,0.1214665994048118,-0.7658360600471497
1783201279798603300,2.784603271484375,0.8015034294009208,1.445163444493711,0.4567389748603105,0.4542895555496216,0.1244264394044876,-0.7091024518013
1783201279808540400,2.79454052734375,0.8663992415510118,1.44159347705245,0.7506172917723656,0.4001318514347076,0.0853380262851715,-0.6327832341194153
1783201279818477000,2.80447705078125,0.9776282042004169,1.3803238925755024,1.1895558215260504,0.2718620300292969,0.0590100176632404,-0.5132206678390503
1783201279828414200,2.814414306640625,1.2333749433778225,1.211519231531024,1.539224999243021,0.1178995370864868,-0.1161857098340988,-0.3717648684978485
1783201279838351400,2.824351318359375,1.160538693617284,1.1376736585974692,1.3222171560436486,-0.0124582033604383,-0.2240874022245407,-0.2678432464599609
1783201279848288300,2.834288330078125,0.7968122028447687,1.0460013370722532,1.3766226999700069,-0.0816002264618873,-0.2348735928535461,-0.2271653860807418
1783201279858225400,2.844225341796875,0.5049146844863891,0.9504121343642472,1.1558382608413695,-0.0893028900027275,-0.2915307581424713,-0.2131004333496093
1783201279868162000,2.854162109375,0.4269377108365297,0.806879861742258,0.7699743186712265,-0.0541506968438625,-0.3129062950611114,-0.1973856836557388
1783201279878099200,2.86409912109375,0.2675722015276551,0.6242582722693681,0.7983674694627523,-0.0371320284903049,-0.3315249681472778,-0.1890230923891067
1783201279888036400,2.874036376953125,0.0738834207259118,0.4065864122033119,0.7029922017663717,-0.0414246544241905,-0.4259842932224273,-0.1797442436218261
1783201279897973200,2.88397314453125,-0.0454794562794268,0.182889885020256,0.4626473221212625,-0.0575162731111049,-0.5367997288703918,-0.1856330335140228
1783201279907910400,2.893910400390625,-0.2002471164040267,0.0400187066555023,0.3424491633355617,-0.0864114910364151,-0.5922809839248657,-0.2150243073701858
1783201279917847000,2.903846923828125,-0.3141603497013449,-0.0909586202979087,0.2167787106186151,-0.1389005482196808,-0.6214612722396851,-0.2483372539281845
1783201279927784200,2.9137841796875,-0.3774780988797545,-0.193669637709856,-0.1328244161248207,-0.2002168893814087,-0.6303375363349915,-0.2680270671844482
1783201279937721300,2.923721435546875,-0.3463602358320727,-0.3507525890395045,-0.4354343210250139,-0.2681280076503753,-0.5817503333091736,-0.2687791287899017
1783201279947658200,2.933658203125,-0.2773074866656214,-0.5440326429098844,-0.6399088458657264,-0.3267567157745361,-0.5223670601844788,-0.2659061253070831
1783201279957595400,2.943595458984375,-0.3312381430892273,-0.6648571169003844,-0.9230378052264452,-0.3704234957695007,-0.4787575304508209,-0.2858601212501526
1783201279967532000,2.953531982421875,-0.4516090646259486,-0.8237307510390878,-1.226796880161762,-0.3972247242927551,-0.4308339059352875,-0.3311139345169067
1783201279977469200,2.96346923828125,-0.696470544912666,-0.9777782801955938,-1.5420973398089408,-0.4136250019073486,-0.35047647356987,-0.4052512943744659
1783201279987406300,2.97340625,-1.0245565441139042,-1.1019634627908468,-1.7427374010533094,-0.4035360515117645,-0.2583644390106201,-0.5049635767936707
1783201279997343200,2.98334326171875,-1.2157654177334158,-1.1554764417916537,-2.003103908985853,-0.344955563545227,-0.1620064675807953,-0.6315233707427979
1783201280007280400,2.9932802734375,-1.2423945545271038,-1.0976353704586626,-2.2110031475782392,-0.2301706969738006,-0.027658924460411,-0.7630716562271118
1783201280017217300,3.00321728515625,-1.1430995561037212,-0.964556979572773,-2.2070248915970323,-0.0728649646043777,0.08541090041399,-0.8585606217384338
1783201280027154200,3.013154296875,-0.9048378394082188,-0.8530541684180497,-2.1185878987312314,0.0811273381114006,0.1523222029209137,-0.8996220231056213
1783201280037091300,3.02309130859375,-0.6291454597890377,-0.7762333790659904,-1.825683979809284,0.2008462846279144,0.1671360284090042,-0.8863427042961121
1783201280047028200,3.0330283203125,-0.4566310575064271,-0.7119874091267585,-1.461075591635704,0.2752023637294769,0.1356087625026703,-0.8509013652801514
1783201280056965400,3.04296533203125,-0.4031861022405326,-0.5874021212980151,-1.1218436367809772,0.3468200862407684,0.0598468966782093,-0.8065536618232727
1783201280066902300,3.05290234375,-0.4075598603453487,-0.4098316777348518,-0.9516729480803012,0.4380431175231933,-0.0046290699392557,-0.7792468667030334
1783201280076839200,3.062839111328125,-0.4779061929862946,-0.2070399914145469,-0.7449123581290245,0.5412078499794006,-0.0170676298439502,-0.7713335752487183
1783201280086776300,3.0727763671875,-0.5773109353944659,0.0011582301244139,-0.409514282348752,0.6225191950798035,0.0261737667024135,-0.789213240146637
1783201280096713200,3.082713134765625,-0.6473756746150553,0.1914829413205385,0.0381786317467689,0.6450306177139282,0.0814295634627342,-0.8112999200820923
1783201280106650400,3.092650390625,-0.6563363951839506,0.3795534438490867,0.5074930105417966,0.6132428050041199,0.1220928281545639,-0.8312220573425293
1783201280116587500,3.10258740234375,-0.5601571176283061,0.5210872361302376,0.9763847800105808,0.53836989402771,0.1265695989131927,-0.829739511013031
1783201280126524200,3.112524169921875,-0.5278652058325708,0.5236538717478514,1.432628664830327,0.4145086705684662,0.0839328467845916,-0.8333740234375
1783201280136461300,3.12246142578125,-0.5899243332520127,0.4977431854218244,1.7983359541565178,0.2788810729980469,-0.0167865697294473,-0.8574926853179932
1783201280146398200,3.132398193359375,-0.5937507596723735,0.4948375271081924,1.9572838225752116,0.1562089025974273,-0.1273275911808014,-0.8921682834625244
1783201280156335400,3.14233544921875,-0.565924741244316,0.5005073894381523,2.025462455788255,0.0556716471910476,-0.2274190336465835,-0.931733012199402
1783201280166272500,3.1522724609375,-0.5150246481556445,0.5364759439200163,2.0083377179861066,-0.0217667669057846,-0.3126744329929352,-0.9601801037788392
1783201280176209200,3.162209228515625,-0.4564671721816062,0.6387748733997345,1.965158501473069,-0.0836317241191864,-0.381948322057724,-0.9748520255088806
1783201280186146300,3.172146240234375,-0.3527892824988812,0.7576596114993095,1.925387047576904,-0.1320684850215912,-0.4366733729839325,-0.9710919857025146
1783201280196083200,3.182083251953125,-0.2221967536119744,0.8591735280811786,1.9430729263931512,-0.1985116899013519,-0.501152515411377,-0.9363073706626892
1783201280206020400,3.192020263671875,-0.1199433803070336,0.9019044163048268,1.9266876087814568,-0.2852800488471985,-0.561766505241394,-0.8953527212142944
1783201280215957200,3.201957275390625,-0.0387725790519267,0.86566113653481,1.897813396474719,-0.367240697145462,-0.5988057851791382,-0.8544138073921204
1783201280225894100,3.21189404296875,-0.0130001321528106,0.8199521092832088,1.813368103593588,-0.4311619102954864,-0.6290249228477478,-0.8199247717857361
1783201280235831300,3.221831298828125,0.0462394078012555,0.7516857977867126,1.5621727441102264,-0.4502245485782623,-0.6373241543769836,-0.7925573587417603
1783201280245768200,3.231768310546875,0.1974870771061629,0.6641074675768613,1.2435814262241125,-0.4123227000236511,-0.6161019802093506,-0.7614952325820923
1783201280255705300,3.241705322265625,0.3039151422798633,0.6567936374321579,0.8862012357383966,-0.3226769566535949,-0.5867688655853271,-0.7227827310562134
1783201280265642200,3.251642333984375,0.3810602682154625,0.6565376168444752,0.5473766926407814,-0.229337602853775,-0.5894773006439209,-0.6662570834159851
1783201280275579100,3.2615791015625,0.3115557932261377,0.746552526551485,0.3381254549175501,-0.1992803663015365,-0.6411088109016418,-0.6173946857452393
1783201280285516300,3.271516357421875,0.2390379617650061,0.7964175044387578,0.1972521723717451,-0.217313066124916,-0.7128288745880127,-0.5699952244758606
1783201280295453200,3.281453125,0.3148278006341308,0.676314622721076,0.0440782111793756,-0.2599103152751922,-0.7739763855934143,-0.5285002589225769
1783201280305390300,3.291390380859375,0.439699284993112,0.6287611366465687,-0.2027612911820411,-0.3114109635353088,-0.8402945399284363,-0.504391074180603
1783201280315327200,3.3013271484375,0.6614831834878772,0.6154410518243909,-0.6831307324767112,-0.370874285697937,-0.8945982456207275,-0.4900987446308136
1783201280325264100,3.31126416015625,0.9212423731770366,0.618879794101417,-1.3649334312200545,-0.4097050130367279,-0.8505992293357849,-0.4699350893497467
1783201280335201300,3.321201171875,1.109853193127364,0.618601853942871,-1.9918454328686,-0.4137948155403137,-0.6748231053352356,-0.4102315306663513
1783201280345138400,3.331138427734375,1.3421750714451073,0.4250622723534703,-2.4818179842889307,-0.3940410912036896,-0.4966502785682678,-0.3486787676811218
1783201280355075300,3.341075439453125,1.2978195046290757,0.7171034369662403,-3.0955992862075568,-0.3052254617214203,-0.285630464553833,-0.3390596807003021
1783201280365012200,3.35101220703125,1.2455100561991332,0.8606701963797211,-3.2890111497640606,-0.190870463848114,-0.0699116587638855,-0.3134749829769134
1783201280374949000,3.36094921875,1.344207892446965,0.5278571686565876,-3.380936569267511,-0.1181605756282806,0.015624014660716,-0.2843959331512451
1783201280384886300,3.37088623046875,1.3745514466539024,0.4822977790087461,-3.463620697695017,-0.0683424845337867,0.0373175181448459,-0.2724631726741791
1783201280394823400,3.380823486328125,1.4109811889067292,0.4950216515034437,-3.3714836812675,-0.0064958948642015,0.0536640025675296,-0.2680428326129913
1783201280404760300,3.39076025390625,1.480192964559793,0.532531882469356,-3.29518545448482,0.0560806021094322,0.1046897321939468,-0.2578133940696716
1783201280414697200,3.400697265625,1.5122688955172896,0.6504454374492168,-3.1545804674863813,0.1118767634034156,0.2211862504482269,-0.2365245968103408
1783201280424634000,3.410634033203125,1.5124189715124663,0.7348357852727174,-2.9342870267450807,0.1524141430854797,0.3622310161590576,-0.2013044506311416
1783201280434571300,3.4205712890625,1.560056044217199,0.8082783303633332,-2.705254983752966,0.1870562732219696,0.4771730303764343,-0.1556589305400848
1783201280444508400,3.43050830078125,1.5652558048173784,0.9269859583303331,-2.463176412183046,0.2317985296249389,0.5757814049720764,-0.0981887057423591
1783201280454445300,3.4404453125,1.5296445393405853,1.0515531259804964,-2.15368960725069,0.2850137948989868,0.6426898837089539,-0.040180530399084
1783201280464382200,3.45038232421875,1.4782479679718612,1.2048659111216664,-1.829113954257965,0.3536656498908996,0.6781121492385864,0.0277413874864578
1783201280474319000,3.460319091796875,1.3896876409873369,1.354383980154991,-1.4543927528709173,0.4240162670612335,0.715788722038269,0.0877224281430244
1783201280484256300,3.47025634765625,1.284209789210558,1.502956292770803,-1.0219289720892906,0.4878449440002441,0.7441337704658508,0.1389897167682647
1783201280494193400,3.480193359375,1.173311373689771,1.6416653830200432,-0.5507505529880523,0.5155591368675232,0.7390202283859253,0.1912917792797088
1783201280504130300,3.49013037109375,1.0961225547429174,1.6739494037702678,-0.1179565173387527,0.4981150329113006,0.6982603073120117,0.2419424802064895
1783201280514067200,3.500067138671875,0.9842794787831604,1.6355343329191208,0.2561164492726326,0.4551611840724945,0.6491188406944275,0.2901030778884887
1783201280524004000,3.510004150390625,0.8588292446881532,1.6493465851724147,0.5772171196311712,0.4098079800605774,0.604727566242218,0.3175356686115265
1783201280533941200,3.519941162109375,0.7860691289037466,1.6090139902621508,0.7977998987078666,0.3693138360977173,0.569171130657196,0.3455398678779602
1783201280543878400,3.52987841796875,0.7675748563140631,1.615295262488723,0.9915367564350366,0.3201166093349457,0.5459683537483215,0.3746991157531738
1783201280553815300,3.539815185546875,0.8184857630576938,1.6547089889883997,1.174661034733057,0.267790824174881,0.5397485494613647,0.4125362336635589
1783201280563752200,3.549752197265625,0.9188089354850352,1.6674503971397876,1.4121885188698768,0.1882470846176147,0.5404881834983826,0.476802796125412
1783201280573689300,3.559689453125,0.95482008699961,1.6289099463433026,1.6161492489695548,0.0930497348308563,0.5257883071899414,0.5586965680122375
1783201280583626200,3.569626220703125,0.8788239849686622,1.5676123048156498,1.7112597282499074,0.0052507389336824,0.4995958209037781,0.6371495127677917
1783201280593563400,3.5795634765625,0.6957802245609462,1.4872691865563392,1.753099805113673,-0.0574493966996669,0.4532315135002136,0.6951504945755005
1783201280603500300,3.589500244140625,0.5344787787534296,1.3587515277147293,1.7540075676083564,-0.0886117294430732,0.3791901469230652,0.7451884746551514
1783201280613437200,3.599437255859375,0.4072557628322392,1.23782330108881,1.702012007433176,-0.0893568769097328,0.2830367088317871,0.790203332901001
1783201280623374300,3.609374267578125,0.3202820474520325,1.176061549180746,1.6491145299822092,-0.06943379342556,0.1842717379331588,0.8390194773674011
1783201280633311200,3.619311279296875,0.280218917132914,1.1357394756644963,1.597996921685338,-0.0383453853428363,0.0815245807170867,0.8904917240142822
1783201280643248400,3.629248291015625,0.1882459321606904,1.0158628039181232,1.569246043497324,-0.0299584828317165,-0.0115363802760839,0.9438503980636596
1783201280653185300,3.639185302734375,0.0681650430791079,0.8219178563982248,1.5597668520122765,-0.0300458334386348,-0.0805274322628974,0.9866908192634584
1783201280663122200,3.6491220703125,-0.0668829673793166,0.6655611735165119,1.542804026773572,-0.0471143424510955,-0.1275927722454071,1.0149576663970947
1783201280673059300,3.659059326171875,-0.2176913684841245,0.5012982475548983,1.4763018023401495,-0.066259279847145,-0.1543077379465103,1.0309933423995972
1783201280682996200,3.668996337890625,-0.3688364541973918,0.3370160323709249,1.2754361156463625,-0.0641911253333091,-0.18093042075634,1.037285566329956
1783201280692933400,3.678933349609375,-0.5056947289481759,0.3098106300592422,1.011105380257964,-0.0373027846217155,-0.2213691771030426,1.0278375148773191
1783201280702870300,3.688870361328125,-0.5842313823074102,0.304697232568264,0.7112018117070198,0.0123117603361606,-0.2883999943733215,1.0118036270141602
1783201280712807200,3.69880712890625,-0.5307810202140361,0.2515285369604826,0.4023632415503263,0.0628705397248268,-0.3969586789608001,1.025729775428772
1783201280722744300,3.708744384765625,-0.2568711400974541,0.0315045608103275,0.0237882873445749,0.0977171435952186,-0.5376254320144653,1.0702931880950928
1783201280732681200,3.71868115234375,-0.103254038247466,-0.1525146205008029,-0.4494815510779619,0.1132143437862396,-0.6604858636856079,1.1099660396575928
1783201280742618400,3.728618408203125,-0.1678627040192484,-0.2676478971123695,-0.9709387895643712,0.1051341518759727,-0.6862786412239075,1.1170119047164917
1783201280752555300,3.73855517578125,-0.3302629048489034,-0.4485831409335136,-1.3523627034604548,0.0732550546526908,-0.6082413196563721,1.079909324645996
1783201280762492200,3.7484921875,-0.5148634662445635,-0.5891296757429838,-1.6715718609839676,0.032735489308834,-0.4499111175537109,1.0150187015533447
1783201280772429300,3.75842919921875,-0.6296576470948755,-0.650301645064354,-1.8910615841269487,-0.0141462655737996,-0.2491220831871032,0.934756636619568
1783201280782366200,3.7683662109375,-0.566487562758848,-0.6538502774566411,-2.096967603075504,-0.0467615984380245,-0.0705888420343399,0.8503020405769348
1783201280792303400,3.778303466796875,-0.2844258673034608,-0.6180822139829397,-2.281654308384657,-0.0699089914560318,0.0609153881669044,0.7947588562965393
1783201280802240300,3.788240234375,0.0493581243436783,-0.6299602833032608,-2.43607037859261,-0.0795346200466156,0.1525757312774658,0.7697204947471619
1783201280812177200,3.79817724609375,0.1792418108414858,-0.6261392637103795,-2.595631410473585,-0.0713832229375839,0.2234637588262558,0.7580901980400085
1783201280822114300,3.8081142578125,0.1266155515473336,-0.557433391752839,-2.741783510205149,-0.0367245450615882,0.3209051787853241,0.7608495950698853
1783201280832051200,3.81805126953125,0.1285248192347586,-0.6407616633027792,-2.716468451684713,0.0201443303376436,0.3753236830234527,0.7517862915992737
1783201280841988400,3.82798828125,-0.029293972088769,-0.3408703697115183,-2.7997657435745,0.1106448620557785,0.4696710705757141,0.710374116897583
1783201280851925200,3.83792529296875,-0.1142494795143604,-0.138939099612832,-2.587496619334817,0.2128087878227234,0.6002964377403259,0.6743186116218567
1783201280861862100,3.847862060546875,-0.043635435847938,-0.1137953060060739,-2.3212656032830474,0.2992418706417084,0.7043566107749939,0.6455274820327759
1783201280871799300,3.85779931640625,0.04116992251724,0.0596691635429859,-1.9639549709022044,0.3522858917713165,0.7588901519775391,0.6310883164405823
1783201280881736200,3.867736083984375,0.1111764287445694,0.289680280700326,-1.5748340727627277,0.378773033618927,0.7956963181495667,0.6361328959465027
1783201280891673300,3.87767333984375,0.1653968253623694,0.4359159670621156,-1.143408987379074,0.3897615075111389,0.8192042708396912,0.664436399936676
1783201280901610500,3.887610595703125,0.2000549548327922,0.5589391201406717,-0.7525713484495877,0.4093064665794372,0.8216274976730347,0.7003501057624817
1783201280911547100,3.897547119140625,0.1589886388204991,0.6603209347754716,-0.4277566260039806,0.4329686462879181,0.8127458095550537,0.7355080842971802
1783201280921484300,3.907484375,0.0202343942552804,0.7731301523536444,-0.1037988126486539,0.4614006578922272,0.8052638173103333,0.760399580001831
1783201280931421200,3.917421142578125,-0.1011781087562441,0.8350438799530268,0.2099403890311718,0.4923197031021118,0.7963406443595886,0.7737012505531311
1783201280941358300,3.9273583984375,-0.1912017497589811,0.84592943110466,0.5466641604572534,0.521160364151001,0.780101478099823,0.7770348787307739
1783201280951295500,3.93729541015625,-0.199430356661044,0.9038982204705476,0.8903490030676126,0.5446470379829407,0.7381271123886108,0.7775949239730835
1783201280961232100,3.947232177734375,-0.1291840137958526,0.9918243412047624,1.259891340512037,0.5563730597496033,0.6923571825027466,0.78731369972229
1783201280971169300,3.957169189453125,-0.0367243412852287,1.1142284856021405,1.6593261273950335,0.5422820448875427,0.6459518671035767,0.8059486150741577
1783201280981106200,3.967106201171875,0.0283794510597363,1.1789835741072892,2.0874556783646345,0.4741133153438568,0.5856093168258667,0.8555317521095276
1783201280991043300,3.977043212890625,0.0632116584554314,1.0718103165894746,2.378546410384774,0.3580282628536224,0.4911448657512665,0.9339333176612854
1783201281000980500,3.98698046875,-0.026432664373517,0.9014309535741806,2.4936907929122447,0.2292435765266418,0.3949569165706634,1.0042872428894043
1783201281010917000,3.996917236328125,-0.2663087209304794,0.7389847216457128,2.467143562248349,0.1136437505483627,0.3193867802619934,1.0451805591583252
1783201281020854300,4.006854248046875,-0.5452266750000417,0.5886527058809995,2.33360895202756,0.0353668928146362,0.2506950199604034,1.05799400806427
1783201281030791200,4.016791259765625,-0.7684890485495328,0.4563023370087146,2.089002907806635,-0.0243278592824935,0.2049304395914077,1.04981791973114
1783201281040729000,4.02672900390625,-0.9289490750968455,0.3337462169200181,1.9098247367858885,-0.0737667754292488,0.1646145582199096,1.0196386575698853
1783201281050666000,4.036666015625,-1.0571877708666026,0.2681920869916677,1.711443268123269,-0.1168181002140045,0.1203469783067703,0.9676255583763124
1783201281060603100,4.04660302734375,-1.158852201835066,0.2426426351934671,1.5083184043258429,-0.1725580096244812,0.0590169765055179,0.9013254046440125
1783201281070540000,4.0565400390625,-1.1194762500625104,0.1388087512314319,1.2618757923275232,-0.2696030735969543,-0.0270755626261234,0.8525333404541016
1783201281080477000,4.066476806640625,-0.9064382603421808,-0.0977110171675682,0.902412950348854,-0.3854497373104095,-0.137206882238388,0.8477833271026611
1783201281090414000,4.0764140625,-0.5564489107601345,-0.3454816628992557,0.3450082001686096,-0.4799490571022033,-0.2368740886449813,0.8693591952323914
1783201281100351000,4.08635107421875,-0.3656410922221839,-0.4580483038932085,-0.2319832940131425,-0.5133456587791443,-0.3023541569709778,0.892669677734375
1783201281110288100,4.0962880859375,-0.2804696770235896,-0.6267419057786464,-0.8534802848756313,-0.4810253083705902,-0.3130557835102081,0.9086001515388488
1783201281120225000,4.10622509765625,-0.284481396882981,-0.8693149828672408,-1.3594155445814131,-0.3993317782878876,-0.2840994894504547,0.8895995020866394
1783201281130162000,4.116161865234375,-0.4214802491482347,-0.9370546401411296,-1.7998492813289164,-0.2976109981536865,-0.2150359898805618,0.8298264145851135
1783201281140099000,4.12609912109375,-0.6116737351801246,-0.9185545223325492,-2.087133606803417,-0.2061903327703476,-0.1193608120083808,0.763832151889801
1783201281150036200,4.1360361328125,-0.5951002015199512,-0.9448071539640426,-2.236447969958186,-0.1489960253238678,-0.0501891933381557,0.6861085891723633
1783201281159973000,4.14597314453125,-0.5947856556780636,-0.6347153688758611,-2.394658171752095,-0.0925814881920814,0.028231456875801,0.6349171996116638
1783201281169910000,4.155909912109375,-0.3406444520011544,-0.6471651006042957,-2.427444004544616,-0.0203882567584514,0.1325352191925048,0.6471821665763855
1783201281179847000,4.165846923828125,-0.0513305203951895,-0.7283037531554698,-2.4271815542161463,0.0676695853471756,0.224091038107872,0.6798544526100159
1783201281189784000,4.1757841796875,0.0666307461839169,-0.5740495955109596,-2.429652912765741,0.1869666874408722,0.3035219609737396,0.6991996765136719
1783201281199721200,4.18572119140625,0.069486866267398,-0.4427870218753814,-2.3809032026439905,0.3304597735404968,0.3699160814285278,0.689997136592865
1783201281209658000,4.195658203125,0.004288490974158,-0.3194751149833202,-2.230222811833024,0.4760598540306091,0.4180718660354614,0.668103814125061
1783201281219595000,4.205594970703125,0.0070283642668277,-0.1444739373862743,-1.9878005413919688,0.6099335551261902,0.4419580698013305,0.6488744616508484
1783201281229532000,4.215531982421875,0.0118495008129626,0.0610743541657924,-1.6725684708058832,0.7185681462287903,0.4624281823635101,0.627605676651001
1783201281239469000,4.225468994140625,0.028757454059273,0.2897539304584264,-1.225059096583724,0.7838048338890076,0.4841525554656982,0.6086299419403076
1783201281249406200,4.23540625,0.0907606135077774,0.5010445650547742,-0.7529302448898554,0.8024347424507141,0.504955530166626,0.6009209156036377
1783201281259343000,4.245343017578125,0.1537469387747347,0.6288935308545828,-0.2862169885039329,0.7691939473152161,0.5317297577857971,0.6053413152694702
1783201281269280000,4.255280029296875,0.1438704185351729,0.6834808610886335,0.1597416491448879,0.6977304220199585,0.5728670954704285,0.6071269512176514
1783201281279217000,4.265216796875,0.105161552369222,0.7107347787171602,0.5729758287996053,0.6076640486717224,0.6256235837936401,0.6033790707588196
1783201281289155000,4.275155029296875,0.0258829215362668,0.738158207693696,0.8917045093297958,0.5194324254989624,0.6767525672912598,0.5960124731063843
1783201281299092000,4.285092041015625,-0.042964112457633,0.7681769138604402,1.133337675219774,0.4451152384281158,0.7159417867660522,0.5861555933952332
1783201281309029000,4.295029052734375,-0.1043288278721272,0.813657393053174,1.338882459640503,0.3875137567520141,0.7248276472091675,0.5745636820793152
1783201281318966300,4.30496630859375,-0.1267966802679002,0.867764830815792,1.4905495234012602,0.3469544649124145,0.6823297142982483,0.5660301446914673
1783201281328903000,4.31490283203125,-0.0592310643866658,0.8932178365021943,1.575592197653651,0.3178053796291351,0.5955295562744141,0.574043333530426
1783201281338840000,4.324840087890625,-0.0013306640818715,0.8913204784482717,1.6663298686772583,0.2875288128852844,0.4734069108963012,0.6037652492523193
1783201281348777000,4.33477685546875,0.0191929223783314,0.8632207576453685,1.7124305255949497,0.2582516372203827,0.3506130874156952,0.6483252644538879
1783201281358714000,4.344714111328125,0.0320828721549361,0.8124468482196331,1.7327350624769926,0.2274752706289291,0.2519584894180298,0.6902446746826172
1783201281368651300,4.3546513671875,0.0120110480502247,0.7445359260320663,1.7831740408599377,0.1920754760503769,0.1920898109674453,0.7291601300239563
1783201281378588000,4.364587890625,-0.0463429412409663,0.697004944050312,1.8559014234185216,0.1452835351228714,0.1660630851984024,0.76071697473526
1783201281388525000,4.374525146484375,-0.1514611659251153,0.6462327881902455,1.9006921667814252,0.0778672099113464,0.1565004736185073,0.7726263403892517
1783201281398462000,4.3844619140625,-0.2843520714148879,0.5984814414560794,1.933639912137389,-0.0302455686032772,0.141753688454628,0.7649984955787659
1783201281408399000,4.394399169921875,-0.4172830897193402,0.5413911884903907,1.857090340942144,-0.1612216830253601,0.1183232143521308,0.7503361701965332
1783201281418336000,4.4043359375,-0.5164056541852653,0.3630371933341026,1.6255752489626407,-0.2807686030864715,0.1186833903193473,0.728434145450592
1783201281428273000,4.41427294921875,-0.637130905584991,0.1615203492552042,1.3930483495920896,-0.3751842975616455,0.1400573849678039,0.6837612390518188
1783201281438210000,4.4242099609375,-0.7691910593390464,0.0084486793935298,1.1665940481334924,-0.4424821734428406,0.164671704173088,0.6327477097511292
1783201281448147000,4.43414697265625,-0.7397486917555331,-0.1500058525502681,0.937383725965023,-0.4724371433258056,0.1571650505065918,0.5846872329711914
1783201281458084000,4.444083984375,-0.6211949391759932,-0.2399269464939832,0.6804957077980041,-0.4756954312324524,0.1184847205877304,0.5350757241249084
1783201281468021000,4.45402099609375,-0.4688645892009139,-0.2224474039047956,0.4540887526124715,-0.4717718064785003,0.053974162787199,0.50432950258255
1783201281477958000,4.4639580078125,-0.3222565623953938,-0.1539998906224965,0.2039981395006179,-0.4669796228408813,-0.0187070202082395,0.4894249439239502
1783201281487895000,4.47389501953125,-0.2385071428239345,-0.0807651430636644,-0.1038344684839248,-0.468388170003891,-0.0631605088710784,0.5007840991020203
1783201281497832000,4.48383203125,-0.1603212025985121,-0.0054570963621139,-0.3853220903784036,-0.4650876820087433,-0.0724658519029617,0.5200268626213074
1783201281507769000,4.49376904296875,-0.1276544661410152,-0.0014870236873626,-0.6672112788110971,-0.4772610068321228,-0.0795139074325561,0.5336111187934875
1783201281517706000,4.5037060546875,-0.1424224116839468,-0.0485883820801973,-0.9338871160209178,-0.509490430355072,-0.0745835155248642,0.5299724340438843
1783201281527643000,4.513642822265625,-0.1417224467210471,-0.1818909371107816,-1.1478472620874642,-0.5459568500518799,-0.0398782677948474,0.5067115426063538
1783201281537580000,4.523580078125,-0.1443698924899101,-0.2857102080255747,-1.3088070548504591,-0.5805505514144897,0.0231238976120948,0.4641335308551788
1783201281547517200,4.53351708984375,-0.1452943138584494,-0.4005746045678853,-1.4683283392429352,-0.6106637120246887,0.1034469678997993,0.4152245819568634
1783201281557454000,4.5434541015625,-0.1248662967272102,-0.516571220010519,-1.6575906819045545,-0.6202710866928101,0.1826246827840805,0.3801243007183075
1783201281567391000,4.553390869140625,-0.135244629009068,-0.5196557420223951,-1.8348820162653925,-0.6031243205070496,0.2876733243465423,0.3552679419517517
1783201281577327900,4.563327880859375,-0.0964743149794638,-0.5481257574424148,-1.9183511575907468,-0.5474832057952881,0.4225442707538605,0.3657570779323578
1783201281587265000,4.57326513671875,-0.0220674549013376,-0.6577002308830618,-1.8359762412428853,-0.4689952731132507,0.5319698452949524,0.3731135129928589
1783201281597202200,4.5832021484375,-0.1114092876523733,-0.4039993183195591,-1.778109743207693,-0.3407329022884369,0.6342410445213318,0.3513774275779724
1783201281607139000,4.59313916015625,-0.1854120969742536,-0.1886331048473715,-1.51783500521183,-0.1730022132396698,0.7113981246948242,0.3423961997032165
1783201281617076000,4.603075927734375,-0.1043076389536261,-0.206234227989614,-1.183662087312341,-0.0073496960103511,0.7197756767272949,0.3559550642967224
1783201281627012900,4.613012939453125,-0.029069734878838,-0.1181049858987331,-0.7501298005163669,0.1258549690246582,0.6662357449531555,0.3846343755722046
1783201281636950000,4.622949951171875,-4.51543159782e-05,0.0402826182886958,-0.2346937220156192,0.221183031797409,0.592137336730957,0.4261381924152374
1783201281646887200,4.63288720703125,-0.0219207399070262,0.1424655201733112,0.3314601518094539,0.2609442770481109,0.5325107574462891,0.4542734324932098
1783201281656824000,4.642823974609375,-0.0895081292286515,0.2224412664249539,0.8904507098764181,0.2516497373580932,0.4811719059944153,0.4661359786987304
1783201281666761000,4.652760986328125,-0.1627712260991334,0.2997305500715971,1.3343454007327555,0.2149175554513931,0.4206267595291137,0.4791044890880584
1783201281676697900,4.66269775390625,-0.1953333331383764,0.3705634971857071,1.6907126147836449,0.1610560715198516,0.3667782545089721,0.4834596514701843
1783201281686636000,4.672635986328125,-0.1714535681180655,0.4717521273359656,1.954793174803257,0.0838917717337608,0.2907662987709045,0.4900472462177276
1783201281696573000,4.682572998046875,-0.064239101807028,0.5316027849256992,2.0979858402073384,0.0072162812575697,0.2294172942638397,0.5178279876708984
1783201281706510000,4.692510009765625,0.0450045322440564,0.5247974888250232,2.2283254537791013,-0.0652243643999099,0.1833318322896957,0.5564723014831543
1783201281716447200,4.702447265625,0.051605537944287,0.5765291373670101,2.246859473857284,-0.1219191327691078,0.1284392774105072,0.5958251953125
1783201281726383900,4.7123837890625,0.0492298948541283,0.6212251881837845,2.201025358921289,-0.1617373973131179,0.0823421031236648,0.6358889937400818
1783201281736321000,4.722321044921875,0.0409874055571854,0.5906356963917613,2.1141566382855177,-0.1649392992258072,0.0224593468010425,0.6795862913131714
1783201281746258000,4.7322578125,0.031780601272732,0.546485881280899,1.9681991843432187,-0.1430052369832992,-0.0378961376845836,0.715854823589325
1783201281756195000,4.742195068359375,-0.0668460694350302,0.5281687188237906,1.8653753542065616,-0.1284974664449691,-0.12518310546875,0.7396647930145264
1783201281766132200,4.75213232421875,-0.2534275024496019,0.5501829822331666,1.7486638684928415,-0.1545943170785904,-0.2481979876756668,0.7384508848190308
1783201281776068900,4.76206884765625,-0.4425812701702117,0.4897036713510751,1.5960732601463794,-0.2378196567296981,-0.3714019060134887,0.7223732471466064
1783201281786006000,4.772006103515625,-0.5852974041037261,0.3675114161387086,1.3899632430583235,-0.369651734828949,-0.4756750464439392,0.6948526501655579
1783201281795943000,4.78194287109375,-0.5742420493431389,0.170735629107058,1.0559574984192848,-0.5340846180915833,-0.5425127148628235,0.6653534173965454
1783201281805880000,4.791880126953125,-0.4757167931832373,-0.0542830865904688,0.6108394032478333,-0.698998212814331,-0.5461601614952087,0.6474418044090271
1783201281815817200,4.801817138671875,-0.4430426040716469,-0.226264331844449,0.19629180290699,-0.8530703186988831,-0.497875303030014,0.6526317596435547
1783201281825753900,4.81175390625,-0.4342304981932043,-0.3598758066937327,-0.2920090159088373,-0.963208556175232,-0.4267342984676361,0.6722078919410706
1783201281835691000,4.82169091796875,-0.4974387956477701,-0.5773118121773004,-0.8706494463413953,-1.0322669744491575,-0.3545916676521301,0.6963127851486206
1783201281845628000,4.8316279296875,-0.5991174012720585,-0.8362120469495654,-1.3535557126373052,-1.0510867834091189,-0.2964274287223816,0.7210069894790649
1783201281855565000,4.84156494140625,-0.7207084757208824,-1.1125742886543273,-1.7699924877256157,-1.000654697418213,-0.2511572539806366,0.7387539148330688
1783201281865502200,4.851502197265625,-0.8990181933440268,-1.349339556246996,-2.1289000339090824,-0.8920041918754578,-0.2696459889411926,0.7401057481765747
1783201281875438800,4.86143896484375,-1.0527033189289272,-1.543655675166845,-2.5288550452739,-0.7412299513816833,-0.301984429359436,0.7088004946708679
1783201281885376000,4.8713759765625,-1.474850434488058,-1.5862486162245273,-2.5656629731893537,-0.5711178779602051,-0.2940889596939087,0.6302604079246521
1783201281895313200,4.881313232421875,-1.923190706576407,-1.666073263567686,-2.6008716492146253,-0.3860014081001282,-0.2644990682601928,0.4943887293338775
1783201281905250000,4.89125,-2.3692674176469444,-1.8198945827528836,-2.610737794190645,-0.2042859643697738,-0.1376412510871887,0.3032845556735992
1783201281915187200,4.901187255859375,-2.7111878809332848,-1.8338424440845849,-2.277270978733897,-0.0430882014334201,0.0100624514743685,0.0750232264399528
1783201281925123800,4.911123779296875,-2.725115283998847,-1.7375795798987148,-2.067314807611704,0.099218875169754,0.1113336756825447,-0.1382709443569183
1783201281935061000,4.92106103515625,-2.3801067915692924,-1.6680162143290045,-1.896640845564008,0.2374723851680755,0.1751652508974075,-0.2977614998817444
1783201281944998100,4.930998046875,-1.9873482675798235,-1.530431159673631,-1.6076543923467397,0.3534980416297912,0.2381828278303146,-0.4067694544792175
1783201281954935000,4.94093505859375,-1.7583314221568405,-1.2223331787511706,-1.1025327871114017,0.4173870682716369,0.3233018219470978,-0.4722086489200592
1783201281964872200,4.9508720703125,-1.558658306248486,-0.9238859464883804,-0.4857902972996235,0.4270021319389343,0.381708413362503,-0.5053322315216064
1783201281974808800,4.960808837890625,-1.3772981150135395,-0.7210439912855625,-0.0084112699925899,0.3987752795219421,0.3876599073410034,-0.5212376117706299
1783201281984747000,4.9707470703125,-1.2289553733699023,-0.5348308070614933,0.3991606461167335,0.3595293164253235,0.3719443380832672,-0.5404760241508484
1783201281994684000,4.980683837890625,-1.1068056421250103,-0.3211272661045193,0.783636348798871,0.330014169216156,0.3477236330509186,-0.5720952749252319
1783201282004621000,4.99062109375,-0.9823702841609716,-0.1009688499197363,1.0904898826181888,0.3025519251823425,0.3288745582103729,-0.6005985140800476
1783201282014558000,5.000557861328125,-0.843424754807353,0.0551516861185431,1.3892846131443977,0.2738416790962219,0.3141676783561706,-0.6308525204658508
1783201282024495000,5.0104951171875,-0.7117306578867137,0.2043660960301756,1.6469442002058028,0.2347453832626342,0.2824917733669281,-0.6603438258171082
1783201282034432000,5.020431884765625,-0.5513577251009643,0.3466825631216168,1.9138836567878723,0.1715888082981109,0.2437977790832519,-0.6859697699546814
1783201282044369200,5.030369140625,-0.3855643747016787,0.4605208314865827,2.143723509031534,0.0980709120631218,0.1766493618488311,-0.7015556693077087
1783201282054306300,5.040306396484375,-0.219872877241671,0.5627940420031547,2.3113795845627783,0.0129299778491258,0.1179491430521011,-0.7043383717536926
1783201282064243200,5.0502431640625,-0.0348965413361787,0.6695183867096901,2.470456047797203,-0.0803901180624961,0.04877620190382,-0.6949693560600281
1783201282074180000,5.06018017578125,0.1594683851614594,0.7418424491643906,2.526516373193264,-0.1597073972225189,-0.0454188287258148,-0.6570606827735901
1783201282084117200,5.0701171875,0.4271431702807545,0.6992147290542722,2.42736158695817,-0.2020460665225982,-0.1757177114486694,-0.5938167572021484
1783201282094054100,5.08005419921875,0.6615490152657032,0.5991156477063894,2.200524423661828,-0.1883018910884857,-0.2821881771087646,-0.5032892823219299
1783201282103991300,5.0899912109375,0.769088329616934,0.4984443194285035,2.0364082126945258,-0.1249804347753524,-0.3630960881710052,-0.4019762575626373
1783201282113928200,5.09992822265625,0.6150842012107371,0.4314879214867949,1.918933925914764,-0.0508312284946441,-0.4468383193016052,-0.3166042864322662
1783201282123865000,5.109864990234375,0.1961588241770863,0.3311553236439823,1.793990033906698,0.0181414447724819,-0.536880612373352,-0.2775095999240875
1783201282133802200,5.11980224609375,-0.2388983340986072,0.2459603814393282,1.720751779216528,0.0689759775996208,-0.6595714092254639,-0.2954631149768829
1783201282143739100,5.1297392578125,-0.6327659883737564,0.3083119159340858,1.5891607042789455,0.0414918921887874,-0.8430211544036865,-0.3622885048389435
1783201282153676300,5.13967626953125,-0.8210051254674792,0.3890311740294098,1.3551292455643416,-0.0926024243235588,-1.0671992301940918,-0.4256297051906585
1783201282163613400,5.149613525390625,-0.77027081739977,0.3930769422888756,0.905230930379033,-0.3205692768096924,-1.2847579717636108,-0.4641664326190948
1783201282173550000,5.159550048828125,-0.5673766936182976,0.2813789008229971,0.1905845311760902,-0.5567416548728943,-1.3838647603988647,-0.4738042950630188
1783201282183487200,5.1694873046875,-0.4016108157478272,0.0860007056295871,-0.5546265176385641,-0.7406297326087952,-1.2913795709609983,-0.4714468717575073
1783201282193424100,5.179424072265625,-0.2811227341048419,-0.067141983641684,-1.3265776893407106,-0.8429292440414429,-1.0363080501556396,-0.470529705286026
1783201282203361300,5.189361328125,-0.1855585197076201,-0.2199944577947258,-1.9857921241790053,-0.9011459350585938,-0.6824262738227844,-0.4735784828662872
1783201282213298400,5.19929833984375,-0.1540649186827242,-0.4129164920076728,-2.460430912867188,-0.9306354522705078,-0.3521941304206848,-0.4889606535434723
1783201282223235000,5.209235107421875,-0.2777935896821319,-0.594737286491692,-2.8144629619687795,-0.9338717460632324,-0.0686817392706871,-0.5164050459861755
1783201282233172200,5.219172119140625,-0.4448685043245554,-0.7917001205280423,-2.886355647268892,-0.902634620666504,0.0981237217783927,-0.5630298852920532
1783201282243109000,5.229109130859375,-0.5911693648770451,-0.6877353036627173,-3.08418006657064,-0.8007346391677856,0.1492433696985244,-0.670564591884613
1783201282253047300,5.23904736328125,-0.6311027313366532,-0.4971384975269436,-3.0752631851434704,-0.6169645190238953,0.1480890214443206,-0.7614505290985107
1783201282262984200,5.248984130859375,-0.3571818914346397,-0.5272706009402871,-3.0324241603702307,-0.391147643327713,0.0909285396337509,-0.8126990795135498
1783201282272921300,5.25892138671875,-0.0795737413220107,-0.4212506051108241,-2.960828996711969,-0.1539782434701919,0.0190976150333881,-0.813539445400238
1783201282282858200,5.268858154296875,0.1690845008991658,-0.3071905106887221,-2.7325796285301447,0.0557329095900058,-0.0456989556550979,-0.765208899974823
1783201282292795100,5.278795166015625,0.3150741035453975,-0.2554267134428024,-2.4612182638525963,0.2173639982938766,-0.0761020481586456,-0.7066157460212708
1783201282302732300,5.288732177734375,0.3266901609286666,-0.1606862365186214,-2.070029327267408,0.333836555480957,-0.0491559244692325,-0.6598295569419861
1783201282312669200,5.298669189453125,0.2339478720843791,-0.0060980246141552,-1.600204660862684,0.4097222983837127,0.0069105345755815,-0.6360592842102051
1783201282322606300,5.3086064453125,0.113670218321681,0.1364846921980381,-1.0805804830223322,0.4398402571678161,0.0916182324290275,-0.6306014060974121
1783201282332543200,5.318543212890625,-0.0072341890372335,0.2707479089543223,-0.5400538024067878,0.4222352504730224,0.1815054416656494,-0.6387511491775513
1783201282342480100,5.328480224609375,-0.0781358174733817,0.4109139200136065,-0.0201052149176597,0.3797335922718048,0.2502965033054352,-0.653789222240448
1783201282352417300,5.338417236328125,-0.0498037492193281,0.5302545851871371,0.4545627998650073,0.3200314044952392,0.2790879309177398,-0.6658957600593567
1783201282362354200,5.348354248046875,0.0145575176626443,0.62597998149544,0.848657979285717,0.2478991448879242,0.2668922543525696,-0.6741536855697632
1783201282372291300,5.358291259765625,0.102504388923943,0.6967433705046773,1.19323071064651,0.1818958222866058,0.2166781276464462,-0.6633841395378113
1783201282382228200,5.368228271484375,0.1904196960031986,0.7319301269590854,1.4560767604351044,0.111805148422718,0.1164311468601226,-0.632332980632782
1783201282392165000,5.3781650390625,0.2155385012991726,0.7047977898836135,1.6273966191709042,0.0426782853901386,0.0012092138640582,-0.5921540260314941
1783201282402102300,5.388102294921875,0.2131963220871985,0.6403530825018883,1.756533286693692,-0.0147498538717627,-0.1253423392772674,-0.5538050532341003
1783201282412039200,5.3980390625,0.1720639551013708,0.5393234423056245,1.7526742731779812,-0.0563996359705925,-0.2168453186750412,-0.5166769623756409
1783201282421976300,5.407976318359375,0.0703236824177205,0.4333706664934754,1.70842012090981,-0.0786434188485145,-0.2469419687986374,-0.4990361332893371
1783201282431913200,5.417913330078125,-0.0262277894511818,0.3821870072230696,1.6679080777794122,-0.0795921757817268,-0.2396971881389618,-0.487787663936615
1783201282441850000,5.42785009765625,-0.0367211264148354,0.3590776420533657,1.56263217831552,-0.0590062066912651,-0.2151247262954712,-0.4727306962013244
1783201282451787300,5.437787353515625,0.0544230795830488,0.3112032534614205,1.5552537585020063,-0.0228288322687149,-0.2042600512504577,-0.4361285865306854
1783201282461724200,5.44772412109375,0.1601692269071936,0.2791656086876988,1.573686656293273,0.0230353288352489,-0.2404822409152984,-0.3794661164283752
1783201282471661300,5.457661376953125,0.1986187845498323,0.2652066414400935,1.603200335547328,0.0646731033921241,-0.3123589754104614,-0.3143534064292907
1783201282481598200,5.46759814453125,0.1287558515116572,0.3507172254651785,1.680176023200154,0.092263713479042,-0.4262115061283111,-0.2625032663345337
1783201282491536100,5.4775361328125,0.0601392652727663,0.3792728733420372,1.724386336326599,0.0772576630115509,-0.5657172203063965,-0.2239129245281219
1783201282501473300,5.487473388671875,-0.1309561380349099,0.4106543922945856,1.6900170337349176,-0.007208215072751,-0.7335512638092041,-0.2108059078454971
1783201282511410200,5.49741015625,-0.413171635812521,0.4924851187631487,1.4986422289639711,-0.1583816558122635,-0.9085028767585754,-0.2302983105182647
1783201282521347300,5.507347412109375,-0.6751707133829593,0.418102662473917,1.006440895578265,-0.331898033618927,-1.0799003839492798,-0.2890114188194275
1783201282531284200,5.5172841796875,-0.8668842485889792,0.2721615751445293,0.2345528522402048,-0.4834031164646148,-1.1642487049102783,-0.3785163760185241
1783201282541221000,5.52722119140625,-0.7711828176781534,0.0432300699174404,-0.5668821880996227,-0.5899977087974548,-1.1061601638793943,-0.4525988399982452
1783201282551158300,5.537158203125,-0.6189606042526662,-0.1908034346237778,-1.3445523219704627,-0.6476601958274841,-0.91337651014328,-0.5014551877975464
1783201282561095200,5.54709521484375,-0.4618079486876726,-0.4206920944452285,-1.983607181355357,-0.6666282415390015,-0.6466833353042603,-0.5338506698608398
1783201282571032300,5.5570322265625,-0.3146390731289982,-0.6282128551140427,-2.446749593517184,-0.6512381434440613,-0.3652982115745544,-0.5646141171455383
1783201282580969200,5.56696923828125,-0.2317458319954574,-0.7964125360026955,-2.7437603632360696,-0.5994561910629272,-0.1163587048649787,-0.5998013615608215
1783201282590906000,5.576906005859375,-0.2465624389857053,-0.8973018909454346,-2.8643139113307,-0.5077298879623413,0.0583351701498031,-0.6355237364768982
1783201282600843300,5.58684326171875,-0.3288162131719291,-0.9340940367698668,-2.909405098944902,-0.3843043744564056,0.149199292063713,-0.6613084673881531
1783201282610780200,5.5967802734375,-0.4442310832038521,-0.9449980003610252,-2.883752771294117,-0.2351213693618774,0.1676439940929412,-0.6848059892654419
1783201282620717300,5.60671728515625,-0.5086873348928987,-0.937322351166606,-2.7835160350412127,-0.0668745636940002,0.1378746479749679,-0.6964408159255981
1783201282630654200,5.616654296875,-0.5357349162943661,-0.8943851267158984,-2.5975065566956994,0.1184654012322425,0.100930780172348,-0.7117968201637268
1783201282640591000,5.626591064453125,-0.5897217964172363,-0.763279789468646,-2.3128823903411626,0.296474814414978,0.0850511491298675,-0.7422793507575989
1783201282650528300,5.6365283203125,-0.587395837687701,-0.5844160912245512,-1.8723142135590316,0.4382879436016083,0.104477658867836,-0.7677707076072693
1783201282660465200,5.646465087890625,-0.5176382647201418,-0.3819806709960103,-1.365152626928687,0.5196435451507568,0.1230055391788482,-0.7834357023239136
1783201282670402300,5.65640234375,-0.4277059187300503,-0.2012108468696475,-0.8809183268994092,0.5505688786506653,0.127565860748291,-0.7823625206947327
1783201282680339500,5.66633935546875,-0.3234598007053136,-0.0891886880159378,-0.4368436033010482,0.5461381673812866,0.1517377644777298,-0.7676525712013245
1783201282690276000,5.676276123046875,-0.3264380858637392,0.0453194434121251,0.0192874687939882,0.5169376134872437,0.1960681229829788,-0.7548350691795349
1783201282700213200,5.686213134765625,-0.441003061068058,0.1651329867944121,0.3958259487360716,0.4663194119930267,0.2435362935066223,-0.7490131258964539
1783201282710150100,5.696150146484375,-0.5853726612970233,0.2445537295117974,0.7513099502116442,0.4176183342933655,0.280862957239151,-0.7637259364128113
1783201282720087300,5.70608740234375,-0.6944152198180555,0.3331438671126961,1.068801197901368,0.374390184879303,0.2844720780849457,-0.802593469619751
1783201282730025200,5.716025146484375,-0.7289296299688518,0.4000216468602419,1.3231664195924997,0.3549035787582397,0.2450527399778366,-0.8478397727012634
1783201282739962400,5.72596240234375,-0.6248989082604647,0.4740960601136088,1.5030407561838626,0.3474608659744262,0.1766478568315506,-0.8852973580360413
1783201282749899300,5.735899169921875,-0.4233762189626693,0.5595499455153942,1.6875252169191837,0.3532218039035797,0.0781684219837188,-0.8943291902542114
1783201282759836200,5.745836181640625,-0.169623137820512,0.6528010606646537,1.8119845402807,0.3663093745708465,-0.0365216806530952,-0.8692664504051208
1783201282769773300,5.755773193359375,0.0387462025016546,0.7134341008037328,1.947678374361992,0.37264284491539,-0.15187768638134,-0.8154141902923584
1783201282779710200,5.765710205078125,0.1411401167884469,0.7264025957092642,2.087790024885535,0.3722734749317169,-0.2437503486871719,-0.7413402199745178
1783201282789647400,5.7756474609375,0.1661814729340374,0.7300555652588605,2.218956152409315,0.3581777513027191,-0.3385089933872223,-0.6709054708480835
1783201282799584300,5.785584228515625,0.1602943145915865,0.6953381798818707,2.2796593351751566,0.3257825076580047,-0.4434386193752289,-0.629326343536377
1783201282809521200,5.795521240234375,0.0199463710941374,0.7807654695376753,2.253684935963154,0.2594404816627502,-0.5287898182868958,-0.6160187125205994
1783201282819458300,5.805458251953125,-0.16866174544245,0.9268336903780698,2.2058576013833284,0.1382221728563308,-0.592357337474823,-0.6158583760261536
1783201282829395200,5.815395263671875,-0.2376867663517594,0.9958376684993504,2.094994257175922,-0.031073123216629,-0.6449006199836731,-0.6178297400474548
1783201282839332400,5.825332275390625,-0.1491498202428221,0.957327905102074,1.913363432306051,-0.2238846570253372,-0.6961669921875,-0.6030601263046265
1783201282849269200,5.835269287109375,-0.0710400139935314,0.831544639660418,1.5575865853637456,-0.3982535302639007,-0.7299854159355164,-0.6026720404624939
1783201282859206100,5.8452060546875,-0.0617277035079896,0.6740475545719266,1.0651035124272108,-0.5056026577949524,-0.7198699116706848,-0.6061501502990723
1783201282869143300,5.855143310546875,0.0290340790435671,0.47600540086627,0.5298001194179057,-0.5494526028633118,-0.6878054738044739,-0.6131259202957153
1783201282879080200,5.865080078125,0.0745354548938572,0.285549172244966,0.0282996272891759,-0.5522621870040894,-0.6620292663574219,-0.6055929064750671
1783201282889017300,5.875017333984375,0.0941783129967749,0.0769137283325195,-0.452086765140295,-0.5254218578338623,-0.6472999453544617,-0.5827299952507019
1783201282898954200,5.884954345703125,0.0285329976536333,-0.1135799096897244,-0.8831096994638442,-0.4632548689842224,-0.6435155868530273,-0.5672509074211121
1783201282908891100,5.89489111328125,-0.108295247285068,-0.2420011224195361,-1.2602397155582905,-0.3737736940383911,-0.6238373517990112,-0.5743654370307922
1783201282918828300,5.904828369140625,-0.2148068260237574,-0.330327932909131,-1.5156991622269154,-0.2682949304580688,-0.5927246809005737,-0.6101365089416504
1783201282928765200,5.91476513671875,-0.2742407195061445,-0.3124357178658247,-1.701609271851182,-0.1667797565460205,-0.5596420764923096,-0.6519935131072998
1783201282938702300,5.924702392578125,-0.2742071094974875,-0.2695388254255056,-1.7896569731384515,-0.1040926724672317,-0.5253690481185913,-0.6875253915786743
1783201282948639200,5.93463916015625,-0.2750609498478472,-0.2204629520893097,-1.8484750728100536,-0.0899881049990654,-0.4879493415355682,-0.6961115002632141
1783201282958576000,5.944576171875,-0.20053937734887,-0.2092676043361425,-1.931301240056753,-0.1082169041037559,-0.4396057724952698,-0.6905662417411804
1783201282968513300,5.95451318359375,-0.1464472832858562,-0.2116515768632292,-2.002078073069453,-0.1269729435443878,-0.3574049472808838,-0.6856926083564758
1783201282978450200,5.9644501953125,-0.0933744492679834,-0.2465957567334175,-2.0910341213732955,-0.1209166422486305,-0.2492824643850326,-0.6830853819847107
1783201282988387300,5.97438720703125,-0.0388408950477838,-0.2689154328301549,-2.174942238637805,-0.082657903432846,-0.134551540017128,-0.6878405213356018
1783201282998324200,5.98432421875,-0.0081020579129457,-0.227273216626048,-2.1570856794297693,-0.0233333297073841,-0.0170555375516414,-0.6912277936935425
1783201283008261000,5.99426123046875,0.0079025898180902,-0.1507552096128463,-1.9908388861745596,0.050110213458538,0.0700312480330467,-0.692918598651886
1783201283018198300,6.0041982421875,0.0072910337910056,-0.0501174913436174,-1.7229530886530875,0.1129437685012817,0.1193777546286583,-0.6823421120643616
1783201283028135400,6.014135498046875,-0.0363490782320499,-0.0513520015746355,-1.3449258314579724,0.143064871430397,0.124690443277359,-0.656205952167511
1783201283038072300,6.024072265625,-0.126306558663398,-0.1318836281433701,-1.0056547136366367,0.1454542577266693,0.1035966053605079,-0.6411095857620239
1783201283048007400,6.03400732421875,-0.3193164172902703,-0.1470604467481374,-0.6938321592330933,0.165814608335495,0.0769001320004463,-0.6515828371047974
1783201283057944600,6.043944580078125,-0.5171317765027285,-0.1582470266729593,-0.4831833296716213,0.2109112441539764,0.0431189984083175,-0.6848486065864563
1783201283067881500,6.053881591796875,-0.5899032904639839,-0.122514034512639,-0.3101063981354236,0.2793276607990265,0.0232302471995353,-0.7292667627334595
1783201283077818600,6.063818603515625,-0.5558917152687907,-0.0189046069562435,-0.0997445688217878,0.3500369787216186,0.0160892475396394,-0.7718046307563782
1783201283087755500,6.073755615234375,-0.515765456585586,0.1418029646113514,0.1775485239923,0.3970564603805542,0.0146807897835969,-0.8023210167884827
1783201283097692400,6.0836923828125,-0.3967481781475245,0.2970318125069141,0.5052344179600476,0.4277501702308655,0.0239874720573425,-0.8155699968338013
1783201283107630600,6.093630615234375,-0.2472545129030942,0.4291188542678952,0.8693067995607853,0.421843558549881,0.0234923902899026,-0.8062624931335449
1783201283117567500,6.1035673828125,-0.1239439211852848,0.4908744686961174,1.2153992878347637,0.3823587298393249,-0.0042185992933809,-0.779129147529602
1783201283127503600,6.113503662109375,-0.0569138734854757,0.5329372483998537,1.4923177021175622,0.3306201696395874,-0.0548583716154098,-0.7451127767562866
1783201283137440500,6.1234404296875,-0.0493527905814349,0.5451625237226486,1.6911568514198063,0.2787620425224304,-0.1210150197148323,-0.7058463096618652
1783201283147378400,6.13337841796875,-0.1415937057748436,0.5556675511240959,1.8142407947748895,0.2407241612672805,-0.1939998567104339,-0.6891157627105713
1783201283157315600,6.143315673828125,-0.2946406795866787,0.5761831004083157,1.938332453867793,0.2007429152727127,-0.2567670941352844,-0.6765512228012085
1783201283167252500,6.15325244140625,-0.3760315533332526,0.4965320560663938,2.0110949077397584,0.1512502878904342,-0.3674503266811371,-0.6829612851142883
1783201283177189600,6.163189697265625,-0.5023324859734625,0.5397387451082468,1.9599889898806808,0.0852654129266738,-0.4736292362213135,-0.7023493647575378
1783201283187126500,6.17312646484375,-0.5873452765442431,0.4829986207544803,1.9697692101389168,0.0028190966695547,-0.5375370979309082,-0.7214016914367676
1783201283197063400,6.1830634765625,-0.6297926716513932,0.4466863674014806,1.8932436043411487,-0.1023789644241333,-0.56871098279953,-0.7314718961715698
1783201283207000600,6.19300048828125,-0.6044383040338754,0.4060065664887428,1.7480127111077308,-0.2070299386978149,-0.5776016712188721,-0.7423151135444641
1783201283216937500,6.2029375,-0.5844799502409994,0.3690308807909488,1.5211480752825737,-0.3153494894504547,-0.601296603679657,-0.7672673463821411
1783201283226874600,6.21287451171875,-0.5914401446424424,0.3835129951298237,1.1741133377224209,-0.4018714427947998,-0.64570552110672,-0.7889165878295898
1783201283236811500,6.2228115234375,-0.5245164799265564,0.3160731975853443,0.704459351709485,-0.4475923180580139,-0.655411422252655,-0.7935193181037903
1783201283246748400,6.23274853515625,-0.429429673782736,0.2373883679270744,0.253595990884304,-0.4517313241958618,-0.6535389423370361,-0.8018222451210022
1783201283256685600,6.242685546875,-0.3472885661907494,0.2444967386275529,-0.1805775164246559,-0.425231009721756,-0.6507951021194458,-0.7913195490837097
1783201283266622500,6.25262255859375,-0.2451269993551075,0.1855111734345555,-0.5500923813402653,-0.390417218208313,-0.6725799441337585,-0.7803406715393066
1783201283276559600,6.2625595703125,-0.1521286899231374,0.1970087190046906,-0.9232809663325549,-0.3507896363735199,-0.7070081830024719,-0.7651287317276001
1783201283286496500,6.27249658203125,-0.0892892257809638,0.2040074918508529,-1.2079226683437825,-0.3008423447608948,-0.7064852118492126,-0.7604866027832031
1783201283296432400,6.282432373046875,0.0156079034984111,0.2108916984066367,-1.4718781406790018,-0.2417713105678558,-0.6780897974967957,-0.7525988221168518
1783201283306369500,6.29236962890625,0.1783591097228229,0.1595861663222312,-1.6991870131403206,-0.1921762079000473,-0.6205398440361023,-0.7310643792152405
1783201283316307500,6.302307373046875,0.2964778318859636,0.0339063612550497,-1.8319594068169596,-0.1627290993928909,-0.5598184466362,-0.7039834856987
1783201283326244600,6.31224462890625,0.2461395373985171,-0.022758652035892,-1.9836849227666853,-0.1519265621900558,-0.5105132460594177,-0.6985870003700256
1783201283336180500,6.322180419921875,0.0748978584654629,0.0181684016361832,-2.1450006893605,-0.1537106186151504,-0.4672891199588775,-0.7020653486251831
1783201283346117400,6.332117431640625,0.0567396859623491,-0.0564011016577482,-2.3159897087067365,-0.1497491002082824,-0.3797148466110229,-0.7198216319084167
1783201283356054500,6.342054443359375,0.1185047988712787,-0.0863446967616677,-2.3878455691277978,-0.1327959597110748,-0.234195202589035,-0.7610585689544678
1783201283365991700,6.35199169921875,0.2083040200009941,-0.0160249598667025,-2.372470889863372,-0.1102667450904846,-0.046995747834444,-0.8010496497154236
1783201283375928600,6.361928466796875,0.3823199859529733,0.0491024690821766,-2.2818284959077832,-0.0757939890027046,0.1277813911437988,-0.8242380619049072
1783201283385865500,6.371865478515625,0.5298042110711336,0.1417471427708864,-2.0888433333307503,-0.0363475792109966,0.2520910501480102,-0.8143912553787231
1783201283395802600,6.381802734375,0.5916776066601276,0.2096457899987697,-1.8074942431241272,-0.0049358597025275,0.3209571838378906,-0.773004412651062
1783201283405739500,6.391739501953125,0.550425339621678,0.1910235071152448,-1.477968858769536,0.0228942446410655,0.3417352735996246,-0.7187333106994629
1783201283415676700,6.4016767578125,0.4135699144151061,0.1691176725164055,-1.1603823340117931,0.0660350620746612,0.3231679797172546,-0.6691753268241882
1783201283425613600,6.411613525390625,0.2481093761667609,0.0723532885491848,-0.8708627968311309,0.1142386049032211,0.2746298015117645,-0.6355302929878235
1783201283435550500,6.421550537109375,0.0350654681622982,-0.019065934997797,-0.6439426314264536,0.165034681558609,0.2274143546819687,-0.6317699551582336
1783201283445487600,6.431487548828125,-0.2137694458000361,-0.0257411749780178,-0.379748674160242,0.2091362327337265,0.2205057591199875,-0.6601678729057312
1783201283455424500,6.441424560546875,-0.4300145609986037,0.07316402041018,-0.0136585229963064,0.230855107307434,0.2188210487365722,-0.7000141143798828
1783201283465361700,6.451361572265625,-0.5467990388832986,0.1342407126635313,0.3119318599969148,0.234518676996231,0.2148052901029586,-0.7353714108467102
1783201283475298600,6.461298583984375,-0.5501482762459665,0.2308124966681003,0.6516343549728393,0.2168352901935577,0.2077002525329589,-0.7594410181045532
1783201283485235500,6.4712353515625,-0.4726926961217075,0.3503630052000284,1.0003308882653712,0.1982098221778869,0.1768794506788253,-0.7658306956291199
1783201283495172600,6.481172607421875,-0.3697194475769996,0.431840095925331,1.274117434263229,0.1728642433881759,0.1266045719385147,-0.7470327615737915
1783201283505109500,6.491109619140625,-0.2896756775904446,0.499053098976612,1.4651836114764212,0.1610587537288665,0.0731371715664863,-0.709111750125885
1783201283515046700,6.501046630859375,-0.2978088247613981,0.5203378790676594,1.6728303366124628,0.1552879512310028,0.03599539026618,-0.6725811958312988
1783201283524983600,6.510983642578125,-0.3387533410249277,0.4707675002127885,1.895191231277585,0.1355606913566589,-0.0278268940746784,-0.6742808222770691
1783201283534920400,6.52092041015625,-0.4632920862982049,0.5862000520318746,2.0621914732486006,0.0984921529889106,-0.0796054080128669,-0.7010155320167542
1783201283544857600,6.530857666015625,-0.4918137588402256,0.625349574637413,2.298848604291677,0.051940020173788,-0.1331744045019149,-0.7279272079467773
1783201283554794500,6.54079443359375,-0.3604989070281386,0.7171931610763073,2.4038123690664768,0.018316812813282,-0.2215452790260315,-0.7344160079956055
1783201283564731600,6.550731689453125,-0.0698242084629833,0.8515589614242315,2.35885971314013,0.0020331349223852,-0.3227506875991821,-0.7186817526817322
1783201283574668500,6.56066845703125,0.2090727028185501,0.9880413155347108,2.3380361208200453,-0.0067837927490472,-0.4245726764202118,-0.6732855439186096
1783201283584605400,6.57060546875,0.4059751849697902,1.1253455074220895,2.2366876239329576,-0.0243211165070533,-0.5211021304130554,-0.6065545082092285
1783201283594542600,6.58054248046875,0.5699839535072445,1.2498399020969866,2.150661783862114,-0.0790062025189399,-0.6238178610801697,-0.5188518166542053
1783201283604479500,6.5904794921875,0.7209351240836084,1.265417410457134,1.9626573323071,-0.1867198348045349,-0.737191915512085,-0.4246242046356201
1783201283614416600,6.600416748046875,0.7570373879477381,1.2572832038402555,1.6161223609626292,-0.3175665438175201,-0.8122466802597046,-0.3443152606487274
1783201283624353500,6.610353515625,0.7530263987407088,1.2333026087939738,1.1712509340286257,-0.423474907875061,-0.8325172066688538,-0.2865501940250397
1783201283634290400,6.62029052734375,0.6867538183446973,1.185774549421668,0.6216705938637256,-0.503588855266571,-0.8087274432182312,-0.2686750292778015
1783201283644227600,6.6302275390625,0.566839298805967,1.1773176867216826,0.0168014971971511,-0.5579047799110413,-0.7545431852340698,-0.2931855022907257
1783201283654164500,6.64016455078125,0.6032176761977375,1.147595917674899,-0.6228367150336503,-0.5896589756011963,-0.7173414826393127,-0.3407607674598694
1783201283664101600,6.6501015625,0.8869269196644425,1.1787214160397648,-1.34830612154603,-0.592419445514679,-0.6945791244506836,-0.3651725053787231
1783201283674037500,6.66003759765625,1.2616779316678643,1.1183791755408048,-1.9393068518579004,-0.5879783630371094,-0.6546660661697388,-0.3304651379585266
1783201283683974400,6.669974365234375,1.571986428246647,0.9451809557124972,-2.45951379802227,-0.5766494274139404,-0.5911467671394348,-0.2641408145427704
1783201283693911600,6.67991162109375,1.699767589507252,0.8815484414964914,-2.9486574974030253,-0.5543392896652222,-0.5027956366539001,-0.199513092637062
1783201283703848700,6.6898486328125,1.7601938550278544,0.8468193656817078,-3.3840748672932386,-0.4999841153621673,-0.3634558916091919,-0.1482023447751999
1783201283713785600,6.69978564453125,1.8202660464137792,0.8006815916240215,-3.741813369697333,-0.4084047079086303,-0.2004435211420059,-0.1236740872263908
1783201283723722500,6.709722412109375,1.927360393476486,0.8680904095083475,-4.010329866337776,-0.2881488800048828,-0.0296828653663396,-0.1087496876716613
1783201283733659400,6.719659423828125,2.0470978028826416,0.9809443430110812,-4.133751663345098,-0.1481220126152038,0.1645723581314087,-0.0818389728665351
1783201283743596500,6.729596435546875,2.151005482733249,1.149708964306116,-3.988787312093377,-0.0064445519819855,0.3592363893985748,-0.0313824079930782
1783201283753533700,6.73953369140625,2.3112319927856326,1.3725991435423492,-3.734350194209814,0.1327604800462722,0.4911541938781738,0.0643124207854271
1783201283763470600,6.749470703125,2.433673692714423,1.4803101611986755,-3.4123481910973785,0.2563626170158386,0.5687459111213684,0.1962043642997741
1783201283773407500,6.759407470703125,2.3784924882404503,1.6068395688325166,-2.931417608788609,0.3503783345222473,0.6227753162384033,0.3297486007213592
1783201283783344400,6.769344482421875,2.220473863495886,1.699477520519495,-2.408773206344246,0.3985103070735931,0.6283429265022278,0.4545604288578033
1783201283793281500,6.779281494140625,2.0321512859024105,1.7258181226953864,-2.00406077131927,0.427399218082428,0.6017800569534302,0.5573827028274536
1783201283803218700,6.78921875,1.80736769413501,1.763715307152271,-1.6669272500485182,0.4449195563793182,0.5820828676223755,0.6322396397590637
1783201283813155600,6.799155517578125,1.6082684325918557,1.7932836392030118,-1.356853585138917,0.4626527428627014,0.5791749358177185,0.6793876886367798
1783201283823092500,6.809092529296875,1.4453976916410027,1.791975771474838,-1.0897001935452222,0.4558783173561096,0.5909168124198914,0.7056306004524231
1783201283833029600,6.819029541015625,1.2700272423401475,1.857988166564703,-0.8533364924907684,0.4144531190395355,0.6355743408203125,0.7210843563079834
1783201283842966500,6.828966552734375,1.192443286595866,1.859134998512268,-0.5636725784033536,0.3492085933685303,0.702528715133667,0.7518916130065918
1783201283852903700,6.838903564453125,1.1825402436755597,1.756954726976156,-0.3229056739538908,0.2668620645999908,0.7565597295761108,0.8043655157089233
1783201283862839600,6.848839599609375,1.1157582524526863,1.5810452023625372,-0.1643704779893159,0.1892129778861999,0.8050013184547424,0.8659798502922058
1783201283872776400,6.8587763671875,0.9660221567545084,1.4366361469060185,-0.0268505975246429,0.1325560808181762,0.8410413265228271,0.9292941093444824
1783201283882713600,6.868713623046875,0.7909204413924366,1.3575029889583587,0.0525590392768383,0.109178140759468,0.8456551432609558,0.9762192964553832
1783201283892650500,6.878650390625,0.602027370434627,1.2702011376023292,0.1206990940451622,0.1261909455060959,0.8268510699272156,1.0119045972824097
1783201283902587600,6.888587646484375,0.3992833591809496,1.1747101345717903,0.2213140159606933,0.1837372630834579,0.80611652135849,1.0214539766311646
1783201283912524500,6.898524658203125,0.2196153222840279,1.1800368825525045,0.4050041114479303,0.2562325298786163,0.7892536520957947,1.0238630771636963
1783201283922461400,6.90846142578125,0.0816360441466793,1.2567495353549718,0.6794868230164051,0.3174768090248108,0.7555164098739624,1.017893671989441
1783201283932398600,6.918398681640625,0.054390930879116,1.3282827396929264,1.026165002223849,0.3574124872684479,0.7072135806083679,1.0311236381530762
1783201283942335500,6.92833544921875,0.1374055699026212,1.387055246657133,1.415302851498127,0.3677617907524109,0.6406677961349487,1.0643281936645508
1783201283952272400,6.9382724609375,0.2071540827808901,1.409322023522854,1.7649211758106946,0.3340674638748169,0.5761743187904358,1.1139999628067017
1783201283962209500,6.94820947265625,0.2259145320260897,1.3202782969355582,2.11915020878911,0.2444607764482498,0.4981675148010254,1.1845979690551758
1783201283972146400,6.958146484375,0.1390973954470828,1.1191904919236897,2.3635960940122605,0.1138454973697662,0.4125964045524597,1.2596397399902344
1783201283982083600,6.96808349609375,-0.0879575387857854,0.90357673343122,2.401548515787721,-0.0070022922009229,0.3486306071281433,1.3104323148727417
1783201283992020500,6.9780205078125,-0.4484388370919972,0.7493944719791412,2.316846033275127,-0.0899704098701477,0.2980438470840454,1.3178236484527588
1783201284001956400,6.987956298828125,-0.8206434525482356,0.6345405968308448,2.113710063561797,-0.1250999271869659,0.235341727733612,1.278801679611206
1783201284011893500,6.9978935546875,-0.9936337287142872,0.4919108260065317,1.820876287266612,-0.125070109963417,0.1375216841697693,1.2128077745437622
1783201284021830700,7.00783056640625,-1.0660645394790915,0.4320014239668845,1.5037661478489637,-0.1131297871470451,0.0308195203542709,1.1530872583389282
1783201284031767600,7.017767578125,-0.9801469820883124,0.3759282390892505,1.2486819642335176,-0.1150043830275535,-0.0496135354042053,1.144262671470642
1783201284041705700,7.027705810546875,-0.7905332687057555,0.1636006626605987,1.0184925678998231,-0.1529636681079864,-0.1353589594364166,1.1700938940048218
1783201284051643000,7.037642822265625,-0.8244431370921432,0.0620125117987394,0.6628782180428504,-0.2250280082225799,-0.1963666528463363,1.200723648071289
1783201284061580000,7.047580078125,-0.9834479963950812,0.0430231491684913,0.3106301297485828,-0.3023751080036163,-0.2182642966508865,1.2175253629684448
1783201284071516700,7.0575166015625,-1.0707459022283554,-0.0346633171021938,-0.2148813525646924,-0.3671812713146209,-0.2171138077974319,1.1965162754058838
1783201284081453800,7.067453857421875,-1.0044169154699891,-0.1301987437963485,-0.7936042005836963,-0.380313903093338,-0.1645319759845733,1.1451374292373655
1783201284091391000,7.077390869140625,-0.7921560476019978,-0.192477797576785,-1.269182900470495,-0.344072014093399,-0.0857788473367691,1.0714330673217771
1783201284101328000,7.087327880859375,-0.5559010676190257,-0.1623293275505304,-1.644118036869168,-0.2892463207244873,0.0217515099793672,1.0122435092926023
1783201284111265000,7.09726513671875,-0.2734441623009741,-0.2990112958863377,-1.8683657681941983,-0.2718127369880676,0.0964513197541236,1.0024361610412598
1783201284121201000,7.107200927734375,-0.0818986771382391,-0.4636065225422382,-2.193624727275968,-0.2956797778606415,0.1413891315460205,1.04776132106781
1783201284131137800,7.1171376953125,-0.1171953237079083,-0.6005623393833637,-2.416578327137232,-0.314504861831665,0.2396187633275985,1.0910145044326782
1783201284141075000,7.127074951171875,-0.3077459526143968,-0.7487883227795362,-2.530883920753002,-0.2840020060539245,0.3739106655120849,1.0842512845993042
1783201284151011800,7.13701171875,-0.5682425166673958,-0.8206941598221659,-2.7108786688536406,-0.196957379579544,0.5208550691604614,1.0344892740249634
1783201284160948700,7.14694873046875,-0.8062269507914781,-0.8276943939730524,-2.7797669116407637,-0.0704751089215278,0.6516258120536804,0.9455965161323548
1783201284170886000,7.156885986328125,-0.9537906708866356,-0.6896478592857718,-2.7487942657500506,0.0767367109656333,0.7449411153793335,0.8508894443511963
1783201284180822800,7.16682275390625,-0.9202475899860262,-0.4777183422639965,-2.591248080822825,0.2220886349678039,0.7772901058197021,0.7913271188735962
1783201284190760000,7.176760009765625,-0.6919733796238898,-0.3668064827397465,-2.3288842615932226,0.349550724029541,0.7688856720924377,0.7970138192176819
1783201284200696800,7.18669677734375,-0.4943551504187286,-0.3310220526531338,-1.982244076308608,0.443260133266449,0.7433619499206543,0.8365676403045654
1783201284210633700,7.1966337890625,-0.5127151291042567,-0.2198997652485966,-1.5962725821107624,0.5106274485588074,0.7109839916229248,0.8672425150871277
1783201284220571000,7.20657080078125,-0.6517538896992803,-0.1281897420614957,-1.244693771380186,0.5530834794044495,0.7054435014724731,0.8636718988418579
1783201284230507000,7.216507080078125,-0.7949222974449396,-0.0330561741665005,-0.8614251064002514,0.5694608688354492,0.7189284563064575,0.8281586170196533
1783201284240444000,7.22644384765625,-0.875437557400763,0.0449888962835073,-0.4887649291962385,0.5660131573677063,0.7556357383728027,0.7880474925041199
1783201284250380800,7.236380859375,-0.8245715857774019,0.0992541549563407,-0.1218371581643819,0.5522941946983337,0.7937160134315491,0.7477690577507019
1783201284260317700,7.246317626953125,-0.6904532573845237,0.1887193218261003,0.2272036585211753,0.5513403415679932,0.8213503956794739,0.7097518444061279
1783201284270254800,7.2562548828125,-0.5496230102628469,0.3148240743070841,0.5980506488233804,0.5728309750556946,0.8289926052093506,0.6769872903823853
1783201284280192000,7.26619189453125,-0.4388027745448052,0.4856690090075135,0.985800843131542,0.6045622229576111,0.8040077090263367,0.6499088406562805
1783201284290129000,7.27612890625,-0.3989020682457834,0.650982028543949,1.3830600395411252,0.6083276271820068,0.7590852379798889,0.6382697820663452
1783201284300065800,7.286065673828125,-0.3515725271202624,0.7308744804263114,1.7837994792819023,0.5609074234962463,0.7036407589912415,0.6692691445350647
1783201284310002700,7.296002685546875,-0.2885509844094515,0.6763117001116276,2.1537673486620186,0.4600233733654022,0.6242873072624207,0.7254671454429626
1783201284319939800,7.30593994140625,-0.3451948818471282,0.6668389383673667,2.411065116673708,0.3044939041137695,0.5474713444709778,0.7760035395622253
1783201284329876000,7.3158759765625,-0.4335845284398645,0.6031757367521524,2.5514427246570586,0.1545254290103912,0.503733217716217,0.8098129034042358
1783201284339812900,7.325812744140625,-0.4850342182353138,0.4416384363621473,2.595445532512665,0.0373799502849578,0.4978034496307373,0.8111980557441711
1783201284349749800,7.335749755859375,-0.5331931959223002,0.2986982844144106,2.541826170527935,-0.0336454883217811,0.4785466492176056,0.782511830329895
1783201284359687000,7.34568701171875,-0.559170371613279,0.2176198376178741,2.4666987410902976,-0.0568136721849441,0.4376900792121887,0.7510200142860413
1783201284369623800,7.355623779296875,-0.5266531266290694,0.2252653839349746,2.396444470646977,-0.0451623387634754,0.3643612861633301,0.7238562703132629
1783201284379561000,7.36556103515625,-0.5418105098810047,0.372840794467926,2.3597020091831684,-0.0370485112071037,0.2317763119935989,0.7008880972862244
1783201284389497900,7.375497802734375,-0.514738524690643,0.4719079024195671,2.311830250939727,-0.0582981407642364,0.0887019783258438,0.7131823301315308
1783201284399434800,7.385434814453125,-0.4411971223354339,0.3894605053573846,2.2178958297014235,-0.1120444983243942,-0.0518534518778324,0.7443200945854187
1783201284409372000,7.395371826171875,-0.5048161925479769,0.3951867740496992,2.007339939120412,-0.1718047708272934,-0.1447279900312423,0.7578220367431641
1783201284419308000,7.40530810546875,-0.5027919201787561,0.3600032324656844,1.7030682384878395,-0.2022067159414291,-0.1664105653762817,0.7577446699142456
1783201284429244700,7.41524462890625,-0.2844181223884224,0.2361123566418886,1.3355442551285028,-0.1891825348138809,-0.1537403017282486,0.7481589317321777
1783201284439181800,7.425181884765625,-0.1390790926054119,0.1977975312948227,1.0104594835698604,-0.1524932235479354,-0.1421089321374893,0.730106770992279
1783201284449119000,7.435118896484375,-0.025931875244528,0.2247664945021271,0.7983908503383398,-0.1161775514483451,-0.1654478162527084,0.7146798968315125
1783201284459055900,7.445055908203125,0.0099643446534872,0.3203782013028859,0.6495990497529506,-0.1420781016349792,-0.2435826063156128,0.7199447154998779
1783201284468993000,7.454992919921875,-0.064588792027533,0.3163058372974395,0.4005594069987535,-0.2518847584724426,-0.3648166060447693,0.7636738419532776
1783201284478929700,7.4649296875,-0.2832360729970037,0.2619108147650957,-0.0615542466372251,-0.3958605527877807,-0.4486090242862701,0.8146970868110657
1783201284488866800,7.47486669921875,-0.3938736456245184,0.1639417311832308,-0.6386193905770778,-0.5378871560096741,-0.4674207866191864,0.8466813564300537
1783201284498804000,7.484803955078125,-0.4757449963644146,-0.0231470668315887,-1.2414800700306892,-0.6638274788856506,-0.4071609377861023,0.834827721118927
1783201284508739800,7.49473974609375,-0.4861280048213899,-0.2267798801511526,-1.8593483490020035,-0.759505033493042,-0.2849010825157165,0.7947972416877747
1783201284518676700,7.5046767578125,-0.3050710343167185,-0.494470739622414,-2.4560884997487067,-0.7903558015823364,-0.099706545472145,0.7269645929336548
1783201284528614000,7.51461376953125,-0.1894829996749758,-0.6590072218284011,-2.947377394464612,-0.7429930567741394,0.1358164846897125,0.6341872215270996
1783201284538550800,7.52455078125,-0.0725125707641243,-0.6802689133048058,-3.313154826417565,-0.6042234301567078,0.3960126340389251,0.5531615614891052
1783201284548488000,7.534488037109375,0.0631146278217434,-0.5819739587694406,-3.512932133352756,-0.4163110554218292,0.6228657364845276,0.4973499178886413
1783201284558424800,7.5444248046875,0.2279528694532811,-0.4239055035337805,-3.409186512196064,-0.2276772856712341,0.7523926496505737,0.4938412308692932
1783201284568361700,7.55436181640625,0.4388920602634549,-0.14475246206671,-3.208624776884913,-0.0431678965687751,0.8019298315048218,0.5244835615158081
1783201284578299000,7.564298828125,0.4549959305852651,0.0878159383580088,-2.7232997590094805,0.1176682785153389,0.8276469707489014,0.5930269956588745
1783201284588235000,7.574235107421875,0.4194550999961793,0.1052992803394794,-2.200530268880725,0.2542240023612976,0.7790733575820923,0.6553558707237244
1783201284598172000,7.584171875,0.3700552554026245,0.2559635967984795,-1.749839926534891,0.3678076565265655,0.6935460567474365,0.6887783408164978
1783201284608108800,7.59410888671875,0.3324482860639691,0.3295756532371044,-1.273935063433647,0.4338346123695373,0.6175418496131897,0.7076550722122192
1783201284618045700,7.604045654296875,0.2072869519129395,0.397844887343049,-0.8426701370477676,0.4545128643512726,0.5648787021636963,0.7057379484176636
1783201284627982800,7.61398291015625,-0.0028410686448216,0.4940525142103433,-0.4676338783621788,0.4387285709381103,0.5611569285392761,0.698818564414978
1783201284637920000,7.623919921875,-0.1413525904953479,0.4701110821306705,-0.1276589961856603,0.405600368976593,0.6061038374900818,0.6934270858764648
1783201284647857000,7.63385693359375,-0.2429530163168907,0.4575096669718623,0.1308423023968934,0.3670660257339477,0.679169237613678,0.6920877695083618
1783201284657793800,7.643793701171875,-0.2659925311207771,0.3910881065592169,0.4183545914083719,0.3232255280017853,0.7616662383079529,0.6944062113761902
1783201284667730000,7.65372998046875,-0.3123588532373308,0.3382625253006815,0.6815846720784903,0.2893852889537811,0.8011952638626099,0.7007451057434082
1783201284677666800,7.663666748046875,-0.3405322237983346,0.3574456569373607,0.8923895689845085,0.2640271484851837,0.804075300693512,0.7113876342773438
1783201284687604000,7.67360400390625,-0.3116913292393088,0.3207990570634603,1.1172405268996954,0.2659132182598114,0.775748610496521,0.7288110852241516
1783201284697540900,7.683540771484375,-0.3181969117410481,0.2691588861972093,1.3511942442029714,0.2876564264297485,0.7286573648452759,0.7458679676055908
1783201284707477800,7.693477783203125,-0.3175182818271219,0.2750298240572214,1.595156145301461,0.3186627924442291,0.6534819602966309,0.7612799406051636
1783201284717415000,7.703414794921875,-0.3042521922145039,0.2369035070195794,1.8466992953091856,0.3460440933704376,0.5802194476127625,0.778645932674408
1783201284727351800,7.713351806640625,-0.3393421372309327,0.2324117485582828,2.1085487352758645,0.3730019330978393,0.5093849897384644,0.805533230304718
1783201284737287700,7.72328759765625,-0.3797852798435837,0.238653565557301,2.3681729004085064,0.3969127535820007,0.4276619851589203,0.8288516402244568
1783201284747224800,7.733224853515625,-0.4160375466376543,0.1942147043719887,2.6122458606660364,0.4091390669345855,0.3364388644695282,0.8523218035697937
1783201284757161700,7.74316162109375,-0.4751926231786608,0.1231777591183781,2.7996272118866443,0.3964066803455353,0.2400937378406524,0.875980019569397
1783201284767099000,7.753098876953125,-0.608140227291733,0.0658136576473713,2.943119152498245,0.3435301482677459,0.1431735903024673,0.9125875234603882
1783201284777036000,7.7630361328125,-0.7465561798132956,-0.0171823132082819,3.044368865185976,0.2522494792938232,0.058851208537817,0.9604800939559937
1783201284786972700,7.77297265625,-0.925069018793106,-0.1557785907328128,3.0756103911459443,0.1403727680444717,-0.0162440761923789,0.9909967184066772
1783201284796909800,7.782909912109375,-1.167430206696689,-0.2917790065452456,3.0330531059235333,0.0276591442525386,-0.0884629786014556,0.979565441608429
1783201284806846000,7.792845947265625,-1.5110140731506048,-0.412294852977991,2.925799768906832,-0.0729225948452949,-0.1719312369823455,0.9061753749847412
1783201284816782800,7.802782958984375,-1.8290229149736463,-0.5279132827579974,2.703893047749996,-0.1550658047199249,-0.2488269507884979,0.7897838950157166
1783201284826719700,7.8127197265625,-1.999641931963712,-0.701812928853929,2.5089175881385803,-0.2486767321825027,-0.3252058625221252,0.6561669707298279
1783201284836657000,7.822656982421875,-1.9928794520914557,-0.7496928704038262,2.2780723582446574,-0.3543708026409149,-0.4333479106426239,0.5087297558784485
1783201284846593800,7.83259375,-1.7769094275072217,-0.6359226988390088,1.8730384361803527,-0.4476722478866577,-0.5521930456161499,0.3801220059394836
1783201284856531000,7.842531005859375,-1.4603306184872984,-0.5123687998846173,1.408199156972766,-0.5188295245170593,-0.6070773601531982,0.3058526515960693
1783201284866467800,7.8524677734375,-1.0763988134235143,-0.3725724989205599,0.9097714964181184,-0.5549235939979553,-0.6147347688674927,0.2780529856681824
1783201284876403700,7.86240380859375,-0.7814063977897167,-0.1559913567006587,0.3485375433385372,-0.580385684967041,-0.6220576167106628,0.273068219423294
1783201284886340900,7.8723408203125,-0.6011573826670646,0.1030561775878071,-0.2285924825310707,-0.6037948727607727,-0.6370376348495483,0.2875789701938629
1783201284896278000,7.882278076171875,-0.4598419093117117,0.0952618704497814,-0.7774187894582748,-0.6409480571746826,-0.6428323984146118,0.3141543865203857
1783201284906215000,7.89221484375,-0.3871316240184009,-0.0231134568229317,-1.3227467328757048,-0.6820675730705261,-0.6298353672027588,0.3508266508579254
