time,seconds_elapsed,ax,ay,az,gx,gy,gz
1783202091865080000,0.098080078125,-0.2965244475066662,0.2588099261403083,0.0524339515924453,0.1676099747419357,0.0204515289515256,0.192027598619461
1783202091875017200,0.108017333984375,-0.2836979914203286,0.2731283743500709,0.1894213326156139,0.1783661395311355,0.0350289233028888,0.1616636961698532
1783202091884954000,0.1179541015625,-0.2344849015705287,0.272408243381977,0.3035223435699939,0.1514516919851303,0.0276346560567617,0.1419001221656799
1783202091894891300,0.127891357421875,-0.2082197027184069,0.2733008083075284,0.4108890778332948,0.1009265780448913,0.0164422541856765,0.1379750669002533
1783202091904829200,0.1378291015625,-0.2322492514729499,0.2658896552681922,0.4998386963963508,0.0332559235394001,-0.0155761335045099,0.1427442580461502
1783202091914766300,0.147766357421875,-0.3336433410674333,0.2691103708803654,0.5202887792289257,-0.0230454467236995,-0.0478081926703453,0.1282640099525451
1783202091924703200,0.157703125,-0.4975520467638969,0.2115016469985246,0.5158510890424252,-0.0689263865351677,-0.0492907762527465,0.0945923328399658
1783202091934640000,0.16764013671875,-0.6319165319375694,0.1039122098952531,0.5436421822875738,-0.0960989966988563,-0.0308438576757907,0.0480611361563205
1783202091944578000,0.177578125,-0.760131846831739,0.0476543161004781,0.5372796615183353,-0.1044235080480575,0.0050752614624798,-0.0096799246966838
1783202091954515200,0.18751513671875,-0.8336158929765224,0.0463718750745058,0.528702971830964,-0.1047498136758804,0.046441838145256,-0.0645085126161575
1783202091964452400,0.197452392578125,-0.8282628415107727,0.066832479301095,0.5256944376647472,-0.1098947674036026,0.0878854244947433,-0.1135982945561409
1783202091974390300,0.207390380859375,-0.7626338927805423,0.1169400337725877,0.5600584795594215,-0.1210113763809204,0.1317932903766632,-0.1490961015224456
1783202091984327400,0.217327392578125,-0.6722714848101139,0.1712590684592723,0.6149041684687138,-0.1346374303102493,0.1574105024337768,-0.1649757325649261
1783202091994264000,0.22726416015625,-0.5353184444479644,0.1830114655733108,0.6354682330697774,-0.1474363356828689,0.1528258472681045,-0.1529546082019806
1783202092004201200,0.237201171875,-0.4045589980289339,0.2217448085933923,0.6067851594209671,-0.1485442221164703,0.1399750411510467,-0.1319569051265716
1783202092014139100,0.24713916015625,-0.2561366152778268,0.239216752398014,0.6402993064880371,-0.1463095396757125,0.0970310419797897,-0.1051933616399765
1783202092024076300,0.257076171875,-0.1637672513991594,0.2200707379013299,0.6563643061041832,-0.1404332667589187,0.0420282445847988,-0.0736570060253143
1783202092034013200,0.26701318359375,-0.0902136471495032,0.1556219388663768,0.6272960325300693,-0.1405194401741027,-0.0305167064070701,-0.0448953732848167
1783202092043950300,0.276950439453125,-0.066169485347718,0.1132131222039461,0.601218172943592,-0.144878476858139,-0.1142118722200393,-0.0366931036114692
1783202092053888300,0.28688818359375,-0.0894431011684238,0.1183013852536678,0.5565829124033451,-0.1591371446847915,-0.1818058043718338,-0.0426710695028305
1783202092063825200,0.2968251953125,-0.1034049910254776,0.1918582043737172,0.5524094261109829,-0.1953726559877395,-0.2151381969451904,-0.0435989163815975
1783202092073762300,0.30676220703125,-0.1084504378467798,0.2181330478370189,0.5693611454337835,-0.2545046508312225,-0.199109748005867,-0.037470169365406
1783202092083699200,0.31669921875,-0.0932340178839862,0.1687514695525169,0.5850783545255661,-0.3203718066215515,-0.1478457748889923,-0.0203063655644655
1783202092093637000,0.32663720703125,-0.0629839871793985,0.0953156464636325,0.564104540079832,-0.3853524029254913,-0.0862996727228164,-0.0179382339119911
1783202092103574300,0.33657421875,-0.0194017428234219,0.0250105226159095,0.4938105221480131,-0.4343793392181396,-0.0257255397737026,-0.0280577130615711
1783202092113511400,0.346511474609375,-0.008955752132833,-0.0501987398862838,0.3989233302295207,-0.4561133682727813,0.0319341272115707,-0.0394019186496734
1783202092123449300,0.356449462890625,0.0170833828784525,-0.1841378392547369,0.3276297798663377,-0.4516264796257019,0.077286958694458,-0.0516737662255764
1783202092133386200,0.36638623046875,0.0642772418603301,-0.319646964418888,0.281787481623888,-0.4352339804172516,0.099868856370449,-0.0730729699134826
1783202092143323100,0.3763232421875,0.0987291081689298,-0.3867383869171142,0.2492857264697551,-0.4179721772670746,0.0920231863856315,-0.1098371148109436
1783202092153260300,0.38626025390625,0.1494046717867255,-0.3933335473984479,0.1990788032770157,-0.4021073579788208,0.0720384269952774,-0.145210787653923
1783202092163198200,0.3961982421875,0.234195270974189,-0.4082897089898586,0.1507394275218248,-0.3917044997215271,0.0606603398919105,-0.1523986607789993
1783202092173135400,0.40613525390625,0.3204866301134229,-0.4366115481108427,0.1688257038325071,-0.3821251392364502,0.0526209436357021,-0.1349430382251739
1783202092183072300,0.416072265625,0.3736784143358468,-0.4320084382295608,0.171944128113985,-0.3794358968734741,0.0138253439217805,-0.1202394515275955
1783202092193009200,0.426009033203125,0.3648778527647257,-0.374690806248784,0.1195581073164939,-0.3725643157958984,-0.0606459863483905,-0.1135570853948593
1783202092202947000,0.435947021484375,0.3535135781854391,-0.2895978631138801,0.0143745623111724,-0.3660893738269806,-0.1339063495397567,-0.1115365475416183
1783202092212884200,0.44588427734375,0.3336372035875916,-0.2003115599423647,-0.1124479830503463,-0.3539908528327942,-0.1730222702026367,-0.1003754436969757
1783202092222821000,0.455821044921875,0.2843454955436289,-0.0890443111091852,-0.1640045672863721,-0.3467826843261719,-0.1813609004020691,-0.0822345167398452
1783202092232759300,0.46575927734375,0.2069511440873146,0.0374029711991548,-0.1818693098008632,-0.3378687500953674,-0.1817800104618072,-0.0710748881101608
1783202092242696200,0.4756962890625,0.1012216556370258,0.1922837363094091,-0.2147580184459686,-0.330910712480545,-0.1901346147060394,-0.0719516053795814
1783202092252633300,0.48563330078125,-0.0291544905528426,0.3268313229650258,-0.2924316252350807,-0.3282895386219024,-0.194520965218544,-0.0730131193995475
1783202092262570200,0.4955703125,-0.1328467740871012,0.347426367226243,-0.3878255976319313,-0.3202262818813324,-0.196496233344078,-0.0735151246190071
1783202092272508200,0.505508056640625,-0.153889854376763,0.2928168251603841,-0.4976631059229374,-0.2983241081237793,-0.1803919672966003,-0.0702018737792968
1783202092282445300,0.5154453125,-0.171983291080594,0.2659054373592138,-0.533632244926691,-0.2737127542495727,-0.11807531863451,-0.0742634683847427
1783202092292382200,0.52538232421875,-0.2268872860483825,0.3352338251292705,-0.4438970289438962,-0.2418799251317978,-0.0406837053596973,-0.0804867148399353
1783202092302319400,0.5353193359375,-0.2488376904413103,0.3857259950041771,-0.3453483919084072,-0.2053176313638687,0.023335225880146,-0.0883092209696769
1783202092312257300,0.54525732421875,-0.1888153295464813,0.3793184660494327,-0.2430167292028665,-0.1578121185302734,0.0546288266777992,-0.0951416566967964
1783202092322194400,0.5551943359375,-0.0979752210617065,0.3148790193647146,-0.1570785674154758,-0.1131194755434989,0.0426826849579811,-0.0895130634307861
1783202092332131000,0.565131103515625,0.0194005737796425,0.2586690563648939,-0.0711146866649389,-0.0765181332826614,0.0030278996564447,-0.0765227675437927
1783202092342069200,0.5750693359375,0.1238176644571125,0.1861187839388847,-0.0107201314568519,-0.0592368729412555,-0.0467239432036876,-0.0551687404513359
1783202092352006100,0.585006103515625,0.1886500559821724,0.1326461369484663,0.0398883582741022,-0.0660063102841377,-0.0977127030491828,-0.0411201305687427
1783202092361943300,0.594943359375,0.2352766364701092,0.0720505062103271,0.0346019423037767,-0.0839770585298538,-0.156219944357872,-0.0255382414907217
1783202092371880200,0.604880126953125,0.2348486203163862,0.0696522128969431,0.0496662404447793,-0.1175538003444671,-0.209201768040657,0.0043417564593255
1783202092381818400,0.614818359375,0.2309077737361192,0.0868430016726255,0.0486667080134153,-0.1516183018684387,-0.2611765563488006,0.0227069146931171
1783202092391755300,0.62475537109375,0.2031776168979704,0.0970849942237138,0.041537294524908,-0.1869176030158996,-0.3172545135021209,0.043530136346817
1783202092401692200,0.634692138671875,0.1789746112726628,0.1203629939585924,0.0406669414311647,-0.2034116238355636,-0.3760445713996887,0.0764428153634071
1783202092411629300,0.64462939453125,0.1326741939991712,0.1348573832571506,0.0267173265337944,-0.2049398273229599,-0.423549473285675,0.1177491247653961
1783202092421567200,0.654567138671875,0.0979319664418697,0.0940197614341974,-0.0130967974603176,-0.1953750848770141,-0.4441735446453094,0.137726292014122
1783202092431504100,0.664504150390625,0.0081089260451495,0.0435562331318855,-0.0086783964961767,-0.1903348714113235,-0.4372328817844391,0.1382669955492019
1783202092441441300,0.674441162109375,-0.1194990706056356,0.0627671295583248,0.0096703301429748,-0.1921889632940292,-0.3935674130916595,0.1176091209053993
1783202092451379200,0.684379150390625,-0.209685391356796,0.0959475146263837,0.0613794745922088,-0.1923936307430267,-0.3522695899009704,0.0883960798382759
1783202092461316400,0.69431640625,-0.21780001649037,0.1152612869054078,0.0398649773985147,-0.1780557036399841,-0.3117996752262115,0.07664754986763
1783202092471253200,0.704253173828125,-0.1635657374776899,0.0437666610121727,-0.0081955814152956,-0.1539592742919922,-0.2805750370025635,0.0784169360995292
1783202092481190100,0.714190185546875,-0.0962890215404331,-0.0817056387841701,-0.0194207397848367,-0.1283364742994308,-0.2754639089107513,0.0833552330732345
1783202092491128300,0.72412841796875,-0.0618945845074951,-0.1454518425077199,-0.0443061747163534,-0.1114015877246856,-0.2895308434963226,0.0754560455679893
1783202092501065200,0.734065185546875,-0.0957578372731804,-0.1463449919551611,-0.0673842679649591,-0.106948509812355,-0.3073178231716156,0.0534010827541351
1783202092511002400,0.74400244140625,-0.1654876454509794,-0.0850946967005729,-0.0717483083933591,-0.1271866261959076,-0.3199605345726013,0.0292897950857877
1783202092520940300,0.753940185546875,-0.1774167143061757,-0.0706032300114631,-0.0377443319827318,-0.1538906693458557,-0.3137756288051605,0.0136450547724962
1783202092530877200,0.763877197265625,-0.145764123327285,-0.1443944424092769,-0.0329132585644722,-0.1891366094350814,-0.3014390766620636,0.0083435401320457
1783202092540814000,0.77381396484375,-0.1082951011545956,-0.2237859590321779,-0.0440641826540231,-0.2315858006477356,-0.3180833160877228,0.002627863548696
1783202092550751200,0.783751220703125,-0.0824498812802135,-0.260981424960494,-0.1198579670459032,-0.2682589590549469,-0.3337289094924927,-0.0020611872896552
1783202092560689200,0.793689208984375,-0.0493177192680537,-0.2698386851549148,-0.1943675568461418,-0.2956008315086365,-0.3479427397251129,-0.0078224036842584
1783202092570626300,0.803626220703125,-0.0219242470383644,-0.3012602438569068,-0.2746832025766372,-0.3004071116447449,-0.3553104102611542,-0.0178254600614309
1783202092580563200,0.813563232421875,-0.0142214175760746,-0.3095464261651039,-0.3792641055136919,-0.299055278301239,-0.3623257279396057,-0.0371211282908916
1783202092590500000,0.8235,-0.0109837508291006,-0.2820253820329904,-0.5272480968475342,-0.2790239155292511,-0.3661530017852783,-0.0614354386925697
1783202092600438000,0.83343798828125,-0.0605135054126381,-0.2670359026938677,-0.6777928785800933,-0.2591572701931,-0.3292519748210907,-0.0913073122501373
1783202092610375200,0.843375244140625,-0.1291306761734187,-0.2479611998677253,-0.7378203540414572,-0.2329397350549698,-0.2457548677921295,-0.1226884573698043
1783202092620312300,0.853312255859375,-0.1891726185515523,-0.2242190897524356,-0.7417822434097529,-0.1975878626108169,-0.1439174562692642,-0.1484321802854538
1783202092630250200,0.863250244140625,-0.1863404638655483,-0.1846551411271095,-0.7406891874760388,-0.1592225730419159,-0.0600700937211513,-0.1651542633771896
1783202092640187100,0.873187255859375,-0.1242265375189483,-0.1016974564552307,-0.7326146020919084,-0.122681088745594,-0.0042387899011373,-0.1741394996643066
1783202092650124300,0.883124267578125,-0.0386534096516668,-0.0455459456443786,-0.7706015106588602,-0.0786980837583541,0.0116916820406913,-0.1657537668943405
1783202092660061200,0.893061279296875,0.0810892604514956,-0.0300005859881639,-0.7648778723150491,-0.0294794030487537,-0.002133585512638,-0.1497969031333923
1783202092669999000,0.9029990234375,0.1888333035945892,0.0141308166831731,-0.7437871534913778,0.0202959701418876,-0.0438099540770053,-0.12724369764328
1783202092679936300,0.912936279296875,0.2423085809335112,0.0522515807628631,-0.6986603100419044,0.0830267295241355,-0.0792337208986282,-0.0970253348350524
1783202092689873200,0.922873046875,0.2200033717535436,0.1139969660580158,-0.6361486165493726,0.1202963292598724,-0.1290582418441772,-0.0808972865343093
1783202092699811300,0.932811279296875,0.1609482484556734,0.203442259183526,-0.5586357532799243,0.1087376773357391,-0.1777120679616928,-0.0633995160460472
1783202092709748200,0.942748291015625,0.1332432260587811,0.2229752271711826,-0.4313467594504356,0.071991465985775,-0.2139105200767517,-0.0314184501767158
1783202092719685400,0.952685302734375,0.2105643661484122,0.1779565202713012,-0.3326327027201652,0.0402473807334899,-0.2580859661102295,0.0088725108653306
1783202092729622000,0.9626220703125,0.3292322466269135,0.1741588815540075,-0.3770452604204416,0.0275205262005329,-0.2973890006542206,0.0510941296815872
1783202092739560200,0.972560302734375,0.3408225850470364,0.3109603846162557,-0.4818488661974668,0.0451948605477809,-0.2912357747554779,0.0918407589197158
1783202092749497000,0.9824970703125,0.3138464614465832,0.3898001125752925,-0.4638280563384294,0.0839829295873642,-0.281842291355133,0.1188462153077125
1783202092759434200,0.992434326171875,0.2430981238760054,0.4957704240441322,-0.5099515096098184,0.120196059346199,-0.2780206501483917,0.1294445246458053
1783202092769372200,1.0023720703125,0.0987803999647498,0.5256657960921526,-0.5112672683835029,0.169909656047821,-0.2430706918239593,0.1213525906205177
1783202092779309300,1.012309326171875,0.0565206363841891,0.4605062184393406,-0.3459785065054893,0.2287351489067077,-0.1689884811639785,0.1095451936125755
1783202092789246200,1.02224609375,0.0244688169546425,0.3643424307137727,-0.177951259574294,0.2587478458881378,-0.1229824125766754,0.0971947163343429
1783202092799183000,1.03218310546875,-0.0430151119925081,0.2880681693285703,-0.1073959603577852,0.2615441679954529,-0.1049520224332809,0.0892941802740097
1783202092809121000,1.04212109375,-0.0664563394650816,0.2058516584128141,-0.057962359625101,0.2494665682315826,-0.1115381196141243,0.0690308511257171
1783202092819058200,1.05205810546875,-0.0783319245673716,0.1517477277815342,-0.0011865794360637,0.2295570522546768,-0.1177973449230194,0.0530556142330169
1783202092828995300,1.061995361328125,-0.0825995188839733,0.1247305415183305,0.1023936220258474,0.2046317011117935,-0.1206620335578918,0.0523422583937644
1783202092838933200,1.071933349609375,-0.0748370681889355,0.1104722990632057,0.1915869862169027,0.1556700319051742,-0.1203493773937225,0.0544671937823295
1783202092848871400,1.081871337890625,-0.1192915653347969,0.0862877058774232,0.2494879710435867,0.0935020297765731,-0.1316046863794326,0.0556776039302349
1783202092858808600,1.09180859375,-0.1631647554613649,0.0578776039510965,0.2482897011697292,0.0294684525579214,-0.1381978839635849,0.0474513657391071
1783202092868745200,1.1017451171875,-0.2279471703648567,0.0153518829107284,0.2369178278058767,-0.0189693812280893,-0.1274330019950866,0.0484567657113075
1783202092878683400,1.111683349609375,-0.2528764444380998,-6.95581048727e-05,0.2796791111677885,-0.0568190291523933,-0.1116982549428939,0.0446391254663467
1783202092888620300,1.121620361328125,-0.2678970495678484,0.0047311201751232,0.3070703914403915,-0.079115480184555,-0.1284428089857101,0.039434690028429
1783202092898557400,1.131557373046875,-0.2803194548979401,-0.0033417116433382,0.2617909877777099,-0.0862540826201438,-0.1486258506774902,0.0356466062366962
1783202092908495400,1.141495361328125,-0.2482718732520937,-0.0665951634138822,0.2072679549515247,-0.0749199315905571,-0.1664397567510604,0.0338745862245559
1783202092918432500,1.1514326171875,-0.214546421521902,-0.1496206526249647,0.1982499512374401,-0.064678207039833,-0.2005463242530822,0.0304162055253982
1783202092928369400,1.161369384765625,-0.2465399348929524,-0.1587929701179266,0.1639870316296816,-0.0537971705198287,-0.2533554434776306,0.0114307831972837
1783202092938306300,1.171306396484375,-0.3024561756432056,-0.1372223588228225,0.082505849251151,-0.0363412126898765,-0.286949872970581,-0.0153342522680759
1783202092948244200,1.181244140625,-0.3264610283479094,-0.1456710382163524,-0.0279079976230859,-0.0103662107139825,-0.2870985865592956,-0.0423211045563221
1783202092958181400,1.191181396484375,-0.3080234543815255,-0.1227992811948061,-0.0486088403463363,0.0016664834693074,-0.2468454390764236,-0.0630112066864967
1783202092968118500,1.201118408203125,-0.2801943672135472,-0.0687830288469791,-0.0369973130077123,-0.0058959303423762,-0.1841183751821518,-0.0787082612514495
1783202092978056400,1.211056396484375,-0.2504205757185817,0.001732522881031,-0.0242354465901851,-0.0310928970575332,-0.1232387796044349,-0.1030727252364158
1783202092987993600,1.22099365234375,-0.211174607001245,0.0317313553035259,-0.0329682036221027,-0.0622983314096927,-0.0736511722207069,-0.1209462359547615
1783202092997930500,1.230930419921875,-0.1301163262099027,0.0441004230111837,-0.1041997946649789,-0.0835301205515861,-0.0182808525860309,-0.1154255047440528
1783202093007867400,1.240867431640625,-0.0322819749236106,0.0337561391294002,-0.1101893904685974,-0.0987278595566749,-0.0090488390997052,-0.1143870055675506
1783202093017805300,1.250805419921875,0.0423418889060616,0.0855611451685428,-0.1516109496593475,-0.1070150882005691,-0.0428057350218296,-0.105252631008625
1783202093027742500,1.260742431640625,0.0856090759634971,0.10451485196352,-0.2506435708194971,-0.0988432541489601,-0.0880118757486343,-0.0888451263308525
1783202093037679400,1.270679443359375,0.148633395153284,0.0602577770859003,-0.3233867354691028,-0.0820094123482704,-0.1109270453453064,-0.0657419338822364
1783202093047617500,1.280617431640625,0.1793286854073405,0.0573608866006135,-0.2978513121962547,-0.0669159218668937,-0.1165600270032882,-0.0509667098522186
1783202093057554400,1.290554443359375,0.1874362962782383,0.0812064570903778,-0.2769797890812158,-0.0507337525486946,-0.11440259963274,-0.0408986322581768
1783202093067491600,1.30049169921875,0.1856584729507565,0.0902197846293449,-0.2897989386439323,-0.0213031414896249,-0.0926509723067283,-0.0274534989148378
1783202093077428200,1.31042822265625,0.1803089286163449,0.0916448489964008,-0.2773527140468358,0.0049601532518863,-0.0557512789964675,-0.0194863863289356
1783202093087366400,1.320366455078125,0.2260463051795959,0.1035720181554555,-0.1855868690192699,0.0244929380714893,-0.0375286228954792,-0.0068870051763951
1783202093097303300,1.33030322265625,0.2802177480891347,0.1550058527946472,-0.1929144354283809,0.0511437244713306,-0.038549143821001,0.0031887986697256
1783202093107240400,1.340240478515625,0.3653437167108059,0.1623538774698972,-0.2166898632913828,0.0745324566960334,-0.0687492936849594,0.0141441971063613
1783202093117178400,1.350178466796875,0.4369309893235564,0.1494096402227878,-0.2447527592152357,0.0869236141443252,-0.1140272915363311,0.0360811911523342
1783202093127115500,1.360115478515625,0.4270259736418724,0.140817168444395,-0.2979576951801777,0.0965521931648254,-0.1499376446008682,0.06584482640028
1783202093137052400,1.370052490234375,0.4082107985347509,0.1221282500654458,-0.3050280719578266,0.1022436320781707,-0.1749551147222519,0.0961412116885185
1783202093146989300,1.3799892578125,0.3509434354364871,0.0780085378319025,-0.3119505646973848,0.1065665706992149,-0.1839158833026886,0.1169433966279029
1783202093156927200,1.38992724609375,0.2769835884734988,0.0317430457413196,-0.3301239347696304,0.1130798682570457,-0.168790727853775,0.1129326745867729
1783202093166864400,1.399864501953125,0.1906546738028526,0.0030026889473199,-0.3159825966924429,0.1050468757748603,-0.1500092893838882,0.1029586419463157
1783202093176801500,1.409801513671875,0.1077364443585276,-0.0010258359163999,-0.3207517107903957,0.088600255548954,-0.1268600225448608,0.0863532945513725
1783202093186739500,1.419739501953125,0.0439177599206566,0.0197480720430612,-0.3074877400696277,0.0742818117141723,-0.0996351987123489,0.0813853368163108
1783202093196676600,1.429676513671875,0.0354661579176783,0.0017500585377216,-0.3053933981388807,0.0608288571238517,-0.0774318948388099,0.0715995505452156
1783202093206613500,1.439613525390625,0.0354734644412994,-0.0269897137343883,-0.3421884665727615,0.0437552370131015,-0.0725354477763176,0.0639083832502365
1783202093216551400,1.449551513671875,0.0030544191345572,-0.0291734875142574,-0.4335398855805397,0.0359606966376304,-0.0552853569388389,0.0648308992385864
1783202093226488300,1.45948828125,-0.0344032048612833,-0.0508890602380037,-0.4715688797235489,0.036899160593748,-0.0386856757104396,0.0630572214722633
1783202093236425500,1.469425537109375,-0.1051686396971344,-0.074355860543251,-0.4903466454297304,0.0486447624862194,-0.0228856727480888,0.0546546801924705
1783202093246362400,1.4793623046875,-0.1907689478322863,-0.0853629922479391,-0.5392436550676822,0.0752843990921974,-0.0098507609218359,0.0429407767951488
1783202093256300500,1.489300537109375,-0.2544590374544263,-0.0988572645932436,-0.5679740749895572,0.1060873195528984,0.0060610934160649,0.0343611389398574
1783202093266237400,1.499237548828125,-0.3196457953751087,-0.1055968019813299,-0.5713830066502094,0.1394917070865631,0.0199770834296941,0.0165778491646051
1783202093276174600,1.509174560546875,-0.354759486593306,-0.0920931772857904,-0.5422036739170552,0.1667020320892334,0.0368982776999473,0.0072549213655292
1783202093286112500,1.519112548828125,-0.3718026835918426,-0.0779220285922288,-0.4940145202875137,0.1837178617715835,0.0510026849806308,0.0007152273319661
1783202093296049400,1.52904931640625,-0.3466331710219383,-0.0644885465234518,-0.4259638973683118,0.1993322372436523,0.0509198606014251,0.0019314931705594
1783202093305986300,1.538986328125,-0.3120446727216243,-0.048335284101963,-0.3873182326316833,0.2072275876998901,0.0385921187698841,0.0075026955455541
1783202093315923500,1.54892333984375,-0.3046080929800868,-0.0307639715760946,-0.351790407654643,0.2144157290458679,0.0465597659349441,0.0109605435281991
1783202093325861400,1.558861328125,-0.3328983679190277,-0.036089550513029,-0.2565226919859648,0.2122853100299835,0.0644219443202018,0.0039367387071251
1783202093335798500,1.568798583984375,-0.4106307191580534,-0.0360638315498828,-0.14561960029006,0.2005982995033264,0.0902535393834114,-0.0164865106344223
1783202093345735400,1.5787353515625,-0.4712275189399719,-0.0344686713129282,-0.0495756395518779,0.1788098663091659,0.1100422516465187,-0.0405638366937637
1783202093355673600,1.588673583984375,-0.4892459907114505,-0.0575654692620038,0.0202419930398464,0.1570630222558975,0.119104191660881,-0.0716202855110168
1783202093365610200,1.5986103515625,-0.4265560180425644,-0.0819382784962654,0.0777823278605937,0.1367237269878387,0.1232508420944213,-0.0975855141878128
1783202093375547400,1.60854736328125,-0.3068763301730156,-0.0584258854836225,0.1037625722914934,0.1209615319967269,0.1094114631414413,-0.1109678968787193
1783202093385484500,1.618484619140625,-0.1695996108144521,0.0087783497393131,0.114080552688241,0.1052194237709045,0.073301576077938,-0.1124800741672515
1783202093395422500,1.62842236328125,-0.0374964947015047,0.1379348910063505,0.0772983437359333,0.0962163433432579,0.0485256537795066,-0.0958230644464492
1783202093405359600,1.638359619140625,0.0722884066194295,0.226107679978013,0.0470078348904848,0.0937639698386192,0.0358867235481739,-0.0593171194195747
1783202093415296500,1.648296630859375,0.1570911346361041,0.2761065133780241,0.0440723659604787,0.0995579436421394,0.023593571037054,-0.0262968502938747
1783202093425234400,1.658234375,0.1563432388782501,0.3312415406227111,-0.0005909516304731,0.1091678887605667,0.0144629422575235,-0.0007739760912954
1783202093435171300,1.66817138671875,0.1331546709924936,0.3085293580770492,-0.0347831440895795,0.1225494742393493,0.0058417576365172,0.0121511444449424
1783202093445108500,1.6781083984375,0.1205661153152585,0.2485106504440307,-0.0559171175330877,0.140563502907753,-0.0119688548147678,0.0148139484226703
1783202093455046400,1.68804638671875,0.0846709183305501,0.1775181288540363,-0.0902186155855655,0.1604234874248504,-0.0243205949664115,0.0070252688601613
1783202093464983600,1.697983642578125,0.0719485071405768,0.1105932950943708,-0.1312368546724319,0.1842950284481048,-0.0270071774721145,0.0056115179322659
1783202093474920400,1.70792041015625,0.0807794638499617,0.0522936663389205,-0.1144336039096117,0.1973783373832702,-0.019925033673644,0.0134822241961956
1783202093484857300,1.717857421875,0.076252634075284,0.0298012640237808,-0.0518915152788162,0.2027997374534607,-0.0155349466949701,0.0180684477090835
1783202093494795300,1.727795166015625,0.0257446821093559,0.0043418285965919,-0.0368400766193866,0.1974947154521942,-0.0009690532460808,0.012736533768475
1783202093504732400,1.737732421875,-0.0452887560129165,-0.0539198062360286,0.0137836106806993,0.1846068650484085,0.0281949657946825,-0.0099444389343261
1783202093514669300,1.74766943359375,-0.0972287866085767,-0.1458288591265678,0.0434147788345813,0.165030762553215,0.0626378953456878,-0.0380226783454418
1783202093524607500,1.757607421875,-0.1256128773108124,-0.2305564760804176,0.0656879854410886,0.1445077359676361,0.0791141167283058,-0.0644940063357353
1783202093534544400,1.76754443359375,-0.1271454937055706,-0.2648240718632936,0.0898281549632549,0.1235553249716758,0.0962422341108322,-0.0923693105578422
1783202093544481500,1.7774814453125,-0.1154918807908892,-0.2505582306236028,0.0998006829231977,0.1051082462072372,0.1101065576076507,-0.1129981875419616
1783202093554419500,1.78741943359375,-0.0837698778375983,-0.2232435227185487,0.1192366202771663,0.086351066827774,0.1245992183685302,-0.1242364645004272
1783202093564356400,1.7973564453125,-0.0360167775377631,-0.1830120500952005,0.1084527759343385,0.0753727406263351,0.1253331750631332,-0.1212359815835952
1783202093574293200,1.807293212890625,0.0092661332562565,-0.1387327633857727,0.0458615874648094,0.0675808638334274,0.1168589890003204,-0.1067350655794143
1783202093584230400,1.81723046875,0.0471235702246427,-0.1388935069054365,-0.0461012414395809,0.0694273635745048,0.1241724714636802,-0.0972277149558067
1783202093594168300,1.827168212890625,0.0382040584489703,-0.1530968043029308,-0.1058802950978279,0.0751164034008979,0.1526073068380355,-0.0993609055876731
1783202093604105500,1.83710546875,-0.0299310278832912,-0.1061491751670837,-0.0892453866392374,0.0718183442950248,0.1950679421424865,-0.1185508444905281
1783202093614042600,1.847042724609375,-0.0827586549684405,-0.0164320793628692,-0.0628279198348522,0.0645604357123375,0.2426090985536575,-0.1475723832845688
1783202093623980500,1.85698046875,-0.0801397046416997,0.0683159958571195,-0.0533627568751573,0.0555956810712814,0.3029408752918243,-0.161485955119133
1783202093633917400,1.86691748046875,-0.0293356923386454,0.133077514103055,-0.031902620217204,0.0522163957357406,0.3554690778255462,-0.1650468707084655
1783202093643854300,1.876854248046875,0.0452118913844227,0.1436398246496915,-0.0340653512090444,0.0456577986478805,0.4022465348243713,-0.1442243158817291
1783202093653792300,1.886792236328125,0.0877487183406948,0.1528068814456462,-0.0679062460124492,0.0502165965735912,0.4509634673595428,-0.1281923502683639
1783202093663729400,1.8967294921875,0.1584592081189155,0.1138853223770856,-0.0758592508435249,0.0596868284046649,0.4662722945213318,-0.0982081890106201
1783202093673666600,1.90666650390625,0.2616488028280437,0.0093026658743619,-0.1605231549113988,0.0842683389782905,0.4713685214519501,-0.052876129746437
1783202093683603500,1.916603515625,0.2957368042603135,-0.1248357554584741,-0.2205383554130792,0.1109649315476417,0.4824799597263336,0.0044470834545791
1783202093693541600,1.926541748046875,0.3070793053992092,-0.2502677232444286,-0.2130956381916999,0.1369952112436294,0.4453208744525909,0.0371610894799232
1783202093703478300,1.936478271484375,0.2103939780175685,-0.2682926247566938,-0.2434568741858005,0.1576510667800903,0.3651031851768493,0.0512655898928642
1783202093713415400,1.94641552734375,0.1287862466499209,-0.3073112144589424,-0.2766390128195286,0.1818357706069946,0.2490670979022979,0.058409783989191
1783202093723353300,1.956353271484375,0.0564186373144388,-0.3407698319464922,-0.34914778419137,0.2024609893560409,0.1258125305175781,0.0597818084061145
1783202093733290500,1.96629052734375,-0.0264404092885553,-0.29207857401371,-0.4348591514855623,0.2178135812282562,0.0437397621572017,0.0546104833483696
1783202093743227400,1.976227294921875,-0.1262770403079688,-0.1676934849321842,-0.4144873945862055,0.2202314436435699,0.0073887542821466,0.0396635942161083
1783202093753165600,1.98616552734375,-0.2471111589096486,-0.0102829090833663,-0.3781318866133689,0.21630859375,0.0275944229215383,0.0244020819664001
1783202093763102500,1.9961025390625,-0.3317247940950095,0.1106195985794067,-0.3186129451960325,0.2037605792284011,0.0735097154974937,-0.0037014572881162
1783202093773039400,2.006039306640625,-0.3909725173555314,0.2178501392424106,-0.2677279766112566,0.1833820790052414,0.1161951273679733,-0.0340194143354892
1783202093782976500,2.0159765625,-0.4491827142618596,0.3513561078906059,-0.2521791098237037,0.1709127426147461,0.15887151658535,-0.0559789091348648
1783202093792914400,2.02591455078125,-0.4733996022820472,0.4408534234642982,-0.2025280669480562,0.1620207130908966,0.2076148241758346,-0.0647654756903648
1783202093802851300,2.035851318359375,-0.4852263798065483,0.5049281284898519,-0.1184405014634132,0.1618225574493408,0.2566474974155426,-0.0836557075381279
1783202093812788500,2.04578857421875,-0.468620989703387,0.5821721116900443,-0.0270844062805175,0.1658979952335357,0.3025577068328857,-0.1003236398100853
1783202093822726400,2.055726318359375,-0.4140408198624849,0.6559264992088079,0.0559065961390733,0.1649248600006103,0.3489043116569519,-0.1203431561589241
1783202093832663600,2.06566357421875,-0.3312583456270396,0.7815560353934764,0.1291319913476705,0.1657539159059524,0.3942302465438843,-0.1332421749830246
1783202093842600400,2.075600341796875,-0.2333361699268221,0.9586457097023724,0.2728402050584554,0.1590955853462219,0.4670979082584381,-0.1391134113073349
1783202093852537300,2.085537353515625,-0.0845233265534043,1.0093401241511106,0.4662164127796888,0.1443797498941421,0.5193203687667847,-0.1245893314480781
1783202093862474500,2.095474609375,0.1392816294401884,0.9031798430681228,0.5794926633477211,0.139619842171669,0.5293474793434143,-0.0930755138397216
1783202093872411400,2.105411376953125,0.3960366688773036,0.7092576919019222,0.6053495736598968,0.1486279815435409,0.4834034442901611,-0.0532596558332443
1783202093882348500,2.1153486328125,0.6118887661702931,0.5258581037938594,0.5985159282475709,0.1595054119825363,0.3935263752937317,-0.0013787141069769
1783202093892286500,2.125286376953125,0.7739828236602246,0.3637017947226763,0.5860206038117408,0.1718640774488449,0.2789390683174133,0.0647401213645935
1783202093902223600,2.1352236328125,0.8901637096285819,0.1620493415653705,0.6111638128966093,0.1796840131282806,0.135004237294197,0.1423353850841522
1783202093912160500,2.145160400390625,0.9141248693220316,-0.1495727218300104,0.4788876783043146,0.1784610897302627,-0.0230184197425842,0.2298348695039749
1783202093922098400,2.155098388671875,0.8757346406511962,-0.4944283617854118,0.2899111668467521,0.1703774482011795,-0.1531626135110855,0.2986601293087005
1783202093932035300,2.165035400390625,0.7149502044551074,-0.6996878995239735,0.1877250500917434,0.1426507532596588,-0.2406274825334549,0.322757750749588
1783202093941972500,2.174972412109375,0.4191122779078781,-0.6389665965795517,0.1263438219338655,0.1071617379784584,-0.2473313361406326,0.2966848611831665
1783202093951910400,2.184910400390625,0.093391984924674,-0.4163222087979316,0.131622639119625,0.0648366510868072,-0.1595066636800766,0.2370609492063522
1783202093961847600,2.19484765625,-0.1296089612096548,-0.3023918782353401,0.1829454145997762,0.0257451012730598,-0.0314391553401947,0.1837859451770782
1783202093971784700,2.20478466796875,-0.2164449486196041,-0.3229728939712047,0.1996925512611866,-0.0110845528542995,0.0654519721865654,0.1441431939601898
1783202093981721300,2.214721435546875,-0.2018152425035834,-0.3244897282749414,0.1315986737221479,-0.032004676759243,0.1021754890680313,0.1143803149461746
1783202093991659500,2.224659423828125,-0.1687786498203873,-0.2870283048868179,-0.0029728783309459,-0.0266695655882358,0.105670616030693,0.084376074373722
1783202094001596400,2.234596435546875,-0.171169198218733,-0.2212134781956672,-0.1187409457147121,0.0055515249259769,0.0836068540811538,0.0570010729134082
1783202094011533600,2.244533447265625,-0.1892716950118541,-0.0864712457507848,-0.1497515855282545,0.0464619398117065,0.0462490916252136,0.0451774336397647
1783202094021471500,2.254471435546875,-0.1779389846146106,0.112847796022892,-0.1331254448980093,0.0927723795175552,0.049090102314949,0.0341241843998432
1783202094031408600,2.26440869140625,-0.1532227687701582,0.3919932387053966,0.0322036489903926,0.1275862902402877,0.0764612779021263,0.0189279206097126
1783202094041345500,2.274345458984375,-0.1032435168534517,0.6538403405845165,0.212039991658926,0.1529170423746109,0.1046105921268463,0.0175257325172424
1783202094051283700,2.28428369140625,-0.0280376153521239,0.7288198859840631,0.2788578579127788,0.1652125865221023,0.1226077079772949,0.0324990935623645
1783202094061220400,2.294220458984375,0.126580699429661,0.5673188259512185,0.268592484486103,0.1692595332860946,0.1513906121253967,0.0474644601345062
1783202094071157500,2.304157470703125,0.2391784662142395,0.3211550308942794,0.2943582093834876,0.1500599980354309,0.1902618408203125,0.0430225729942321
1783202094081095400,2.314095458984375,0.2749726870425045,0.1464975521683693,0.3463999467879534,0.1077997311949729,0.2038214355707168,0.0374306999146938
1783202094091032600,2.324032470703125,0.3200445854343474,-0.028418869754672,0.353793564170599,0.0506240576505661,0.1684370785951614,0.0415266416966915
1783202094100969500,2.333969482421875,0.3605008067242801,-0.1250450142949819,0.3045557782709598,-0.0199085958302021,0.0939419195055961,0.0266493894159793
1783202094110906400,2.34390625,0.2783985698379576,0.1030062009662389,0.2548608962535858,-0.0960763394832611,0.036717515438795,0.0054178708232939
1783202094120844300,2.35384423828125,0.1348094524621963,0.42675066383183,0.2185848832577467,-0.1721701771020889,0.0489706881344318,0.020014526322484
1783202094130781400,2.363781494140625,0.1138670560680329,0.4500175576508045,0.2271516360729932,-0.302975594997406,0.1003457233309745,0.0841959118843078
1783202094140718300,2.37371826171875,0.2042443693466484,0.1348468618631363,0.2545376556485891,-0.3043563961982727,0.1711009740829467,0.1116631105542182
1783202094150656500,2.383656494140625,0.272949218390882,0.1750865177929401,0.0475163689345121,-0.2051267623901367,0.1201552376151084,0.1321859657764434
1783202094160593400,2.393593505859375,0.2615916658133268,0.019496727630496,-0.486630255255103,-0.0963882580399513,0.0547632426023483,0.187240868806839
1783202094170530600,2.403530517578125,0.4059726642191409,-0.2413923428714275,-0.7494090850263834,-0.0621282830834388,-0.0224061086773872,0.1904670298099517
1783202094180468500,2.413468505859375,0.3217271316938102,-0.3020978637248278,-0.6355909826666116,0.0392797924578189,-0.0511297583580017,0.1568345874547958
1783202094190405400,2.4234052734375,0.144277684161812,-0.2732633989065885,-0.5772784944295882,0.2102153152227401,-0.0383415259420871,0.1775614470243454
1783202094200342500,2.433342529296875,0.1756044041872024,-0.3891226517051458,-0.7184270867854357,0.3006282448768616,-0.0819558352231979,0.2382838428020477
1783202094210280400,2.443280517578125,0.2093064750418067,-0.5127157136261463,-0.8120400209844112,0.3153672516345978,-0.1201799064874649,0.2554321885108948
1783202094220217300,2.45321728515625,0.1353388831637799,-0.2801934904307127,-0.6357932272404432,0.3363931477069855,-0.1107654422521591,0.2375181764364242
1783202094230154500,2.463154541015625,-0.0047021863415837,0.0074205053895711,-0.4429255535632371,0.3548214435577392,-0.0811098143458366,0.2354433089494705
1783202094240091600,2.473091552734375,-0.1013387061454355,0.1484118613570928,-0.3871428760647774,0.3159767091274261,-0.0438846461474895,0.2398728132247924
1783202094250029600,2.483029541015625,-0.1735493713535368,0.177490656325221,-0.264082898107171,0.2680802941322326,0.0044317548163235,0.2516573071479797
1783202094259966500,2.492966552734375,-0.1554151642479002,0.0983019687980413,-0.0916051015079021,0.2507065832614898,0.0580764822661876,0.2458706349134445
1783202094269903400,2.5029033203125,-0.0698353143788874,-0.0540992544561624,-0.0319435367494821,0.2480940371751785,0.0710103884339332,0.2162962257862091
1783202094279841500,2.512841552734375,0.0102492990747094,-0.1223491993397474,-0.0396434436023235,0.2358999550342559,0.0279065873473882,0.1753380298614502
1783202094289778400,2.5227783203125,0.1189073883228003,-0.0749345372140407,-0.055847559428215,0.2197715789079666,-0.0434472188353538,0.1428149789571762
1783202094299715600,2.532715576171875,0.2433136663228273,-0.0300122764259576,-0.0341138665258884,0.1935410648584365,-0.1210681125521659,0.1468943953514099
1783202094309653500,2.542653564453125,0.3397223687201738,0.0840659381747245,-0.025776246291399,0.1567441672086715,-0.1823301464319229,0.1747867465019226
1783202094319590700,2.552590576171875,0.3522930964797735,0.2341308274358511,-0.0666974547445774,0.1269550919532776,-0.1992380619049072,0.2149049937725067
1783202094329527300,2.56252734375,0.326412366900593,0.285720729419589,-0.0931657749533653,0.1258104592561721,-0.1732762455940246,0.2593110501766205
1783202094339465500,2.572465576171875,0.2934929708562791,0.1966127054244279,-0.1766536209791898,0.1511957496404647,-0.1088814213871955,0.2867862582206726
1783202094349402400,2.58240234375,0.2974842324495315,0.0426326885461807,-0.2413777298241853,0.1697984635829925,-0.069269560277462,0.2965488731861114
1783202094359339500,2.592339599609375,0.2975743949510157,-0.0524912347376346,-0.2731441564410924,0.1977701634168625,-0.0509631261229515,0.2974216043949127
1783202094369276400,2.6022763671875,0.2426804829858243,0.0160246676057577,-0.2484428459048271,0.2247328013181686,-0.0625787675380706,0.3062457144260406
1783202094379214600,2.612214599609375,0.1094936632893979,0.1937175685048103,-0.2035042185038328,0.2531502842903137,-0.0845137536525726,0.3390460908412933
1783202094389151500,2.6221513671875,-0.0242455295927822,0.2667886499345302,-0.1429530114293098,0.2881426513195038,-0.1034352481365203,0.3707579672336578
1783202094399088400,2.63208837890625,-0.1686577999196946,0.2934001780062913,-0.0541506923824548,0.3273899853229522,-0.1084890067577362,0.382379800081253
1783202094409026300,2.6420263671875,-0.3342768166653811,0.2887754408150911,0.0087725045204162,0.3608488738536834,-0.0702814385294914,0.3725886940956116
1783202094418963500,2.65196337890625,-0.4972194538086652,0.2400017652958631,0.1353057115465402,0.3882618546485901,-0.0058146324008703,0.3268403708934784
1783202094428900600,2.661900634765625,-0.617928776986897,0.2176326970994472,0.267339269554615,0.4056126177310943,0.0506683513522148,0.2517837285995483
1783202094438838500,2.671838623046875,-0.7040355733394622,0.2330167287141084,0.3749824826717376,0.3992295861244201,0.0731671899557113,0.1665299534797668
1783202094448775400,2.681775390625,-0.7253706223130225,0.24437165094316,0.4996025495529174,0.3594142496585846,0.0615728572010993,0.0937460362911224
1783202094458712600,2.691712646484375,-0.6792059602484106,0.2365145077019929,0.6071013857632875,0.2852234840393066,0.0054773278534412,0.0325765535235405
1783202094468650500,2.701650390625,-0.657918257547915,0.2525537883549928,0.6651724664598703,0.1939359158277511,-0.0732041671872139,-0.0070856371894478
1783202094478587400,2.71158740234375,-0.6259960558474064,0.3634405134379863,0.6711819360077381,0.077657401561737,-0.1675349622964859,-0.0512439087033271
1783202094488524500,2.721524658203125,-0.623176906773448,0.5260463198423385,0.5952367604464293,-0.0394891984760761,-0.2147410959005355,-0.0884128510951995
1783202094498461400,2.73146142578125,-0.6684694621786474,0.6742267105311155,0.5286112018942832,-0.1469719856977462,-0.2126547694206237,-0.1179694086313247
1783202094508399400,2.7413994140625,-0.7522127442702651,0.8181471056878566,0.5261883586615324,-0.2464146614074707,-0.2005479037761688,-0.1361181586980819
1783202094518336500,2.75133642578125,-0.9063996818974612,1.04981183527112,0.422761301934719,-0.3419391512870788,-0.2058305293321609,-0.1497086584568023
1783202094528273700,2.761273681640625,-1.0940995975479484,1.2788853793174029,0.2773217343866825,-0.4264668226242065,-0.2055711299180984,-0.1754707396030426
1783202094538211600,2.771211669921875,-1.2733181005790828,1.4016384832829236,0.1509223828732967,-0.47848641872406,-0.1851363629102707,-0.2001535296440124
1783202094548148500,2.7811484375,-1.3635308709457516,1.3513620019853114,0.0523497804403305,-0.4891026020050049,-0.1469644755125045,-0.2269771546125412
1783202094558085400,2.79108544921875,-1.3066647821247577,1.1733680723130702,-0.0291308174163103,-0.4858580827713012,-0.0969769954681396,-0.272579163312912
1783202094568023600,2.8010234375,-1.191663022938371,0.906661255443096,-0.1060579897522926,-0.5076104998588562,-0.0696034282445907,-0.3270469307899475
1783202094577960400,2.81096044921875,-0.9945639953017236,0.6718190648674964,-0.1486339796751737,-0.4927070140838623,-0.0545432418584823,-0.3814634680747986
1783202094587897600,2.820897705078125,-0.755208126693964,0.5311053567975759,-0.2498340080022811,-0.5071983337402344,-0.0356350615620613,-0.3456548750400543
1783202094597835500,2.83083544921875,-0.4476281782962381,0.0806505767732858,-0.2626315302550792,-0.5438937544822693,0.0117521109059453,-0.2563671171665191
1783202094607772700,2.840772705078125,-0.0834763017185032,-0.3840186065644025,-0.1899672760605812,-0.5953529477119446,-0.0302864201366901,-0.2143613696098327
1783202094617709300,2.850709228515625,-0.0388552158340811,-0.5784656583875417,-0.2899602666854858,-0.5589203834533691,-0.1160725727677345,-0.1948932260274887
1783202094627647500,2.8606474609375,-0.0430009373366832,-0.7972182994276285,-0.4309510381311178,-0.4864382147789001,-0.4242932498455047,-0.1613136827945709
1783202094637584400,2.87058447265625,-0.2376300677284598,-0.8351625378966331,-0.9619996963053942,-0.4665303826332092,-0.7721908688545227,-0.1569632738828659
1783202094647521500,2.880521484375,-0.9341641793966292,0.1079243681460618,-1.319935767108202,-0.4341274499893188,-0.8029986023902893,-0.1439047306776046
1783202094657458400,2.89045849609375,-1.2829267636626958,0.6900158158153296,-0.7249006667137146,-0.3176192939281463,-0.4628329277038574,-0.1282254457473755
1783202094667396600,2.900396728515625,-1.108509231172502,0.5155997446298599,0.0894762727856636,-0.1410061866044998,0.045743741095066,-0.1686306446790695
1783202094677333500,2.91033349609375,-0.9112409844487904,0.1974333741575479,0.66832479301095,0.0170331113040447,0.4685633480548858,-0.2736846506595611
1783202094687270400,2.9202705078125,-0.5593782422102987,-0.2579232064336538,0.8531851013213395,0.0993476882576942,0.6499123573303223,-0.3486523926258087
1783202094697208300,2.930208251953125,-0.1405951962567865,-0.7702028667300939,0.7213491117119789,0.1252097636461258,0.7105572819709778,-0.3526507318019867
1783202094707145500,2.9401455078125,0.3853269126839935,-1.3903098645389078,0.7221206806063651,0.1378837525844574,0.7520509362220764,-0.3209527432918548
1783202094717082600,2.95008251953125,0.8678452025756239,-1.9525930344104765,0.9701718968451024,0.1109615564346313,0.713844358921051,-0.2727611064910888
1783202094727020500,2.9600205078125,1.21474856884107,-2.3382015405148264,1.079456447428465,0.0615348890423774,0.5918744802474976,-0.2177276909351349
1783202094736957400,2.96995751953125,1.4732248791128395,-2.728653979519009,1.0648480763614177,-0.0014802971854805,0.3832850456237793,-0.1743810176849365
1783202094746894600,2.97989453125,1.6852552261605858,-3.076291359147429,1.0002245052814482,-0.0311247408390045,0.0208911392837762,-0.1686863899230957
1783202094756832300,2.989832275390625,1.7151131888076665,-2.9259979218274355,0.6362929934561252,-0.0528295412659645,-0.4404761493206024,-0.2022706121206283
1783202094766769400,2.999769287109375,1.411674285737425,-2.172557973849773,0.1438221954792738,-0.0605606958270072,-0.7333692908287048,-0.1790262758731842
1783202094776706600,3.00970654296875,0.8910366930708289,-1.3495833018749952,-0.0005745850175619,-0.0516937896609306,-0.7581266164779663,-0.1157314181327819
1783202094786644500,3.01964453125,0.4209200579822063,-0.9844915140986442,0.1272504153847694,-0.0089825438335537,-0.6159401535987854,-0.0539586022496223
1783202094796581600,3.02958154296875,0.0976192472308874,-0.8279296640336513,0.0624152473807334,0.0689598023891449,-0.3789903521537781,-0.0361478775739669
1783202094806518500,3.0395185546875,-0.1465998434990644,-0.5585112501174211,-0.0764940416157245,0.1406054943799972,-0.1189180314540863,-0.0965907126665115
1783202094816455400,3.049455322265625,-0.2136443581156432,-0.2880506336718798,-0.1145534308969974,0.1932255923748016,0.1158479079604148,-0.1975458711385727
1783202094826393300,3.059393310546875,-0.1180025484375655,-0.0851613321959972,-0.1440326233595609,0.2193735688924789,0.3119564354419708,-0.2941808104515075
1783202094836330500,3.06933056640625,0.0950692704871296,0.0104115038990974,-0.1552677186012268,0.208252876996994,0.4697641730308532,-0.3465086221694946
1783202094846267400,3.079267333984375,0.3632642800882458,0.0540817187994718,-0.0966384194999933,0.1537917703390121,0.5879160761833191,-0.3450300395488739
1783202094856205600,3.08920556640625,0.5935697040170431,0.1526157427877187,0.0307727394044399,0.0699312388896942,0.6643864512443542,-0.2985933125019073
1783202094866142500,3.099142578125,0.7368921332806349,0.3085024700701236,0.1644043802589178,-0.0120776118710637,0.6846453547477722,-0.2247787564992904
1783202094876079600,3.10907958984375,0.8588051331602037,0.4500011910378932,0.2101367883861064,-0.0758400037884712,0.6296602487564087,-0.13471120595932
1783202094886017500,3.119017578125,0.9885552564062178,0.4815273791581392,0.0527899254232645,-0.1016106158494949,0.5082672238349915,-0.0377028994262218
1783202094895954700,3.12895458984375,1.0218297494985162,0.462672456562519,-0.1864455316752195,-0.0666484162211418,0.368534654378891,0.0510814972221851
1783202094905891600,3.1388916015625,0.8710027898237108,0.4810194296360016,-0.4215291297912597,0.0093153212219476,0.2679406702518463,0.1066070720553398
1783202094915829800,3.148829833984375,0.5594109754361212,0.5424754765957593,-0.5828904890924692,0.0890461727976799,0.2098804265260696,0.1455140560865402
1783202094925766400,3.158766357421875,0.2079199891194701,0.6317050811439752,-0.6069990944325924,0.1528576463460922,0.2088726907968521,0.1321969181299209
1783202094935703600,3.16870361328125,-0.1787083615519106,0.8038806799262762,-0.5758697966754436,0.172202780842781,0.2781406342983246,0.0347485952079296
1783202094945641500,3.178641357421875,-0.61289692029953,1.1104460444539783,-0.3387280969858169,0.1638015806674957,0.3944762945175171,-0.1006710082292556
1783202094955578600,3.18857861328125,-0.8980530015736817,1.2818489052981137,-0.1292465576380491,0.1519562900066375,0.5383601188659668,-0.2489191442728042
1783202094965515500,3.198515625,-0.8924735940061509,1.3067477842330932,0.0017500585377216,0.1007722020149231,0.6594993472099304,-0.3820414841175079
1783202094975453700,3.20845361328125,-0.7698154748477041,1.2868763780713082,0.0259819979965686,0.0161169562488794,0.7543054223060608,-0.4749267101287842
1783202094985390600,3.218390625,-0.4659785123705863,1.2263000365555283,0.0399812972545623,-0.0847713053226471,0.830784797668457,-0.5164488554000854
1783202094995327500,3.228327392578125,-0.0671349693790078,1.130628416261077,0.0142138187915086,-0.1606311053037643,0.9128696918487548,-0.5139315724372864
1783202095005264600,3.2382646484375,0.255317407849431,1.0629513028293849,0.0313783040821552,-0.2066387981176376,0.9653984308242798,-0.4921215772628784
1783202095015202600,3.24820263671875,0.4218278935421258,1.031644894939661,0.0296387669384479,-0.2448828816413879,0.9821227192878724,-0.4798289835453033
1783202095025139500,3.258139404296875,0.4715875113587826,1.009059553644061,-0.0017348609685897,-0.2691445350646972,0.9839155673980712,-0.4755221307277679
1783202095035076600,3.26807666015625,0.5422582536485046,0.8991413813322782,-0.0222574245154857,-0.2807097733020782,0.967757523059845,-0.4576897919178009
1783202095045014500,3.2780146484375,0.6961266268458217,0.6738257285147905,-0.1366144560575485,-0.2609107792377472,0.9501441717147828,-0.418079525232315
1783202095054951700,3.28795166015625,0.8755497856035828,0.4134533753633499,-0.2240004785656928,-0.2283102571964264,0.9619938731193542,-0.3480294942855835
1783202095064888600,3.297888671875,0.9317140097655356,0.2897171055793762,-0.192751938343048,-0.2091504037380218,0.9750670790672302,-0.2744029462337494
1783202095074826500,3.307826416015625,0.8264449784338473,0.2701806304603815,-0.1733539949119091,-0.2059885710477829,0.9723972082138062,-0.1892663538455963
1783202095084763600,3.317763671875,0.6764988932467997,0.2449626025736331,-0.1491091959714889,-0.2064807116985321,0.9140744805336,-0.1098245307803154
1783202095094700500,3.327700439453125,0.5072707826258614,0.1471113001525402,-0.2305290035516023,-0.191839337348938,0.8088754415512085,-0.0301372930407524
1783202095104638500,3.337638427734375,0.2755170595848932,0.0488356348395347,-0.4311754945367574,-0.152950257062912,0.7157670259475708,0.0293808951973915
1783202095114575600,3.34757568359375,0.0127722782136872,-0.0431850617319345,-0.5350941341727972,-0.0851078480482101,0.6348729729652405,0.0747673884034156
1783202095124512800,3.3575126953125,-0.2316976089395582,-0.1501163271874189,-0.6762789668858051,0.0069352653808891,0.5497479438781738,0.0955035611987114
1783202095134450700,3.36745068359375,-0.365150386095792,-0.3020195377916097,-0.8437357204526662,0.1053135097026825,0.4394878447055816,0.1133297532796859
1783202095144387600,3.3773876953125,-0.4187913388578221,-0.3429693878173828,-0.980977953019738,0.1856530904769897,0.3635033369064331,0.1127103045582771
1783202095154324500,3.387324462890625,-0.4759672242803499,-0.3696200788557529,-0.9912491716653108,0.2363115698099136,0.3525891304016113,0.1034509912133216
1783202095164262700,3.3972626953125,-0.5620610515534877,-0.4066460334360599,-0.8921639435350894,0.2693094909191131,0.3953134417533874,0.0806082561612129
1783202095174199600,3.407199462890625,-0.6428428534910082,-0.4007569753974676,-0.8088368410289287,0.2951790690422058,0.4586128890514374,0.0453406870365142
1783202095184136700,3.41713671875,-0.7339207162544131,-0.3142413059830665,-0.7229507016897201,0.3055416941642761,0.5293573141098022,0.0128623731434345
1783202095194073600,3.427073486328125,-0.8008746299780904,-0.2066863556712865,-0.5410106647402048,0.3100318610668182,0.5833865404129028,-0.0069686258211731
1783202095204011800,3.43701171875,-0.8061136996753513,-0.1363788937360048,-0.3750777597397565,0.3121030032634735,0.5750337839126587,-0.0024479101411998
1783202095213948400,3.446948486328125,-0.8149364730782807,-0.1529220322579145,-0.2994505640864372,0.311977356672287,0.4918192923069,0.0217477101832628
1783202095223885600,3.456885498046875,-0.8241681195430457,-0.2582400172978639,-0.2687158186048269,0.2940992712974548,0.3221282660961151,0.0540449284017086
1783202095233823500,3.466823486328125,-0.853955355041474,-0.4581546868771314,-0.2937386161804199,0.2653665244579315,0.1488662958145141,0.0670323371887207
1783202095243760600,3.4767607421875,-0.8894444554433226,-0.7248994976699352,-0.3118178782284259,0.2149342149496078,0.000287476927042,0.0542414374649524
1783202095253697500,3.486697509765625,-0.9966245810933412,-0.8992091858714818,-0.3284650616466998,0.1464723199605941,-0.0895181074738502,0.0052057160064578
1783202095263635700,3.4966357421875,-1.116393408551067,-0.9149778328895568,-0.3595686404407024,0.0598961487412452,-0.1049745678901672,-0.0705660134553909
1783202095273572400,3.506572265625,-1.2097513450756667,-0.7677209867864847,-0.3930231662750243,-0.013677260838449,-0.0308735407888889,-0.1712927520275116
1783202095283509500,3.516509521484375,-1.258290773447603,-0.5355073911488056,-0.347221200042963,-0.0544758215546608,0.1223644837737083,-0.2637127041816711
1783202095293447400,3.526447509765625,-1.2176651869401336,-0.2672106747388839,-0.1266565411448478,-0.0649153962731361,0.2859601974487304,-0.3064301609992981
1783202095303384600,3.536384521484375,-1.0710042609035968,-0.1389502055287361,0.0461117628335952,-0.0617102831602096,0.3468091487884521,-0.2820124626159668
1783202095313321500,3.546321533203125,-0.9023954146921634,-0.1886941873848438,-0.077377254191041,-0.0268752351403236,0.2926419675350189,-0.2025242149829864
1783202095323259600,3.556259765625,-0.7797447481878101,-0.3689584000766277,-0.3140869922041893,0.0417621470987796,0.1849032789468765,-0.1143416166305542
1783202095333196500,3.566196533203125,-0.7866274934388696,-0.4928285253733396,-0.4148533052891492,0.1333411484956741,0.0936963558197021,-0.0854669660329818
1783202095343133400,3.576133544921875,-0.9253824686564504,-0.3991080391466617,-0.3072036624312401,0.2153864800930023,0.0810314267873764,-0.1411302387714386
1783202095353071400,3.5860712890625,-1.0724402850560844,-0.1555418593674898,-0.0164233115345239,0.2745026051998138,0.1578764617443084,-0.2422742396593094
1783202095363008500,3.596008544921875,-1.0678273844331505,0.0257166250586509,0.3295014189571142,0.2987629473209381,0.2732912003993988,-0.3467274308204651
1783202095372945700,3.605945556640625,-0.8742961322806775,0.1390285314619541,0.5655833804607391,0.2909514307975769,0.3376713097095489,-0.3652336597442627
1783202095382883600,3.615883544921875,-0.4878017832525074,0.1048246485650539,0.5863531967669725,0.2751346230506897,0.303365021944046,-0.3039178550243377
1783202095392820500,3.625820556640625,-0.076360770624876,-0.1009165352106094,0.398216058743,0.2628483772277832,0.185807317495346,-0.1906430125236511
1783202095402757600,3.635757568359375,0.2138048093743622,-0.3028711861848831,0.2736941915392875,0.2600685656070709,0.0378087870776653,-0.0908138900995254
1783202095412694500,3.645694580078125,0.3227355415513739,-0.4020253878980875,0.2645803262352943,0.2829791903495788,-0.0630067065358161,-0.039113413542509
1783202095422632400,3.655632568359375,0.2209967667050659,-0.3729559452801942,0.4152116172075271,0.3008916079998016,-0.140039175748825,-0.0273227971047163
1783202095432569600,3.665569580078125,0.0489928529615514,-0.2452460956901311,0.5273959808856249,0.3169814646244049,-0.1823591589927673,-0.0430449098348617
1783202095442506500,3.675506591796875,-0.1258528418128378,-0.0404360552847385,0.6366413685023784,0.3269574046134949,-0.1534524112939834,-0.064364843070507
1783202095452444700,3.685444580078125,-0.2821142293602228,0.2263257066428661,0.888080473613739,0.3319185078144073,-0.07480039447546,-0.0991060063242912
1783202095462381600,3.695381591796875,-0.360186772339046,0.4685013088464737,1.1363818652212618,0.3330133259296417,0.0014738724566996,-0.1374310255050659
1783202095472318700,3.705318603515625,-0.3267952287383377,0.6218091255515813,1.3073241228163242,0.3239452838897705,0.0457294844090938,-0.1669372618198394
1783202095482256600,3.715256591796875,-0.2107452756732702,0.7296972533404826,1.452936708843708,0.2984209954738617,0.0580303594470024,-0.1901959776878357
1783202095492193500,3.725193603515625,-0.1249903980309143,0.8073170841157435,1.599566947481036,0.2390883862972259,0.0637591034173965,-0.2061877846717834
1783202095502130400,3.73513037109375,-0.0405817473657429,0.8210767293989658,1.8388655329436063,0.1805965900421142,0.0881187692284584,-0.2006404250860214
1783202095512068600,3.745068603515625,0.0284705999419093,0.8464899875968694,2.073766760230064,0.1334538608789444,0.1201072409749031,-0.195920705795288
1783202095522005500,3.755005615234375,0.1255688555059954,0.9142208770424128,2.2413030087739227,0.0878442972898483,0.1186334490776062,-0.1870728880167007
1783202095531942700,3.764942626953125,0.1884941347680986,0.9904173970162868,2.3351526743382216,0.0337778888642787,0.0773142501711845,-0.1720301806926727
1783202095541880600,3.774880615234375,0.263257699329406,1.0711088903218506,2.4163550397753712,-0.0146098844707012,0.0220794919878244,-0.1405289769172668
1783202095551817700,3.784817626953125,0.3615310265548527,1.1719839244782924,2.565996150666475,-0.0683458968997001,-0.0232315920293331,-0.0928516387939453
1783202095561754400,3.79475439453125,0.4169882349586114,1.2537474309295416,2.733468101802468,-0.1271375715732574,-0.0580175332725048,-0.0365612097084522
1783202095571692500,3.804692626953125,0.4271898954993113,1.320631348156929,2.9543589239150285,-0.1899760216474533,-0.0949125587940216,0.023009905591607
1783202095581629400,3.81462939453125,0.4096462016327306,1.3783318419754504,3.1743449061423537,-0.2577481567859649,-0.1392278224229812,0.0789320319890976
1783202095591566600,3.824566650390625,0.3419953916860744,1.4427584291785955,3.4195506698220965,-0.3370679318904876,-0.1987180411815643,0.1398794502019882
1783202095601503500,3.83450341796875,0.2504049397580325,1.5489228019148111,3.664162559261918,-0.4323039054870605,-0.267295241355896,0.1994255930185318
1783202095611441700,3.844441650390625,0.1293212303094565,1.6138935789972544,3.9106758984088894,-0.5431934595108032,-0.3841148912906647,0.2595575153827667
1783202095621378600,3.854378662109375,-0.0792969702072441,1.6440134074509145,4.050380721697211,-0.6673415303230286,-0.5769951343536377,0.3161070644855499
1783202095631315500,3.8643154296875,-0.383350936435908,1.6119944673776625,4.008732952535152,-0.791694700717926,-0.7948483228683472,0.3556815385818481
1783202095641253400,3.87425341796875,-0.721838502664119,1.4702087461620568,3.841678350028396,-0.9123291969299316,-0.9674816131591796,0.3659379184246063
1783202095651190500,3.8841904296875,-0.978982979810238,1.3200935880184173,3.779823659139872,-1.058795690536499,-1.109971046447754,0.3444938957691192
1783202095661127700,3.894127685546875,-1.1537611623063684,1.2385732426732778,3.7365123406797647,-1.2567429542541504,-1.2583376169204712,0.3061307966709137
1783202095671065600,3.904065673828125,-1.0702294771388172,1.1213766037911177,3.5229286267101765,-1.4955577850341797,-1.4493355751037598,0.2754071950912475
1783202095681002500,3.91400244140625,-0.8508404378913342,0.8818617452293633,2.9903479366630314,-1.725120186805725,-1.6455729007720947,0.2567762434482574
1783202095690939600,3.923939697265625,-0.8741136153206228,0.6589467238128185,2.321180847609043,-1.939508318901062,-1.7682101726531982,0.2121824622154235
1783202095700877600,3.933877685546875,-1.2426634345963596,0.5965770691394806,1.693100971224904,-2.127171277999878,-1.8124945163726809,0.1338477134704589
1783202095710814500,3.943814453125,-1.5926779186196625,0.5962298631370068,0.9560644610375164,-2.271626234054565,-1.8197017908096316,0.0415777675807476
1783202095720751600,3.953751708984375,-1.598768490579724,0.360886152780056,0.0465571685135364,-2.3370063304901123,-1.83721125125885,-0.0421605370938777
1783202095730689500,3.963689453125,-1.3914093502134084,0.0092097268939018,-1.0395756879389286,-2.333840131759644,-1.8854979276657104,-0.0821659788489341
1783202095740626700,3.973626708984375,-1.154399094883725,-0.3374140917778015,-2.0650994696497915,-2.269477844238281,-1.829994797706604,-0.0962554365396499
1783202095750563600,3.9835634765625,-0.9533477494247256,-0.5757166519403457,-2.748448228791356,-2.180920362472534,-1.6224408149719238,-0.1092813462018966
1783202095760501500,3.99350146484375,-1.0060266156889497,-0.444641709831357,-2.989688011449575,-2.088881254196167,-1.3051800727844238,-0.1432358622550964
1783202095770438700,4.003438720703125,-1.238732378757745,-0.1767769550979137,-3.2238837208151816,-2.00587010383606,-0.9958168864250184,-0.2149369120597839
1783202095780375600,4.01337548828125,-1.4854421172596513,-0.0510606174126267,-3.754267777600884,-1.908251166343689,-0.7591207027435303,-0.3273268342018127
1783202095790313500,4.0233134765625,-1.4147010862126943,-0.2770695131912827,-4.548683294567465,-1.7857964038848877,-0.5363809466362,-0.4664631485939026
1783202095800250600,4.033250732421875,-1.0570504082225265,-0.6951005717337131,-5.347080574646592,-1.639583706855774,-0.3230928778648376,-0.6031168699264526
1783202095810187500,4.0431875,-0.5506907856248319,-0.9207076087132096,-5.864184878620505,-1.4594944715499878,-0.0749062746763229,-0.7317724227905273
1783202095820125700,4.053125732421875,0.0987831764437258,-0.958185983236134,-6.29991555224359,-1.26740562915802,0.2040095180273056,-0.8402605652809143
1783202095830062600,4.0630625,0.7449424610063433,-0.8146060720801352,-6.513084840193391,-1.0363681316375732,0.3350882232189178,-0.834987461566925
1783202095839999700,4.072999755859375,1.0880874976515769,-0.4696314819201826,-6.53376814725995,-0.845314085483551,0.6140964031219482,-0.8151701092720032
1783202095849937700,4.082937744140625,1.7409125237137075,-0.1578685487493872,-6.122719494950771,-0.6440047025680542,0.8329257369041443,-0.7685979008674622
1783202095859875300,4.092875244140625,2.1742343826293946,-0.022021862193942,-5.847284597223997,-0.4358501434326172,0.9703134298324584,-0.6442676782608032
1783202095869812500,4.1028125,2.449501668704301,0.0607952449634671,-5.442585606202483,-0.2397398650646209,1.0597035884857178,-0.4786846935749054
1783202095879749600,4.11274951171875,2.726392464327812,0.1875906100571155,-4.823431963595747,-0.0550943948328495,1.1011922359466553,-0.2998289465904236
1783202095889687600,4.1226875,2.8902047239124773,0.3664405720368027,-4.08645156750977,0.1290073990821838,1.082324504852295,-0.1267634332180023
1783202095899624400,4.13262451171875,2.962629324132204,0.5483756405502558,-3.410474213919043,0.3266653418540954,1.0356041193008425,0.0457649305462837
1783202095909561300,4.142561279296875,2.916065433616936,0.7140057632118463,-2.6812434090465307,0.5149263143539429,0.9855478405952454,0.2105597406625747
1783202095919499500,4.15249951171875,2.756778834763169,0.9178414056271316,-1.9253958154052493,0.6877700090408325,0.9037954211235046,0.3600741028785705
1783202095929436400,4.1624365234375,2.5473811743065715,1.1408870676860212,-1.199370528575778,0.8221497535705566,0.8279626965522766,0.4895214438438415
1783202095939373600,4.17237353515625,2.31954593988359,1.3055854624554517,-0.5002788413792848,0.910362720489502,0.7756409049034119,0.5893069505691528
1783202095949311500,4.1823115234375,2.073530028864741,1.4148378643348811,0.2029956844598054,0.9400839805603028,0.7693869471549988,0.6601884961128235
1783202095959248600,4.19224853515625,1.807680997867882,1.4897437599763272,0.928646292757988,0.9003067016601562,0.7812750339508057,0.6935120820999146
1783202095969185300,4.202185302734375,1.546250367835164,1.577654975402355,1.587168653678894,0.8077682256698608,0.7905489206314087,0.7005470991134644
1783202095979123500,4.21212353515625,1.3316241590753195,1.651425437273085,2.139061362439394,0.6705344915390015,0.78896564245224,0.6834973096847534
1783202095989060400,4.222060302734375,1.169917055076361,1.7059017083480954,2.6187422369480133,0.5009355545043945,0.7696104049682617,0.6609342098236084
1783202095998997500,4.23199755859375,1.1015335469409824,1.711761832553148,3.082285046604276,0.2909141182899475,0.6703147292137146,0.660729706287384
1783202096008935400,4.241935302734375,1.109805773789063,1.6572832233905792,3.372576737201213,0.0556405819952487,0.5139973759651184,0.6899763941764832
1783202096018872600,4.25187255859375,1.1955527969185262,1.4958777326866983,3.5049510714709755,-0.1811027079820633,0.3559549748897552,0.7453776001930237
1783202096028809500,4.2618095703125,1.2331523866683245,1.2958157635912295,3.5312755992949008,-0.4140986204147339,0.2180219292640686,0.8318830132484436
1783202096038747600,4.27174755859375,1.1938904897294935,1.0785565759792923,3.4249405461668965,-0.6212939023971558,0.1022782996296882,0.9198746085166932
1783202096048684300,4.281684326171875,0.9834154823649676,0.9613032384738326,3.125928958019614,-0.7771039009094238,0.0238873809576034,1.000617742538452
1783202096058621400,4.291621337890625,0.6837178116496652,0.9404539271906016,2.697812851053476,-0.853080153465271,-0.0401091761887073,1.069138526916504
1783202096068559400,4.301559326171875,0.4624737191200256,0.9511591533392668,2.135368353140354,-0.8468945622444153,-0.1178974062204361,1.130337119102478
1783202096078496500,4.31149658203125,0.2844889591349289,0.9534145310506223,1.4473399117499588,-0.7792611718177795,-0.2211606800556183,1.2011710405349731
1783202096088433400,4.321433349609375,0.1806182137612253,0.865610867652297,0.8281658108770846,-0.6914142370223999,-0.410675436258316,1.3102340698242188
1783202096098371600,4.33137158203125,0.1456242764651775,0.6760214849933982,0.1593342373877763,-0.6063997745513916,-0.7137133479118347,1.4301764965057373
1783202096108308500,4.34130859375,0.0347976110063493,0.4833583939775824,-0.5931348197311163,-0.5253952741622925,-1.1129744052886963,1.528624176979065
1783202096118245400,4.351245361328125,-0.1813969430487602,0.30076018538028,-1.410713185620308,-0.4521077573299408,-1.4971708059310913,1.59204363822937
1783202096128183300,4.361183349609375,-0.4570078549295663,0.0912082111448049,-2.1982944726526736,-0.3865382671356201,-1.800920009613037,1.6173059940338137
1783202096138120400,4.371120361328125,-0.6040910980314016,-0.2798039065912365,-2.930044566869736,-0.3257636129856109,-2.0168821811676025,1.5753207206726074
1783202096148057300,4.381057373046875,-0.7590941743470728,-0.7149579493701458,-3.795941265726089,-0.2560113966464996,-2.053273677825928,1.4565858840942385
1783202096157994500,4.390994384765625,-0.9237731337636708,-1.0818000879451632,-4.626542779317498,-0.1902928501367569,-1.893346190452576,1.3009743690490725
1783202096167932400,4.400932373046875,-1.011685225972533,-1.4217439904615283,-5.325968228513002,-0.0976072996854782,-1.4868524074554443,1.119611740112305
1783202096177869300,4.410869384765625,-1.1167148955903947,-1.73510822134912,-5.835611695086956,0.0326782688498497,-1.0851811170578003,0.9947866797447203
1783202096187806500,4.420806396484375,-1.2830977363154292,-1.8312950976893303,-6.409323436945677,0.2289125025272369,-0.5162121653556824,0.9075052738189696
1783202096197744400,4.430744384765625,-1.2946195395439863,-1.724187014362216,-6.36280309331119,0.4685093760490417,0.1465658098459243,0.8059466481208801
1783202096207681500,4.440681640625,-1.3956569246552883,-1.194898059336841,-5.689445566830039,0.7062941789627075,0.7407860159873962,0.6881465315818787
1783202096217618400,4.450618408203125,-1.473319279398024,-0.4989668819978833,-4.927435358905792,0.9387452602386476,1.199325680732727,0.5706050395965576
1783202096227556400,4.460556396484375,-1.3576612482599912,0.0404249493688344,-3.974311042973399,1.140053629875183,1.4604979753494265,0.4937884509563446
1783202096237493500,4.470493408203125,-1.0791105566002428,0.3643459378451109,-3.0517344255179166,1.297143578529358,1.520451903343201,0.4742856025695801
1783202096247430400,4.480430419921875,-0.7561147201448678,0.474283983901143,-2.271653723374009,1.4253709316253662,1.479639768600464,0.4849231243133545
1783202096257368300,4.490368408203125,-0.4490846607148647,0.6271300283133984,-1.3765320990771055,1.5032436847686768,1.3865097761154177,0.4975015223026275
1783202096267305500,4.500305419921875,-0.2332332940742373,0.892673938883841,-0.4777987140238284,1.531195044517517,1.2850369215011597,0.5081651210784912
1783202096277242400,4.510242431640625,-0.0607797551333904,1.1697723859086633,0.3826929109185933,1.5008232593536377,1.179384708404541,0.5280485153198242
1783202096287180500,4.5201806640625,0.1060138583496212,1.4265271330848337,1.1476029319375751,1.4228626489639282,1.0707676410675049,0.5400418639183044
1783202096297117400,4.530117431640625,0.2437530806533992,1.645528488188982,1.7427561057537793,1.3182188272476196,1.0148558616638184,0.5595614910125732
1783202096307054600,4.5400546875,0.3672762922085821,1.8157894855216143,2.3181115231662988,1.1863514184951782,1.0037504434585571,0.5918856263160706
1783202096316992500,4.549992431640625,0.4966422384425997,1.8686738112300636,2.8111633359014987,1.0503909587860107,1.0018137693405151,0.6336482763290405
1783202096326929400,4.559929443359375,0.6411139838717878,1.88984811668396,3.1983652486771343,0.9312008023262024,0.980410099029541,0.6770060658454895
1783202096336866300,4.5698662109375,0.7939441000625491,1.9058377129763364,3.4074995820224285,0.7477412223815918,0.9113767147064208,0.7255080938339233
1783202096346804500,4.579804443359375,0.912087079884112,1.7901158228218554,3.6004976040810344,0.5605231523513794,0.878211259841919,0.7524999380111694
1783202096356741400,4.589741455078125,0.9740158589221536,1.791250379809737,3.895257380002737,0.3555388748645782,0.8249613642692566,0.7858791947364807
1783202096366678500,4.599678466796875,1.0113780597195028,1.7325392476439474,4.03816596776843,0.1693215817213058,0.7958790063858032,0.8561491966247559
1783202096376616400,4.609616455078125,1.0981615862898528,1.641033514857292,4.102649253594875,-0.0600887015461921,0.7518124580383301,0.9437472224235536
1783202096386553600,4.6195537109375,1.1246735995098949,1.5870312910348177,4.142291528153419,-0.2872337698936462,0.7658634781837463,1.0446412563323977
1783202096396490200,4.629490234375,1.1605914467178284,1.5363842228591442,4.200943039086461,-0.4850632548332214,0.7395700812339783,1.0939009189605713
1783202096406428400,4.639428466796875,0.9570093406721948,1.637359794780612,3.94210037972033,-0.6510920524597168,0.698421835899353,1.1032397747039795
1783202096416365300,4.649365234375,0.6530532818600535,1.791668312960863,3.608118600478768,-0.7686392068862915,0.7101359963417053,1.13331401348114
1783202096426302500,4.659302490234375,0.4635971701920032,1.855751785814762,3.363302712899446,-0.8705410957336426,0.7222776412963867,1.1905683279037476
1783202096436240400,4.669240478515625,0.289023570357263,1.818235417369008,3.1184763039261103,-0.9362359046936036,0.7069625854492188,1.2519848346710205
1783202096446177500,4.679177490234375,0.1808136632680893,1.7826953174322842,2.774305139103532,-0.9548194408416748,0.6019066572189331,1.2892714738845823
1783202096456114400,4.689114501953125,0.0036586686380207,1.7679647812902926,2.283844511905313,-0.9350782036781312,0.4269154071807861,1.2820568084716797
1783202096466052600,4.699052490234375,-0.1197232347503304,1.6528738825157283,1.7649200067669153,-0.8921598196029663,0.2717785835266113,1.2664577960968018
1783202096475989200,4.7089892578125,-0.0899598185189068,1.5029770432978868,1.3854600864201785,-0.8629790544509888,0.1781106889247894,1.2763266563415527
1783202096485926400,4.718926513671875,0.0675944035843014,1.3737901068925855,1.1678811653345822,-0.8801968693733215,0.1707911938428878,1.3204102516174316
1783202096495864300,4.7288642578125,0.108705581651628,1.3556521003946662,0.9324275648623704,-0.9509019255638124,0.2840234935283661,1.3608587980270386
1783202096505801500,4.738801513671875,-0.043153351419419,1.4134370576262474,0.7345353410214185,-1.0610816478729248,0.489771157503128,1.3839623928070068
1783202096515738400,4.74873828125,-0.2948874939545989,1.336549048256874,0.5781897640556096,-1.1963356733322144,0.6961525678634644,1.374531388282776
1783202096525676500,4.758676513671875,-0.5713892902605235,1.146678510569036,0.3731143507122993,-1.3337039947509766,0.7854689359664917,1.3250913619995115
1783202096535613400,4.768613525390625,-0.7123587266571819,0.9038663640275596,-0.1161883386224508,-1.4500194787979126,0.7883448600769043,1.272368550300598
1783202096545550300,4.77855029296875,-0.6658515347652136,0.5664800370395183,-0.5958394025146961,-1.5207425355911257,0.6987617015838623,1.2366575002670288
1783202096555488300,4.78848828125,-0.4834177229493856,0.2406409399822354,-1.1396242081433534,-1.5581690073013306,0.5448374152183533,1.2391208410263062
1783202096565425400,4.79842529296875,-0.3459596556745469,-0.0459352372229099,-1.7811942652195691,-1.5618345737457275,0.3727034628391266,1.2809977531433103
1783202096575362600,4.808362548828125,-0.1828128742612898,-0.3925286607563495,-2.4351012412995097,-1.5032635927200315,0.2252761870622635,1.345302700996399
1783202096585299500,4.818299560546875,-0.0070190849818289,-0.809839588330686,-3.092765524086356,-1.351015567779541,0.1176434159278869,1.4267692565917969
1783202096595237400,4.8282373046875,0.1078428273424506,-1.1337401185408231,-3.825477741333842,-1.0813201665878296,0.0542812161147594,1.517145752906799
1783202096605174500,4.838174560546875,0.0936060660667717,-1.3960551301926374,-4.433858060991764,-0.7680014371871948,-0.0572092644870281,1.5874255895614624
1783202096615111400,4.848111328125,-0.0116816699653863,-1.406052208071947,-5.05705776411891,-0.4303227365016937,-0.1056676134467125,1.6353574991226196
1783202096625049300,4.85804931640625,-0.303553907752037,-1.2666124654605984,-5.279902642908692,-0.11354710906744,-0.0626649037003517,1.659146785736084
1783202096634986500,4.867986572265625,-0.6817920312188566,-1.1697691710382698,-5.039615630930662,0.1524563431739807,-0.0127292983233928,1.6709762811660769
1783202096644923400,4.87792333984375,-1.1410421121172607,-1.0803721009686589,-4.842343000292778,0.3700311481952667,0.0403515771031379,1.663163185119629
1783202096654861600,4.887861572265625,-1.634093778721988,-0.9282052709922194,-4.6034845598131415,0.5422412753105164,0.0578924901783466,1.6315131187438965
1783202096664798500,4.897798583984375,-2.0303364915654063,-0.8384007891654968,-4.329680478158593,0.6774183511734009,0.1097389683127403,1.5644515752792358
1783202096674735600,4.907735595703125,-2.2512252678513525,-0.9271060775786638,-3.98700978102684,0.7884039878845215,0.2778528928756714,1.4065908193588257
1783202096684673500,4.917673583984375,-2.447812838834524,-0.6609504648506641,-3.3283564872026443,0.8510047197341919,0.4650020003318786,1.2048345804214478
1783202096694610400,4.9276103515625,-2.656414088216424,-0.3559972116947174,-2.823367568436265,0.8640416860580444,0.6624106764793396,1.0367048978805542
1783202096704547300,4.93754736328125,-2.686126504912972,-0.270763398784399,-2.329838201317191,0.8321035504341125,0.8469178676605225,0.9199120998382568
1783202096714485500,4.947485595703125,-2.594983760219812,-0.1910588706895709,-1.763452272301912,0.7711038589477539,0.965070903301239,0.8376579880714417
1783202096724422400,4.95742236328125,-2.4504469867303964,0.0036909634724259,-1.3024188151180744,0.7291176319122314,1.0210808515548706,0.8015254139900208
1783202096734359600,4.967359619140625,-2.2458701705589887,0.1733487342149019,-0.960772784858942,0.7089332938194275,1.0124913454055786,0.7829099297523499
1783202096744297500,4.97729736328125,-2.0941944851003584,0.3568739945292473,-0.6779682351469993,0.7226386070251465,0.9689182639122008,0.7869172096252441
1783202096754234600,4.987234619140625,-1.996597595831752,0.5201005631804466,-0.3689028704971074,0.7491722106933594,0.8800773620605469,0.7775977253913879
1783202096764171300,4.997171142578125,-1.9220763155937195,0.641979806920886,-0.1583984178423881,0.760301411151886,0.7743738889694214,0.7495911717414856
1783202096774109400,5.007109375,-1.8972697911173104,0.7383850021868944,0.0485316834568977,0.7442497611045837,0.7015811800956726,0.7247838377952576
1783202096784046300,5.01704638671875,-1.7928785655334591,0.6949027110740542,0.3677174601048231,0.7112541794776917,0.6568378210067749,0.7250329852104187
1783202096793983500,5.0269833984375,-1.6253531306445597,0.6237041455179453,0.716078477832675,0.6779630780220032,0.612821102142334,0.7278676629066467
1783202096803921400,5.03692138671875,-1.4696739086329935,0.5660287861406803,0.9942208809524774,0.6648895144462585,0.5606382489204407,0.7442030906677246
1783202096813858600,5.046858642578125,-1.3023616781033576,0.5253004699110985,1.2616519204437733,0.6782662868499756,0.4902482032775879,0.7736582159996033
1783202096823795500,5.05679541015625,-1.1560052149061113,0.5155652578383684,1.4817816950559617,0.699290931224823,0.406181275844574,0.7974901795387268
1783202096833733400,5.0667333984375,-1.0386796889472751,0.4532715910106897,1.725963376384973,0.6897627115249634,0.3228693306446075,0.8015462160110474
1783202096843670300,5.076670166015625,-0.9577251607913524,0.3263645822361111,2.020060889005661,0.6401694416999817,0.2579391002655029,0.7930214405059814
1783202096853607000,5.08660693359375,-0.9151188487954436,0.2120350232228636,2.4160189396888017,0.5428391695022583,0.2023179084062576,0.7747377753257751
1783202096863544800,5.096544921875,-0.8763638784654438,0.1172018995791673,2.805484121221304,0.3966253697872162,0.1593529134988784,0.7556516528129578
1783202096873482000,5.10648193359375,-0.8358698093831539,0.0224634684816002,3.1754104895472524,0.2014079391956329,0.1267078816890716,0.7364779710769653
1783202096883419100,5.116419189453125,-0.8532197342433034,-0.0552948939815163,3.4669589022070166,-0.0029490245506167,0.0970983505249023,0.7280080914497375
1783202096893357000,5.126357177734375,-0.9415859999604522,-0.0420095882117748,3.701618721953034,-0.1911724656820297,0.0219335574656724,0.7203384637832642
1783202096903294200,5.136294189453125,-1.0533192588701843,0.0532411763221025,3.674278879606724,-0.3284460008144378,-0.0719269290566444,0.7152369618415833
1783202096913230800,5.14623095703125,-1.171816751217842,0.2104588599473237,3.5479824039459227,-0.4109531342983246,-0.1693522930145263,0.710716724395752
1783202096923169000,5.1561689453125,-1.2882538039043545,0.4242287441387772,3.4672499941080805,-0.4749378263950348,-0.3388664424419403,0.7321605682373047
1783202096933106000,5.16610595703125,-1.3626101028390227,0.5916194467321038,3.320188378316164,-0.5614268779754639,-0.5570608973503113,0.8040712475776672
1783202096943043000,5.17604296875,-1.1840908341184258,0.4407303816065192,3.120831342619657,-0.6117521524429321,-0.652092456817627,0.82803875207901
1783202096952981000,5.18598095703125,-0.9743670104473828,0.6992717199385166,3.3978614005833863,-0.6476161479949951,-0.7456836700439453,0.7947788238525391
1783202096962918100,5.195918212890625,-0.9324673123508692,1.0221206952691078,3.2540432967573403,-0.6876316070556641,-0.923818051815033,0.7640851140022278
1783202096972855000,5.20585498046875,-0.7834969403281807,1.0460504369109869,2.749958048832416,-0.7246221303939819,-1.117406725883484,0.7895910143852234
1783202096982793200,5.215793212890625,-0.3864389655791223,0.6940791197314858,2.2693419393002987,-0.7503858804702759,-1.333568453788757,0.864223062992096
1783202096992729900,5.225729736328125,0.0771079357303679,0.4116252831533551,1.83658297496438,-0.759583592414856,-1.5002243518829346,0.9911043047904968
1783202097002667000,5.2356669921875,0.3185908794946968,0.4207461627200246,1.4253776707887649,-0.7388959527015686,-1.5245649814605713,1.1020936965942385
1783202097012605000,5.24560498046875,0.3112161129429936,0.7526318464651703,1.376232823869586,-0.7208157777786255,-1.4445743560791016,1.180522918701172
1783202097022542000,5.2555419921875,0.0908171660006046,1.192464110188186,1.367961254608631,-0.7483305335044861,-1.345794677734375,1.2178397178649902
1783202097032479000,5.26547900390625,-0.3354290554404258,1.486383928154409,1.3124766832739114,-0.8040268421173096,-1.24940824508667,1.2535656690597534
1783202097042417200,5.275417236328125,-0.818476483772695,1.4546648478105664,1.116685231104493,-0.8492510318756104,-1.1035985946655271,1.3188235759735107
1783202097052354000,5.28535400390625,-0.925287337718904,0.7800390549592673,0.962462637642026,-0.9171525239944458,-1.1391167640686035,1.2944209575653076
1783202097062291000,5.295291015625,-1.104156004399061,0.2406917933866381,0.502199580308795,-0.9921748042106628,-1.331734538078308,1.1219006776809692
1783202097072227800,5.305227783203125,-1.6018687946826218,0.2028802413865923,-0.3028478053092956,-1.0185617208480835,-1.4598568677902222,0.8797719478607178
1783202097082166000,5.315166015625,-1.764782644122839,-0.3587643383204937,-0.840373550543189,-1.0389041900634766,-1.4595274925231934,0.6007605791091919
1783202097092103000,5.32510302734375,-1.737221267980337,-1.0765198094546795,-1.2468185084491967,-1.0915775299072266,-1.4318287372589111,0.307938814163208
1783202097102040000,5.3350400390625,-1.6054983833566308,-1.5173124426424502,-1.822100276103616,-1.1664788722991943,-1.3777886629104614,0.0465756878256797
1783202097111978000,5.34497802734375,-1.467988732025027,-1.642663015755266,-2.4202736745238305,-1.253766417503357,-1.229669451713562,-0.1279367357492447
1783202097121915000,5.354914794921875,-1.378586401258409,-1.6442228124178946,-2.8085826717585323,-1.3312283754348757,-0.9856460690498352,-0.2269775569438934
1783202097131852000,5.36485205078125,-1.3838447601780297,-1.5426820078290997,-3.032151188647747,-1.3906506299972534,-0.7359603643417358,-0.2832759916782379
1783202097141790000,5.3747900390625,-1.5089435504868625,-1.335683079077303,-3.3154280320465563,-1.396195888519287,-0.5074583888053894,-0.2887175381183624
1783202097151726800,5.384726806640625,-1.6795491234734654,-1.162240236838162,-3.5502468417465685,-1.3474277257919312,-0.2851092219352722,-0.3078244030475616
1783202097161664000,5.3946640625,-1.9524682389870285,-0.923860519786179,-3.638522506570816,-1.2306281328201294,-0.0623034983873367,-0.3568788766860962
1783202097171602000,5.404601806640625,-2.226204223841429,-0.7341869659751653,-3.523874967649579,-1.0421861410140991,0.1786438524723053,-0.438374251127243
1783202097181539000,5.4145390625,-2.416591186618805,-0.6429746631771326,-3.392884781214595,-0.7985630035400391,0.362442672252655,-0.5081363916397095
1783202097191476000,5.42447607421875,-2.4422300702661275,-0.7603245929248631,-3.2876685029834505,-0.5634745955467224,0.3797907531261444,-0.6601278185844421
1783202097201414000,5.434413818359375,-2.5570710859328507,-0.4886385263375937,-3.3727503402024506,-0.3121460974216461,0.3418054282665252,-0.8509178161621094
1783202097211351000,5.44435107421875,-2.48177326836437,-0.2561900990307331,-3.3017472972184416,-0.0613077506422996,0.3306308090686798,-1.0206760168075562
1783202097221288000,5.454287841796875,-2.219480760805309,-0.3094962303478271,-3.0487913578033448,0.1550716459751129,0.3145102560520172,-1.1352543830871582
1783202097231225900,5.464225830078125,-2.0000074042752383,-0.2677153363253921,-2.893521885636449,0.3361586034297943,0.3602023720741272,-1.2139649391174316
1783202097241163000,5.4741630859375,-1.86073600396812,0.0015612579673528,-2.636351543396711,0.4934456944465637,0.5208755731582642,-1.2583799362182615
1783202097251100200,5.48410009765625,-1.8048472357466816,0.3698411742605269,-2.140494025591016,0.630390465259552,0.7168549299240112,-1.26612389087677
1783202097261038000,5.4940380859375,-1.7195947181358933,0.7084225562520324,-1.6806769584596155,0.7345905900001526,0.8318752646446228,-1.2511248588562012
1783202097270975000,5.50397509765625,-1.5893597339823842,0.8969050005823374,-1.4610013573557137,0.8387109041213989,0.8578901290893555,-1.218706488609314
1783202097280912000,5.513911865234375,-1.453427122709155,0.9487791263349352,-1.2702899849295617,0.9333207607269288,0.8476937413215637,-1.1731815338134766
1783202097290850000,5.52385009765625,-1.4158146004125476,0.956170990151912,-1.0144202038943766,1.0108340978622437,0.8038426637649536,-1.137439489364624
1783202097300787000,5.533786865234375,-1.5224106425642967,0.9283639686852692,-0.6877449482738971,1.0554158687591553,0.747636079788208,-1.1141364574432373
1783202097310724000,5.54372412109375,-1.6679147997811437,0.8798835770241916,-0.2716571327537298,1.0717592239379885,0.6666096448898315,-1.1126163005828855
1783202097320662000,5.553662109375,-1.7614610984846948,0.8050494314447045,0.0680301646530628,1.0511544942855835,0.5434741377830505,-1.1355133056640625
1783202097330599200,5.56359912109375,-1.777757276508212,0.6740317724809051,0.2815034039855003,1.0181243419647217,0.404241681098938,-1.1836590766906738
1783202097340535800,5.573535888671875,-1.7587255360409615,0.5873102052308619,0.4195049304872751,0.9896516799926758,0.2803050875663757,-1.266695261001587
1783202097350474000,5.583473876953125,-1.7188982603043317,0.6216545195117592,0.5341238278359174,0.969021499156952,0.2307013273239135,-1.3675519227981567
1783202097360411000,5.593410888671875,-1.6653119238063692,0.7225882981181144,0.7550742711812257,0.9589282870292664,0.2713899910449981,-1.4737507104873655
1783202097370348000,5.60334814453125,-1.550854646760225,0.8403551381036639,1.0385592043727636,0.962014615535736,0.3141531646251678,-1.562016844749451
1783202097380286000,5.613285888671875,-1.3524527198314666,0.9574825111418962,1.216558394742012,0.9554443359375,0.3296806514263153,-1.6442530155181885
1783202097390223000,5.62322314453125,-1.0863593586847184,1.111422196009755,1.340804952135682,0.9204541444778442,0.366687148809433,-1.7271307706832886
1783202097400160000,5.633159912109375,-0.814714793151617,1.3473022052004933,1.6575094333618878,0.8900756239891052,0.4436089098453522,-1.7877792119979858
1783202097410098200,5.64309814453125,-0.5479772888824344,1.5270339184507726,2.044416162583232,0.8653178215026855,0.5138785243034363,-1.8156793117523196
1783202097420034800,5.653034912109375,-0.1206011866286397,1.5872659765735269,2.345795064383745,0.8629536628723145,0.5308952927589417,-1.823004126548767
1783202097429972000,5.662971923828125,0.3040279550045728,1.742473197159171,2.611356802871823,0.8637017607688904,0.472891092300415,-1.7997629642486572
1783202097439910000,5.672909912109375,0.6289300634726882,1.9488108855232595,2.880098340439796,0.8600281476974487,0.345929205417633,-1.7572466135025024
1783202097449847000,5.682846923828125,0.8963809767082334,2.1507368949249384,3.128376935693621,0.8349462151527405,0.1861046254634857,-1.6981099843978882
1783202097459784000,5.692783935546875,1.0943348676085471,2.278163835920393,3.3934400770097968,0.7875934839248657,0.0169570390135049,-1.6338986158370972
1783202097469722000,5.70272216796875,1.253228083230555,2.390814355805516,3.68170932186842,0.7108073830604553,-0.1253513693809509,-1.577209234237671
1783202097479659000,5.712658935546875,1.3440316590972243,2.5251994453758,3.885812675309181,0.5608348250389099,-0.2534248232841491,-1.548291802406311
1783202097489596000,5.722595947265625,1.349049925650656,2.639429635667801,3.9671091487705694,0.3219895362854004,-0.3944407999515533,-1.557941436767578
1783202097499533800,5.732533935546875,1.3841085256807506,2.500710024024546,3.787326582115889,0.0010694814845919,-0.5764539241790771,-1.567824125289917
1783202097509471000,5.742470947265625,1.6440695215523242,2.056494722911715,3.2868092558056112,-0.3509402275085449,-0.7140647768974304,-1.561189889907837
1783202097519407900,5.752407958984375,2.156015712110698,1.5167922181606293,2.7144781546503305,-0.7447072863578796,-0.773568868637085,-1.5200666189193726
1783202097529346000,5.762345947265625,2.993850976347923,0.9607789223387836,2.245482340285182,-1.1757025718688965,-0.8741082549095154,-1.3903450965881348
1783202097539283000,5.772282958984375,3.811131236073375,0.2092851399928331,1.5378823524624108,-1.5629583597183228,-0.8755667209625244,-1.216355323791504
1783202097549220000,5.78222021484375,3.954461264121533,-0.0701765290319919,0.737141724127531,-1.840066909790039,-0.7778593301773071,-1.0087339878082275
1783202097559158000,5.792157958984375,3.762946758618951,-0.1266249769628047,-0.0199789581894874,-1.998379111289978,-0.7511829137802124,-0.8023000955581665
1783202097569095000,5.802094970703125,3.36318405495584,-0.102151922224462,-1.1586579944372175,-2.0145483016967773,-0.7776626944541931,-0.6167249083518982
1783202097579032000,5.812031982421875,2.86933933827728,-0.1295332656249403,-2.3192349742382765,-1.8745886087417605,-0.8240823745727539,-0.4704988002777099
1783202097588970000,5.821969970703125,2.3317454962432382,-0.2682029006466269,-3.452992920696736,-1.5771454572677612,-0.8014060854911804,-0.384833425283432
1783202097598907000,5.831906982421875,1.7297449407503007,-0.2598237793579697,-4.354644239023328,-1.1784827709197998,-0.6750116944313049,-0.3485163152217865
1783202097608844000,5.841843994140625,1.2324614817947148,-0.3542646888136863,-4.831677813893556,-0.7584347128868103,-0.5274879932403564,-0.3610872328281402
1783202097618782000,5.851781982421875,0.8413570086225867,-0.4971829211905598,-5.087212663885951,-0.3572679460048675,-0.3445756733417511,-0.4043808579444885
1783202097628719000,5.861718994140625,0.348059550563246,-0.6714499392941594,-4.959482940551639,-0.0516156330704689,-0.232427030801773,-0.4441509246826172
1783202097638656000,5.871656005859375,-0.014941402413696,-0.9258397109046578,-4.6120203329682345,0.1466194987297058,-0.207470029592514,-0.4636839628219604
1783202097648594000,5.881593994140625,-0.2865516272857785,-1.054539448314905,-4.205462562337518,0.2711635529994964,-0.2145204842090606,-0.4621502757072449
1783202097658531000,5.891531005859375,-0.5484601039633155,-1.061441775049269,-3.715282505646348,0.3653962314128876,-0.242587924003601,-0.4523349106311798
1783202097668468000,5.901468017578125,-0.8423661856651306,-1.048332702629268,-3.318873204064369,0.443741112947464,-0.2579613029956817,-0.4683138728141784
1783202097678406000,5.911406005859375,-1.1835694405928254,-1.005635132153332,-2.999953384876251,0.5297572016716003,-0.2490888237953186,-0.5125555992126465
1783202097688343000,5.921343017578125,-1.606910734372586,-0.9331962111473084,-2.7002146514981984,0.6283450126647949,-0.2357479929924011,-0.6041853427886963
1783202097698280200,5.9312802734375,-2.008267575359344,-0.7499921456113458,-2.470768767008185,0.7069978713989258,-0.1681182235479354,-0.6997069120407104
1783202097708218000,5.941218017578125,-2.306941748245805,-0.6365136504694819,-2.11107562340498,0.7505794763565063,-0.0859407931566238,-0.7847328186035156
1783202097718155000,5.951155029296875,-2.3920479892537,-0.5541758512616157,-1.703165853643417,0.7762054800987244,-0.0075159682892262,-0.852584183216095
1783202097728092000,5.961091796875,-2.382014232625812,-0.3706327630296349,-1.4409341363608836,0.791856586933136,0.0627099871635437,-0.8946458697319031
1783202097738029000,5.971029052734375,-2.315744647904485,-0.2158829308226704,-1.123843286165595,0.7899773120880127,0.1111882627010345,-0.9159463047981262
1783202097747967000,5.980967041015625,-2.2571876833871007,-0.0932829715922474,-0.8179828550368548,0.7783097624778748,0.1480967551469802,-0.925142467021942
1783202097757904100,5.990904052734375,-2.2863918583005667,-0.000915653540194,-0.536627335089445,0.7689887881278992,0.1772781759500503,-0.9466490149497986
1783202097767842000,6.000842041015625,-2.4117452078923582,0.1095417402148246,-0.2382072830945253,0.7651791572570801,0.1963999420404434,-0.9885525107383728
1783202097777779000,6.010779052734375,-2.5491280179739,0.2456406479656696,0.0218359842330217,0.769954264163971,0.1925170272588729,-1.0659326314926147
1783202097787715800,6.0207158203125,-2.6008412540763617,0.3926160467788577,0.2596148127824068,0.7968412637710571,0.1935966610908508,-1.1607486009597778
1783202097797653000,6.030653076171875,-2.53951350967139,0.5579746590226888,0.4860667761534452,0.8317874073982239,0.1910318434238433,-1.2626094818115234
1783202097807591000,6.0405908203125,-2.416074469268322,0.7465706467300653,0.6713187141299247,0.8574134111404419,0.2190861105918884,-1.3554753065109253
1783202097817528000,6.050528076171875,-2.187186657052487,0.93760379845649,1.0162070873111486,0.8694431781768799,0.2504200637340545,-1.4401460886001587
1783202097827465000,6.06046484375,-1.8929681484006344,1.1504174048364162,1.295914255529642,0.853889524936676,0.2723932564258575,-1.505374312400818
1783202097837403100,6.070403076171875,-1.4972817542657255,1.3815861675962804,1.655862250676751,0.7979249954223633,0.3111207485198974,-1.546428918838501
1783202097847339800,6.08033984375,-1.064691570625454,1.617601785865426,2.0417273618906737,0.7135688066482544,0.3544152379035949,-1.5498027801513672
1783202097857276400,6.0902763671875,-0.6396604240626096,1.762335250970721,2.493561029052734,0.5993934869766235,0.3435733318328857,-1.537977695465088
1783202097867214300,6.10021435546875,-0.2453893035531044,1.8677198715060948,2.768296838599443,0.4892904460430145,0.2772100269794464,-1.5197690725326538
1783202097877151500,6.1101513671875,0.1790335018530487,1.874623659545183,2.863563969746232,0.4024500250816345,0.1618067920207977,-1.4989564418792725
1783202097887088600,6.120088623046875,0.5695109291680157,1.8055033615678548,2.847102664288878,0.3325108885765075,0.0249591991305351,-1.485389232635498
1783202097897026600,6.130026611328125,0.9211738379854708,1.7771254083454608,2.758811801895499,0.2624573707580566,-0.0983024537563324,-1.4516124725341797
1783202097906963500,6.13996337890625,1.2424442388877273,1.7416525284260511,2.662777778029441,0.176167756319046,-0.1939363032579422,-1.3935177326202393
1783202097916900400,6.149900390625,1.5519270982973277,1.713819349604845,2.5821190179497,0.0700818002223968,-0.2873856127262115,-1.3172240257263184
1783202097926838300,6.15983837890625,1.8234642579331992,1.7077847456157207,2.379751109999418,-0.0363085605204105,-0.3901884257793426,-1.221619963645935
1783202097936775400,6.169775390625,2.0731988972142337,1.5752531749576328,2.0078122328072787,-0.1285039186477661,-0.4921085238456726,-1.120557427406311
1783202097946712600,6.179712646484375,2.237020947540551,1.293414839929342,1.523739260819554,-0.2437940388917923,-0.6043661236763,-1.0353429317474363
1783202097956650500,6.189650390625,2.3112375457435843,1.001760628807545,1.0073410592883825,-0.3700907826423645,-0.7003265619277954,-0.9348195791244508
1783202097966587600,6.199587646484375,2.399600450459868,0.5439712681114673,0.3964198229759931,-0.4807214438915252,-0.7635745406150818,-0.8304729461669922
1783202097976524300,6.209524169921875,2.3685697907716032,0.0930330884844064,-0.344287484678626,-0.5967280268669128,-0.6489274501800537,-0.8265124559402466
1783202097986461400,6.21946142578125,2.1718001412197947,-0.207356802278757,-1.1637643776655195,-0.7679733037948608,-0.1898967623710632,-1.0112069845199585
1783202097996399400,6.2293994140625,2.4272176484428343,-0.571797724930942,-2.1585493222415444,-0.9297074675559998,0.433980643749237,-1.2116671800613403
1783202098006336500,6.23933642578125,3.0833611514031887,-0.9130351743891836,-3.6021243285000324,-0.9802135229110718,0.9060315489768982,-1.1557573080062866
1783202098016273400,6.2492734375,3.1822859282746907,-1.1237810345843433,-4.434683990421891,-0.8854119777679443,0.6873533725738525,-0.859022319316864
1783202098026211600,6.259211669921875,2.558625914159417,-1.1826000110387802,-5.041985867193341,-0.6041936278343201,0.4524625241756439,-0.5829033851623535
1783202098036148500,6.2691484375,1.6520893080092969,-0.864499107018113,-4.375572460761666,-0.2210922390222549,0.2487570494413375,-0.402286171913147
1783202098046085400,6.27908544921875,0.9451627624686808,-0.5439768210694194,-3.694661157900095,0.1670501828193664,0.0346306450664997,-0.3104121685028076
1783202098056023300,6.289023193359375,0.7445210207238793,-0.5484986824080348,-3.4824282740175723,0.5210022926330566,-0.1569398343563079,-0.2241921573877334
1783202098065960400,6.29896044921875,0.5548398681282997,-0.6010957156077027,-3.092866646373272,0.820745587348938,-0.3697144091129303,-0.1105731800198555
1783202098075897300,6.3088974609375,-0.0062661111900582,-0.7558189520686864,-2.7232471520394084,1.0441453456878662,-0.546334981918335,-0.0313555561006069
1783202098085834500,6.31883447265625,-0.600494169517979,-0.496632301570475,-2.14843124833107,1.181572437286377,-0.6503599286079407,0.022070650011301
1783202098095772400,6.3287724609375,-1.044952120280266,-0.1881155107140541,-1.3896698130697012,1.2554930448532104,-0.7005563974380493,0.0304815098643302
1783202098105709600,6.33870947265625,-1.6320140498384832,-0.0264671511650085,-0.6452846936851739,1.2841790914535522,-0.6206713914871216,-0.0353805944323539
1783202098115646500,6.348646484375,-2.1664251701831816,0.041145664858818,0.1223345862925052,1.2505897283554075,-0.4821459054946899,-0.1589432209730148
1783202098125584400,6.35858447265625,-2.715894451189041,0.162288995540142,0.7708978632569312,1.142387866973877,-0.2675233483314514,-0.3366269171237945
1783202098135521500,6.368521484375,-3.0510686550855635,0.3073059537619352,1.4042168093383312,0.9662566781044006,-0.0961273238062858,-0.5214395523071289
1783202098145458400,6.37845849609375,-3.2187583406254645,0.411688703778386,1.8382874407947063,0.7772552967071533,0.09577526897192,-0.675576388835907
1783202098155396400,6.388396240234375,-3.1908763542264698,0.3794827167004346,2.304466444173455,0.5927584171295166,0.2476959526538849,-0.7575188875198364
1783202098165333500,6.39833349609375,-2.814660822628438,0.1808534107565879,2.7193729409545657,0.4385640621185303,0.2073424160480499,-0.8196808099746704
1783202098175270400,6.4082705078125,-2.4925994905442,0.2302215450376272,2.74010417881608,0.3297837972640991,0.0574519112706184,-0.8764252662658691
1783202098185207300,6.418207275390625,-2.1510710953153667,0.4149199407845735,2.731627442371845,0.2850261628627777,-0.1863690018653869,-0.9071946740150452
1783202098195145500,6.4281455078125,-1.8902080360375344,0.5083955123394728,2.6280823122233152,0.2742970883846283,-0.4723085463047027,-0.9238503575325012
1783202098205082400,6.438082275390625,-1.6472864377722145,0.6998281847774982,2.578702487504482,0.2760068476200104,-0.7660850286483765,-0.9076130390167236
1783202098215019500,6.44801953125,-1.2806589648611844,0.8951146100342273,2.580195940932631,0.2631648182868957,-1.067798376083374,-0.8480733633041382
1783202098224957400,6.45795751953125,-0.8730671750076114,0.9697188923805952,2.4917326445817944,0.2452252507209777,-1.359197735786438,-0.7427027225494385
1783202098234894600,6.46789453125,-0.4128416732057929,0.9643155720323324,2.288496721625328,0.2443029433488845,-1.6321181058883667,-0.6248406767845154
1783202098244831200,6.477831298828125,-0.0505681577205657,1.033524717336893,1.9389058698415755,0.285681813955307,-1.8528721332550049,-0.521907389163971
1783202098254768400,6.487768310546875,0.2401967033460736,1.1553028387904167,1.503065890625119,0.3449400067329407,-1.9319446086883545,-0.4417629539966583
1783202098264706300,6.497706298828125,0.4366195122215897,1.18517424544096,1.2071148590922356,0.3838106989860534,-1.862240195274353,-0.383732408285141
1783202098274643500,6.5076435546875,0.5301313971988857,1.2283294965565204,1.107108424463868,0.3385812640190124,-1.621313452720642,-0.3773665428161621
1783202098284580400,6.517580322265625,0.7140900074291974,1.308885965305567,1.0502642552137371,-0.0304391272366046,-0.8526260852813721,-0.4628476202487945
1783202098294518500,6.5275185546875,1.0922035546682771,1.4275918397068976,0.862000275939703,-0.4364585280418396,-0.112447440624237,-0.4453500807285309
1783202098304455400,6.537455322265625,1.6080506981879472,0.7200204934567213,-0.563576716813445,-0.6479297876358032,0.3994448781013489,-0.4372700452804565
1783202098314392300,6.547392333984375,1.7993413318067788,0.2115343802243471,-1.8479647852003571,-0.7632219195365906,0.5623644590377808,-0.4035069048404693
1783202098324329500,6.55732958984375,1.699661644914746,0.0880628988564014,-2.6018857946932314,-0.7929968237876892,0.5442232489585876,-0.2755286991596222
1783202098334267400,6.567267333984375,1.98155930891484,-0.4291045334815979,-2.9047938057571647,-0.6420868635177612,0.3541455268859863,-0.1449102163314819
1783202098344204500,6.57720458984375,2.3727727954193947,-0.5144885685175657,-3.154126293978095,-0.3368361294269562,0.0603839680552482,0.0373879596590995
1783202098354141400,6.587141357421875,2.7898727105915544,-0.5917927574723959,-3.301764248353243,0.0184636432677507,-0.2966476678848266,0.1982299983501434
1783202098364078600,6.59707861328125,2.9484134595140814,-0.7707540708720684,-3.1143466567754743,0.3607557415962219,-0.7106459140777588,0.3518190383911133
1783202098374016500,6.6070166015625,2.9146617042988536,-0.5578665224730968,-2.937655041873455,0.675983190536499,-1.2298331260681152,0.5258225798606873
1783202098383953400,6.616953369140625,2.870139841005206,-0.3848398598194122,-2.867224830341339,0.9473795294761658,-1.7518383264541626,0.7176274657249451
1783202098393890300,6.626890380859375,2.5962194394946096,-0.2124596783757209,-2.823933970147371,1.181801676750183,-2.1186208724975586,0.8680600523948669
1783202098403828500,6.636828369140625,2.1908542396493256,-0.0921335092961788,-2.672682501450181,1.3385201692581177,-2.2097413539886475,0.905799686908722
1783202098413765400,6.646765380859375,1.639529393904656,0.0956149216711521,-2.49435188716948,1.396248459815979,-2.0401175022125244,0.8118188381195068
1783202098423702500,6.65670263671875,0.9672887426242232,0.3710246849566698,-2.344716036975384,1.3920518159866333,-1.6517438888549805,0.6444615721702576
1783202098433639400,6.666639404296875,0.4686385253600776,0.5440262131690978,-2.114322057980299,1.332359790802002,-1.0237962007522583,0.4444924890995025
1783202098443577600,6.67657763671875,0.1704575428180396,0.6560878272503614,-1.5102531717807053,1.2115449905395508,-0.2838180065155029,0.1931793242692947
1783202098453514200,6.68651416015625,0.0786507812581956,1.0119330632537602,-0.7632283515423536,1.016211986541748,0.380977064371109,-0.0324329175055027
1783202098463451400,6.696451416015625,0.3865118846848607,1.2357277901142836,0.0670294631779193,0.7749229073524475,0.8205648064613342,-0.2019164860248565
1783202098473388500,6.706388427734375,1.016505924127251,1.1816980937629935,0.5622036748945712,0.5382998585700989,1.0917675495147705,-0.3179320096969604
1783202098483326500,6.716326416015625,1.63168920179829,1.2549223199278114,1.0560042601704598,0.3201701939105987,1.2193423509597778,-0.3740189969539642
1783202098493263400,6.726263427734375,2.15407699913308,1.311021223768592,1.4968991846889257,0.1362029165029525,1.2075811624526978,-0.3644366860389709
1783202098503200500,6.736200439453125,2.569859255835414,1.3104957385897635,1.7089707405298948,-0.0158281587064266,1.1111997365951538,-0.3031584024429321
1783202098513137400,6.746137451171875,2.815881012073159,1.3267846100896596,1.8108043905854223,-0.1314148902893066,0.9619151949882508,-0.220653623342514
1783202098523075300,6.756075439453125,2.8252415456146,1.405114050439,1.7964029402673245,-0.2063051164150238,0.7825118899345398,-0.1158430576324462
1783202098533012500,6.766012451171875,2.7987793628856537,1.5638099899232387,1.6800637949973345,-0.2366558313369751,0.589321494102478,7.11283646523e-05
1783202098542949400,6.775949462890625,2.827322443541884,1.7531956667035815,1.4770020595639943,-0.2219892740249633,0.4350426793098449,0.1461782604455948
1783202098552886500,6.785886474609375,2.876242834055424,1.8628174864172933,1.2878040143102407,-0.1801751554012298,0.3325352072715759,0.3030096590518951
1783202098562824400,6.795824462890625,2.9135587114930157,1.9273563018232585,1.1436585782259705,-0.1298265010118484,0.2672552764415741,0.4495967030525207
1783202098572761600,6.80576171875,2.93854117705822,1.986496473056078,1.024583870512247,-0.1014417186379432,0.226450428366661,0.5799217820167542
1783202098582698200,6.8156982421875,2.951436898988485,2.024759275954961,0.9052858754366636,-0.0893834605813026,0.2231843322515487,0.6937985420227051
1783202098592635400,6.825635498046875,2.8853239661335945,1.9848726712465288,0.806859403476119,-0.0968306362628936,0.1902116984128952,0.81052166223526
1783202098602573300,6.8355732421875,2.79785406473428,1.8516595480650664,0.6172627142935991,-0.1122218444943428,0.1605001389980316,0.9268890023231506
1783202098612510500,6.845510498046875,2.70279443885833,1.7399866410404443,0.3514315112143755,-0.1289967596530914,0.1690568923950195,1.0264828205108645
1783202098622447600,6.855447509765625,2.5318320152580736,1.5788947463303804,0.1463327169954776,-0.1480138599872589,0.2359195500612259,1.1046217679977417
1783202098632384500,6.865384521484375,2.406721242250502,1.4039105198681354,-0.0023860183537006,-0.1792959421873092,0.324194997549057,1.1631152629852295
1783202098642322400,6.875322509765625,2.313780508224666,1.2286562442928552,-0.1139455281317234,-0.2479040175676345,0.4475834965705871,1.2178834676742554
1783202098652259300,6.88525927734375,2.2571273315019904,0.9538485385537148,-0.1724322038918733,-0.346911072731018,0.6156288981437683,1.2588461637496948
1783202098662196500,6.895196533203125,2.0629031286492943,0.7063198848843574,-0.2001291891127824,-0.4579528868198395,0.777863085269928,1.2864106893539429
1783202098672133400,6.90513330078125,1.7080970264352855,0.6664011314719915,-0.270547125685215,-0.5455029606819153,0.8860989212989807,1.3114776611328125
1783202098682071600,6.915071533203125,1.3220781859643758,0.556747163054347,-0.5362018031537532,-0.6120082139968872,0.937712013721466,1.354865550994873
1783202098692008400,6.925008544921875,0.7987190593793988,0.3786550337046384,-0.8984861322939396,-0.6611710786819458,0.9815248250961304,1.3764551877975464
1783202098701945600,6.934945556640625,0.2465022332310676,0.2618833422362804,-1.127317684277892,-0.6282959580421448,0.970950186252594,1.3676079511642456
1783202098711882200,6.94488232421875,-0.1931130267404019,0.2024427267521619,-1.4380658874481915,-0.5233867168426514,0.8976492881774902,1.3613049983978271
1783202098721820400,6.9548203125,-0.3997381537437439,0.1011614498823881,-1.808331862992048,-0.4073304533958435,0.8132286667823792,1.3495252132415771
1783202098731757300,6.96475732421875,-0.491883207347244,0.0512719220757484,-1.9241016839414835,-0.3065323829650879,0.7421556711196899,1.3372762203216553
1783202098741694500,6.974694580078125,-0.5666479409523308,0.0028168109863996,-1.8258476459383963,-0.2072723507881164,0.6821815371513367,1.346165657043457
1783202098751631600,6.984631591796875,-0.6639847179800271,-0.0657961219906806,-1.7430395988702774,-0.1357204169034958,0.6278861165046692,1.3689541816711426
1783202098761568500,6.994568603515625,-0.8428218204781412,-0.114638186571002,-1.657336414882541,-0.1143384277820587,0.5777217149734497,1.3867241144180298
1783202098771506400,7.00450634765625,-1.1091875688254833,-0.1646796900689602,-1.6161106705248356,-0.1010967493057251,0.5502883791923523,1.3955081701278689
1783202098781443300,7.014443359375,-1.3897089760363102,-0.2381657820403575,-1.6541308968394994,-0.0697998106479644,0.5279101133346558,1.38023579120636
1783202098791380500,7.02438037109375,-1.5589057051382955,-0.3098679132044315,-1.7810346907436847,-0.006749146617949,0.5167912840843201,1.3406853675842283
1783202098801317400,7.0343173828125,-1.640544854557514,-0.3708382224738598,-1.9011118534982203,0.0404631048440933,0.5377591252326965,1.275554895401001
1783202098811255600,7.044255615234375,-1.690115964064747,-0.4551847311556339,-1.8311165262520317,0.034377533942461,0.5340261459350586,1.2007490396499634
1783202098821192400,7.0541923828125,-1.750919976856559,-0.5711164646685123,-1.78809337708354,0.0042593134567141,0.5223367214202881,1.1180286407470703
1783202098831129600,7.064129638671875,-1.8232601136632265,-0.6862117473572492,-1.8140782976895569,-0.0396214984357357,0.4724747538566589,1.049929141998291
1783202098841066200,7.074066162109375,-1.807461509898305,-0.8412392274618148,-1.987505357837677,-0.0482607930898666,0.3938254714012146,0.9814726114273072
1783202098851004400,7.08400439453125,-1.783816722677648,-0.886172594165802,-2.27823602437377,0.0057746637612581,0.3224395513534546,0.9269532561302184
1783202098860941300,7.09394140625,-1.749550880460441,-0.8355635199129581,-2.40578279235661,0.1189377009868621,0.2776374518871307,0.887755274772644
1783202098870878500,7.10387841796875,-1.6085830514989792,-0.7142705516278743,-2.4197914439648387,0.2656998634338379,0.2610223591327667,0.853395402431488
1783202098880815600,7.113815673828125,-1.536906785428524,-0.5955173309534788,-2.32547591445446,0.4155812561511993,0.2422313541173935,0.784297525882721
1783202098890752500,7.12375244140625,-1.5888314723245798,-0.466555435475707,-2.2569863155961034,0.5328390002250671,0.2234268337488174,0.6769843697547913
1783202098900690400,7.1336904296875,-1.696342145103216,-0.3712058867424726,-2.2712895662367343,0.5823221802711487,0.2079639881849289,0.5832078456878662
1783202098910627300,7.14362744140625,-1.6772484453156589,-0.4667068266451358,-2.1916016970157624,0.5741932392120361,0.2063129991292953,0.5204024910926819
1783202098920564500,7.153564453125,-1.634198408140242,-0.682379621848464,-2.179693817079067,0.5310361981391907,0.2341020256280899,0.4649496078491211
1783202098930501400,7.16350146484375,-1.7187807714045047,-0.8034943109571934,-2.272762561398745,0.4698317348957062,0.2603300511837005,0.4022632837295532
1783202098940439600,7.173439453125,-1.8313256389580663,-0.9086655810028316,-2.486405896601081,0.4073712825775146,0.3301850259304046,0.3128130435943603
1783202098950376400,7.18337646484375,-1.94469307494089,-1.0863777711242435,-2.6081618062227965,0.3474670946598053,0.4516206383705139,0.200388416647911
1783202098960313300,7.193313232421875,-2.0714421166747807,-1.275787413302064,-2.5920219878047703,0.3071548044681549,0.6036578416824341,0.0799440294504165
1783202098970250500,7.20325048828125,-2.0966664281718432,-1.3864859223365782,-2.4955542486965654,0.2990591526031494,0.7550257444381714,-0.0210305619984865
1783202098980187400,7.2131875,-2.087032776777446,-1.3875427379131315,-2.29554254848361,0.3356251716613769,0.7710198760032654,-0.0805950835347175
1783202098990125300,7.223125244140625,-2.018964618201553,-1.309810678935051,-2.2913439277499914,0.4285209774971008,0.6294909715652466,-0.0881951227784156
1783202099000062500,7.2330625,-1.9600072561897337,-1.180291734096408,-2.5625954023122786,0.5664828419685364,0.434556096792221,-0.0754923745989799
1783202099009999600,7.24299951171875,-1.9303909933440384,-1.1043564954072236,-2.6670436187803745,0.7584279179573059,0.3053972125053406,-0.0566523522138595
1783202099019936300,7.252936279296875,-1.9238795656234025,-0.9418687624245882,-2.4410844073623417,1.190648078918457,0.2933381497859955,-0.0455815903842449
1783202099029873400,7.262873291015625,-1.876943188533932,-0.4913549456894397,-2.244605557450652,1.5788400173187256,0.215387225151062,-0.0801096260547638
1783202099039811300,7.272811279296875,-1.832656010778993,-0.2520926005840301,-2.1197984435647723,1.7064059972763062,0.0646938607096672,-0.1216560080647468
1783202099049748500,7.28274853515625,-1.682948995044827,-0.1179015722811222,-1.424312671905756,1.688392996788025,0.0696927532553672,-0.15169158577919
1783202099059685400,7.292685302734375,-1.3729768908135591,-0.0602478402137756,-0.1758645164281129,1.6986708641052246,0.2174531817436218,-0.2406739294528961
1783202099069622500,7.30262255859375,-1.19942737332955,0.426789826798439,0.7562894921898842,1.592795968055725,0.3581079840660095,-0.341215044260025
1783202099079559400,7.312559326171875,-0.9894482597231864,0.8761094653129577,1.4140753555297851,1.3505754470825195,0.5177599787712097,-0.3757698237895965
1783202099089497300,7.322497314453125,-0.6310767201125621,0.9186603207945824,2.184952175998688,1.088147521018982,0.7705841660499573,-0.3608525395393371
1783202099099434500,7.3324345703125,-0.2421948914259672,0.8737164326965808,2.9258412699609995,0.8779890537261963,1.0209150314331057,-0.3420511484146118
1783202099109371400,7.342371337890625,0.0675220690004527,1.0728507655531168,3.344724269157648,0.6864819526672363,1.1435166597366333,-0.3283058106899261
1783202099119308500,7.35230859375,0.3163566907018423,1.3070032202988862,3.559690961918234,0.5643385052680969,1.0962423086166382,-0.3041573464870453
1783202099129245400,7.362245361328125,0.5773417689241469,1.4518635266542437,3.654830667293072,0.4900301396846771,0.8658662438392639,-0.2381953299045562
1783202099139183600,7.37218359375,0.8508635265059769,1.4998089346557857,3.6863317209720607,0.40799281001091,0.4811138212680816,-0.126869335770607
1783202099149120300,7.382120361328125,1.088172837847471,1.5734546011030672,3.722708856254816,0.2956239879131317,0.1402639597654342,0.0024711922742426
1783202099159057400,7.392057373046875,1.2651498455621302,1.841279608348012,4.130618626016378,0.1858945339918136,-0.0171440336853265,0.1034915521740913
1783202099168994300,7.401994384765625,1.2700713737428189,1.950966309991479,4.599296460473537,0.0054102670401334,-0.0839920341968536,0.1415999382734298
1783202099178931500,7.411931396484375,1.012631274650991,2.0798533866673705,5.012568634051084,-0.2302544564008712,-0.0882799923419952,0.1551173478364944
1783202099188869400,7.421869384765625,0.8703016558170318,2.1899960153847933,5.108687413591146,-0.4779914021492004,-0.0047573787160217,0.1227892190217971
1783202099198806500,7.431806640625,0.7019212115339934,2.1439970652759075,5.27929240205586,-0.6852511167526245,0.0674449130892753,0.0130936177447438
1783202099208743400,7.441743408203125,0.4521327962391078,2.11721134968102,5.105521643036604,-0.847041666507721,0.1088915318250656,-0.1197381541132927
1783202099218680300,7.451680419921875,0.3692813484206795,1.9687024576902388,4.762192774257064,-1.0013939142227173,0.133404329419136,-0.2978999018669128
1783202099228617500,7.461617431640625,0.4210656039327383,1.9368892693221569,4.53830510841608,-1.0837898254394531,0.1818380802869796,-0.4875092506408691
1783202099238555400,7.471555419921875,0.4824241818673908,1.9579823262333869,4.408478120541572,-1.075206995010376,0.1925053745508194,-0.6430128216743469
1783202099248492500,7.481492431640625,0.7090794127255677,2.038241273340583,4.145674740850925,-1.0357162952423096,0.1885856837034225,-0.759148895740509
1783202099258429400,7.491429443359375,0.9626235272921622,2.2977438579201697,4.001085068130493,-1.0003324747085571,0.0901515334844589,-0.8317732810974121
1783202099268366300,7.501366455078125,1.134505330759659,2.776486574795842,3.833331377443671,-1.0505478382110596,-0.0917987748980522,-0.8757528066635132
1783202099278303500,7.511303466796875,1.1280579812511802,3.259995483160018,3.56481078915,-1.227744460105896,-0.2266591191291809,-0.895564079284668
1783202099288240400,7.521240478515625,0.9564980301491915,3.474316279232502,3.425722051933408,-1.4673101902008057,-0.1763753741979599,-0.8777814507484436
1783202099298178600,7.531178466796875,0.9411633906342088,3.4656443124771115,3.465444405990839,-1.7119543552398682,-0.0492725409567356,-0.8054297566413879
1783202099308115500,7.541115478515625,1.139208905340731,3.359447206515074,3.2406215051263567,-1.9641801118850708,-0.0428221002221107,-0.6574982404708862
1783202099318052600,7.551052490234375,1.3528161463163793,2.8362141905277967,2.424589199635386,-2.154258251190185,-0.0764807239174842,-0.4502425193786621
1783202099327989200,7.5609892578125,1.497357011459023,1.992975313681364,1.48875971737504,-2.25887131690979,-0.1615225374698639,-0.2259349524974823
1783202099337926400,7.570926513671875,1.337016665768623,1.2256471256047488,0.5247340681999921,-2.297569513320923,-0.1983505934476852,-0.0282051041722297
1783202099347864300,7.5808642578125,1.037851713690534,0.6076712946057319,-0.1702390777617692,-2.3154256343841557,-0.1649120599031448,0.111652672290802
1783202099357801500,7.590801513671875,0.6385668566722422,0.219408474600315,-0.4666220709711313,-2.2756032943725586,-0.0779550522565841,0.2003497928380966
1783202099367738400,7.60073828125,0.327853067228198,0.1126993274629116,-0.7484720964372158,-2.1259944438934326,0.0733174756169319,0.2624611854553222
1783202099377675500,7.610675537109375,0.0872520939301699,0.1781549654528498,-1.1009627613157034,-1.9005980491638184,0.2494989037513733,0.2994322478771209
1783202099387612400,7.6206123046875,-0.0353705155234783,0.3229866302356123,-1.3063263439506292,-1.639822483062744,0.3869178593158722,0.3186590373516083
1783202099397549300,7.63054931640625,-0.013838628803566,0.4203694383621215,-1.4723568641066551,-1.3757740259170532,0.5127249956130981,0.349086195230484
1783202099407487500,7.640487548828125,0.1370809045255184,0.3052589581042528,-1.4186048156529665,-1.1098438501358032,0.5845509171485901,0.3942509591579437
1783202099417424400,7.65042431640625,0.3105159287843853,0.0578887098670005,-1.3135773379921911,-0.9181104302406312,0.5579483509063721,0.4471985697746277
1783202099427361500,7.660361572265625,0.4037406673833728,-0.2553811207354068,-1.2385013464808463,-0.799721360206604,0.4209803938865661,0.5273824334144592
1783202099437298400,7.67029833984375,0.4306560737725347,-0.6676622374489903,-1.150235034006834,-0.693471372127533,0.2343764305114746,0.6385794878005981
1783202099447235300,7.6802353515625,0.4910574971128255,-1.07775928812176,-1.122129467985034,-0.5826204419136047,-0.0207069218158721,0.7525928020477295
1783202099457172500,7.69017236328125,0.4232826954603195,-1.254391866312921,-1.2532330516666172,-0.4592452645301819,-0.3015609383583069,0.8281285762786865
1783202099467110400,7.7001103515625,0.1862972092457115,-1.2246230432540175,-1.3685814323335883,-0.3480934798717499,-0.460405021905899,0.8457753658294678
1783202099477047600,7.710047607421875,-0.116573465482518,-1.1502142834797502,-1.155712588635087,-0.2625596821308136,-0.4639744460582733,0.8298960328102112
1783202099486984400,7.719984375,-0.3838311211682856,-1.1344368686333297,-0.7141770281255245,-0.199289008975029,-0.3727596998214721,0.7982802391052246
1783202099496921600,7.729921630859375,-0.5670583483841269,-1.1483031891614195,-0.3817500771105289,-0.1559186428785324,-0.2805323004722595,0.7530981302261353
1783202099506858200,7.739858154296875,-0.648441623346135,-1.1180597343280911,-0.2911117748081684,-0.1194996759295463,-0.1941932290792465,0.6942769885063171
1783202099516795400,7.74979541015625,-0.6128663790307939,-1.0333873546928167,-0.2319704345315694,-0.0784193575382232,-0.0958687886595726,0.6572220325469971
1783202099526733300,7.7597333984375,-0.4179904342710971,-0.9184852564886212,-0.0223117850512266,-0.0605634227395057,-0.0581876449286937,0.6301242709159851
1783202099536670500,7.76967041015625,-0.1793260550588369,-0.7137324992284179,0.0764355894267559,-0.0953419059514999,-0.0823704749345779,0.6035664081573486
1783202099546607600,7.779607666015625,0.0254528595559298,-0.4227785453304648,0.1339770932912826,-0.1666328310966491,-0.0991610214114189,0.594454288482666
1783202099556544500,7.78954443359375,0.1523934783391654,-0.2233765014484524,0.3143582103610038,-0.2779708206653595,-0.0847458615899086,0.6055282950401306
1783202099566481400,7.7994814453125,0.2236772379606962,-0.167483057051897,0.4657762677967548,-0.399114727973938,-0.0442677028477191,0.6122463345527649
1783202099576418300,7.809418212890625,0.2241761273935437,-0.1064645247265696,0.4502420140564441,-0.4967310428619385,0.0114554800093173,0.6143411993980408
1783202099586356500,7.8193564453125,0.2121178792007267,0.01570318056643,0.3805576524555683,-0.5347322225570679,0.0596336610615253,0.6186834573745728
1783202099596293400,7.82929345703125,0.2339328206457197,0.1745692159205675,0.2065180133670568,-0.5043449997901917,0.1024274602532386,0.6432204842567444
1783202099606230500,7.83923046875,0.2456533613167703,0.3588903027877211,0.001467734465003,-0.4186905324459076,0.1339244842529297,0.6758448481559753
1783202099616167400,7.84916748046875,0.2606855107538401,0.5532452924132347,-0.0640402182340622,-0.3166027665138244,0.158652201294899,0.7095109224319458
1783202099626104300,7.859104248046875,0.2948356176368892,0.8407648879483341,0.0285199920415878,-0.2199460566043853,0.1775002628564834,0.7528958320617676
1783202099636041500,7.86904150390625,0.2707698285251855,1.0868570790737866,0.2667892344564199,-0.1726624220609665,0.1910323202610016,0.8019171357154846
1783202099645979400,7.8789794921875,0.2176348890565335,1.2608441111922264,0.608915157186985,-0.1794551163911819,0.1807236224412918,0.8662800192832947
1783202099655916500,7.88891650390625,0.1925131611511111,1.3636758323743938,0.858783067458868,-0.2323244512081146,0.1538009345531463,0.9268882870674132
