time,seconds_elapsed,ax,ay,az,gx,gy,gz
1783201800817391900,0.098391845703125,0.1815595131993293,-0.3319108181864023,0.0286181917190551,1.0461575984954834,0.6858443021774292,-0.0268659256398677
1783201800827329000,0.1083291015625,0.3413227896541357,-0.2822457467854022,0.0238975929379463,0.9947847723960876,0.6387484073638916,0.011613555252552
1783201800837265700,0.118265625,0.4682482108682393,-0.2276993330836296,0.2034492734462022,0.9059204459190368,0.5642200708389282,0.0369997769594192
1783201800847202800,0.128202880859375,0.4735165066599845,-0.199775553369522,0.3709001817941665,0.8157788515090942,0.4849175810813904,0.0544778369367122
1783201800857139700,0.1381396484375,0.4318231447905302,-0.1903933925181627,0.507235272921063,0.7209523916244507,0.4136198759078979,0.0646074041724205
1783201800867076900,0.148076904296875,0.3172743900686502,-0.1017103159368038,0.6085311263054609,0.6396729350090027,0.3402617573738098,0.0529094710946083
1783201800877014000,0.158013916015625,0.1330880354970693,0.0879676217883825,0.6096797118186951,0.5651568174362183,0.2527238428592682,0.0033888290636241
1783201800886950700,0.16795068359375,-0.0719113900005817,0.2050818430840969,0.7342927644371986,0.4914974868297577,0.1909771412611007,-0.0398952588438987
1783201800896887800,0.1778876953125,-0.0670411536157131,0.1160690961569547,1.0176035101056098,0.4112172424793243,0.1902102977037429,-0.0648925006389617
1783201800906824700,0.18782470703125,0.072507602328062,0.0138742115736007,1.3997621680170296,0.2927252054214477,0.2038201093673706,-0.0678163841366767
1783201800916760800,0.1977607421875,0.264940976241231,-0.0010439560949802,1.6503227367281912,0.1535280048847198,0.201581135392189,-0.0600609108805656
1783201800926697700,0.20769775390625,0.3956798182636499,0.0781271957755088,1.747691224068403,0.0182681865990161,0.1975823938846588,-0.0404480621218681
1783201800936635000,0.217634765625,0.4587012148439884,0.1042272671937942,1.722523465064168,-0.0854116380214691,0.1999432444572448,-0.0218713022768497
1783201800946571800,0.22757177734375,0.4740227026164531,0.1136953527629375,1.6253578068196772,-0.153596818447113,0.2242083698511123,0.0019586626440286
1783201800956509000,0.237509033203125,0.4898088852912187,0.1651075600922107,1.5190613321363926,-0.1864146143198013,0.2447694242000579,0.0249484069645404
1783201800966445800,0.24744580078125,0.5269043979763984,0.1888350571602582,1.4387000936985015,-0.2078791707754135,0.2589060068130493,0.047415368258953
1783201800976382700,0.2573828125,0.5460264470756053,0.2406260346740484,1.4621066882491112,-0.2361442595720291,0.2627170085906982,0.0622071735560894
1783201800986320000,0.26731982421875,0.5413157851666212,0.3230360223352909,1.4712725760012864,-0.2480147629976272,0.2655018866062164,0.0775219425559043
1783201800996256800,0.2772568359375,0.5288900188356638,0.397024218609929,1.4149959775060414,-0.2255805283784866,0.29641854763031,0.1018399074673652
1783201801006194000,0.28719384765625,0.4839338557779788,0.465479330676794,1.3826935443162918,-0.1726342290639877,0.3464886546134949,0.1070011183619499
1783201801016130800,0.297130859375,0.4431055863052606,0.5573077195465564,1.4224480470776557,-0.1086331009864807,0.412440687417984,0.1093516945838928
1783201801026067700,0.307067626953125,0.4392541715741157,0.6340016676485538,1.6260943044006824,-0.0763550698757171,0.485218733549118,0.0939104184508323
1783201801036004900,0.3170048828125,0.4806079262256622,0.6492822388887405,1.98649238140285,-0.0859446600079536,0.5953813791275024,0.0848444104194641
1783201801045941000,0.32694091796875,0.5388146160006523,0.5556640439927578,2.3306296439558265,-0.1297478079795837,0.7185701727867126,0.0887794941663742
1783201801055878000,0.3368779296875,0.5532628280699253,0.431407549726963,2.5100866319179533,-0.2131344676017761,0.8323847055435181,0.0986834838986396
1783201801065814800,0.346814697265625,0.5662070653170347,0.3744470606207847,2.519609078022837,-0.3359181880950928,0.9111250638961792,0.1085443720221519
1783201801075751700,0.356751708984375,0.5963537817776203,0.2931342205464839,2.329908928465843,-0.4951812326908111,0.9359476566314696,0.1271141469478607
1783201801085688800,0.366688720703125,0.5837275244385004,0.2099450652062892,2.0036054287672043,-0.6805647015571594,0.9302807450294496,0.1392355114221573
1783201801095626000,0.3766259765625,0.5602741681367158,0.1430985573798417,1.6555308267652988,-0.853933572769165,0.9228802919387816,0.159328892827034
1783201801105563000,0.38656298828125,0.5339893878012896,0.1183048923850059,1.1743358944319189,-0.9779242277145386,0.9283517599105836,0.1840797811746597
1783201801115499800,0.396499755859375,0.4665881687015294,0.0590858106970787,0.630770284511894,-1.0642985105514526,0.939189910888672,0.2109667509794235
1783201801125436700,0.406436767578125,0.4306926794558763,-0.0011596914291381,-0.0099276659049093,-1.0863633155822754,0.9093484282493592,0.236832708120346
1783201801135373800,0.416373779296875,0.4605944812446832,-0.0067453826069831,-0.7506330738633871,-1.073499321937561,0.8479948043823242,0.2609960734844208
1783201801145311000,0.42631103515625,0.4977408473342656,0.0153951375305652,-1.3615186543405056,-1.0405913591384888,0.7420329451560974,0.2828875184059143
1783201801155247900,0.436247802734375,0.4035948291718959,0.054556935095787,-1.8363830684781075,-0.9808729887008668,0.6669779419898987,0.291343092918396
1783201801165184800,0.446184814453125,0.2342933245211839,-0.0246183084279298,-2.2048332267716524,-0.8923346400260925,0.6224818825721741,0.281997799873352
1783201801175121700,0.45612158203125,0.110796124190092,-0.1253250002801418,-2.569030988317728,-0.7966804504394531,0.5525820851325989,0.2717306315898895
1783201801185057800,0.466057861328125,0.0597813917458057,-0.2675245629936456,-2.9289029956191777,-0.7004814743995667,0.4378728568553924,0.267356127500534
1783201801194995000,0.475994873046875,0.1675631365507841,-0.4085995055913925,-3.257909909057617,-0.597747802734375,0.3075157701969147,0.2882851958274841
1783201801204931800,0.485931884765625,0.310273571395874,-0.4398270030260086,-3.523539452084899,-0.4680920243263244,0.1667237877845764,0.327523410320282
1783201801214868700,0.49586865234375,0.362228799560666,-0.4080658371061086,-3.6026743635982275,-0.3255471885204315,0.0548851154744625,0.3607227504253387
1783201801224806000,0.505805908203125,0.2966846065044403,-0.4262000442117452,-3.434822473233938,-0.1991743445396423,-0.0114579554647207,0.3722768723964691
1783201801234742800,0.51574267578125,0.1483954947441816,-0.3726087392777204,-3.1526708344727754,-0.0890540182590484,-0.0191775057464838,0.3615008890628814
1783201801244680000,0.525679931640625,-0.0602560235202312,-0.3257294992029667,-2.809670466995239,0.0054184244945645,0.0141953639686107,0.3343955278396606
1783201801254616800,0.535616943359375,-0.2359568738192319,-0.3654787412673235,-2.5246681149780748,0.0874352529644966,0.0686609521508216,0.3039758801460266
1783201801264553700,0.5455537109375,-0.2757850263386964,-0.4232242432713508,-2.345163780742884,0.1624612808227539,0.0972073748707771,0.2876248657703399
1783201801274491000,0.555490966796875,-0.110003512507677,-0.4872124390572309,-2.2263566379241646,0.2206891924142837,0.0735023692250251,0.2985552251338959
1783201801284427800,0.565427734375,0.2105564751029014,-0.4987088155835866,-2.0741196653209624,0.2569606602191925,0.0076053719967603,0.3328378200531006
1783201801294365000,0.575364990234375,0.5038508546471595,-0.4704910213589668,-1.8604221157133576,0.2777694165706634,-0.089992269873619,0.3826071321964264
1783201801304301800,0.5853017578125,0.675402768573165,-0.422780006635189,-1.6170304157182571,0.2946195006370544,-0.17808298766613,0.4432179927825928
1783201801314238700,0.59523876953125,0.6974965269595385,-0.4075432745367288,-1.336890847431868,0.3189549744129181,-0.2421809136867523,0.5043103098869324
1783201801324174800,0.6051748046875,0.6147001703292131,-0.3683347152203321,-1.127124645923823,0.3568874597549438,-0.2911013066768646,0.5513179898262024
1783201801334112000,0.615112060546875,0.5459884531527758,-0.2753051338672638,-1.0296794400855898,0.4179621338844299,-0.3436595201492309,0.5846372246742249
1783201801344048600,0.625048583984375,0.5657686738997697,-0.1214133797943592,-0.7902718412905931,0.4767538011074066,-0.35796919465065,0.6199867129325867
1783201801353985800,0.63498583984375,0.5576607707679271,0.0382780004680156,-0.3568494446098804,0.5128807425498962,-0.3347777426242828,0.6372345685958862
1783201801363923000,0.6449228515625,0.501464836293459,0.0416653048187494,-0.0300629836998879,0.5444048643112183,-0.2918100357055664,0.6440112590789795
1783201801373859800,0.65485986328125,0.4627496134519577,0.087854809063673,0.3163841632306575,0.5507836937904358,-0.2259445935487747,0.6430701613426208
1783201801383797000,0.664796875,0.3943044382572174,0.1975783355861902,0.6913906112998723,0.5307047963142395,-0.1435525119304657,0.6235861778259277
1783201801393733600,0.674733642578125,0.2787842081546783,0.2326689381897449,1.0164870732963085,0.4949433207511902,-0.0417898893356323,0.589875340461731
1783201801403670800,0.6846708984375,0.1773930411696433,0.2035077256351709,1.2801917857408522,0.4278574883937835,0.0345613434910774,0.5561216473579407
1783201801413608000,0.69460791015625,0.1194073006689548,0.2064741742253303,1.749499588664621,0.3007829785346985,0.1321278810501098,0.4863963425159454
1783201801423544800,0.704544921875,0.2525426824390888,0.1959241386383771,1.7895225331038236,0.1790762394666671,0.1418705135583877,0.4347240924835205
1783201801433482000,0.71448193359375,0.5826823992997407,0.2290641916960477,1.8063946113191545,0.0792920142412185,0.1826641708612442,0.434846431016922
1783201801443418600,0.724418701171875,0.869458190730214,0.1121358483612537,1.7312521304428576,0.0145772062242031,0.1928182691335678,0.4630272090435028
1783201801453355800,0.734355712890625,1.0756313361823555,-0.0191232181429862,1.4983721798509355,-0.0058467583730816,0.2039451599121093,0.5055851936340332
1783201801463293000,0.74429296875,1.2723784816414117,-0.0067658408731222,1.3430151755310595,0.0020556384697556,0.2102134376764297,0.5692094564437866
1783201801473229800,0.754229736328125,1.3879495651483535,0.0039618893682956,1.2816343857645989,0.0300309024751186,0.2382031828165054,0.6322712302207947
1783201801483165700,0.764165771484375,1.396003692266345,0.0171223997145891,1.3906177614443005,0.0508392453193664,0.2963730096817016,0.6887712478637695
1783201801493102800,0.774102783203125,1.3387047649860382,0.0541004234999418,1.531791195980459,0.0584477819502353,0.3574220240116119,0.728771448135376
1783201801503039700,0.784039794921875,1.266266136240959,0.0966664765506982,1.5452176637865602,0.0428602993488311,0.3930031955242157,0.7579293251037598
1783201801512977000,0.793976806640625,1.1836194172143937,0.1744534805864095,1.3546693729676305,0.0479055196046829,0.3897079825401306,0.7616344690322876
1783201801522914000,0.8039140625,1.1071300517737863,0.2919306899756193,1.1890158694304525,0.0369609892368316,0.3936345279216766,0.7613998055458069
1783201801532850700,0.8138505859375,1.0869476799666882,0.3692646895468234,1.4565356101185083,-0.0514811687171459,0.4151378870010376,0.7472628951072693
1783201801542787800,0.823787841796875,0.920313348698616,0.3468079430669546,1.7786162314251064,-0.1687135249376297,0.4670756459236145,0.7164826393127441
1783201801552725200,0.833725341796875,0.7203799744188785,0.247247498640418,1.942098528403044,-0.2801479995250702,0.5653911828994751,0.692093551158905
1783201801562662400,0.843662353515625,0.6586462795615196,0.1187064589232206,1.869679773402214,-0.3656277358531952,0.6619528532028198,0.6843653321266174
1783201801572599300,0.853599365234375,0.6824556096941232,0.1062508819758892,1.5826748493909837,-0.441936731338501,0.7081146240234375,0.6744794845581055
1783201801582536400,0.863536376953125,0.8006243084788321,0.1827870091676711,1.2605004123210906,-0.5144854784011841,0.725174069404602,0.6719223260879517
1783201801592473600,0.8734736328125,0.9364204338908196,0.172932554629445,0.9834525264397262,-0.5717136263847351,0.7288969159126282,0.6844311356544495
1783201801602410200,0.88341015625,0.9798661923855544,0.1459872645586729,0.6946341232657433,-0.5950759053230286,0.7424534559249878,0.6982976794242859
1783201801612347400,0.893347412109375,0.9712807348698376,0.1128559793293476,0.400385950127989,-0.5782312154769897,0.7774384021759033,0.7212257385253906
1783201801622284300,0.9032841796875,1.0024848514288662,0.0809364079773426,0.0829530084967613,-0.5350062847137451,0.824166476726532,0.7488512396812439
1783201801632221400,0.913221435546875,0.9132985015004872,0.1375058519393205,-0.2721063378259539,-0.4653917253017425,0.8738139867782593,0.7556281089782715
1783201801642158600,0.92315869140625,0.6625941404044627,0.1879068363994359,-0.6463689817905426,-0.3812837600708008,0.9195194244384766,0.733312726020813
1783201801652095200,0.93309521484375,0.4016244058817624,0.2616390120863914,-0.9139362148821354,-0.3034404218196869,0.9773383736610411,0.6849933862686157
1783201801662032400,0.943032470703125,0.1720727229297161,0.2814788540661335,-1.0676558272585273,-0.2477840632200241,1.0332914590835571,0.6409024000167847
1783201801671968500,0.952968505859375,0.0149047236651182,0.1333276894718408,-1.2554969049453737,-0.1928808838129043,1.0714173316955566,0.631541907787323
1783201801681905400,0.962905517578125,0.0154722944200038,-0.0929202757596969,-1.5880895679160951,-0.1318875700235366,1.0495882034301758,0.6657046675682068
1783201801691842300,0.97284228515625,0.1159293954253196,-0.0950660556167364,-1.895308720177412,-0.1084124594926834,0.9552725553512572,0.7300451397895813
1783201801701779500,0.982779541015625,0.0872305396854877,0.0701139851897954,-1.9507389309763907,-0.1274942606687545,0.8393768072128296,0.809194803237915
1783201801711716400,0.99271630859375,-0.1659206300407648,0.127853641974926,-1.8646061233997344,-0.1883369386196136,0.7240533828735352,0.8751459717750549
1783201801721653500,1.002653564453125,-0.568144170859456,0.1367173319101333,-1.7354758856177328,-0.2797465026378631,0.6229755282402039,0.926849365234375
1783201801731590400,1.01259033203125,-0.949603156068921,0.2123117943376302,-1.600521763987839,-0.382825493812561,0.5346375107765198,0.9662282466888428
1783201801741527300,1.02252734375,-1.218624679622054,0.3089689185380935,-1.6769599837630986,-0.4462532103061676,0.4394228756427765,0.99550199508667
1783201801751464400,1.03246435546875,-1.3670429707199334,0.5379664747387171,-1.9115259877458213,-0.4575637280941009,0.3375560343265533,1.0174190998077393
1783201801761401300,1.0424013671875,-1.5535791032880544,0.8153887468904256,-1.985562114815414,-0.4493076801300049,0.2689324915409088,1.0262551307678225
1783201801771338500,1.05233837890625,-1.8428800292819736,0.9883031813412904,-1.9533315778180955,-0.3972180783748626,0.2319225370883941,1.0136922597885132
1783201801781275400,1.062275390625,-2.1003782883018256,1.199220890972018,-1.9430878317013385,-0.3251287043094635,0.1819190233945846,0.9884199500083924
1783201801791212300,1.07221240234375,-2.347394900795817,1.4200363097608089,-1.906599344998598,-0.2555409371852875,0.1200867444276809,0.9405030608177184
1783201801801149400,1.0821494140625,-2.547948452800512,1.6934546069681644,-1.7208286438450215,-0.2134669721126556,0.0363756008446216,0.8662333488464355
1783201801811086300,1.09208642578125,-2.7166151666790244,2.0057631913229823,-1.3724980212554334,-0.1942390352487564,-0.0312670059502124,0.7708477973937988
1783201801821023500,1.1020234375,-2.9097254169404505,2.15848268674612,-0.9413479534208774,-0.1856569945812225,-0.0455870889127254,0.6498886346817017
1783201801830960600,1.111960693359375,-3.0878257295966147,2.168945336310565,-0.513396973888576,-0.187968224287033,-0.0280793737620115,0.5210831165313721
1783201801840897300,1.121897216796875,-3.1215152332305904,2.1589745619162914,-0.1398386788010597,-0.2062233984470367,-0.000366254709661,0.3879621028900146
1783201801850834400,1.13183447265625,-3.0596944446116683,2.2273586545735595,0.1819306845992803,-0.2316768616437912,0.0229626167565584,0.2467370927333831
1783201801860771300,1.141771240234375,-2.962479686528444,2.296314409638941,0.4112786616727709,-0.2538847029209137,0.0485694408416748,0.0949571505188942
1783201801870708500,1.15170849609375,-2.8486247592896223,2.3356077246293423,0.6166667942270636,-0.2765051424503326,0.0915002673864364,-0.0532548651099205
1783201801880645600,1.161645751953125,-2.752159358268976,2.2937419288024303,0.7968135180190206,-0.2828876972198486,0.1476125568151474,-0.2019061297178268
1783201801890581200,1.171581298828125,-2.589116329491138,2.18103178768456,0.9045710051655768,-0.2835610508918762,0.209142655134201,-0.3367892503738403
1783201801900518400,1.181518310546875,-2.33528594532907,2.029552939972281,0.9186264185249804,-0.2732607424259186,0.2401367872953415,-0.4496036767959595
1783201801910455600,1.19145556640625,-1.9958914933890104,1.8726015060678125,0.849963508926332,-0.2558422088623047,0.2421353310346603,-0.5398091673851013
1783201801920392400,1.201392333984375,-1.6425281373292206,1.7548098239019512,0.8522466514274477,-0.2445948868989944,0.2191567867994308,-0.610892117023468
1783201801930329300,1.211329345703125,-1.3207348085314037,1.6178595600187775,0.9531026886224746,-0.2423876821994781,0.1935848593711853,-0.6682500839233398
1783201801940266500,1.2212666015625,-1.0519909328758716,1.504865925784409,1.1858546289205552,-0.2545237243175506,0.1862736940383911,-0.7197646498680115
1783201801950203400,1.231203369140625,-0.8740016793787478,1.3727604715839028,1.4838012181848286,-0.2744823396205902,0.1923239231109619,-0.7603926658630371
1783201801960140500,1.241140625,-0.6785539260804653,1.273489365492761,1.7056559168934822,-0.2843104600906372,0.2092243432998657,-0.8001536726951599
1783201801970077400,1.251077392578125,-0.515066076144576,1.2797674228489395,1.959634769615531,-0.296444684267044,0.2570546567440033,-0.8284230828285217
1783201801980014300,1.261014404296875,-0.4280307667702436,1.269102820971608,2.2786907824039457,-0.3143858611583709,0.3234435319900512,-0.8520492911338806
1783201801989951500,1.270951416015625,-0.3676046473801135,1.2565414455622437,2.574747612398862,-0.3428537845611572,0.4034588932991028,-0.875325620174408
1783201801999888400,1.280888427734375,-0.2881926724910736,1.2982277931690216,2.847965418598056,-0.3822677731513977,0.4742635488510132,-0.8999246954917908
1783201802009825500,1.290825439453125,-0.2091729117900133,1.3392775964379309,3.013376930072904,-0.4249488711357116,0.5316140651702881,-0.9298259019851683
1783201802019762400,1.300762451171875,-0.0904915873080492,1.394696116799116,3.079586893561482,-0.4635995924472809,0.5725891590118408,-0.9601625204086304
1783201802029699300,1.31069921875,0.0369768547415733,1.4797861373245715,3.1541064202338456,-0.5336354970932007,0.6572396755218506,-0.9956684708595276
1783201802039636500,1.320636474609375,0.1273866089850664,1.504035612440109,3.2679537486881016,-0.6770043969154358,0.7449886798858643,-1.0469521284103394
1783201802049573400,1.330573486328125,0.1011760629296302,1.3089888411581516,3.1744027738094327,-0.8667393922805786,0.8340508341789246,-1.1090360879898071
1783201802059510500,1.340510498046875,0.0656061523765325,0.9278712167322636,2.8654700956285,-1.059503436088562,0.9259810447692872,-1.1493598222732544
1783201802069447400,1.350447509765625,0.1148579668015241,0.642722149720788,2.2271964497491714,-1.2137566804885864,0.994383990764618,-1.1554557085037231
1783201802079384300,1.36038427734375,0.2439005263000726,0.5024707984656095,1.4010796803563832,-1.296047329902649,1.0401372909545898,-1.1292589902877808
1783201802089321500,1.370321533203125,0.4125052808582782,0.4349526749879122,0.5417652824997902,-1.3384371995925903,1.066585898399353,-1.078315496444702
1783201802099258400,1.38025830078125,0.5215098454564809,0.3748702544689178,-0.2554997786790132,-1.3607558012008667,1.0111079216003418,-1.0022695064544678
1783201802109195500,1.390195556640625,0.4998398654401302,0.2649672797262668,-1.0308610510855911,-1.3993781805038452,0.9262894988059998,-0.9036203622817992
1783201802119132400,1.40013232421875,0.5070499429494142,0.1027051721930503,-1.5906255161345004,-1.4825726747512815,0.7813118100166321,-0.7954219579696655
1783201802129069300,1.4100693359375,0.4140297139465808,-0.0329430691808462,-2.071160377123952,-1.5970923900604248,0.5796720385551453,-0.7021970152854919
1783201802139006500,1.42000634765625,0.2888946832805872,-0.1292974110424518,-2.588968445453048,-1.714464783668518,0.3668747842311859,-0.6253491044044495
1783201802148943400,1.429943359375,0.2660258488684892,-0.1449871476054191,-3.153981332549453,-1.7830275297164917,0.1653929203748703,-0.5593529939651489
1783201802158880500,1.439880615234375,0.2435924832642078,-0.0463677834212779,-3.668364102604985,-1.7801133394241333,0.0404725559055805,-0.5071914792060852
1783201802168816400,1.44981640625,0.1259293959140777,0.1113467438101768,-4.094561224207282,-1.7000107765197754,-0.0273429714143276,-0.4916816353797912
1783201802178753300,1.459753173828125,-0.0908002148658037,0.1893283936351537,-4.516129516965151,-1.5562338829040527,-0.0722366794943809,-0.5061684250831604
1783201802188690400,1.4696904296875,-0.2255506306171417,0.1858265229940414,-4.909662386327982,-1.362135410308838,-0.1023276299238205,-0.5248503088951111
1783201802198627600,1.479627685546875,-0.2521159814596176,0.1951721512272954,-5.2895513457417485,-1.1463464498519895,-0.1652317494153976,-0.5500891208648682
1783201802208564500,1.489564453125,-0.2431289574056863,0.3079989044621586,-5.555583624351025,-0.9159368872642516,-0.2710802257061004,-0.5899651050567627
1783201802218501400,1.49950146484375,-0.2508060679048299,0.4257116761729121,-5.710040026569367,-0.6669161319732666,-0.3926697671413421,-0.6320577263832092
1783201802228438300,1.509438232421875,-0.2916501194685697,0.5023442494764924,-5.653166631224751,-0.3970616459846496,-0.4992900490760803,-0.6762391328811646
1783201802238375400,1.51937548828125,-0.4016524629324674,0.5586991739049554,-5.366978868815303,-0.1223558038473129,-0.5709346532821655,-0.7239699363708496
1783201802248312600,1.5293125,-0.547843725630641,0.6231441735476255,-4.878910689711571,0.1392113268375396,-0.6141400933265686,-0.7874947786331177
1783201802258249500,1.53924951171875,-0.6405079808026551,0.7973802119910717,-4.2810342284113165,0.3725071549415588,-0.6298636794090271,-0.8663099408149719
1783201802268186400,1.549186279296875,-0.6546604247957467,1.016336851170659,-3.560195988830924,0.5689679980278015,-0.6250180602073669,-0.9456649422645568
1783201802278123300,1.559123291015625,-0.6603337942570447,1.0955261232197284,-2.831608742558956,0.7297065258026123,-0.6136455535888672,-1.022079586982727
1783201802288060400,1.569060302734375,-0.6390127738088369,1.136333349904418,-2.1033137572318314,0.8324803113937378,-0.5926514267921448,-1.0834131240844729
1783201802297997600,1.57899755859375,-0.5991992343366146,1.1840262444496157,-1.3642261597335337,0.9018636345863342,-0.5536928772926331,-1.13994300365448
1783201802307934500,1.5889345703125,-0.5623462982356549,1.2939350644111631,-0.6433177775263786,0.9283854961395264,-0.4851003587245941,-1.195433497428894
1783201802317871400,1.598871337890625,-0.5698369462519883,1.3504945715010166,0.0108820440202951,0.9123854637145996,-0.4211589395999908,-1.2547454833984375
1783201802327808300,1.608808349609375,-0.5604302354812621,1.301616266563535,0.5275210685700178,0.8480308055877686,-0.3999071717262268,-1.3122060298919678
1783201802337745400,1.618745361328125,-0.4941255794465541,1.2487591211229565,0.9109943162113427,0.7436535358428955,-0.4167969226837158,-1.3584222793579102
1783201802347682600,1.6286826171875,-0.3502688971757888,1.2537187893569468,1.2390858683705328,0.620935320854187,-0.4510098397731781,-1.3896863460540771
1783201802357619500,1.638619384765625,-0.1692979975193738,1.2079372813910243,1.4808692563861607,0.5054313540458679,-0.4773229360580444,-1.3952726125717163
1783201802367556400,1.648556396484375,0.0372165087163448,1.0765221475422382,1.624672747164965,0.4312016367912292,-0.4695481061935425,-1.3711451292037964
1783201802377493500,1.658493408203125,0.2327045940250158,0.9496598546922206,1.8057745797246691,0.3808463215827942,-0.4209991991519928,-1.3238368034362793
1783201802387430400,1.668430419921875,0.4009375926613807,0.8357078968197107,1.9873492904931305,0.3300325572490692,-0.3763136267662048,-1.2620227336883545
1783201802397367600,1.678367431640625,0.5325134700298308,0.7830757923066616,2.150076092928648,0.2615187466144562,-0.3380242884159088,-1.192027926445007
1783201802407304400,1.688304443359375,0.5504559539556503,0.8020856132030486,2.343227844244242,0.1717510670423507,-0.3047562837600708,-1.137389898300171
1783201802417241300,1.698241455078125,0.4590367304086685,0.8417553602904081,2.4812691182345152,0.0803804174065589,-0.2633036375045776,-1.1025559902191162
1783201802427178500,1.708178466796875,0.2829489266186952,0.8893155683666467,2.5480823083132504,-0.0009153587743639,-0.2109177559614181,-1.0910438299179075
1783201802437115400,1.718115478515625,0.1300847620278596,0.9407494030058384,2.568452896168828,-0.0862070843577385,-0.1466575413942337,-1.0957951545715332
1783201802447052500,1.728052490234375,-0.0016249708533287,0.9920593190044164,2.4854443580925465,-0.1696615517139434,-0.1070655435323715,-1.110382080078125
1783201802456989400,1.737989501953125,-0.1261892158940434,1.032045876955986,2.3125188177257776,-0.2317542135715484,-0.070539504289627,-1.1385908126831057
1783201802466926300,1.74792626953125,-0.2089583922564983,1.1082698694586752,2.1615613635391,-0.2691256701946258,-0.0279774796217679,-1.166866660118103
1783201802476863500,1.757863525390625,-0.2712672566533088,1.2320458867311477,2.008808842629194,-0.2870514094829559,0.0111672580242156,-1.1986418962478638
1783201802486800400,1.76780029296875,-0.2973728810295462,1.298245913347602,1.895702103409171,-0.293404072523117,0.0476162433624267,-1.2288998365402222
1783201802496737500,1.777737548828125,-0.3069251377508044,1.3157459142029284,1.7851105618804692,-0.2850433588027954,0.077082522213459,-1.2552059888839722
1783201802506674400,1.78767431640625,-0.2874927075281739,1.3953624717533588,1.684372305846214,-0.2779352068901062,0.1141031831502914,-1.2851203680038452
1783201802516611300,1.797611328125,-0.250694131962955,1.4838649310708043,1.639905387610197,-0.2650084793567657,0.1947607547044754,-1.3192036151885986
1783201802526548500,1.807548583984375,-0.3423533017456531,1.5626397771000862,1.6730284895330667,-0.2640697658061981,0.2871294915676117,-1.3580886125564575
1783201802536485400,1.8174853515625,-0.4475938376352191,1.5378285764485595,1.7060136442899705,-0.3363508880138397,0.3280287384986877,-1.3984344005584717
1783201802546422500,1.827422607421875,-0.4032268726423382,1.4526479550302027,1.689635340940952,-0.493012011051178,0.2962792217731476,-1.4240999221801758
1783201802556358400,1.8373583984375,-0.3016232319504022,1.3561486517399548,1.6079758793860672,-0.6961991786956787,0.2367336153984069,-1.4401651620864868
1783201802566295300,1.84729541015625,-0.1772673689633608,1.224071839112043,1.4385866964519023,-0.8873149752616882,0.1882259845733642,-1.441888451576233
1783201802576232200,1.857232177734375,-0.0756079064309597,1.0461948138177397,1.1349322509348392,-1.034895896911621,0.170755386352539,-1.455500602722168
1783201802586169300,1.86716943359375,0.0620797318160533,0.9460457558482884,0.6704232265949249,-1.1246016025543213,0.1740579754114151,-1.4692891836166382
1783201802596106200,1.877106201171875,0.1380930041775107,0.9601111060798168,0.0937982276380062,-1.1341503858566284,0.2101635187864303,-1.4776639938354492
1783201802606043400,1.88704345703125,0.2396355623319745,0.8369991056740284,-0.5880453876376152,-1.0385345220565796,0.2470397800207138,-1.4816092252731323
1783201802615980300,1.896980224609375,0.3828133224278688,0.7674544448047876,-1.2445207529008389,-0.8656619787216187,0.3230706453323364,-1.467066526412964
1783201802625917200,1.906917236328125,0.5617872030481695,0.7793266689062118,-1.6483283480405806,-0.6675998568534851,0.4264640808105469,-1.4523043632507324
1783201802635854300,1.916854248046875,0.6323541927024722,0.6555851384252309,-1.924669254696369,-0.4878972172737121,0.5001100897789001,-1.456580638885498
1783201802645791200,1.926791259765625,0.6745356303498149,0.4661538689374923,-2.148451706597209,-0.3209875226020813,0.5679134726524353,-1.4616644382476809
1783201802655728400,1.936728271484375,0.7195867782145738,0.3257411896407604,-2.3028081555724143,-0.1703215837478637,0.6354062557220459,-1.472629189491272
1783201802665664300,1.946664306640625,0.7368997320652008,0.3120820821225643,-2.453334817126393,-0.0259702559560537,0.6723383665084839,-1.484471559524536
1783201802675601200,1.95660107421875,0.7521898017860948,0.3173731742680072,-2.634847568574548,0.0851512029767036,0.6147651076316833,-1.4958518743515017
1783201802685538300,1.966538330078125,0.7922606770202517,0.2923112137258052,-2.706658420810103,0.1157901436090469,0.5163756608963013,-1.5028568506240845
1783201802695475500,1.976475341796875,0.8729334656253457,0.3013280483961105,-2.5829408557266,0.0731151178479194,0.3818519711494446,-1.5202736854553225
1783201802705412400,1.986412353515625,0.90026629370898,0.1446206523805856,-2.5013468606233595,-0.0257084183394908,0.2407773584127426,-1.532434105873108
1783201802715349200,1.996349365234375,1.0056976759955287,-0.1716004292428493,-2.453074704885483,-0.1431008279323578,0.1275365501642227,-1.4994220733642578
1783201802725286100,2.0062861328125,1.2074033206447958,-0.4625228189587593,-2.582522338053584,-0.2146453708410263,0.0266540236771106,-1.4339839220046997
1783201802735223300,2.016223388671875,1.4436230831839143,-0.5935860706299543,-2.8870974055469034,-0.2203365564346313,-0.0561846643686294,-1.3421725034713743
1783201802745160400,2.026160400390625,1.618951739169657,-0.515856934261322,-3.1516789008259773,-0.1644753664731979,-0.1069528013467788,-1.2459778785705566
1783201802755097300,2.036097412109375,1.6282207950353622,-0.343220732229948,-3.334582229849696,-0.0573616996407508,-0.14553003013134,-1.146144151687622
1783201802765034200,2.0460341796875,1.501262640595436,-0.2838327237159013,-3.4210224959403277,0.0526599735021591,-0.1978617310523986,-1.0463502407073977
1783201802774971100,2.05597119140625,1.3238110011063515,-0.2063467484533786,-3.385361399972439,0.1321585327386856,-0.2855987548828125,-0.9587389230728148
1783201802784908300,2.065908203125,1.1765525475680827,-0.0552887565016746,-3.2800206185787912,0.1731147319078445,-0.4003966152667999,-0.9034913182258606
1783201802794845400,2.075845458984375,0.9542432369597256,0.0043365678995847,-3.083202745971084,0.2092988342046737,-0.5112749338150024,-0.8627132773399353
1783201802804782300,2.0857822265625,0.7319795190587639,0.0351519774019718,-2.9290467880040407,0.2651255130767822,-0.6154993772506714,-0.8233204483985901
1783201802814719200,2.09571923828125,0.6003657938979565,0.1731003124117851,-2.789048534727097,0.3102748692035675,-0.733939528465271,-0.7796542048454285
1783201802824656100,2.10565625,0.5188465445313603,0.4701671962320804,-2.5044407349854705,0.3101329505443573,-0.8410667181015015,-0.7487221956253052
1783201802834593300,2.11559326171875,0.3622221506241709,0.7381114459425211,-1.9771733489155767,0.2434719055891037,-0.902817964553833,-0.7618406414985657
1783201802844530400,2.125530517578125,0.1245136838972568,0.7569885803699493,-1.4649989025592802,0.1533303409814834,-0.946547031402588,-0.8202139139175415
1783201802854467300,2.13546728515625,-0.0844876707181334,0.6063648881822824,-1.1498200234651563,0.0831555053591728,-0.936306893825531,-0.8737301230430603
1783201802864404200,2.145404296875,-0.1211713877320289,0.5298188241183758,-0.9992565370321274,0.054753627628088,-0.899539053440094,-0.9152604341506958
1783201802874341400,2.15534130859375,-0.0206640178442001,0.6552127979815006,-1.0322405227452516,0.0789758786559104,-0.86270672082901,-0.9436529278755188
1783201802884278300,2.1652783203125,0.0834448836669325,0.794524238038063,-1.1413795273780822,0.1577850133180618,-0.8336228728294373,-0.9571784138679504
1783201802894215400,2.17521533203125,0.1340691554889082,0.8521440678358078,-1.2515174799203872,0.2666451930999756,-0.8176950216293335,-0.9677426218986512
1783201802904152300,2.18515234375,0.1448322493046522,0.919884309631586,-1.2112462598085405,0.3675920069217682,-0.8498769402503967,-0.9994200468063354
1783201802914089200,2.195089111328125,0.1647507825437933,0.9097808487683534,-1.0878647948116065,0.4425671994686126,-0.9152772426605223,-1.0444966554641724
1783201802924026400,2.2050263671875,0.2471969374969601,0.8301467555612325,-0.7668249147295951,0.4732297658920288,-0.9757928252220154,-1.0958483219146729
1783201802933963300,2.21496337890625,0.3612555706143379,0.6584253302872181,-0.3114998983204364,0.4807790219783783,-1.0107287168502808,-1.1411746740341189
1783201802943900400,2.224900390625,0.52487333054021,0.4817763854831456,0.1602197880506515,0.4953657686710357,-0.9830166697502136,-1.162006974220276
1783201802953837300,2.23483740234375,0.7185676642999053,0.423669648951292,0.6189730253428221,0.5302190780639648,-0.8880389928817749,-1.165913224220276
1783201802963774200,2.244774169921875,0.8357990822345018,0.4400725022196769,1.065378822237253,0.5771535038948059,-0.7404184341430664,-1.1529139280319214
1783201802973711400,2.25471142578125,0.825621387091279,0.432220619675517,1.4700918417841196,0.6136960983276367,-0.5471264719963074,-1.152349829673767
1783201802983648300,2.264648193359375,0.8211687915965914,0.3862216695666313,1.8706594320893288,0.6136524081230164,-0.3210107684135437,-1.1659642457962036
1783201802993585400,2.27458544921875,0.8361967763151973,0.3106283761829138,2.1678367905467746,0.5487359762191772,-0.1586615741252899,-1.1797541379928589
1783201803003522300,2.284522216796875,0.9029208998709916,0.054655719295144,2.1665917589217423,0.4564082026481628,-0.0872268453240394,-1.1762715578079224
1783201803013459200,2.294459228515625,1.0519684287831186,-0.1732809296756982,1.853804743400216,0.3748611211776733,-0.1041850596666336,-1.1565232276916504
1783201803023396400,2.304396240234375,1.252194940790534,-0.2272241167873144,1.3417723358631133,0.3480311036109924,-0.1893720179796219,-1.121768593788147
1783201803033333200,2.314333251953125,1.4532874219775198,-0.1963438253551721,0.899145472985506,0.3642468154430389,-0.2938347458839416,-1.0697591304779053
1783201803043270400,2.3242705078125,1.6323180012211205,-0.2143658042579889,0.822794054710865,0.3829172551631927,-0.3442022800445556,-1.0036464929580688
1783201803053207300,2.334207275390625,1.7053537190765142,-0.2922550996243953,1.0500152488887309,0.38236865401268,-0.3504354059696197,-0.9619266986846924
1783201803063144200,2.344144287109375,1.6574018813341855,-0.3637660921305418,1.2689508452802896,0.3699483275413513,-0.2919430732727051,-0.9359659552574158
1783201803073081300,2.354081298828125,1.6215139908730982,-0.3774935887098312,1.4107283831894395,0.3230085074901581,-0.1834381967782974,-0.9152167439460754
1783201803083018200,2.364018310546875,1.5476011979222295,-0.2829968574136495,1.5116478410094976,0.2319701910018921,-0.0673209577798843,-0.8969595432281494
1783201803092955400,2.373955322265625,1.472771290126443,-0.2826782929837703,1.5725351481705905,0.093689277768135,0.0316948369145393,-0.8704555034637451
1783201803102892300,2.383892333984375,1.4321332825288176,-0.4484352568954229,1.4797802921056746,-0.0707515478134155,0.0613475069403648,-0.8355739712715149
1783201803112829200,2.3938291015625,1.5471975855574012,-0.6563041003495454,1.172505318003893,-0.2632727921009063,-0.0362538844347,-0.7646153569221497
1783201803122766300,2.403766357421875,1.7332105710342525,-0.898960764068365,0.529051931399107,-0.4243565499782562,-0.2114918529987335,-0.6643523573875427
1783201803132703200,2.413703125,1.9354802793070676,-0.978221932309866,-0.2163777286022901,-0.4992566406726837,-0.3741223216056824,-0.5575491786003113
1783201803142640400,2.423640380859375,2.0507450733438133,-0.9146656982004642,-0.8682616744220256,-0.4743917882442474,-0.5154195427894592,-0.455260306596756
1783201803152577300,2.433577392578125,2.030614431723952,-0.719834615495801,-1.3428501942276954,-0.4082766771316528,-0.6253244280815125,-0.370716392993927
1783201803162514200,2.44351416015625,1.837511780247092,-0.5248328523993492,-1.576909125471115,-0.3278552293777466,-0.7132705450057983,-0.3113934993743896
1783201803172451300,2.453451416015625,1.4846040590003131,-0.4716881221890449,-1.5970663628369568,-0.2475398629903793,-0.7254624962806702,-0.2799916267395019
1783201803182388200,2.46338818359375,1.052947210687399,-0.3430681720167398,-1.3132716330438852,-0.1683194041252136,-0.6409306526184082,-0.2855261266231537
1783201803192325400,2.473325439453125,0.6348211673378944,-0.2205436161100864,-0.9906395153343676,-0.0875603705644607,-0.4936644732952118,-0.331718385219574
1783201803202262500,2.483262451171875,0.3383338369712233,-0.1577034213155508,-0.8591998315662145,-0.0001242794096469,-0.3445089757442474,-0.3882535099983215
1783201803212199200,2.49319921875,0.2615588960548862,-0.0895516761094331,-0.9789449858874082,0.0956198275089263,-0.2427804917097091,-0.4241374731063843
1783201803222136300,2.50313623046875,0.37309447696805,-0.0223369194924831,-1.286710373854637,0.2106384634971618,-0.1961994767189026,-0.4401491582393646
1783201803232073200,2.5130732421875,0.4781935220276936,0.0050830023527145,-1.5822025557041168,0.3311534225940704,-0.2264332771301269,-0.4419957995414734
1783201803242010400,2.52301025390625,0.5720426030701026,-0.0232493581622838,-1.8716729930460447,0.4517366886138916,-0.3362539112567901,-0.4272301495075226
1783201803251947500,2.532947509765625,0.6474173217996955,0.0142915602028369,-1.9902379976719615,0.5571059584617615,-0.477959394454956,-0.4046465456485748
1783201803261884200,2.54288427734375,0.6146326580509544,0.0830050309449434,-1.7478776865512131,0.6319414377212524,-0.5754086971282959,-0.4000419676303863
1783201803271821300,2.5528212890625,0.5091036606088281,0.1536474239230155,-1.255991994985938,0.6783267855644226,-0.6107965111732483,-0.4087007045745849
1783201803281758200,2.56275830078125,0.398548067176342,0.2148106254160404,-0.7287403910070658,0.7017609477043152,-0.5792564749717712,-0.4241126775741577
1783201803291695400,2.5726953125,0.3855634979188442,0.2174748761892318,-0.2416366730213165,0.7203950881958008,-0.4863177537918091,-0.4170542359352112
1783201803301632500,2.582632568359375,0.3614384894331917,0.211650115558505,0.1087760165393352,0.7378366589546204,-0.366284430027008,-0.4200497269630432
1783201803311569200,2.592569091796875,0.2715907895192503,0.2416670681595802,0.3879477627068757,0.7504163384437561,-0.2369498908519745,-0.4200774431228637
1783201803321506300,2.60250634765625,0.197528358964622,0.2723328400582075,0.691557200038433,0.7507145404815674,-0.1074208244681358,-0.4204894304275512
1783201803331443200,2.612443115234375,0.0952349824428558,0.3238748112469911,0.9528215335935354,0.7299978137016296,-0.0067876917310059,-0.4314121305942535
1783201803341380400,2.62238037109375,0.0072224255342036,0.3375882793009281,1.071677045598626,0.6791155338287354,-0.0371920280158519,-0.4406644701957702
1783201803351317200,2.632317138671875,0.0082660163030028,0.2302712293982505,0.955657049280405,0.6043869853019714,-0.1845790892839431,-0.4309761524200439
1783201803361254100,2.642254150390625,0.0967044339409098,0.1574818875193595,0.8416574528738856,0.5353309512138367,-0.3624009490013122,-0.4030207395553589
1783201803371192300,2.6521923828125,0.1589025679722428,0.1354629479348659,0.8554618140816688,0.4921752214431762,-0.5167684555053711,-0.3637502789497375
1783201803381129200,2.662129150390625,0.2103743600016459,0.1033849711507558,0.9994877154394984,0.4687599241733551,-0.6183139681816101,-0.3208689391613006
1783201803391066400,2.67206640625,0.1924605541810393,0.1272504153847694,1.3010872742533683,0.4505367279052734,-0.6291602253913879,-0.2879314720630646
1783201803401003300,2.682003173828125,0.0527954418485984,0.2376917347878217,1.6871601829990743,0.4055598378181457,-0.5458356142044067,-0.2778113186359405
1783201803410940200,2.691940185546875,-0.138901324885711,0.2796832028210163,2.072668443599343,0.3421773910522461,-0.3865434229373932,-0.2871076166629791
1783201803420877300,2.701877197265625,-0.1888251202881336,0.2228109765201807,2.263475677615404,0.238325610756874,-0.2112596035003662,-0.282049685716629
1783201803430814200,2.711814208984375,-0.1674398024320602,0.1483154152452945,2.1878882294505835,0.1274939030408859,-0.088247925043106,-0.2491881400346756
1783201803440751400,2.72175146484375,-0.226680219168961,0.0110533089339733,1.8216437645077703,0.0541442073881626,-0.0063278209418058,-0.229902297258377
1783201803450688300,2.731688232421875,-0.3145885119855404,0.0038227731585502,1.3153881868064403,0.0305059906095266,0.028560921549797,-0.219180941581726
1783201803460625200,2.741625244140625,-0.3609945815905928,0.1162654955118894,0.7632803739905357,0.0339929275214672,0.0036186105571687,-0.2060101479291916
1783201803470562300,2.751562255859375,-0.3934530821248889,0.2205763493359089,0.3209802588492632,0.0554417632520198,-0.0887938812375068,-0.2029597610235214
1783201803480499200,2.761499267578125,-0.4518678616926074,0.3130488813281059,0.0401700978249311,0.0745373219251632,-0.2161445766687393,-0.2183642089366912
1783201803490436400,2.771436279296875,-0.5531132635314017,0.4028647613316774,-0.0364493237361311,0.1000895500183105,-0.3136865794658661,-0.2574375867843628
1783201803500373200,2.781373291015625,-0.7085317887801676,0.4852624740332364,0.110251642049849,0.133245587348938,-0.329397588968277,-0.3168739676475525
1783201803510310100,2.79131005859375,-0.8668631327357142,0.547002598631382,0.4299684568345546,0.1543862968683242,-0.2747657895088196,-0.4078619182109833
1783201803520247300,2.801247314453125,-0.9834516496568918,0.5871031383514403,0.6939882265776396,0.1649282574653625,-0.1954276114702224,-0.5140435695648193
1783201803530184200,2.81118408203125,-0.9942448463499546,0.5771136592566967,0.8483505207717418,0.1662020534276962,-0.1117281913757324,-0.6110622882843018
1783201803540121300,2.821121337890625,-0.859107477107644,0.5010936648935079,0.933157632702589,0.15427266061306,-0.0398933589458465,-0.6768739819526672
1783201803550058200,2.831058349609375,-0.554720406467095,0.3632669104367494,0.9545444118633866,0.1341421008110046,-0.0063311345875263,-0.6903884410858154
1783201803559995400,2.840995361328125,-0.2146849532097577,0.2183130805790424,0.924873203960061,0.1062035262584686,-0.0236232466995716,-0.6724576950073242
1783201803569932500,2.8509326171875,-0.0153647423923015,0.0673474430859088,0.8654401872605085,0.0711568593978881,-0.0708853006362915,-0.6365833282470703
1783201803579869400,2.860869384765625,0.0706599286347627,-0.0329869083225727,0.8441928165704011,0.0360338650643825,-0.122730977833271,-0.6100798845291138
1783201803589806600,2.870806640625,0.1075914098646491,-0.0732692343503236,0.8557233876273036,0.0037989635020494,-0.1484161019325256,-0.6039828062057495
1783201803599743500,2.880743408203125,0.1364209793120622,-0.0679892481207847,0.8790940340816974,-0.0162791945040226,-0.150977224111557,-0.6177484393119812
1783201803609680400,2.890680419921875,0.196525027140975,-0.1131979246348142,0.8720604821830987,-0.0249240808188915,-0.131623774766922,-0.6292186379432678
1783201803619617500,2.900617431640625,0.29841946747303,-0.2114163068026304,0.8491852180302143,-0.0176705997437238,-0.0878603458404541,-0.6278672814369202
1783201803629554400,2.910554443359375,0.4371341106802225,-0.2984159603416919,0.818549256747961,0.004806213080883,-0.0297637563198804,-0.6124212145805359
1783201803639491600,2.92049169921875,0.5847852167978882,-0.349022696506977,0.771905578994751,0.053566575050354,0.0594255961477756,-0.5888091921806335
1783201803649428500,2.930428466796875,0.6811139858268201,-0.3369026351243257,0.837227361471951,0.1056644022464752,0.2090182900428772,-0.568976104259491
1783201803659365400,2.940365478515625,0.742276164406538,-0.2933434793829917,0.9792787478864192,0.1421012878417968,0.3952029049396515,-0.544996440410614
1783201803669302500,2.950302490234375,0.7879144645094871,-0.3361258055329322,1.0200777912646533,0.1543544828891754,0.5733116269111633,-0.5288132429122925
1783201803679239400,2.960239501953125,0.9122193279616534,-0.5105921456009149,0.8289575457766651,0.1546898931264877,0.7002391815185547,-0.493332028388977
1783201803689176600,2.970176513671875,1.094507739957422,-0.6622159547418356,0.4334028151974082,0.1448287516832351,0.7368464469909668,-0.4234778583049774
1783201803699113500,2.980113525390625,1.278442165594548,-0.8126338952243327,-0.0554100447937846,0.1388007849454879,0.6778082847595215,-0.3325020968914032
1783201803709050400,2.99005029296875,1.412433871933073,-0.8229296637892722,-0.4425400613769888,0.1193035095930099,0.5414724946022034,-0.2385830879211425
1783201803718987500,2.999987548828125,1.4940208527736365,-0.7350240013211965,-0.6345028951689601,0.093958780169487,0.3852801918983459,-0.1574901789426803
1783201803728924400,3.00992431640625,1.5070043991178272,-0.6592495061516761,-0.6064087273240089,0.0485921055078506,0.2527306675910949,-0.104981705546379
1783201803738861600,3.019861572265625,1.4724337287351488,-0.5969698678493499,-0.4179144464254379,-0.0150544065982103,0.1762050986289978,-0.0814027488231659
1783201803748798500,3.029798583984375,1.4538795426517723,-0.5990975275278091,-0.3139396926879882,-0.0694950148463249,0.1221349313855171,-0.0643289536237716
1783201803758735400,3.0397353515625,1.4879679824754597,-0.7127449494957924,-0.3815630301058292,-0.0930344760417938,0.1114409193396568,-0.0243770219385623
1783201803768672500,3.049672607421875,1.5714926533803344,-0.7662976759850978,-0.5100117153644561,-0.0661956742405891,0.1292279064655304,0.0222996696829795
1783201803778609400,3.059609375,1.64485131957978,-0.7228735448002814,-0.6663187138855456,0.0026734983548521,0.1874290406703949,0.0819844827055931
1783201803788546600,3.069546630859375,1.667670323500782,-0.6692886696070433,-0.7508823724493384,0.0989081561565399,0.2696687877178192,0.1357734054327011
1783201803798483500,3.0794833984375,1.6543081531025468,-0.638145343324542,-0.7952335553511977,0.1871465146541595,0.3419435918331146,0.1925141513347625
1783201803808420400,3.08942041015625,1.627737395432591,-0.6800503021180629,-0.7782090630531311,0.2744209766387939,0.4153629541397095,0.2546121478080749
1783201803818357500,3.099357421875,1.591734354159236,-0.7048328611969947,-0.7210428222417831,0.3474039435386657,0.4670289754867553,0.3186343014240265
1783201803828294400,3.10929443359375,1.5545537935391067,-0.6885574337005614,-0.6851075855076313,0.4128351509571075,0.5030892491340637,0.3850186467170715
1783201803838231600,3.1192314453125,1.5018012775167822,-0.6343979734897613,-0.593567950451374,0.4657686054706573,0.5443598031997681,0.445031464099884
1783201803848168400,3.12916845703125,1.394517253100872,-0.5418576369583606,-0.4568003496587276,0.5078625082969666,0.5883802771568298,0.4898615181446075
1783201803858105300,3.139105224609375,1.2650050302639604,-0.4753367078244686,-0.3481780623763799,0.5418859720230103,0.623447835445404,0.5216097831726074
1783201803868042500,3.14904248046875,1.1401207594886422,-0.4593617245793342,-0.3060486471772193,0.5753632187843323,0.6330445408821106,0.5419864654541016
1783201803877979400,3.1589794921875,1.044970971111208,-0.4079208756774664,-0.2918503182157874,0.5983628034591675,0.6048725247383118,0.5593215227127075
1783201803887916500,3.16891650390625,0.9685036713719368,-0.3206248695403337,-0.2309317391335964,0.6128343939781189,0.5725356340408325,0.5677371025085449
1783201803897853400,3.178853515625,0.8979428191974759,-0.2593780814170837,-0.0518155274331569,0.6300805807113647,0.5698217153549194,0.5925994515419006
1783201803907790300,3.188790283203125,0.8452671678036451,-0.275078923895955,0.1350619659185409,0.6322129964828491,0.542718231678009,0.6131617426872253
1783201803917727500,3.1987275390625,0.7516413741230964,-0.2031616886764764,0.2735731955081224,0.6010470390319824,0.4754441678524017,0.6113377809524536
1783201803927664600,3.20866455078125,0.6397972021847963,-0.0925292306154966,0.4562269336849451,0.5479766726493835,0.3787703514099121,0.5981982946395874
1783201803937601500,3.2186015625,0.5094859379246831,-0.052307694864273,0.6765361565172672,0.4905310571193695,0.3005547821521759,0.5719146132469177
1783201803947538400,3.228538330078125,0.416937856478244,-0.0435264225155115,0.8966755757406354,0.4471209943294525,0.253103107213974,0.5390387177467346
1783201803957475300,3.238475341796875,0.4220185207433998,-0.0494780243963003,1.106712995405495,0.4197947382926941,0.2457066178321838,0.5236566662788391
1783201803967413500,3.24841357421875,0.4909250298395752,-0.0775146168351173,1.3537953666120768,0.3987499177455902,0.2870623171329498,0.5346206426620483
1783201803977350400,3.258350341796875,0.5419990912556648,-0.1350982062757015,1.633896502584219,0.3756568431854248,0.3429231941699981,0.5591033697128296
1783201803987287600,3.26828759765625,0.5791796518757939,-0.1522843188762664,1.8580945495486256,0.3378618061542511,0.3939799666404724,0.5960603356361389
1783201803997224400,3.278224365234375,0.6099582364991307,-0.1084627128064632,1.9973451993286608,0.2793373167514801,0.4310506582260132,0.6256343722343445
1783201804007161300,3.288161376953125,0.6052824997730553,-0.0619599048286676,2.12115541113168,0.2194776982069015,0.4765661954879761,0.6373594999313354
1783201804017098500,3.298098388671875,0.6110502695195377,-0.0299865574628114,2.305031969101727,0.1476129740476608,0.5432101488113403,0.6493802666664124
1783201804027035400,3.308035400390625,0.6286494929656385,-0.0354395621716976,2.472015552198887,0.0604847334325313,0.5993764996528625,0.6651890277862549
1783201804036972500,3.31797265625,0.6398842228811233,-0.0858867238610982,2.5720620265766976,-0.0299605019390583,0.647741973400116,0.694934070110321
1783201804046909700,3.32790966796875,0.6735675890352577,-0.0593564443320035,2.5757591275289653,-0.1023265793919563,0.6996856331825256,0.724827766418457
1783201804056846300,3.337846435546875,0.7084884610950947,0.0235422036290168,2.5600048012971874,-0.1635099798440933,0.7500620484352112,0.7599344253540039
1783201804066783500,3.347783447265625,0.7209247488200664,0.079178750655055,2.455069093573093,-0.2169425785541534,0.792362630367279,0.7933570742607117
1783201804076720400,3.357720458984375,0.7082327327683567,0.2105026990890502,2.28664670984447,-0.2698012888431549,0.8403289914131165,0.797835648059845
1783201804086657500,3.367657470703125,0.6988225148662924,0.3942892406880855,2.1238065101623533,-0.3364633917808532,0.8765154480934143,0.7891888618469238
1783201804096594700,3.3775947265625,0.6439028108727186,0.4527069428652525,1.9227768650785089,-0.4155248403549194,0.8924559950828552,0.7771216034889221
1783201804106531300,3.38753125,0.5022100286375731,0.4024772233188152,1.6671970069006083,-0.5022517442703247,0.8994781970977783,0.7491946220397949
1783201804116468500,3.397468505859375,0.387710446819663,0.4994178406357765,1.3201228141129016,-0.5754273533821106,0.9050087332725524,0.7117465138435364
1783201804126405400,3.4074052734375,0.2882136422138661,0.6508698003411293,0.9073296562239528,-0.6244518756866455,0.91387277841568,0.6714524030685425
1783201804136342500,3.417342529296875,0.1403328189935535,0.7060270394176245,0.4235261488273739,-0.6373642086982727,0.93674635887146,0.6260243058204651
1783201804146279400,3.427279541015625,0.0931894480898976,0.7343874569833279,-0.1135503913342952,-0.6205543279647827,0.957880675792694,0.5792027711868286
1783201804156216300,3.43721630859375,0.1057686514168977,0.7123357841730117,-0.6516846238553524,-0.5739665627479553,0.9829383492469788,0.545103907585144
1783201804166153500,3.447153564453125,0.1517471432596445,0.6230711083114147,-1.0744435877025127,-0.4963764548301697,1.0381596088409424,0.5236989855766296
1783201804176090400,3.45709033203125,0.2418257658526301,0.5156242945492268,-1.377918584999442,-0.398122102022171,1.0957378149032593,0.5190594792366028
1783201804186027500,3.467027587890625,0.3790948864266276,0.4011731549829244,-1.6250807434439658,-0.3095802366733551,1.133283615112305,0.5402219891548157
1783201804195964400,3.47696435546875,0.5001838565722108,0.333213132956624,-1.7619114726006984,-0.2470227479934692,1.154995083808899,0.5866961479187012
1783201804205901300,3.4869013671875,0.565586083874479,0.3270037569224834,-1.8420801110759375,-0.2050254791975021,1.1611326932907104,0.6356666088104248
1783201804215838500,3.49683837890625,0.5485927904322743,0.3203752786934375,-1.926518097433448,-0.1786969453096389,1.1713749170303345,0.667178750038147
1783201804225775400,3.506775390625,0.4701215304594486,0.3131055799514055,-2.013280142824352,-0.1496240049600601,1.175666570663452,0.6606899499893188
1783201804235712500,3.51671240234375,0.4013224272605031,0.2471107205182313,-2.163893898139894,-0.0999360904097557,1.2082288265228271,0.6269445419311523
1783201804245649400,3.5266494140625,0.4126590101152658,0.1710369501411914,-2.3009335938721893,-0.0197256710380315,1.2669214010238647,0.597016453742981
1783201804255586300,3.53658642578125,0.4863257193505764,0.0756266111314296,-2.428454642891884,0.0858823433518409,1.3407626152038574,0.5795448422431946
1783201804265523500,3.5465234375,0.6244806828483939,-0.0407990433782339,-2.5906714499786494,0.2066473662853241,1.3976367712020874,0.5781962275505066
1783201804275460600,3.556460693359375,0.7885838151384145,-0.0769055450260639,-2.809372653092444,0.2894675135612488,1.327540159225464,0.6015836000442505
1783201804285397500,3.5663974609375,0.9043082625761628,-0.0475023404091596,-3.081855715276301,0.305329829454422,1.0837520360946655,0.6308759450912476
1783201804295334400,3.57633447265625,0.94640669811517,-0.0607265636414289,-3.253471342088282,0.2542135119438171,0.7105433344841003,0.656518816947937
1783201804305271300,3.586271240234375,1.0145064208731054,-0.102246907031536,-3.220466605848074,0.1593716889619827,0.2947607338428497,0.6823288798332214
1783201804315208400,3.59620849609375,1.1426920712813735,-0.1242892274916172,-2.96488470184356,0.0543613284826278,-0.0779509991407394,0.715300977230072
1783201804325145600,3.6061455078125,1.2734917035803195,-0.2223006889104843,-2.5545827762484548,-0.0246096514165401,-0.3330179154872894,0.7564204335212708
1783201804335082500,3.61608251953125,1.347975866678357,-0.291336231213808,-2.0555542271912097,-0.0422097034752368,-0.4186912775039673,0.8192216753959656
1783201804345020400,3.6260205078125,1.4145824282690882,-0.337058702468872,-1.545819575202465,-0.0012545473873615,-0.3580569624900818,0.9061885476112366
1783201804354957300,3.635957275390625,1.4071043474733829,-0.2935591679602861,-1.188956978850067,0.0899531543254852,-0.2035992294549942,0.9990999698638916
1783201804364894500,3.64589453125,1.283475045195222,-0.1933522423237562,-0.941126711885631,0.2007835358381271,-0.01301996037364,1.075879693031311
1783201804374831400,3.655831298828125,1.0731921263366937,0.0157213007450103,-0.7790887684971094,0.3119424879550934,0.1789818853139877,1.1215440034866333
1783201804384768500,3.6657685546875,0.8049635067269205,0.2149555868446827,-0.6913964565187692,0.4248911440372467,0.3545414507389068,1.1289238929748535
1783201804394705400,3.675705322265625,0.5653562937065959,0.3506447447508573,-0.6450573146700859,0.5291053652763367,0.4845953285694122,1.107753872871399
1783201804404642300,3.685642333984375,0.3913151933133602,0.4596411260426044,-0.6277268251627683,0.6307409405708313,0.5712695121765137,1.0800766944885254
1783201804414579500,3.695579345703125,0.3174480296025052,0.5154214654535055,-0.5827586794063448,0.7034377455711365,0.6160256862640381,1.0591083765029907
1783201804424516400,3.705516357421875,0.3036941930055618,0.5602320825606584,-0.4908218617260456,0.7671152353286743,0.6378343105316162,1.0546976327896118
1783201804434453500,3.71545361328125,0.2592165341798216,0.5913520279675721,-0.3134934102252125,0.8098106384277344,0.6550185680389404,1.051978588104248
1783201804444390700,3.725390625,0.1668275888178497,0.6466618272572755,-0.0321063260957598,0.8184528350830078,0.6650451421737671,1.038018822669983
1783201804454327300,3.735327392578125,0.0555792638808488,0.671601622724533,0.3117664403021335,0.7969376444816589,0.6937019228935242,1.0060428380966189
1783201804464264400,3.745264404296875,-0.0501657143995165,0.6385282051622867,0.6862848125934601,0.7567752599716187,0.7544720768928528,0.9739798307418824
1783201804474201300,3.755201416015625,-0.1145095917552709,0.6027987201333046,1.002024832701683,0.7126967906951904,0.8437173962593079,0.931954264640808
1783201804484138500,3.765138427734375,-0.1526093130469322,0.5729208837419748,1.2075941670417785,0.6825340986251831,0.943899929523468,0.8917626142501831
1783201804494075600,3.77507568359375,-0.1227469664856791,0.5351192686140537,1.3121926056355238,0.6659907698631287,1.0423787832260132,0.8765594959259033
1783201804504012300,3.78501220703125,-0.0514290853988379,0.5223953961193561,1.4026704566791652,0.6403029561042786,1.1169697046279907,0.8806671500205994
1783201804513949400,3.794949462890625,0.0084992405369877,0.521228105905652,1.531175548300147,0.595693826675415,1.1665191650390625,0.8958014249801636
1783201804523886300,3.80488623046875,0.0585839986547827,0.6018681612849235,1.7407587944567202,0.5242928862571716,1.2024047374725342,0.919449508190155
1783201804533823500,3.814823486328125,0.0113047994770109,0.6502560523569584,1.910659141783416,0.4136889278888702,1.175404667854309,0.9326612949371338
1783201804543760600,3.8247607421875,-0.1253970426030456,0.6897498583555222,1.9996023306056856,0.2636376619338989,1.0951718091964722,0.930101215839386
1783201804553697300,3.834697265625,-0.2609511759527027,0.7663684031337499,2.144292541091144,0.0920670479536056,0.9907988905906676,0.9028272032737732
1783201804563634400,3.844634521484375,-0.3999117567449808,0.8894768964082002,2.308296816116571,-0.0954783484339714,0.8762531280517578,0.8550117611885071
1783201804573571300,3.8545712890625,-0.4987698981210589,0.9683329909801482,2.472767247349024,-0.2734689116477966,0.7880444526672363,0.7941895127296448
1783201804583508200,3.86450830078125,-0.5625201934978366,0.9589479075193404,2.6117127767026425,-0.4451833963394165,0.7522140145301819,0.7399507761001587
1783201804593445400,3.8744453125,-0.5445176499478519,0.9083376642227172,2.7293124434277414,-0.6273908019065857,0.7601791024208069,0.6951507329940796
1783201804603382300,3.88438232421875,-0.4600790790684521,0.8612006499946117,2.7098560478076337,-0.8012667298316956,0.7590675354003906,0.6644023656845093
1783201804613319400,3.8943193359375,-0.2502965109474956,0.6555284398019313,2.558716222791374,-0.9662625789642334,0.7618277668952942,0.6639193892478943
1783201804623256300,3.90425634765625,0.1292320907212793,0.4761316575944423,2.365027295859158,-1.1156986951828003,0.7815596461296082,0.7093840837478638
1783201804633193200,3.914193115234375,0.4702501983404159,0.4737082298398017,2.1566578094065187,-1.2537202835083008,0.8083040118217468,0.7880597710609436
1783201804643131100,3.924131103515625,0.7173056815400719,0.3842962544620036,1.8628747695624828,-1.3677453994750977,0.8431472182273865,0.8931566476821899
1783201804653068300,3.934068359375,0.9725595226339996,0.1903705961644649,1.4529007607474922,-1.4742838144302368,0.8663672208786011,1.016711950302124
1783201804663005400,3.94400537109375,1.2129650464251638,0.0989431893110275,1.0047729623660444,-1.569460153579712,0.8410009145736694,1.1530405282974243
1783201804672942300,3.9539423828125,1.3165659984141589,0.0937532194525003,0.5061246447980403,-1.6459354162216189,0.7656956911087036,1.2837872505187988
1783201804682879200,3.963879150390625,1.3552037721052763,0.1351508132457733,-0.0185708449572324,-1.693806290626526,0.6557247638702393,1.4013100862503052
1783201804692816400,3.97381640625,1.4153709482982757,0.2145101811647415,-0.483653869792819,-1.7218663692474363,0.5368010997772217,1.503304362297058
1783201804702753300,3.983753173828125,1.4696666021093725,0.3920972836017608,-0.7803086656808853,-1.7615909576416016,0.4310885071754455,1.5840206146240234
1783201804712690400,3.9936904296875,1.371291421944648,0.5460761314362287,-0.955705272336304,-1.8182737827301023,0.3570021092891693,1.6205965280532837
1783201804722627300,4.00362744140625,1.1209250606313348,0.5082113879442215,-1.1753373265594242,-1.869426965713501,0.3128525018692016,1.622442364692688
1783201804732564200,4.013564208984375,0.8617138602137565,0.4684112924754619,-1.5375298857629298,-1.865212082862854,0.3119949996471405,1.5852423906326294
1783201804742501400,4.02350146484375,0.5836415997207165,0.7009522203713655,-2.0152780386433005,-1.7823110818862915,0.3358590602874756,1.503108024597168
1783201804752438300,4.033438232421875,0.2759270651578903,0.9541858076840638,-2.597248782542348,-1.603887677192688,0.3609475493431091,1.3943183422088623
1783201804762375400,4.04337548828125,0.0828226601153612,0.9710580320298672,-3.1867700879514214,-1.3459309339523315,0.3926679193973541,1.28895366191864
1783201804772312300,4.053312255859375,0.0281917830005288,0.9398562535583972,-3.628587388011813,-1.0431417226791382,0.4134382903575897,1.1941720247268677
1783201804782249200,4.063249267578125,0.0438160531118512,0.9884434665948152,-3.886514686098695,-0.742211639881134,0.4094768166542053,1.1126446723937988
1783201804792186400,4.073186279296875,0.0522220624074339,0.9892898542910814,-3.942280996984243,-0.4580111503601074,0.3900076746940613,1.0306625366210938
1783201804802123300,4.083123291015625,0.0147647306725382,0.8870330103874206,-3.827363408949971,-0.1900441348552703,0.3778300881385803,0.951899528503418
1783201804812060400,4.093060302734375,-0.0605152589783072,0.7841776160687207,-3.574459491983056,0.0560503527522087,0.3883800804615021,0.8721877932548523
1783201804821997300,4.102997314453125,-0.1208729893073439,0.7417623696655035,-3.149008220311999,0.2619984447956085,0.438143640756607,0.7960834503173828
1783201804831934200,4.112934326171875,-0.1582069869235157,0.6768366007685661,-2.5996342163741586,0.4164056181907654,0.5158995389938354,0.7174911499023438
1783201804841871400,4.122871337890625,-0.1846694619134068,0.5440928486645221,-2.090332695105672,0.5304072499275208,0.606121838092804,0.649340033531189
1783201804851808300,4.132808349609375,-0.1036214102551341,0.4096609973430633,-1.6641273901969194,0.6172928214073181,0.6959134936332703,0.6006955504417419
1783201804861745400,4.142745361328125,0.0588897036030888,0.3683960900187492,-1.310741237783432,0.6910178661346436,0.7706788182258606,0.5805255770683289
1783201804871682300,4.152682373046875,0.2560369542956352,0.3713946873128414,-1.0264672000408173,0.7523279786109924,0.8301028609275818,0.584584653377533
1783201804881619200,4.162619140625,0.3789510940417647,0.3992670291006565,-0.7456172915279865,0.8189253807067871,0.8818808197975159,0.6011002659797668
1783201804891556400,4.172556396484375,0.384541753655672,0.4142348811298608,-0.4416951349854469,0.8625824451446533,0.9223994612693788,0.6193930506706238
1783201804901494300,4.182494384765625,0.3119984954923391,0.4131681286811828,-0.141658295443654,0.8907235264778137,0.9612584710121156,0.6328350901603699
1783201804911431400,4.192431396484375,0.2113476254805922,0.4084650655567646,0.1422650291651487,0.899529218673706,0.9980686902999878,0.6587637662887573
1783201804921368300,4.202368408203125,0.1178591944441199,0.4058884930670261,0.4283540073752403,0.8846200108528137,1.0200378894805908,0.6742372512817383
1783201804931305200,4.21230517578125,0.0062707508325576,0.4313900140702724,0.7181582067161798,0.8420367240905762,1.0389269590377808,0.6807353496551514
1783201804941242000,4.2222421875,-0.0978700071215629,0.470967991220951,1.0027858802020548,0.773385226726532,1.051761507987976,0.6877807378768921
1783201804951179300,4.23217919921875,-0.1956272015184164,0.4663216267198324,1.275878598716855,0.6733632683753967,1.0534271001815796,0.696412205696106
1783201804961116400,4.242116455078125,-0.2942868977129459,0.4638789097428321,1.5255752440750598,0.5472971796989441,1.0401382446289062,0.6993792057037354
1783201804971053300,4.25205322265625,-0.4037389138177037,0.5137427185863256,1.7348253127545117,0.4027552008628845,1.014765977859497,0.695099949836731
1783201804980990200,4.261990234375,-0.5460743778705597,0.5711994667768479,1.891427494829893,0.257759153842926,0.9870230555534364,0.6823529601097107
1783201804990927000,4.271927001953125,-0.6649336892679333,0.6059107146739959,1.989651722216606,0.1272221356630325,0.9753496646881104,0.6650486588478088
1783201805000864300,4.2818642578125,-0.7567477573513984,0.6742372319251299,2.061051071041822,0.015180823393166,0.9923557639122008,0.6461098790168762
1783201805010801400,4.291801513671875,-0.8490800040900707,0.7695546319544315,2.0573218213856217,-0.0598140843212604,1.0344256162643433,0.6219393014907837
1783201805020738300,4.30173828125,-0.9872101254075764,0.7694312978357076,1.9268670570015909,-0.0889666378498077,1.088477373123169,0.5949311256408691
1783201805030675200,4.31167529296875,-1.04536391595155,0.7086246546953916,1.764713086017966,-0.0941480621695518,1.1318106651306152,0.5705544352531433
1783201805040612000,4.321612060546875,-1.0049857283338903,0.7147071894794702,1.689462322461605,-0.1028283685445785,1.1698399782180786,0.5548002123832703
1783201805050549200,4.33154931640625,-0.9454998124033211,0.758576141822338,1.7150737335801125,-0.1251978576183319,1.209623098373413,0.5479351282119751
1783201805060486400,4.341486328125,-0.9310261736318468,0.7380904031544924,1.7756038978666069,-0.1546284556388855,1.2674446105957031,0.5404723882675171
1783201805070423300,4.35142333984375,-0.8815215534895658,0.7224240474671125,1.849938715621829,-0.170364111661911,1.358259201049805,0.5317056775093079
1783201805080360200,4.361360107421875,-0.8356564588934182,0.7500614114552736,1.9109248069822784,-0.1603940427303314,1.491774082183838,0.5404850244522095
1783201805090297300,4.37129736328125,-0.7991434222713112,0.7264958269506693,1.9653502246528864,-0.1156812235713005,1.6399033069610596,0.5484833121299744
1783201805100234200,4.381234130859375,-0.845634832072258,0.7127034484416246,1.9691823501616716,-0.0544405058026313,1.8080371618270876,0.5741106867790222
1783201805110171400,4.39117138671875,-0.7791942746981978,0.6292097571969032,2.0408394731402395,-0.0022048009559512,1.9642680883407595,0.6354693174362183
1783201805120108300,4.4011083984375,-0.6463777496188878,0.6497299826562404,2.1897318114906548,0.0314591526985168,2.059117078781128,0.706706166267395
1783201805130045200,4.411045166015625,-0.5687549962341785,0.7162614331841468,2.2777900341719386,0.0405578278005123,2.107126235961914,0.7540169358253479
1783201805139982300,4.420982421875,-0.5589540254488587,0.8044184400647878,2.343141919526458,0.0070179761387407,2.1232564449310303,0.8228870630264282
1783201805149920300,4.430920166015625,-0.4472185745820403,0.9622668228089808,2.4627286684155463,-0.0702954977750778,2.109379768371582,0.89066082239151
1783201805159857200,4.440857177734375,-0.3533399751842022,1.139602580833435,2.516308282911777,-0.2043688893318176,2.122185230255127,0.9089809656143188
1783201805169794300,4.450794189453125,-0.3347083399504423,1.3321750709563491,2.567695355799794,-0.4004464149475097,2.179795265197754,0.8323211073875427
1783201805179731500,4.4607314453125,-0.3876718683749437,1.403265792223811,2.495510994076729,-0.6310452222824097,2.262349367141724,0.6771672368049622
1783201805189668000,4.470668212890625,-0.3418593807488679,1.258034314468503,2.2018255693882702,-0.856360137462616,2.3753139972686768,0.4847958087921142
1783201805199605200,4.480605224609375,-0.0719765641912817,1.205183598768711,1.640265453094244,-1.030503511428833,2.509746789932251,0.2875684797763824
1783201805209542400,4.49054248046875,0.3021931407928466,1.0797329262822866,0.8379103753000497,-1.125276803970337,2.621556520462036,0.1246425881981849
1783201805219479300,4.500479248046875,0.7279419341057538,0.7042004085123539,-0.0481534977942705,-1.1511985063552856,2.7319321632385254,0.009874197654426
1783201805229416400,4.51041650390625,1.311752899044007,0.370190572220087,-0.961402899456024,-1.12307608127594,2.7674479484558105,-0.0595990270376205
1783201805239353000,4.52035302734375,1.926376058614254,0.1315454822301864,-1.938928081673384,-1.062927007675171,2.7134499549865723,-0.078454203903675
1783201805249290200,4.530290283203125,2.599003809516132,-0.1639607281446456,-2.8862691380292174,-0.9883224964141846,2.532290458679199,-0.0594275556504726
1783201805259227400,4.540227294921875,3.188962045037746,-0.5893143846601248,-3.8130794475317,-0.8986243009567261,2.223059892654419,0.0300325509160757
1783201805269164300,4.550164306640625,3.611531916053593,-1.0666443121284246,-4.508941066765785,-0.8155140280723572,1.8356868028640747,0.1853948533535003
1783201805279101400,4.560101318359375,3.858780875998735,-1.5287135421007871,-4.970028299963474,-0.7388980984687805,1.376828908920288,0.3866824507713318
1783201805289038000,4.5700380859375,3.9289515598118303,-1.7499007168114185,-5.1649593359112735,-0.6821980476379395,0.8978801369667053,0.5985087156295776
1783201805298975200,4.579975341796875,3.864339094647765,-1.7028297535568475,-4.995235221934318,-0.6695714592933655,0.4574127495288849,0.7911847233772278
1783201805308912400,4.589912353515625,3.5643268050253387,-1.529374051836133,-4.532185748752951,-0.6856333017349243,0.0726733654737472,0.93035888671875
1783201805318849300,4.599849365234375,3.090292411971092,-1.3076859418660405,-3.995844244867563,-0.7275351881980896,-0.2319147735834121,1.0163179636001587
1783201805328786400,4.609786376953125,2.589145555585622,-1.0703630403906106,-3.359744728156924,-0.7706899642944336,-0.4301729500293731,1.07409405708313
1783201805338723000,4.61972314453125,2.1347877767734227,-0.8308850067079067,-2.742570276668668,-0.7939936518669128,-0.5190024375915527,1.1157118082046509
1783201805348660200,4.62966015625,1.771647269195318,-0.6184954709589481,-2.2028251018196343,-0.7877368927001953,-0.4938717484474182,1.1540104150772097
1783201805358597400,4.639597412109375,1.4527154673084617,-0.4062637561202049,-1.7802485088020563,-0.735981285572052,-0.3938274383544922,1.1935935020446775
1783201805368535300,4.649535400390625,1.1567603441223502,-0.1633458111166953,-1.5162953745543957,-0.6565053462982178,-0.2569717466831207,1.2346129417419434
1783201805378472400,4.659472412109375,0.8489121001772582,0.0717582452654838,-1.360061441269517,-0.5521038174629211,-0.1267341077327728,1.2688449621200562
1783201805388409300,4.669409423828125,0.5191182741448283,0.2714788535773754,-1.2553197948127983,-0.4428862929344177,0.0036679795011878,1.284550428390503
1783201805398346200,4.67934619140625,0.14592735106498,0.4944587569236755,-1.180162554758787,-0.333179771900177,0.1096335649490356,1.2684366703033447
1783201805408283100,4.689283203125,-0.2291277584515511,0.696956428733468,-1.1746680489957333,-0.2204783111810684,0.1949342340230941,1.2169479131698608
1783201805418220300,4.69922021484375,-0.5349623244866728,0.8101648747622966,-1.137134729415178,-0.1104878857731819,0.2891941666603088,1.157247543334961
1783201805428157400,4.709157470703125,-0.73305460094437,0.846613906237483,-1.0393354494422673,0.0166864339262247,0.4192945659160614,1.1162900924682615
1783201805438094300,4.71909423828125,-0.8107391675189137,0.8894687131017446,-0.9316577495336532,0.1642034500837326,0.5811713337898254,1.0907388925552368
1783201805448031200,4.72903125,-0.8902312219068408,0.9470587322831152,-0.8923340394049882,0.3154415488243103,0.7432247400283813,1.0728284120559692
1783201805457968000,4.738968017578125,-1.0204491087950764,1.0562766473710536,-0.8959101443260907,0.4614725410938263,0.8803485035896301,1.049705982208252
1783201805467905300,4.7489052734375,-1.138625844755769,1.1694716493964197,-0.8537059103250503,0.5631746053695679,0.9644833207130432,1.02879536151886
1783201805477842400,4.758842529296875,-1.263053019413352,1.2918214332580569,-0.7925666742295027,0.6239069700241089,0.997380256652832,0.9905688762664796
1783201805487779300,4.768779296875,-1.4137313643977043,1.4051549669712782,-0.6601461627304553,0.6355829834938049,0.9936216473579408,0.944914937019348
1783201805497716200,4.77871630859375,-1.6347009508349,1.5021739102214573,-0.5280360323548317,0.6080118417739868,0.93674236536026,0.8775582313537598
1783201805507653000,4.788653076171875,-1.8933819898985325,1.5606488955438136,-0.4735135840505361,0.5462688207626343,0.8262205123901367,0.7852535843849182
1783201805517590300,4.79859033203125,-2.1088279906086624,1.6306798786252736,-0.4473158974766731,0.46731036901474,0.6784725785255432,0.6830390691757202
1783201805527527400,4.80852734375,-2.262536935460568,1.7306518264621495,-0.3667746262967586,0.3773733675479889,0.5276885032653809,0.5698522925376892
1783201805537464300,4.81846435546875,-2.410491700699925,1.796234013441205,-0.2678489726424217,0.2926115989685058,0.3999140560626983,0.4401829838752746
1783201805547401200,4.828401123046875,-2.5503333021104333,1.877361560076475,-0.0918634601831436,0.2094726115465164,0.307719349861145,0.3057225942611694
1783201805557339000,4.8383388671875,-2.66539234444201,1.908221977764368,0.1131850651532411,0.1377885639667511,0.2622322738170624,0.1679268926382064
1783201805567276000,4.848276123046875,-2.7098750447690487,1.9195891749531029,0.3156359752118587,0.0860692635178566,0.2669171392917633,0.0384275056421756
1783201805577214000,4.8582138671875,-2.7166411779031154,1.942957191058993,0.4730898056805133,0.0584695897996425,0.3016575276851654,-0.0869376063346862
1783201805587150800,4.86815087890625,-2.719185017167032,1.943744542044401,0.537477814438939,0.0444304794073104,0.3278356194496155,-0.2012102752923965
1783201805597087700,4.878087646484375,-2.6560709738671777,1.940064976748824,0.510662872749567,0.0416306965053081,0.3410161435604095,-0.3076211512088775
1783201805607025000,4.88802490234375,-2.5894056678265334,1.9961504365861416,0.4914280109256506,0.0318792164325714,0.3210603892803192,-0.4110211431980133
1783201805616962000,4.897962158203125,-2.5317031281813978,2.025353150194883,0.5382043751478195,0.0131161818280816,0.3082881271839142,-0.5199207663536072
1783201805626899000,4.90789892578125,-2.497984398452937,1.975887985280156,0.67957099416852,-0.0107535328716039,0.3358802795410156,-0.6283045411109924
1783201805636835800,4.9178359375,-2.4576444970190523,1.8759248052716253,0.8031938667058944,-0.0224842242896556,0.3939896523952484,-0.7376880645751953
1783201805646772700,4.927772705078125,-2.284692068645358,1.7279191866278647,0.804530083745718,-0.0238050930202007,0.4695448577404022,-0.8303631544113159
1783201805656710000,4.9377099609375,-1.926946551978588,1.518797712764144,0.730002373766899,-0.0139034623280167,0.5601506233215332,-0.8901737332344055
1783201805666647000,4.94764697265625,-1.4639849032111465,1.2614964376211166,0.5963958673536777,0.0030971709638834,0.6386163830757141,-0.9360305666923524
1783201805676584000,4.957583984375,-1.0213923809945582,1.0255103377074002,0.3306044117629528,0.0192788038402795,0.7023127675056458,-0.970814883708954
1783201805686520800,4.967520751953125,-0.5697482450552285,0.7909498866826296,0.0608633417636156,0.0179604310542345,0.7378217577934265,-1.0114505290985107
1783201805696458000,4.9774580078125,-0.1245278585530817,0.4457423645496368,-0.2149672772824764,-0.0075997896492481,0.746528685092926,-1.033689260482788
1783201805706395000,4.987394775390625,0.3370688585367054,0.0467103132486343,-0.4883849899679422,-0.0538477785885334,0.7543315291404724,-1.0442473888397217
1783201805716332000,4.99733203125,0.7604604942642151,-0.2852186251163482,-0.8123790436804295,-0.1108098626136779,0.7518249154090881,-1.038459062576294
1783201805726269000,5.00726904296875,1.1503134330052882,-0.6412900710910558,-1.240644788250327,-0.1599088758230209,0.711402177810669,-1.007204294204712
1783201805736205800,5.017205810546875,1.6427473330378533,-0.9523457327753304,-1.7974036417424677,-0.1967079043388366,0.6043705344200134,-0.9378433227539062
1783201805746143000,5.02714306640625,2.270867395301908,-1.1625433114379644,-2.4511767623096703,-0.2045282125473022,0.4279981851577759,-0.8437389135360718
1783201805756079900,5.037079833984375,2.862185082608461,-1.3081886306911703,-3.148725311717391,-0.1758076250553131,0.195882648229599,-0.730459988117218
1783201805766017800,5.047017822265625,3.293962634691596,-1.5457067624777554,-3.712382108029723,-0.1190474927425384,-0.065475545823574,-0.5810719728469849
1783201805775955000,5.056954833984375,3.55723772354722,-1.8405676606863737,-3.9811867739617823,-0.0521821752190589,-0.300138920545578,-0.396130621433258
1783201805785892000,5.06689208984375,3.6792511150613434,-1.9752344898074865,-3.999601551574469,0.0100941034033894,-0.5116176605224609,-0.1819606274366378
1783201805795828700,5.076828857421875,3.633723581856489,-1.8927660499572756,-3.837605401501059,0.0707260221242904,-0.6943152546882629,0.017566330730915
1783201805805766000,5.086765869140625,3.395452293615043,-1.6167302637279033,-3.5791339135348794,0.1354772299528122,-0.8373734951019287,0.1837343573570251
1783201805815703000,5.096703125,2.9620091464072464,-1.2564718874573706,-3.2397529055982828,0.2065684497356414,-0.9556167721748352,0.3068629205226898
1783201805825640000,5.106639892578125,2.481234631443024,-0.8876911820352077,-2.882898200291395,0.2673380076885223,-1.0695041418075562,0.4070331454277038
1783201805835577000,5.1165771484375,2.026817085267603,-0.5701432357221842,-2.50153215406239,0.3119909763336181,-1.1737937927246094,0.4804727435111999
1783201805845513700,5.126513671875,1.5517907585665582,-0.3098018622308969,-2.072925048708916,0.3352543711662292,-1.2667021751403809,0.5255377888679504
1783201805855451000,5.136450927734375,1.0861884590972215,-0.040324996125698,-1.6271528735429048,0.3301922380924225,-1.353520393371582,0.5444230437278748
1783201805865388000,5.146387939453125,0.64528052896671,0.2467705287784337,-1.2031962243437766,0.3122942447662353,-1.4326398372650146,0.53255295753479
1783201805875325000,5.156324951171875,0.2085151785336434,0.54223173096776,-0.7974684747964144,0.2765594124794006,-1.4863920211791992,0.4953646063804626
1783201805885262000,5.166261962890625,-0.2165378876000642,0.793289727807045,-0.4004536085367202,0.2310771346092224,-1.5297272205352783,0.4260559976100921
1783201805895198700,5.17619873046875,-0.5944198911055922,0.9717758249104024,-0.0638327129632234,0.1819753646850586,-1.5582726001739502,0.3424849212169647
1783201805905135900,5.186135986328125,-0.9041761606290936,1.108225445795059,0.2336182017385959,0.1262256801128387,-1.582015872001648,0.2454167902469635
1783201805915073000,5.196072998046875,-1.1723002969510852,1.2123130122572183,0.4939730192333459,0.0711832046508789,-1.589625597000122,0.1352841556072235
1783201805925010000,5.206010009765625,-1.4143899744369088,1.3076204754143952,0.6895546280443668,0.0256123095750808,-1.5768295526504517,0.0222357511520385
1783201805934947000,5.215947021484375,-1.6346686560004948,1.428355809816718,0.9199135357260704,-0.0148123446851968,-1.5488662719726562,-0.1034358888864517
1783201805944883700,5.2258837890625,-1.8200728619292377,1.521540873992443,1.1473697077035905,-0.0593023113906383,-1.505233883857727,-0.2360714823007583
1783201805954822000,5.23582177734375,-1.9305469145581124,1.5423036760360005,1.342156951266527,-0.1005858331918716,-1.4537115097045898,-0.3707810938358307
1783201805964758000,5.245758056640625,-1.9854732674881812,1.5403776764094828,1.5222797096610068,-0.1409491002559662,-1.3928178548812866,-0.4936482310295105
1783201805974696000,5.255696044921875,-1.9955624075651168,1.4935691634833812,1.6607196275800469,-0.1715136617422104,-1.340038537979126,-0.6054325699806213
1783201805984633000,5.265633056640625,-1.983653943106532,1.4715706821650263,1.717834430465102,-0.1884640902280807,-1.2808235883712769,-0.7083669304847717
1783201805994570000,5.275570068359375,-1.954435155145824,1.4664064312696456,1.784689706119895,-0.1858685612678527,-1.22567617893219,-0.797855794429779
1783201806004507000,5.2855068359375,-1.926651660685241,1.4093413127452137,1.872704674181342,-0.1758121848106384,-1.16533362865448,-0.873598575592041
1783201806014443800,5.29544384765625,-1.8874974619045848,1.3543255279660225,1.9964111333489416,-0.148850604891777,-1.0961894989013672,-0.9361868500709534
1783201806024381000,5.305380859375,-1.8335832086265087,1.3225865738779303,2.108309081301093,-0.1249059438705444,-1.0229058265686035,-0.9903802871704102
1783201806034318000,5.315318115234375,-1.794984305641055,1.30212889226079,2.251689962753653,-0.0962692499160766,-0.933070421218872,-1.0338715314865112
1783201806044255000,5.3252548828125,-1.759190815465152,1.2780226250082254,2.420920155733824,-0.0752802118659019,-0.8345657587051392,-1.0799604654312134
1783201806054191900,5.33519189453125,-1.7363626053243877,1.2951806805580854,2.566356800672412,-0.0718870759010315,-0.7180319428443909,-1.1420468091964722
1783201806064128800,5.345128662109375,-1.7271587236493824,1.3475778072714806,2.689056713145971,-0.0924477502703666,-0.5899608135223389,-1.2352302074432373
1783201806074066000,5.35506591796875,-1.6840683544635773,1.361974581414461,2.717373291569948,-0.1416019797325134,-0.4622630178928375,-1.3606369495391846
1783201806084003000,5.365003173828125,-1.492891556482762,1.2901912017077206,2.649006442308426,-0.2201450318098068,-0.3320204317569732,-1.4841790199279783
1783201806093940000,5.37493994140625,-1.2106681676596402,1.108943823197484,2.433969606921077,-0.3604310154914856,-0.2823812663555145,-1.6011836528778076
1783201806103876900,5.384876953125,-0.8712515038877725,0.8036480402141809,1.9763351445257664,-0.6035529375076294,-0.4491417109966278,-1.690420389175415
1783201806113813800,5.394813720703125,-0.3504121050387621,0.4449579361736774,1.3350304603874683,-0.9626311659812928,-0.8194718360900879,-1.7365649938583374
1783201806123751000,5.4047509765625,0.3407537575945258,0.2035509802550077,0.7435580209106206,-1.3737897872924805,-1.2364425659179688,-1.7324272394180298
1783201806133688000,5.41468798828125,1.069534188351035,0.0831061532318592,0.3079875062853098,-1.7396620512008667,-1.5347014665603638,-1.690257906913757
1783201806143626000,5.4246259765625,1.6578097314827145,-0.0584714781910181,-0.0145364748746156,-1.976505160331726,-1.576569676399231,-1.60430908203125
1783201806153563100,5.434563232421875,2.06126091440022,-0.3233218535393476,-0.3726309511095285,-2.035733461380005,-1.3739193677902222,-1.493130445480347
1783201806163499800,5.444499755859375,2.339824319411069,-0.6267676247417926,-0.9610755671977996,-1.9053797721862795,-1.0076981782913208,-1.3471345901489258
1783201806173437000,5.45443701171875,2.565411044254899,-0.92929511205554,-1.7777303885012865,-1.6136547327041626,-0.5819416046142578,-1.1586672067642212
1783201806183373800,5.464373779296875,2.822641884510219,-1.1684715324431658,-2.724261297518015,-1.2236928939819336,-0.1984947621822357,-0.9346222281455994
1783201806193311000,5.47431103515625,2.992854366526008,-1.2027245151787995,-3.5453695910990235,-0.7972636818885803,0.0919322669506073,-0.7019733190536499
1783201806203248000,5.484248046875,2.9637878465175627,-1.0469646291464567,-4.185467237535119,-0.3799965381622314,0.2525785863399505,-0.4948922991752624
1783201806213184800,5.494184814453125,2.6729896677032112,-0.8770148897200822,-4.6094747401386496,-0.0131490407511591,0.2887698709964752,-0.3421259224414825
1783201806223122000,5.504121826171875,2.224466586393863,-0.6810258691519498,-4.735146946421265,0.2847223877906799,0.2505556344985962,-0.2438024878501892
1783201806233058800,5.514058837890625,1.7578335556373,-0.4495604615330696,-4.595740813818574,0.5148885250091553,0.1513632535934448,-0.1974240690469741
1783201806242996000,5.523995849609375,1.309473848196119,-0.2241851874828338,-4.289237408611178,0.6817916035652161,0.0189290959388017,-0.1927989870309829
1783201806252933000,5.53393310546875,0.9112199416607618,0.0076882164150476,-3.884236219772696,0.8128076791763306,-0.1411290168762207,-0.2159384042024612
1783201806262869800,5.543869873046875,0.6059849489539861,0.2175438497722149,-3.392606548795104,0.904726266860962,-0.2987081408500671,-0.2528006136417389
1783201806272807000,5.553806884765625,0.3813791979715228,0.3915869959920645,-2.7925737862437963,0.970087707042694,-0.4080967009067535,-0.2980120480060577
1783201806282743800,5.563743896484375,0.1896590868942439,0.5573731859982013,-2.1116186442404983,1.0119736194610596,-0.4700809717178345,-0.3478856086730957
1783201806292681000,5.573680908203125,0.0012263269245624,0.6788309894561767,-1.437725695708394,1.0259597301483154,-0.4836106300354004,-0.3921321630477905
1783201806302618000,5.5836181640625,-0.1657875051803886,0.727486591553688,-0.8658236336201429,1.0124905109405518,-0.4842567145824432,-0.4356652498245239
1783201806312554800,5.5935546875,-0.2912054444409906,0.7553530881226063,-0.4455044641405343,0.9643169045448304,-0.5308537483215332,-0.4733631014823913
1783201806322493000,5.603492919921875,-0.402936365263164,0.7717454199969768,-0.1847118397504091,0.8669278621673584,-0.6601007580757141,-0.5078508853912354
1783201806332429800,5.613429931640625,-0.4849263739466667,0.8045832752376795,0.0071089552223682,0.72663813829422,-0.8382555842399597,-0.5404242873191833
1783201806342367000,5.623366943359375,-0.5421158495031297,0.8143588193207979,0.2447983519226312,0.5788415670394897,-1.0218664407730105,-0.567304253578186
1783201806352303900,5.633303955078125,-0.6070341657459736,0.7899889326959848,0.4548819488167762,0.4349360466003418,-1.1914511919021606,-0.5948561429977417
1783201806362241000,5.643240966796875,-0.683116119429469,0.7914613433361053,0.6522650540918111,0.3120796978473663,-1.318929672241211,-0.6336920857429504
1783201806372178000,5.653177978515625,-0.7370987617686391,0.8049825036883353,0.824634714141488,0.2241098880767822,-1.388485074043274,-0.6644725799560547
1783201806382114800,5.66311474609375,-0.7667141478314995,0.8039233500242233,1.0137117633640766,0.1625871360301971,-1.403814435005188,-0.6986624002456665
1783201806392052000,5.673052001953125,-0.786632461874932,0.8172761680722236,1.20869189915061,0.1218988299369812,-1.3734298944473269,-0.7271212339401245
1783201806401988900,5.68298876953125,-0.7628495813578366,0.789136115258932,1.4120003028213977,0.0997497513890266,-1.30060613155365,-0.7499602437019348
1783201806411925800,5.69292578125,-0.7071583815351128,0.7314256845682859,1.5960183150887488,0.0926878452301025,-1.179546356201172,-0.7539128661155701
1783201806421863000,5.70286279296875,-0.6670800536468625,0.6518932981699704,1.7803168978631496,0.0994200333952903,-1.023126244544983,-0.7439757585525513
1783201806431799800,5.7127998046875,-0.698785982248187,0.5384837766110897,1.911204208445549,0.1105174198746681,-0.8466178178787231,-0.7283341884613037
1783201806441737000,5.722737060546875,-0.7569866806738078,0.4603384606570005,1.9630700047612188,0.1280885487794876,-0.6735252141952515,-0.7134190201759338
1783201806451674000,5.732674072265625,-0.876695594637841,0.4701660271883011,1.902328243550658,0.1509493887424469,-0.5422382950782776,-0.7206761240959167
1783201806461610800,5.74261083984375,-0.9868081204779444,0.5410854835420846,1.7496897044092417,0.1665065437555313,-0.4682680368423462,-0.7467944622039795
1783201806471548000,5.7525478515625,-1.0108815083742142,0.6788830119043588,1.623333022993803,0.1612308323383331,-0.4222491383552551,-0.787331759929657
1783201806481484800,5.76248486328125,-1.0208030367992815,0.8626537714123725,1.620374757710099,0.1155823618173599,-0.3858281373977661,-0.8560431003570557
1783201806491422000,5.772421875,-1.0506107305638492,0.9031377574920654,1.6337129627108573,0.0134658422321081,-0.3483854234218597,-0.9436358213424684
1783201806501359900,5.78235986328125,-1.0745787583895028,0.8579255738466978,1.4830314028561111,-0.1070493012666702,-0.3364783525466919,-1.0414708852767944
1783201806511297000,5.792297119140625,-0.9925628846123814,0.7747580458164215,1.045749992659688,-0.1966138035058975,-0.3405183553695678,-1.131733775138855
1783201806521234000,5.80223388671875,-0.809830235980451,0.708939127472043,0.4635165061712264,-0.2047965377569198,-0.3355533480644226,-1.1962908506393433
1783201806531170800,5.8121708984375,-0.5858318032413721,0.7202291677713394,-0.1093652146041393,-0.1567158252000808,-0.3204295039176941,-1.2443926334381104
1783201806541108000,5.82210791015625,-0.3592966916315257,0.8000660900741815,-0.5230021298408508,-0.1138369888067245,-0.2733156979084015,-1.2935714721679688
1783201806551044900,5.832044921875,-0.1335137135632336,0.8615016787678003,-0.7267436642318964,-0.1245322376489639,-0.2121724635362625,-1.3435616493225098
1783201806560980700,5.841980712890625,0.0542727113269269,0.7351970198005437,-0.9443225853174924,-0.1579377949237823,-0.1615874916315078,-1.368179440498352
1783201806570918000,5.85191796875,0.2948066838033497,0.3705675888389348,-1.3629963256776332,-0.1786627769470214,-0.1339649260044098,-1.3467735052108765
1783201806580854800,5.861854736328125,0.5610926449127495,0.141499890011549,-1.9269757780730723,-0.1321976780891418,-0.1235312595963478,-1.2755025625228882
1783201806590792000,5.8717919921875,0.7833852966472507,0.101971012699604,-2.503951490163803,-0.0190911069512367,-0.1443025767803192,-1.166797399520874
1783201806600729000,5.88172900390625,0.9059085373796522,0.1437730956405401,-3.070857643660903,0.1353839337825775,-0.2296061366796493,-1.0577421188354492
1783201806610665700,5.891665771484375,0.9022280953012406,0.3023638211846351,-3.46851957565248,0.2952247262001037,-0.3495543897151947,-0.9617090821266174
1783201806620603000,5.901602783203125,0.7558036083690821,0.5071855520278216,-3.564457153406739,0.4156118631362915,-0.5013354420661926,-0.901819944381714
1783201806630539800,5.911539794921875,0.4884555709861218,0.6572428425043821,-3.487864327591657,0.4961194992065429,-0.6594198942184448,-0.8841493129730225
1783201806640477000,5.921476806640625,0.1539918534465134,0.7865449297219514,-3.190947665897012,0.5542994141578674,-0.7793187499046326,-0.9010891914367676
1783201806650414000,5.9314140625,-0.1412235572881996,0.980306921890378,-2.8164702101379637,0.6107432246208191,-0.8480690717697144,-0.9415900111198424
1783201806660350700,5.941350830078125,-0.3491431080162525,1.181419861343503,-2.4012451489269733,0.6604275703430176,-0.8605189919471741,-0.9891295433044434
1783201806670288000,5.951287841796875,-0.503463901156187,1.289118019518256,-2.031293061637878,0.7217375636100769,-0.8502000570297241,-1.039374589920044
1783201806680225800,5.961225830078125,-0.6060808105438947,1.358281572115421,-1.706861201030016,0.7826332449913025,-0.8095523118972778,-1.0783902406692505
1783201806690163000,5.971162841796875,-0.6224480079770088,1.4249930553853511,-1.403254686307907,0.8519108295440674,-0.7473999857902527,-1.1028223037719729
1783201806700099800,5.981099853515625,-0.6308467107489705,1.4533108028531074,-1.1423539253681898,0.9241957664489746,-0.6810569763183594,-1.1177746057510376
1783201806710037000,5.991037109375,-0.6372419647440314,1.4749579865157605,-0.9438602285027504,0.974161684513092,-0.6590651273727417,-1.1327277421951294
1783201806719974000,6.000973876953125,-0.6866580298200249,1.4970996756970882,-0.7888081984788179,0.9893872141838074,-0.7042516469955444,-1.156307339668274
1783201806729910800,6.010910888671875,-0.7692568180516361,1.544184082955122,-0.609454086369276,0.9679208397865297,-0.78423672914505,-1.187696933746338
1783201806739848000,6.020847900390625,-0.7900561527132988,1.5860861191391944,-0.3641495384901762,0.9318210482597352,-0.8788685202598572,-1.2157793045043943
1783201806749784800,6.030784912109375,-0.790613494335115,1.578707114803791,-0.1193698912680149,0.900667130947113,-0.9529240727424622,-1.2442277669906616
1783201806759722000,6.040721923828125,-0.8156333693012595,1.610401060706377,0.1769809532374143,0.8753290176391602,-0.978958785533905,-1.2727761268615725
1783201806769659000,6.050658935546875,-0.8682491072013974,1.6582488535523414,0.4914847095489502,0.8633343577384949,-0.9440907835960388,-1.3173140287399292
1783201806779595800,6.060595703125,-0.9183072695732116,1.7486171067416667,0.816544346666336,0.8628968000411987,-0.8509517908096313,-1.389170527458191
1783201806789533000,6.070532958984375,-0.928581118567288,1.7916145369470118,1.1127215881705284,0.8534181118011475,-0.7496962547302246,-1.4816086292266846
1783201806799469800,6.0804697265625,-0.931394641618058,1.6930401809483766,1.2512719807267187,0.8125960826873779,-0.6923536062240601,-1.576945185661316
1783201806809407000,6.090406982421875,-0.8934259262949228,1.6027087526381014,1.342632752084732,0.7447640299797058,-0.6768167614936829,-1.6722451448440552
1783201806819344000,6.10034375,-0.7681701918587088,1.549157195192575,1.4333371053606272,0.6642858386039734,-0.6741248369216919,-1.7462762594223022
1783201806829280800,6.11028076171875,-0.5866758528500795,1.511982772052288,1.4878689060151575,0.5793424248695374,-0.6980499029159546,-1.8030474185943604
1783201806839218000,6.120218017578125,-0.4200414850493892,1.47186294310987,1.446802151611447,0.4931171238422394,-0.7484023571014404,-1.83491849899292
1783201806849155000,6.130155029296875,-0.2991697013184428,1.3874679191112518,1.402320620328188,0.409426748752594,-0.7873414754867554,-1.872148394584656
1783201806859092000,6.140092041015625,-0.1801496464014053,1.3412614637315272,1.4164374084860083,0.3414453268051147,-0.8012219667434692,-1.9119105339050293
1783201806869028900,6.15002880859375,-0.0755319185853004,1.2221370716571809,1.4188696040689943,0.2778200209140777,-0.7829034328460693,-1.9552545547485352
1783201806878965800,6.1599658203125,0.0796627347797155,1.1557190183758734,1.3845488167941569,0.2141033560037613,-0.7469311952590942,-1.996237874031067
1783201806888904000,6.169904052734375,0.2772384400174021,1.0412708014190195,1.2908593102276325,0.1634625494480133,-0.7073137760162354,-2.0150763988494877
1783201806898840800,6.1798408203125,0.5198804906889796,0.8719558527648449,1.130682192274928,0.1195012405514717,-0.6871445775032043,-1.9954519271850584
1783201806908778000,6.189778076171875,0.7706345361456275,0.7175438742101192,0.8527759359985589,0.0785375609993934,-0.7148441672325134,-1.9510610103607176
1783201806918715000,6.19971484375,0.975531889508292,0.6693821931093931,0.5685469064414501,0.0175227709114551,-0.7764593362808228,-1.9138176441192627
1783201806928651800,6.20965185546875,1.1424103317305443,0.6407412050366401,0.330210444009304,-0.0681548491120338,-0.9060466289520264,-1.9098159074783323
1783201806938589000,6.2195888671875,1.2980167807668446,0.4931833301603794,0.1311176122069358,-0.1736522912979126,-1.0409233570098877,-1.8963749408721924
1783201806948525800,6.22952587890625,1.5011089113384484,0.3371288450956344,0.0731336252719163,-0.2779318392276764,-1.1444202661514282,-1.854796290397644
1783201806958463000,6.239462890625,1.676241314099729,0.1774468171834945,-0.0103185649186372,-0.3689222633838653,-1.1954002380371094,-1.782968282699585
1783201806968400100,6.249400146484375,1.8468173687309024,0.0451700980693101,-0.1989367644578218,-0.4396763145923614,-1.2115694284439087,-1.6887905597686768
1783201806978336800,6.259336669921875,1.969897366563231,0.0368383230537176,-0.5030851309716701,-0.4949284195899963,-1.2260781526565552,-1.5851688385009766
1783201806988274000,6.26927392578125,2.0114972049303352,0.1143178685754537,-0.7441846283763647,-0.5223051905632019,-1.199294924736023,-1.4980413913726809
1783201806998210800,6.2792109375,1.927690940605104,0.1394295134782791,-0.9816226806640624,-0.5165995955467224,-1.1340806484222412,-1.4481345415115356
1783201807008148000,6.28914794921875,1.7982392157837748,0.1085509756118059,-1.216812077242136,-0.4787324368953705,-1.0418533086776731,-1.429906725883484
1783201807018085000,6.299085205078125,1.6929885968916116,0.0172001411259174,-1.4707932680517437,-0.408169537782669,-0.9502589106559752,-1.411308765411377
1783201807028021800,6.309021728515625,1.6414723446659742,-0.1076046346724033,-1.7676660906046628,-0.3008308410644531,-0.8768041133880615,-1.3766801357269287
1783201807037959000,6.318958984375,1.6560288394153118,-0.1335872171908617,-2.076210061728954,-0.1902772039175033,-0.9024225473403932,-1.3256144523620603
1783201807047895800,6.328895751953125,1.7116399597391485,-0.0792249278843402,-2.402304887112975,-0.0954050123691558,-1.0370759963989258,-1.2472668886184692
1783201807057833000,6.3388330078125,1.7513439013570546,0.0087573069512844,-2.531716864445805,-0.0209519825875759,-1.1965678930282593,-1.1508240699768066
1783201807067770000,6.34877001953125,1.7093886736810209,0.114708913719654,-2.3665385772049428,0.020108101889491,-1.3125557899475098,-1.0698330402374268
1783201807077706800,6.358706787109375,1.5136376996524632,0.2246019515901803,-2.008777862969041,0.0373754873871803,-1.349218249320984,-1.043911337852478
1783201807087644000,6.368643798828125,1.2069780809700488,0.2208510746240615,-1.625934729924798,0.070609338581562,-1.304852843284607,-1.061564326286316
1783201807097580800,6.378580810546875,0.9768702254399656,0.1030126307070255,-1.3974386935055254,0.1376873105764389,-1.192196011543274,-1.0847198963165283
1783201807107518000,6.38851806640625,0.9286147285759448,0.0369242477715015,-1.3132891687005757,0.2463565319776535,-1.0758057832717896,-1.09394109249115
1783201807117455000,6.398455078125,0.9991438704378902,0.0354682037442922,-1.2947270915716886,0.371907889842987,-0.9959976077079772,-1.0805587768554688
1783201807127391700,6.408391845703125,1.105394898544252,0.05904606320858,-1.255631929501891,0.4843023419380188,-0.965002715587616,-1.0577861070632937
1783201807137329000,6.418328857421875,1.1854434177711606,0.1070060842573642,-1.023952002349496,0.5765077471733093,-0.9352368116378784,-1.0201295614242554
1783201807147265800,6.428265869140625,1.1977585633344947,0.0868336493223905,-0.6826467483520507,0.6443197727203369,-0.8886938095092773,-0.9826809763908386
1783201807157203000,6.438202880859375,1.1492027683496475,0.1124351235687732,-0.3113081751406192,0.682800829410553,-0.822173535823822,-0.9776530861854552
1783201807167140000,6.44814013671875,1.0769129004254936,0.15242694221735,5.90367108583e-05,0.6970654726028442,-0.7716515064239502,-0.980376958847046
1783201807177076700,6.45807666015625,1.0378222684003413,0.0573211391121149,0.1985433812260627,0.6899107694625854,-0.7501319646835327,-0.9807031154632568
1783201807187014000,6.468013916015625,1.0708344572946429,-0.0184095169156789,0.3593079436779022,0.6740815043449402,-0.7431513071060181,-0.959850549697876
1783201807196951000,6.477950927734375,1.138826628024876,-0.0830593914806842,0.5499240390360355,0.6638231873512268,-0.7224302291870117,-0.9068214297294616
1783201807206888000,6.487887939453125,1.1987900983393192,-0.161888013523817,0.8007447199881076,0.6545546054840088,-0.6852591633796692,-0.8316782116889954
1783201807216825000,6.4978251953125,1.182794072306156,-0.1223462767302989,1.0543278513908385,0.6290900111198425,-0.6301968097686768,-0.749525249004364
1783201807226761700,6.50776171875,1.0620470474660395,0.0102384854197502,1.303400227370858,0.5838937759399414,-0.585211455821991,-0.6782974004745483
1783201807236699000,6.517698974609375,0.8260366898939013,0.0539139610171318,1.460247324118018,0.5276108980178833,-0.5518434643745422,-0.6205021142959595
1783201807246636000,6.527635986328125,0.5755357424154878,0.0149380414128303,1.5852257029175758,0.4633727967739105,-0.5142247080802917,-0.568003237247467
1783201807256573000,6.537572998046875,0.3883814779490232,0.0687654931902885,1.7078098800569772,0.3941638767719269,-0.4723078906536102,-0.5269027948379517
1783201807266510000,6.547510009765625,0.2036616010226309,0.2031780552893877,1.8486936839967965,0.3115741908550262,-0.4143044948577881,-0.5078726410865784
1783201807276446700,6.55744677734375,-0.007457184138149,0.3363566916793584,1.937963036033511,0.2107438147068023,-0.349515438079834,-0.5356796383857727
1783201807286383900,6.5673837890625,-0.1905361619897186,0.4468102860420942,1.964306268557906,0.0933862999081611,-0.290221244096756,-0.6224662065505981
1783201807296321000,6.577321044921875,-0.3008233137443661,0.4228536563932895,1.803406681549549,-0.0047136675566434,-0.2653367221355438,-0.7126904726028442
1783201807306258000,6.5872578125,-0.2216219128660857,0.2870639607220888,1.5225322231173517,-0.066095270216465,-0.2501471042633056,-0.777342677116394
1783201807316195000,6.597195068359375,-0.0394157723262906,0.2195756478607654,1.1927169159054756,-0.0897832512855529,-0.25824174284935,-0.8145325779914856
1783201807326131700,6.607131591796875,0.1246767655044794,0.1494564019739628,0.8643447932392359,-0.0774000883102417,-0.2860768139362335,-0.8215036392211914
1783201807336068900,6.61706884765625,0.2857958404824137,0.1178331832200288,0.5902765076905488,-0.0518538355827331,-0.3061160147190094,-0.8032962083816528
1783201807346006000,6.627006103515625,0.4531505949795246,0.1864677435070276,0.479526560729742,-0.0405228845775127,-0.3188198208808899,-0.7829070687294006
1783201807355943000,6.63694287109375,0.5394143354594707,0.2483434771835803,0.4586737423151731,-0.0634946823120117,-0.3203261792659759,-0.7686040997505188
1783201807365880000,6.646880126953125,0.5222843369603156,0.2086409968703985,0.5066021991819143,-0.1180551350116729,-0.2925720512866974,-0.771577775478363
1783201807375816700,6.656816650390625,0.4159571748778223,0.0807318253159523,0.4673632447272539,-0.1688957065343856,-0.2560175657272339,-0.7858669757843018
1783201807385753900,6.66675390625,0.3473576859042048,-0.0321738383740186,0.2522843237638473,-0.1901344209909439,-0.1987303346395492,-0.7921193242073059
1783201807395691000,6.67669091796875,0.3488666291624307,-0.0701508100688457,-0.0818845024824142,-0.1650847196578979,-0.1494093984365463,-0.7978936433792114
1783201807405628000,6.6866279296875,0.4035854768216609,-0.0764472798645496,-0.4685153373718261,-0.1018389016389846,-0.1313214749097824,-0.7965340614318848
1783201807415565000,6.69656494140625,0.5192389779150486,-0.0910638342380523,-0.8322685700207948,-0.0426309444010257,-0.1549521535634994,-0.7874396443367004
1783201807425501700,6.706501708984375,0.6717468764141201,0.0341039296537637,-0.9856155496925116,-0.0256652757525444,-0.2121821641921997,-0.7724109292030334
1783201807435438800,6.71643896484375,0.7668713842198253,0.1159428394287824,-1.0830845747977496,-0.0443905442953109,-0.2958645224571228,-0.7533431649208069
1783201807445376000,6.7263759765625,0.8296443589970469,0.0283002118110656,-1.2062550273925066,-0.0895617455244064,-0.3967961966991424,-0.7454996109008789
1783201807455313000,6.73631298828125,0.9336351870864628,-0.0466471848845481,-1.3880688076138497,-0.126706913113594,-0.4766813218593597,-0.7368305921554565
1783201807465250000,6.74625,1.056326916253567,-0.0985959833085537,-1.5576315935492515,-0.131973847746849,-0.5326183438301086,-0.724837064743042
1783201807475187000,6.75618701171875,1.134690258872509,-0.239157131165266,-1.7586954331636429,-0.0770599395036697,-0.5507038831710815,-0.7118263840675354
1783201807485123800,6.766123779296875,1.2019903556853533,-0.3704869248181581,-1.9570102663308384,0.0257958695292472,-0.5580451488494873,-0.6872960329055786
1783201807495061000,6.77606103515625,1.3280942313835025,-0.3917869024783372,-2.0811182920366527,0.1631703525781631,-0.5720716714859009,-0.6505573987960815
1783201807504998000,6.785997802734375,1.4683406142026183,-0.3712847971975803,-2.081613382077217,0.2998885214328766,-0.552108883857727,-0.6069808602333069
1783201807514935000,6.79593505859375,1.6092396157115696,-0.3068611326038837,-1.8982231463193893,0.43537238240242,-0.524090051651001,-0.5651072263717651
1783201807524872000,6.805871826171875,1.7156868970423935,-0.3164344321131706,-1.6483324396938084,0.5532974004745483,-0.4879792034626007,-0.5212239623069763
1783201807534808800,6.815808837890625,1.7829373094946146,-0.3961667249977588,-1.3862445147961378,0.6533733606338501,-0.4365038871765136,-0.4698671698570251
1783201807544746000,6.82574609375,1.9142223872229456,-0.5373673398017883,-1.0320967303603887,0.726304829120636,-0.3759143054485321,-0.3946600556373596
1783201807554683000,6.835682861328125,2.065660902924836,-0.6634680006295443,-0.6399772349268198,0.789859414100647,-0.2999408841133117,-0.2940744757652282
1783201807564620800,6.845620849609375,2.135014132875204,-0.7483119374394417,-0.3204933521151542,0.8425474166870117,-0.2308614253997802,-0.1809156835079193
1783201807574557400,6.855557373046875,2.0832202327519656,-0.7257382865816354,-0.0751338591784238,0.8931089639663696,-0.1584389507770538,-0.0698331892490387
1783201807584494600,6.86549462890625,1.9304665427982808,-0.705962742009759,0.2204430783450603,0.9348708391189576,-0.0790977999567985,0.0335169024765491
1783201807594431700,6.875431640625,1.7110487158477306,-0.5998410393714905,0.535167199409008,0.9619482755661012,-0.0149628147482872,0.1164825335144996
1783201807604368600,6.88536865234375,1.4793182275518777,-0.4771867196053266,0.7995183930635452,0.961558163166046,0.0351168662309646,0.1873990595340728
1783201807614305800,6.895305908203125,1.2181260824501514,-0.3579191196680069,1.1082435659736394,0.9431307911872864,0.0539206340909004,0.2528905868530273
1783201807624242400,6.905242431640625,0.8695467457965016,-0.1848065322965383,1.3007368533805013,0.9045642614364624,0.0230199787765741,0.2993414402008056
1783201807634179600,6.9151796875,0.4188546498849987,0.0104909988760948,1.3810638972878455,0.8687954545021057,-0.0521463938057422,0.3136939406394958
1783201807644116700,6.92511669921875,-0.1269759823575615,0.2347147648036479,1.4670762933552264,0.8493338227272034,-0.1290579587221145,0.2854300737380981
1783201807654053600,6.9350537109375,-0.7106254731237888,0.4820002573668956,1.62205175101161,0.8495739102363586,-0.1878313869237899,0.223152220249176
1783201807663990800,6.94499072265625,-1.2283756737858056,0.7056359942734242,1.828770547647774,0.8507440686225891,-0.2340923547744751,0.1408344358205795
1783201807673927400,6.954927490234375,-1.688414274713397,0.9233177912116052,2.0958269086077808,0.8282974362373352,-0.269163429737091,0.0498115047812461
1783201807683864600,6.964864501953125,-2.084644128075242,1.185188858488202,2.407318623621762,0.7618017792701721,-0.2839847207069397,-0.0438414849340915
1783201807693801700,6.9748017578125,-2.472388769425452,1.3746218815416096,2.72939018483907,0.6364983320236206,-0.2788435816764831,-0.1502191722393036
1783201807703738600,6.984738525390625,-2.7740271989449856,1.5517524723827838,3.038780835920572,0.4316517114639282,-0.2517874538898468,-0.3110075294971466
1783201807713675800,6.99467578125,-2.9268691517040133,1.7081816359788178,3.298697261998057,0.1580552160739898,-0.2518097758293152,-0.5152577757835388
1783201807723611600,7.004611572265625,-2.9715269163370133,1.6055132886648178,3.361686509874463,-0.1366898715496063,-0.2464368492364883,-0.7162178158760071
1783201807733548500,7.014548583984375,-2.754058177627623,1.1556927148908376,3.216182060396671,-0.3931114971637726,-0.2076113671064376,-0.8565230369567871
1783201807743485700,7.024485595703125,-2.215569432580471,0.7266945643931627,2.881992191362381,-0.5924373865127563,-0.1835103034973144,-0.9248911738395692
1783201807753422800,7.0344228515625,-1.5311396002039313,0.4991910461425781,2.416920856964588,-0.7466883063316345,-0.2027827352285385,-0.9376212358474731
1783201807763359500,7.044359375,-0.917562296424806,0.257960031312704,1.8814155116423965,-0.8614574670791626,-0.2495957762002945,-0.9093400239944458
1783201807773296600,7.054296630859375,-0.4062482662901282,0.0746101275652647,1.3730933568000792,-0.9420343041419984,-0.3104241788387298,-0.8701764345169067
1783201807783233500,7.064233642578125,-0.0080430212020874,-0.0284551101118326,0.886963160021603,-0.9897104501724244,-0.3749467134475708,-0.8219980001449585
1783201807793170700,7.074170654296875,0.361732832737267,-0.1250128655910491,0.5145768313229083,-1.000330090522766,-0.4202159345149994,-0.7834580540657043
1783201807803107800,7.08410791015625,0.7911381027311086,-0.2621025379449129,0.2528290981650352,-0.968502402305603,-0.4376769661903381,-0.7083268165588379
1783201807813044500,7.09404443359375,1.2910668154984712,-0.5222001658082008,0.1061018288940191,-0.9083841443061828,-0.403931975364685,-0.5899259448051453
1783201807822981600,7.103981689453125,1.6902932203277945,-0.7623422163575887,0.057042906692624,-0.836639404296875,-0.335314005613327,-0.4499249160289764
1783201807832918500,7.11391845703125,1.9151175824970008,-0.8939782994806766,0.0256762930482625,-0.7695225477218628,-0.2736448347568512,-0.3244179487228393
1783201807842855700,7.123855712890625,2.0035288563996554,-0.8906570461034774,-0.0052934302330017,-0.7188076972961426,-0.2118664532899856,-0.2360837906599044
1783201807852792800,7.133792724609375,2.014860982275009,-0.8308581187009811,-0.0414215591907501,-0.6668175458908081,-0.1329998075962066,-0.1765264719724655
1783201807862729500,7.1437294921875,2.0499206052184102,-0.7693547254681586,-0.0868055922716855,-0.6180058121681213,-0.0448001809418201,-0.1639856398105621
1783201807872666600,7.15366650390625,2.0985633478343484,-0.6730038907378911,-0.2216641445726156,-0.5733827948570251,0.0309067349880933,-0.1925460398197174
1783201807882603500,7.163603515625,2.1756074245482684,-0.6556862607121468,-0.4417810597032308,-0.5237414836883545,0.0737942829728126,-0.2121002972126007
1783201807892540700,7.173540771484375,2.365049799951911,-0.7615238857120276,-0.6716898855298757,-0.4713448584079742,0.0810889452695846,-0.2009578943252563
1783201807902477800,7.183477783203125,2.572003282126784,-0.8270937977313995,-0.8116589127123356,-0.4121667444705963,0.0703039392828941,-0.165769025683403
1783201807912414500,7.19341455078125,2.7591902798190717,-0.8853010720282792,-0.8927554796874523,-0.341185450553894,0.0646736919879913,-0.1022489964962005
1783201807922351600,7.2033515625,2.8600810960665344,-0.9773995100110768,-0.9068272596597672,-0.2642949521541595,0.0841097086668014,-0.027967307716608
1783201807932287700,7.213287841796875,2.8813211602330204,-1.0294289724558592,-0.8823626804888248,-0.1826252937316894,0.1186551824212074,0.0586662963032722
1783201807942224600,7.223224609375,2.861709574051201,-1.0707926639795302,-0.8817103540599346,-0.0909883230924606,0.1791374236345291,0.159446433186531
1783201807952161500,7.23316162109375,2.863194259651005,-1.1318500670105218,-0.885527281999588,0.0146666467189788,0.2510179579257965,0.2826443910598755
1783201807962098700,7.2430986328125,2.847487279692292,-1.1542922004431486,-0.8448901511847973,0.1172074005007743,0.3169375956058502,0.4256620109081268
1783201807972035600,7.25303564453125,2.749958048832416,-1.09130821326375,-0.7973638453781604,0.1965075135231018,0.3550696671009063,0.5587612390518188
1783201807981972700,7.26297265625,2.5260358961999416,-0.9556903670281172,-0.7020318323016166,0.2471970617771148,0.3687522113323211,0.6617864370346069
1783201807991909600,7.27290966796875,2.182904011297226,-0.7843763535112143,-0.5471861385047435,0.2766264379024505,0.3766798079013824,0.7375036478042603
1783201808001846500,7.282846435546875,1.839632425662875,-0.6721393828630448,-0.4009931222409009,0.3034377992153168,0.3888427317142486,0.7936436533927917
1783201808011783700,7.29278369140625,1.5360826095640658,-0.5047802444517612,-0.2800812622278928,0.3334753215312958,0.3943717181682586,0.8217194676399231
1783201808021720600,7.302720458984375,1.3153051846981048,-0.3347854968398809,-0.1775005931973457,0.3690783381462097,0.4012152552604675,0.8478631973266602
1783201808031657700,7.31265771484375,1.1334110327169298,-0.2454442486107349,-0.0262982243388891,0.4005600214004516,0.3860782086849212,0.875295877456665
1783201808041594600,7.3225947265625,0.9654933836400508,-0.1670306371092796,0.1447258663207292,0.4078656136989593,0.3602775037288666,0.8957958221435547
1783201808051531500,7.332531494140625,0.834400029091537,-0.0431178417146205,0.3978349504709244,0.3994281589984894,0.335841566324234,0.9046959280967712
1783201808061467600,7.342467529296875,0.6781675571113824,0.0484819990962743,0.6602051994413137,0.3760474622249603,0.3220629096031189,0.905750572681427
1783201808071404800,7.35240478515625,0.5156570277750492,0.0937292540550231,0.9231804285675288,0.3520286083221435,0.3264985382556915,0.9004887938499451
1783201808081341700,7.362341796875,0.3594382920593023,0.1447153449267149,1.162186168563366,0.3438931703567505,0.3582362532615661,0.8867782950401306
1783201808091278600,7.372278564453125,0.1991997993081808,0.2243792487502098,1.3284785545259714,0.3460928499698639,0.4084112346172333,0.8658556938171387
1783201808101215500,7.382215576171875,0.0675891428872942,0.2837935607492923,1.456638485971093,0.3597495555877685,0.4578562676906585,0.8597424030303955
1783201808111152600,7.392152587890625,-0.0276546073839068,0.3118593792825937,1.5470716210901736,0.3589736819267273,0.4612890183925628,0.8486490249633789
1783201808121089800,7.40208984375,-0.1675768728151917,0.3983674499124288,1.6173022183969616,0.3168414235115051,0.4024536609649658,0.8122752904891968
1783201808131026700,7.412026611328125,-0.3484571715787053,0.5205038832843303,1.737262184512615,0.2342108786106109,0.2912446856498718,0.7409921884536743
1783201808140963600,7.421963623046875,-0.6084650753319263,0.6671680241912603,1.8640598876938224,0.1324331164360046,0.1508074104785919,0.6301250457763672
1783201808150900500,7.431900390625,-0.9165054808482528,0.7455448108136653,2.009624835187197,0.0333013907074928,0.0317839160561561,0.4940316677093506
1783201808160837600,7.441837646484375,-1.1816960479363798,0.8574936121702194,2.1769909878611564,-0.0449574589729309,-0.0230817291885614,0.3255782127380371
1783201808170774800,7.45177490234375,-1.2886430954828858,1.0038047018557783,2.396472819958627,-0.0951692759990692,0.0010380609892308,0.1644202172756195
1783201808180711700,7.461711669921875,-1.1132546721339225,1.0800012218296526,2.676268543243408,-0.1341792643070221,0.1235440075397491,0.0179066732525825
1783201808190647600,7.4716474609375,-0.5806552773863077,1.0028887560546398,2.995737813007832,-0.1653356254100799,0.292600929737091,-0.0301502384245395
1783201808200584700,7.481584716796875,-0.0184480953603982,0.5800771852374077,3.244748814189434,-0.2214566767215728,0.4801977276802063,0.0330835916101932
1783201808210521600,7.491521484375,0.4050985117331147,0.1810328589767217,3.3139711112365124,-0.3288871049880981,0.624613344669342,0.1475242376327514
1783201808220458800,7.501458740234375,0.6414709806159138,0.0738216075360775,3.1684406505346296,-0.4780734181404114,0.6810705065727234,0.2855817079544067
1783201808230395600,7.511395751953125,0.6512061926886439,0.1142681842148304,2.891368799255788,-0.6503723859786987,0.6797694563865662,0.3957135081291199
1783201808240332500,7.52133251953125,0.4794689853236079,0.2248690780937671,2.481386607134342,-0.8290417194366455,0.6527053713798523,0.445648580789566
1783201808250269700,7.531269775390625,0.3990159769490361,0.3398386885762214,2.043191004702449,-0.9931792616844176,0.609092652797699,0.4907222688198089
1783201808260206600,7.54120654296875,0.450232953967154,0.3894342018723488,1.6043799007207151,-1.1622449159622192,0.5553431510925293,0.543800413608551
1783201808270143700,7.551143798828125,0.5316010313600301,0.3959866922557353,1.178277471664548,-1.3305222988128662,0.4863477647304535,0.587791383266449
1783201808280080600,7.56108056640625,0.5625818605571985,0.4061468517422676,0.6973515655308962,-1.498798370361328,0.3965457081794739,0.616340160369873
1783201808290017500,7.571017578125,0.5990946049183606,0.4296031306535005,0.2029991915911436,-1.6685268878936768,0.3052800595760345,0.6476784944534302
1783201808299953700,7.58095361328125,0.6803314571470022,0.4642833988904952,-0.2935001312494277,-1.8346346616744995,0.2428238689899444,0.6937626004219055
1783201808309890800,7.590890869140625,0.6936570949271321,0.5201005631804466,-0.8865279834747314,-1.954079508781433,0.2161572426557541,0.7442038655281067
1783201808319827500,7.600827392578125,0.6131283909678459,0.5505933165997267,-1.5959394046336413,-1.9800347089767456,0.2187261283397674,0.7787144184112549
1783201808329764600,7.6107646484375,0.6018582244127988,0.5707680896222591,-2.413570962014794,-1.901585817337036,0.2523861527442932,0.7990276217460632
1783201808339701800,7.62070166015625,0.5759586440026759,0.6066741002619266,-3.2061645242512222,-1.7196916341781616,0.3042733371257782,0.8162737488746643
1783201808349638700,7.630638671875,0.4814370705261826,0.5887807161748408,-3.9606747318089006,-1.4460431337356567,0.3565357625484466,0.8311241865158081
1783201808359575800,7.640575927734375,0.3914832433566451,0.5482429540812969,-4.627297397077084,-1.1163791418075562,0.3881304562091827,0.8315380811691284
1783201808369512400,7.650512451171875,0.3924474122136831,0.5697264716148376,-5.112128493955731,-0.7747477889060974,0.400900274515152,0.8287482261657715
1783201808379449600,7.66044970703125,0.425542164824903,0.6558651244103908,-5.27504058983028,-0.4659310281276703,0.3812309503555298,0.8139141798019409
1783201808389386800,7.67038671875,0.432323203267157,0.6492933448046445,-5.26108805232346,-0.1949393451213836,0.3402341306209564,0.8011116981506348
1783201808399322600,7.680322509765625,0.3931251653447747,0.5479986239314079,-5.085621010780335,0.0258148703724145,0.2969577610492706,0.788159966468811
1783201808409259500,7.690259521484375,0.361542570862174,0.4475216491818428,-4.719496372824907,0.2042291909456253,0.257574051618576,0.7723205089569092
1783201808419196700,7.70019677734375,0.3584790916383266,0.3781207806974649,-4.297709468880296,0.3515075743198395,0.2155277878046035,0.763279378414154
1783201808429133600,7.710133544921875,0.4134614125393331,0.3362485551297664,-3.906127149063349,0.4686748683452606,0.1257659941911697,0.7631750702857971
1783201808439070700,7.72007080078125,0.4985898653790354,0.3434931194305419,-3.491418220680952,0.5363545417785645,0.0224185734987258,0.7642350196838379
1783201808449007900,7.7300078125,0.5701468889839947,0.3659843527019024,-2.9974294193565845,0.5719912052154541,-0.0778676122426986,0.7652484178543091
1783201808458944500,7.739944580078125,0.6315612887591123,0.2863911760270595,-2.485295305010676,0.5891608595848083,-0.165021151304245,0.7724898457527161
1783201808468881700,7.749881591796875,0.6876938026085495,0.2572387313008308,-2.018704798221588,0.6008214354515076,-0.2348212152719497,0.7830386161804199
1783201808478818600,7.759818603515625,0.7384009304083883,0.2524883219033479,-1.5755618025153877,0.6132062077522278,-0.2582098841667175,0.7953764796257019
1783201808488754700,7.769754638671875,0.7682799358434975,0.252107798153162,-1.168435292086005,0.6418461799621582,-0.2491935342550277,0.8090046644210815
1783201808498691600,7.779691650390625,0.7573417777217925,0.2396563128590583,-0.8333616259545087,0.6930204033851624,-0.2112418711185455,0.8338945508003235
1783201808508628500,7.78962841796875,0.7250573185801505,0.2618482709228992,-0.5142682037651538,0.7588193416595459,-0.1442710757255554,0.8673846125602722
1783201808518565600,7.799565673828125,0.6500996927514672,0.2974935847997665,-0.2124070714056491,0.8181532621383667,-0.071431741118431,0.9061970114707948
1783201808528502800,7.809502685546875,0.5790624552369117,0.3547761454671621,0.1195242050468921,0.8532809615135193,-0.0113216340541839,0.9351606369018556
1783201808538439700,7.819439697265625,0.4849244742505252,0.40616088026762,0.4215320524007082,0.8514143824577332,0.0227212887257337,0.956932783126831
1783201808548376600,7.82937646484375,0.3938900122374296,0.4015840738713741,0.7677075427830219,0.8079739212989807,0.0486203022301197,0.9680050611495972
1783201808558313700,7.839313720703125,0.3010992080762982,0.352142874354124,1.1764204456210137,0.7311071157455444,0.0892209932208061,0.9766768217086792
1783201808568250600,7.849250732421875,0.2289130927875637,0.3545522735834121,1.5552444061517714,0.6307050585746765,0.1262241154909134,0.9826458096504213
1783201808578186800,7.859186767578125,0.1558832201510667,0.3754068455636501,1.7990508244276049,0.5266742706298828,0.1700759977102279,0.9901860356330872
1783201808588123600,7.86912353515625,0.0523212849982082,0.3794511525183915,1.9272832365870476,0.4347092807292938,0.2154452502727508,1.005779266357422
1783201808598060500,7.879060546875,-0.0706348672587424,0.4121861319065094,2.0213877536952496,0.3538423776626587,0.2687036693096161,1.007493495941162
1783201808607997700,7.888997802734375,-0.2115910788476467,0.5041279180228709,2.0758874056458474,0.2890437245368957,0.3385364413261413,0.9841644763946532
1783201808617934600,7.8989345703125,-0.372204834651947,0.5631581991404294,2.078414293774962,0.2332281619310379,0.4093600213527679,0.9328922629356384
1783201808627871700,7.908871826171875,-0.5212345356464385,0.5521025521188974,2.0061305633306503,0.18864107131958,0.459658533334732,0.8625490069389343
