time,seconds_elapsed,ax,ay,az,gx,gy,gz
1783201302633336600,0.095336669921875,0.7857531948223709,-0.7859779434889554,0.1793424216717481,0.8001973628997803,0.1949031800031662,0.3046161234378814
1783201302643273500,0.1052734375,0.7255573770567775,-0.6300032456621527,0.5764899744004011,0.7628298997879028,0.2417572438716888,0.3393349647521972
1783201302653209600,0.115209716796875,0.6396342667080461,-0.4076867746606469,0.9701111065685748,0.6777262091636658,0.2983003854751587,0.3611672818660736
1783201302663146800,0.125146728515625,0.5513591864056885,-0.2403071779832243,1.2739058373391627,0.5706119537353516,0.3327682614326477,0.3793759346008301
1783201302673083600,0.135083740234375,0.4713295180097222,-0.1713373943924903,1.4405086044251918,0.4556959569454193,0.3358820378780365,0.3876274526119232
1783201302683019500,0.14501953125,0.4361332630746066,-0.0703369802907109,1.4479916536569597,0.3349944055080414,0.2989566624164581,0.4016420841217041
1783201302692956700,0.154956787109375,0.4553301309756934,0.0708957832172512,1.5474837090224027,0.2004110217094421,0.270163357257843,0.4075430929660797
1783201302702893800,0.164893798828125,0.4582778748653829,0.1024783776998519,1.77733232909441,0.0333211570978164,0.2745969295501709,0.4099271893501282
1783201302712830500,0.17483056640625,0.4678092349290847,-0.0898328311383724,1.9382038590520616,-0.1413755416870117,0.2893923819065094,0.4410869777202606
1783201302722766600,0.1847666015625,0.5396570581741631,-0.3618056057125329,1.839826486930251,-0.2942839562892914,0.3006956279277801,0.4842304289340973
1783201302732703700,0.194703857421875,0.528565024664998,-0.6462573381096124,1.5482716445297002,-0.4156703054904938,0.3358898162841797,0.5078023076057434
1783201302742640600,0.204640625,0.5829674998514354,-0.970573171122372,1.1839128472030165,-0.4913012385368347,0.3889017105102539,0.5260451436042786
1783201302752576500,0.214576416015625,0.9283964096501468,-1.325280635267496,0.6593290011286735,-0.5074130892753601,0.3910569846630096,0.5709311366081238
1783201302762513700,0.224513671875,1.2972763376630845,-1.784592675486207,0.0766238054752349,-0.4835828244686126,0.4077099859714508,0.6341726183891296
1783201302772450600,0.234450439453125,1.5579552725456651,-2.206264136357605,-0.4041887034118175,-0.4610873758792877,0.4823445379734039,0.697579026222229
1783201302782386400,0.244386474609375,1.6781328269347549,-2.5400758197292683,-1.0126298133462668,-0.4178411662578583,0.5372226238250732,0.7714561820030212
1783201302792323600,0.254323486328125,1.7317574496164916,-2.841511127892137,-1.9375977098524568,-0.3243269324302673,0.5263020396232605,0.8893540501594543
1783201302802260700,0.2642607421875,1.862517188296467,-2.9635289033204315,-2.884016975188255,-0.1930544823408126,0.4114259779453277,1.042427897453308
1783201302812197600,0.27419775390625,2.063115456225723,-2.8838129770487546,-3.565395895561576,-0.0193745717406272,0.233625903725624,1.202625036239624
1783201302822133500,0.284133544921875,2.1746679517410694,-2.600646023765206,-3.822295604166389,0.1712414771318435,0.0525076277554035,1.3501697778701782
1783201302832070700,0.294070556640625,2.0701750193484125,-2.136339828521013,-3.591046469646692,0.3519590497016907,-0.083338089287281,1.4608759880065918
1783201302842007600,0.304007568359375,1.769490821813792,-1.6630024778202177,-3.095722035804391,0.5077366828918457,-0.1457491815090179,1.5466351509094238
1783201302851943700,0.313943603515625,1.3884049077004192,-1.2785311590522528,-2.3903321252465246,0.6027781963348389,-0.1331841200590133,1.6097166538238523
1783201302861880600,0.323880615234375,1.0325611330017448,-0.906322232747078,-1.697906910201907,0.6367984414100647,-0.0707297027111053,1.645476222038269
1783201302871817500,0.3338173828125,0.7902370622381567,-0.5449053340911865,-1.203800035455823,0.6281216144561768,-0.0146842775866389,1.6704498529434204
1783201302881754600,0.343754638671875,0.5286522645570337,-0.2225190078362822,-0.8621335469305514,0.6112105846405029,0.0476314648985862,1.6550947427749634
1783201302891690800,0.353690673828125,0.1816631197042763,0.132907710494101,-0.6018944647699594,0.6122681498527527,0.1319759041070938,1.5722355842590332
1783201302901627600,0.363627685546875,-0.124992699585855,0.523790649870038,-0.3664876260489225,0.6591914892196655,0.224065288901329,1.4608685970306396
1783201302911564500,0.373564453125,-0.1802548603415489,1.189448269498348,-0.0177606976181268,0.7667757272720337,0.2790923416614532,1.3518846035003662
1783201302921500700,0.383500732421875,-0.1767244759920053,1.8942849300876257,0.2265063239067792,0.9378792643547058,0.2113294750452041,1.2171918153762815
1783201302931437800,0.393437744140625,-0.196092188681662,2.378034369209409,0.4472036692738533,1.1122490167617798,0.1239583492279052,0.9855756163597108
1783201302941374500,0.40337451171875,-0.2358221415236592,2.5007670149087904,0.8731704892516136,1.2357983589172363,0.101603165268898,0.8367530107498169
1783201302951311600,0.4133115234375,-0.0052089485536329,2.7539582243844865,1.574932272440195,1.324728012084961,0.2999655306339264,0.8547608256340027
1783201302961247700,0.423247802734375,0.7977247876450418,2.4589666855335235,2.3949907647073267,1.3924630880355835,0.3847081959247589,0.9361950159072876
1783201302971184600,0.4331845703125,0.2751981663614511,2.1852520357280967,2.344922373202443,1.3521374464035034,0.3365789949893951,0.9978655576705932
1783201302981121500,0.44312158203125,-0.1799858341418206,2.474008771842718,2.7384920674443243,1.1100481748580933,0.3900864124298095,1.045630931854248
1783201302991058700,0.45305859375,-0.2328485325403511,2.4316964012920854,3.4097821400016546,0.7715619206428528,0.5357046127319336,1.0118364095687866
1783201303000994600,0.46299462890625,-0.3654572600878775,1.9463839506372809,3.419799676147103,0.4089668691158294,0.5940737128257751,0.9521611332893372
1783201303010931700,0.472931640625,-0.6470059645198285,1.5233248347997663,2.9391251144260164,0.0251289159059524,0.60977703332901,0.8993959426879883
1783201303020868600,0.48286865234375,-0.8000104143641888,1.2888824571967124,2.3012106572479007,-0.3420855700969696,0.6046973466873169,0.8302882313728333
1783201303030804700,0.4928046875,-0.6672764530017972,1.0410960293740033,1.5628607263743877,-0.6317762732505798,0.5289855003356934,0.7459304928779602
1783201303040741600,0.50274169921875,-0.3179258397147059,0.7087500346407294,0.7368325120478868,-0.8132534027099609,0.4197895526885986,0.6597577929496765
1783201303050678800,0.5126787109375,0.0895670198090374,0.1709755753427743,0.0818412478625774,-0.9192085862159728,0.3367002606391907,0.6017789244651794
1783201303060615400,0.522615478515625,0.5828615552589297,-0.502283459199965,-0.429039067029953,-0.9724197387695312,0.3268781304359436,0.4563772082328796
1783201303070551300,0.53255126953125,1.162994708467275,-0.8697706176802515,-0.7926531834691762,-1.053015947341919,0.2352773398160934,0.4164335131645202
1783201303080488400,0.542488525390625,1.8982238769717517,-1.67164200361073,-1.1066267784267665,-1.0766974687576294,0.1969985365867614,0.5411469340324402
1783201303090425600,0.552425537109375,2.941327300645411,-1.8705331753611565,-1.1948784778535366,-1.025340557098389,0.1121672615408897,0.7620236873626709
1783201303100362500,0.562362548828125,3.14500687571615,-2.4981226378798485,-1.6635732634454965,-0.875423014163971,0.048058658838272,1.0401504039764404
1783201303110298400,0.57229833984375,2.8580586503282186,-2.9916978899672624,-2.171646704223752,-0.6134204268455505,-0.006341996602714,1.379856824874878
1783201303120235500,0.582235595703125,2.580672910794616,-2.999067834213376,-2.7733769183427093,-0.2902473211288452,-0.0391932129859924,1.712948203086853
1783201303130172400,0.59217236328125,2.4246919293574987,-2.116654592581093,-3.049877983996272,0.0036756424233317,-0.0706629902124404,1.8713562488555908
1783201303140109600,0.602109619140625,2.12074989907071,-0.8636839912429451,-3.019377631792426,0.2515183091163635,-0.236786276102066,1.8620455265045168
1783201303150045400,0.61204541015625,1.803966507389396,0.1434548234716057,-2.791791111433506,0.4604544937610626,-0.4606923460960388,1.8132658004760744
1783201303159982300,0.621982421875,1.589154566799104,0.8009206610769033,-2.2482009515941144,0.625033974647522,-0.6049287915229797,1.7487291097640991
1783201303169919500,0.63191943359375,1.1635429899998009,0.9899605931594968,-1.5667589028567075,0.7029154300689697,-0.5980437397956848,1.6611998081207275
1783201303179855400,0.64185546875,0.6659289839155972,0.8085761442661284,-0.8461492113351822,0.7062216401100159,-0.5093845129013062,1.5732532739639282
1783201303189792500,0.65179248046875,0.3833336930401623,0.591357873186469,-0.2817746221423149,0.6613114476203918,-0.4080203175544739,1.517378807067871
1783201303199729400,0.6617294921875,0.2766715999148786,0.4849278352513909,0.1351589965522289,0.5989450812339783,-0.3046051561832428,1.4735429286956787
1783201303209666600,0.67166650390625,0.2972474280189722,0.4337546973749995,0.4022884227484464,0.5517114996910095,-0.240628570318222,1.4212498664855957
1783201303219602400,0.6816025390625,0.4541134486623108,0.4671463871061801,0.6035258653640747,0.5376700162887573,-0.2010496854782104,1.3573291301727295
1783201303229539300,0.691539306640625,0.6067630937196314,0.5447428370058536,0.8784627504408359,0.5326542258262634,-0.1514717489480972,1.286824107170105
1783201303239476500,0.7014765625,0.7237015200570225,0.5941735151290893,1.2592395986050366,0.5585046410560608,-0.0899481028318405,1.2143203020095823
1783201303249413400,0.711413330078125,0.8462517949268221,0.6151975984573363,1.663773754453659,0.6064884066581726,-0.0081048980355262,1.150623083114624
1783201303259349200,0.721349365234375,0.9769352535001932,0.6081380353346467,2.0608628549933434,0.6676801443099976,0.0943003520369529,1.1057558059692385
1783201303269286400,0.731286376953125,1.2150143801704048,0.8286293367356061,2.472808163881301,0.6845177412033081,0.2346822321414947,1.0480695962905884
1783201303279223600,0.7412236328125,1.2815243495188653,1.2236667654424904,2.6813030302792784,0.7668919563293457,0.2742338478565216,1.021338701248169
1783201303289160400,0.751160400390625,0.9296548852786422,1.3244944533258676,2.4379800116062165,0.9108683466911316,0.3266507387161255,1.0094101428985596
1783201303299097600,0.76109765625,0.6338157896876335,1.4863380431860684,2.354648232924938,1.105964422225952,0.4715875089168548,0.9950721263885498
1783201303309033500,0.771033447265625,0.2858794271126389,1.8521102144420143,2.204482221376896,1.3216240406036377,0.6780456304550171,0.9865132570266724
1783201303318970400,0.780970458984375,-0.2501176472492515,2.4131863466113805,1.9822095895171163,1.5089092254638672,0.9306094646453856,0.9503698945045472
1783201303328907500,0.790907470703125,-0.8169102573692798,2.864173626077175,1.7980659050434826,1.604867935180664,1.2169556617736816,0.8306381106376648
1783201303338844400,0.800844482421875,-1.030377066960931,3.3039766637057064,1.4918132597267626,1.6183215379714966,1.426499605178833,0.6956723928451538
1783201303348780300,0.8107802734375,-0.9799481715805828,3.6663767281800506,0.8692460092842579,1.5526591539382937,1.5146770477294922,0.616158664226532
1783201303358717400,0.820717529296875,-1.1181440516106784,3.80821154923439,-0.1531990956336259,1.4089640378952026,1.4587981700897217,0.5798122882843018
1783201303368654600,0.830654541015625,-1.5211336083658038,3.801147602197528,-1.424177062827349,1.1683305501937866,1.239944338798523,0.5735868811607361
1783201303378591500,0.840591552734375,-2.087302387499064,3.6786592866480343,-2.618846866366267,0.8277715444564819,0.8531150817871094,0.5587431788444519
1783201303388527400,0.85052734375,-2.712802038131654,3.4645091709673403,-3.5127006626844404,0.4105996489524841,0.3313648104667663,0.5111815333366394
1783201303398464500,0.860464599609375,-3.148195150363445,3.229843506002426,-4.146812220448255,-0.0142759447917342,-0.234887808561325,0.4349603056907654
1783201303408401400,0.8704013671875,-3.2520921626895665,3.031813334995508,-4.417065331622958,-0.3766850531101227,-0.7241293787956238,0.3521280288696289
1783201303418338600,0.880338623046875,-3.071927903240919,2.68717572170496,-4.334767572164536,-0.617017924785614,-1.0546497106552124,0.2897029817104339
1783201303428274400,0.8902744140625,-2.744409767055511,2.2010645218878984,-3.992091614335775,-0.6967268586158752,-1.1464496850967407,0.2635155916213989
1783201303438211300,0.90021142578125,-2.3662803646601733,1.6448714855849742,-3.586151098820567,-0.6113061308860779,-1.0024303197860718,0.2739530503749847
1783201303448148500,0.9101484375,-1.9327546537354587,1.1546066732198,-3.1633506339192388,-0.371671974658966,-0.7186681628227234,0.2952202558517456
1783201303458085600,0.920085693359375,-1.6544265187852083,0.90818335044384,-2.9854899752378463,-0.021443473175168,-0.428133875131607,0.3059682250022888
1783201303468021500,0.930021484375,-1.6347754773758352,0.9178279616236686,-2.885531471404433,0.3517237305641174,-0.1815818846225738,0.2502279877662658
1783201303477958400,0.93995849609375,-1.8465271536126733,1.1712415816783903,-2.7296400679469106,0.6669589281082153,-0.060260321944952,0.1295514851808548
1783201303487895600,0.9498955078125,-2.013518627755344,1.5110568893790244,-2.491261519938708,0.8897227644920349,-0.0576016865670681,-0.0441867560148239
1783201303497832400,0.95983251953125,-1.8582032706201077,1.6120044042497872,-2.1458377247065306,1.013370394706726,-0.1788570284843444,-0.1844835430383682
1783201303507769300,0.969769287109375,-1.3792187078125775,1.5293547626137731,-1.6313351276636123,1.0286667346954346,-0.3521885871887207,-0.2868509292602539
1783201303517705500,0.97970556640625,-0.9150804164811968,1.4192314231187104,-0.941443815010786,0.9660223126411438,-0.5157259702682495,-0.3575969338417053
1783201303527642400,0.989642333984375,-0.4689047750808298,1.315420335510373,-0.2574590960532427,0.8668794631958008,-0.6274005770683289,-0.4061567485332489
1783201303537579500,0.99957958984375,0.0038886780016124,1.1402771190941332,0.3601052315354347,0.8012550473213196,-0.6829885244369507,-0.4171407222747803
1783201303547516400,1.009516357421875,0.349581353303045,0.8199339891046286,0.7119207736313342,0.7720665335655212,-0.6759750843048096,-0.3831446766853332
1783201303557452500,1.01945263671875,0.6213358089514076,0.5348433742821216,1.1182336295902728,0.7620656490325928,-0.5349849462509155,-0.3273655474185943
1783201303567389400,1.029389404296875,0.7808803280889988,0.4068652291446924,1.5715619192242622,0.7709976434707642,-0.3193621039390564,-0.2606925368309021
1783201303577326600,1.03932666015625,0.7304502636648714,0.3270814983338117,1.7324439705759287,0.7715538144111633,-0.1222625821828842,-0.2783645093441009
1783201303587263200,1.04926318359375,0.2705247677229345,-0.0124877256512641,1.7249211738556622,0.7416481375694275,0.0387489423155784,-0.2991904318332672
1783201303597200400,1.059200439453125,0.1906497053667903,0.1472550925374031,1.609632998943329,0.695832371711731,0.0621477253735065,-0.299810916185379
1783201303607136500,1.069136474609375,0.3514768116608261,0.4031289652258157,1.1854776123017072,0.6041958928108215,-0.0335433818399906,-0.3194602727890014
1783201303617073400,1.079073486328125,0.4407765588358044,0.359086409881711,0.9095680828005076,0.4816456735134125,-0.1533615291118621,-0.3714543581008911
1783201303627010300,1.08901025390625,0.3599428805805743,0.1668061807036399,0.7809352731466292,0.3820887207984924,-0.2226393967866897,-0.4167499542236328
1783201303636947500,1.098947509765625,0.3467030213877558,-0.0526326890349388,0.6206897661328316,0.3546987473964691,-0.2068628519773483,-0.4260783791542053
1783201303646883600,1.108883544921875,0.5111063787333667,-0.3142103263229131,0.4968465288430452,0.4018169939517975,-0.1228196173906326,-0.4204151630401611
1783201303656820500,1.118820556640625,0.5715069252908229,-0.4879354926347732,0.4106085073262452,0.4910126030445099,0.0058290902525186,-0.4037197828292846
1783201303666757400,1.12875732421875,0.610973112630099,-0.5929308215916156,0.2796720969051122,0.603031575679779,0.1262327283620834,-0.388604462146759
1783201303676694300,1.1386943359375,0.6327699338965117,-0.6536562161892652,0.0486520949661731,0.6977519392967224,0.1898442357778549,-0.3570289015769958
1783201303686631400,1.14863134765625,0.6133316584549844,-0.6069388886779546,-0.0675128627806901,0.7479549050331116,0.1824028342962265,-0.3201611638069153
1783201303696567600,1.158567626953125,0.5676916047863662,-0.4838526072353124,-0.0728296738892793,0.7284852862358093,0.1366593837738037,-0.2931616008281708
1783201303706504400,1.16850439453125,0.5244609503470361,-0.3629278877407312,0.0700362437784671,0.6432497501373291,0.0542603842914104,-0.2578923106193542
1783201303716441300,1.17844140625,0.4375318778261542,-0.303387903535366,0.2456687050163745,0.519137978553772,-0.0256163403391838,-0.2234411388635635
1783201303726378500,1.18837841796875,0.4225482437059283,-0.3020440877109765,0.444602546864748,0.3736163973808288,-0.0696461126208305,-0.1747750639915466
1783201303736315400,1.1983154296875,0.5019315770223737,-0.2760036375254392,0.5404354952007532,0.2462715953588485,-0.1381619721651077,-0.1002744957804679
1783201303746251300,1.208251220703125,0.5596422999739646,-0.3533516656219959,0.4641863682568073,0.141597107052803,-0.2085234820842743,-0.0444703549146652
1783201303756188400,1.2181884765625,0.6127595576554536,-0.3881704655468463,0.4549895008444786,0.0560237988829612,-0.2257383316755294,0.0163328796625137
1783201303766125600,1.22812548828125,0.7463587575450539,-0.2842594246953726,0.4128513178169727,0.0123002883046865,-0.2410027682781219,0.0799539387226104
1783201303776062500,1.2380625,0.6527920005753636,-0.289926364415884,0.2895949405044317,-0.0105227204039692,-0.2478466778993606,0.106313943862915
1783201303785999600,1.24799951171875,0.476749497231841,-0.2675157951653003,0.2151689373344182,-0.016177412122488,-0.2326416224241256,0.1119553223252296
1783201303795935500,1.257935546875,0.3627107378587126,-0.2041559604108333,0.1110848780035972,0.009989995509386,-0.2039550095796585,0.0969971045851707
1783201303805872400,1.267872314453125,0.2551043496206402,-0.1622515861392021,-0.0341121129602193,0.0771261602640152,-0.1589377224445343,0.0712909400463104
1783201303815809500,1.2778095703125,0.1725228047847747,-0.1368979491740465,-0.1411532685309648,0.1437593251466751,-0.1175025030970573,0.0488601252436637
1783201303825746400,1.287746337890625,0.076220777632296,-0.1266875208050012,-0.0682259794861078,0.1898171007633209,-0.056554727256298,0.029118375852704
1783201303835682300,1.297682373046875,-0.0324509017497301,-0.1593009196400642,0.0070756374746561,0.2042695432901382,-0.0064385370351374,0.0193805508315563
1783201303845619500,1.307619384765625,-0.0401833956979215,-0.1662029541134834,0.0487403577715158,0.2001560181379318,0.035249788314104,0.0187339335680007
1783201303855556600,1.317556640625,-0.0130272393554449,-0.1590478216618299,-0.0243184486985206,0.1834998279809951,0.0140662873163819,0.0310581512749195
1783201303865493500,1.327493408203125,0.071832479545474,-0.1805915449500083,-0.1270247899353504,0.1517264544963836,-0.0264654252678155,0.0492973439395427
1783201303875430400,1.337430419921875,0.1740131894730031,-0.2351256836920976,-0.1784551174432039,0.1120986938476562,-0.0827038884162902,0.0795329138636589
1783201303885367300,1.3473671875,0.1971983963578939,-0.2096878755748271,-0.182147542220354,0.0744842067360878,-0.1364017277956009,0.1038489043712616
1783201303895303400,1.357303466796875,0.2197586032122373,-0.1397124220728874,-0.1526326939225196,0.052405759692192,-0.1906550526618957,0.1282555311918258
1783201303905240600,1.367240478515625,0.3150532068878412,-0.0776595782637596,-0.0573848519980907,0.0553157962858676,-0.1876270323991775,0.1479860991239547
1783201303915177500,1.377177490234375,0.3030824908480048,-0.0192354463458061,0.0977899276226759,0.0797664076089859,-0.1374013572931289,0.1696889698505401
1783201303925114400,1.3871142578125,0.266994109378755,-0.0080196403264999,0.2034288151800632,0.1078177466988563,-0.0595164112746715,0.1777064204216003
1783201303935051500,1.397051513671875,0.2055479992911219,-0.1047977605581283,0.4714040445506572,0.1367483288049698,0.1153822243213653,0.1892032623291015
1783201303944987600,1.406987548828125,0.0296750072956085,-0.2629763981699943,1.1469885994315148,0.0833040103316307,0.3518333733081817,0.1947194784879684
1783201303954924300,1.41692431640625,-0.137200000860542,-0.1054296287208795,0.8855430640906095,0.0462371446192264,0.4283509850502014,0.2009879648685455
1783201303964861400,1.426861328125,-0.080218468966335,0.011389409020543,0.1986748986512422,0.0321490205824375,0.3453181385993957,0.2265492379665374
1783201303974798300,1.43679833984375,0.1425488145425915,0.1379483350098133,-0.2466822659730911,0.0026817228645086,0.2197066098451614,0.2290317565202713
1783201303984735500,1.446735595703125,0.1052224157109856,0.1932657330840826,-0.2775783394962549,-0.0486142225563526,0.0969823002815246,0.2253725677728653
1783201303994671400,1.45667138671875,0.0213883865959942,0.1496621536791324,-0.0923585502237081,-0.1065792739391326,0.0369371064007282,0.2087606191635131
1783201304004608500,1.4666083984375,-0.0242065127566456,0.040215106010437,0.0068774845540523,-0.1477147340774536,0.0031716870144009,0.2176446616649627
1783201304014545400,1.47654541015625,0.1014965270556509,-0.0905225669682025,-0.1141051026076078,-0.1732572764158249,-0.0728269666433334,0.2484388649463653
1783201304024482600,1.486482666015625,0.2762412456735968,-0.1918126116663217,-0.4374778095513582,-0.1858465671539306,-0.1902848780155182,0.3105174005031585
1783201304034419500,1.49641943359375,0.3094631317958236,-0.2912321863174438,-0.6326911695718765,-0.1866514980792999,-0.2616720795631408,0.3614884316921234
1783201304044355300,1.506355224609375,0.1386734344139695,-0.4058604360163211,-0.3608610183387994,-0.1830929815769195,-0.2016279250383377,0.3944144248962402
1783201304054292500,1.51629248046875,0.1069194288872182,-0.4655190781652927,0.1164110414624214,-0.1734554916620254,-0.0661190003156662,0.4066896438598633
1783201304064230000,1.52622998046875,0.0796770555660128,-0.3805576524555683,0.461105937898159,-0.1840500682592392,0.1127183884382247,0.3892251551151275
1783201304074167000,1.5361669921875,-0.1525971842177212,-0.2540215228199958,0.7414128255754708,-0.2174871563911438,0.3339778482913971,0.3540752232074737
1783201304084104000,1.54610400390625,-0.3924636326961219,-0.2801338691979646,0.7793471271723509,-0.2088406682014465,0.5892761945724487,0.316476970911026
1783201304094040800,1.556040771484375,-0.4020050757624209,-0.3510352053731679,0.3848556419104337,-0.1256105005741119,0.7493978142738342,0.2992583513259887
1783201304103977000,1.56597705078125,-0.2378166763417422,-0.3189507988482714,-0.1615735407471656,-0.0657863169908523,0.7367616891860962,0.2582653760910034
1783201304113914000,1.5759140625,-0.0834337777510285,-0.3623965573430061,-0.3946329395592212,-0.0823823735117912,0.6467387080192566,0.2131583988666534
1783201304123850800,1.585850830078125,0.3405097197055816,-0.526188943183422,-0.5633820710241795,-0.12041737139225,0.4896228909492492,0.1841222196817398
1783201304133788000,1.595787841796875,0.7101528871759772,-0.7940665573984385,-0.744605484136939,-0.1350158751010894,0.3473889827728271,0.1787627637386322
1783201304143724800,1.605724853515625,1.0213076253205535,-1.049703698721528,-0.8497931207954883,-0.0807747319340705,0.2727192938327789,0.2198335081338882
1783201304153661000,1.615660888671875,1.467966520193219,-1.4045745367348192,-0.9562608603924512,0.0193155147135257,0.2207147628068924,0.2926222383975982
1783201304163597800,1.625597900390625,1.7471983259849249,-1.753203850010037,-0.9900678529262542,0.1140097975730896,0.2121044993400573,0.3986501395702362
1783201304173535000,1.635534912109375,1.8104063311785457,-1.714243712496757,-0.9285013313293456,0.1771106868982315,0.176651656627655,0.5064459443092346
1783201304183471900,1.645471923828125,1.7631116421706974,-1.5635060385406017,-0.7984072169512509,0.1828924119472503,0.1218129098415374,0.5880153775215149
1783201304193409000,1.655408935546875,1.5612142743416129,-1.459023919802904,-0.5601309602737427,0.134693443775177,0.0551108755171299,0.65300053358078
1783201304203346000,1.665345947265625,1.376329123850912,-1.2371189522117376,-0.2461895140200853,0.0366214700043201,-0.0098803723230957,0.7009313106536865
1783201304213281800,1.67528173828125,1.191399403566122,-1.0014952558696268,0.1127951890528202,-0.0753192976117134,-0.0641592592000961,0.720991313457489
1783201304223219000,1.685218994140625,0.9882201792329548,-0.8236199841409921,0.3393020974814891,-0.1100711524486541,-0.0363691784441471,0.7456470727920532
1783201304233155800,1.69515576171875,0.9410404949069022,-0.7174146948724984,0.2713514278054237,-0.0494717471301555,-0.0278497748076915,0.7774575352668762
1783201304243093000,1.705093017578125,0.9723245448343456,-0.4823310967564582,0.2490162618786096,0.0550610534846782,0.0243782754987478,0.79384446144104
1783201304253030000,1.71502978515625,0.9300365780726074,-0.2200707379013299,0.3877706525743007,0.1791594177484512,0.1262143850326538,0.7999383807182312
1783201304262966800,1.724966796875,0.8657869548715651,-0.0431891533851623,0.5757692589104175,0.3024238348007202,0.2377635538578033,0.8015557527542114
1783201304272903000,1.73490283203125,0.8212197911314666,0.1071709194302558,0.8315151213049888,0.382552832365036,0.341918408870697,0.8091974854469299
1783201304282840000,1.744840087890625,0.710855336356908,0.2380097146958112,1.11441553260684,0.4133301973342895,0.4380705058574676,0.8051180243492126
1783201304292776700,1.754776611328125,0.4598511155314743,0.3503080601423978,1.349009301379323,0.4001166522502899,0.5103172659873962,0.7888948321342468
1783201304302713900,1.7647138671875,0.2179204279996454,0.4743494503527879,1.5123147804856298,0.3399665057659149,0.5671576261520386,0.7631564736366272
1783201304312651000,1.774651123046875,0.1041788980074226,0.5992793138355016,1.6466291429072617,0.2383014410734176,0.623978316783905,0.7483933568000793
1783201304322588000,1.784587890625,0.0409593485064804,0.6924503494858741,1.7067033801198004,0.1262063384056091,0.6727450489997864,0.7351348400115967
1783201304332523800,1.794523681640625,0.0021783669523894,0.8231815927237272,1.7409844199061393,0.0091857593506574,0.7146365642547607,0.7091664671897888
1783201304342461000,1.8044609375,-0.0241056827306747,1.0882061555951834,1.9021932189941408,-0.0993431136012077,0.8151935338973999,0.6664555072784424
1783201304352397800,1.814397705078125,-0.0818989693991839,1.337552087819576,2.1611486910849806,-0.1904314756393432,1.007792830467224,0.622560977935791
1783201304362335000,1.8243349609375,-0.2361179095998406,1.397042387664318,2.274520803242922,-0.2387824952602386,1.2436306476593018,0.579297661781311
1783201304372272000,1.834272216796875,-0.3773417591489851,1.3299252462029456,1.9759902766108512,-0.2556004524230957,1.3903872966766355,0.5433378219604492
1783201304382208800,1.844208740234375,-0.3390311715856194,1.2005208676546812,1.4036205970108508,-0.2864249348640442,1.4294774532318115,0.5401430726051331
1783201304392145000,1.854144775390625,-0.2378099543400108,0.9914730435490609,0.718957832661271,-0.3277912139892578,1.3540823459625244,0.5619829297065735
1783201304402082000,1.86408203125,-0.0394759780809283,0.8719768955528736,0.0698082802414894,-0.3597715198993683,1.208728551864624,0.5769328474998474
1783201304412019000,1.87401904296875,0.1537770416520535,0.9268278451591728,-0.3491214807063341,-0.3858848810195923,1.039892315864563,0.5947297811508179
1783201304421955800,1.883955810546875,0.2889589806884527,0.9923872357845306,-0.5488555330216884,-0.4483812749385834,0.8993517756462097,0.6007908582687378
1783201304431893000,1.89389306640625,0.2281194581918418,0.932864787235856,-0.5308855765670538,-0.5602620244026184,0.8657846450805664,0.6107579469680786
1783201304441830000,1.903829833984375,-0.0631831630133092,0.6763409262061119,-0.5827104563504457,-0.6701810956001282,0.902499258518219,0.6291784644126892
1783201304451766000,1.91376611328125,-0.2960460163399577,0.439781410318613,-0.9599579613447188,-0.7437579035758972,0.968169629573822,0.6311742663383484
1783201304461703000,1.923702880859375,-0.3743232881106436,0.2983084083139896,-1.6097528259307146,-0.7567088603973389,0.9995986819267272,0.6280114650726318
1783201304471639800,1.933639892578125,-0.2645559224463999,0.0763362207055091,-2.540132226091623,-0.7026264071464539,0.9525507092475892,0.6627140641212463
1783201304481577000,1.943576904296875,-0.1695038953550159,-0.1515793854773044,-3.55626741721034,-0.6036707758903503,0.8166019320487976,0.7073023319244385
1783201304491513900,1.953513916015625,-0.288489463480562,-0.195724816673994,-4.423205734074116,-0.4704229533672333,0.5855466723442078,0.743486225605011
1783201304501451000,1.963450927734375,-0.4130655450895428,-0.0924970819115638,-5.012034381043911,-0.3079826533794403,0.2824776172637939,0.7336293458938599
1783201304511388000,1.973387939453125,-0.6300212197102606,-0.0873234786659479,-5.2838335526168345,-0.1040704920887947,-0.0303087383508682,0.6733216643333435
1783201304521324000,1.983323974609375,-0.7791998276561498,-0.0493207880079746,-5.2006853138089175,0.1392233967781067,-0.2772372961044311,0.6011500358581543
1783201304531261000,1.993260986328125,-0.725027654094249,0.0081400518357753,-4.588191129091382,0.4068496227264404,-0.3897584676742553,0.5372374653816223
1783201304541198000,2.003197998046875,-0.6440927074216306,-0.0112643213361501,-3.7877994603246448,0.6875872611999512,-0.4232016503810882,0.477716326713562
1783201304551134700,2.013134765625,-0.4988587454482913,0.0597960047930479,-3.0769384248793124,0.9362577199935912,-0.4154377281665802,0.4341716468334198
1783201304561071900,2.02307177734375,-0.2088954100228846,0.200978499418497,-2.246416406264901,1.1093164682388306,-0.3598482310771942,0.4188432693481445
1783201304571009000,2.033009033203125,0.0332021585084497,0.2774544208556413,-1.261012453496456,1.1947511434555054,-0.2808363139629364,0.4231832325458526
1783201304580945000,2.04294482421875,0.1861914107836783,0.3198661601275205,-0.3849164321869611,1.2068493366241455,-0.2180501818656921,0.4367762804031372
1783201304590881800,2.0528818359375,0.2904617864668369,0.3434785063832998,0.309333660197258,1.1485828161239624,-0.1929050981998443,0.4548065960407257
1783201304600819000,2.06281884765625,0.3127206722870468,0.3817401402384042,0.8385375672876835,1.0130943059921265,-0.2122260630130767,0.4895078539848327
1783201304610755800,2.072755859375,0.3818424315690994,0.4371557379901409,1.3643886568188666,0.8349497318267822,-0.2324039787054062,0.5289581418037415
1783201304620693000,2.08269287109375,0.5332232257343829,0.4883247842133045,1.8891075274497269,0.6385732889175415,-0.2262001484632492,0.5724638104438782
1783201304630630100,2.092630126953125,0.6324198052845895,0.5326040709227323,2.3569757990896703,0.45330411195755,-0.2057672291994094,0.610446572303772
1783201304640566800,2.10256689453125,0.7032830014064908,0.5531921009212732,2.744662865033745,0.288220077753067,-0.1071253418922424,0.6266034245491028
1783201304650503000,2.1125029296875,0.6887415580958127,0.5546674341708422,3.124317431169748,0.1240810975432396,0.0024662271607667,0.6427482962608337
1783201304660440000,2.122440185546875,0.5974488835379481,0.5281891770899295,3.4740777943015098,-0.0460083410143852,0.1135061979293823,0.641605794429779
1783201304670377000,2.132376953125,0.56824880027771,0.4644283603191375,3.71656494667232,-0.228096917271614,0.2223086804151535,0.6320844292640686
1783201304680313900,2.14231396484375,0.6536784280210733,0.4610439785778522,3.8711604651004072,-0.4066139459609985,0.3106955289840698,0.6237742900848389
1783201304690250800,2.152250732421875,0.7539692325487732,0.5064104760020971,3.914022870749235,-0.590637743473053,0.3847999572753906,0.6315886378288269
1783201304700188000,2.16218798828125,0.9901350729435682,0.4915320558220147,4.0349131034523245,-0.7796270847320557,0.4827933609485626,0.6528403759002686
1783201304710125000,2.172125,1.2822750217556953,0.3253817086786031,4.173322626233101,-0.9671732187271118,0.5869796872138977,0.6976650357246399
1783201304720061000,2.18206103515625,1.4892343491494655,0.1654606113135814,4.231224780103564,-1.141939401626587,0.7103455662727356,0.7788611054420471
1783201304729997800,2.191997802734375,1.6070926668107508,0.0862543881297111,4.276490739762783,-1.3120936155319214,0.8474906086921692,0.8578956127166748
1783201304739935000,2.20193505859375,1.7069624694474042,-0.0861111802667379,4.243035044884682,-1.508008599281311,0.9801104068756104,0.9348572492599488
1783201304749871900,2.211871826171875,1.835648470593244,-0.2206014837771654,4.2436517154783004,-1.7263303995132446,1.1170456409454346,1.0516295433044434
1783201304759809000,2.22180908203125,1.7616617356233295,-0.4270943627029657,3.9573277594685554,-1.934908747673035,1.1719344854354858,1.181339144706726
1783201304769746000,2.231745849609375,1.486646670743823,-0.5580617527842522,3.361240519672632,-2.136193990707397,1.1291215419769287,1.2721883058547974
1783201304779682800,2.241682861328125,1.230587650746852,-0.464951507410407,2.725264337080717,-2.3036646842956543,1.015235185623169,1.3038263320922852
1783201304789619000,2.251618896484375,1.192831043804437,-0.4058516681879758,2.1077952865600587,-2.3938393592834477,0.8911471366882324,1.3085936307907104
1783201304799556000,2.26155615234375,1.3002762501314282,-0.5680927329331636,1.5957307303190231,-2.400457859039306,0.7996251583099365,1.302776575088501
1783201304809492700,2.27149267578125,1.3974359170265496,-0.7984288442611693,1.3390087163686752,-2.356652021408081,0.8094266653060913,1.312183856964111
1783201304819430000,2.281429931640625,1.5366154012665152,-1.0386331463918088,1.3138514787584543,-2.33276891708374,0.9637328386306764,1.3470369577407837
1783201304829367000,2.291366943359375,1.823688714338839,-1.1812655475646257,1.2339806541860103,-2.342801332473755,1.210105538368225,1.4007309675216677
1783201304839304000,2.301303955078125,2.1960246280245483,-1.1535703159093855,0.7327642396956682,-2.399720430374145,1.4975937604904177,1.495255947113037
1783201304849241000,2.311240966796875,2.664485166469216,-0.7594923798844218,-0.2172930898815393,-2.4803783893585205,1.7062785625457764,1.6312453746795654
1783201304859177000,2.321177001953125,2.8873101715147493,-0.1687877099096775,-1.70321670704782,-2.529149293899536,1.7015095949172974,1.7780489921569824
1783201304869113900,2.33111376953125,2.6323130816608664,0.3042623482823371,-3.4300960292339324,-2.5197300910949707,1.4889390468597412,1.9027962684631348
1783201304879051000,2.341051025390625,2.026719323981553,0.6189873461291193,-4.830988078063726,-2.472923517227173,1.1735235452651978,1.980709195137024
1783201304888988000,2.35098779296875,1.3460674027085304,0.7312474053919314,-5.841576156449317,-2.3643596172332764,0.878303587436676,2.0274441242218018
1783201304898924800,2.3609248046875,0.7168070843681693,0.8657837400011718,-6.54031362338066,-2.138219356536865,0.6469694375991821,2.0341010093688965
1783201304908862000,2.370862060546875,0.0348785672880709,1.1458759620144965,-7.132241405409574,-1.7784132957458496,0.4537059664726257,1.974730372428894
1783201304918798800,2.380798828125,-0.642878801587224,1.509385595165938,-7.622534274825453,-1.2951648235321045,0.3055026531219482,1.8476645946502688
1783201304928736000,2.390736083984375,-1.3945073162287474,1.831114772686362,-8.06691645693779,-0.7063645720481873,0.1703146398067474,1.6747090816497805
1783201304938671900,2.400671875,-2.063630420010537,2.0192362747497854,-8.261346557626128,-0.0614969283342361,0.0426845215260982,1.4477717876434326
1783201304948608800,2.41060888671875,-2.553554602244496,2.152994756854325,-8.074986366146803,0.5737581849098206,-0.0741541162133216,1.1844313144683838
1783201304958546000,2.4205458984375,-2.7059879742026327,2.2707708030596376,-7.450805835288762,1.135671615600586,-0.1380742490291595,0.928525447845459
1783201304968483000,2.430483154296875,-2.5233845049083232,2.274342816327512,-6.452690284985303,1.6177318096160889,-0.1559432595968246,0.709500789642334
1783201304978420000,2.440419921875,-2.105778539910167,2.0670862595528363,-5.331867223423719,2.0053930282592773,-0.1311244666576385,0.568724513053894
1783201304988356900,2.45035693359375,-1.435246007721871,1.7941344108134507,-4.075052806138992,2.283964872360229,-0.088107518851757,0.5174000859260559
1783201304998293800,2.460293701171875,-0.6012086744628846,1.599731198132038,-2.865347346031666,2.443876028060913,-0.0347862355411052,0.5543250441551208
1783201305008230000,2.47022998046875,0.149761814661324,1.4992752661705016,-1.6997358791947363,2.489705801010132,0.0279432516545057,0.6450549960136414
1783201305018167000,2.4801669921875,0.6719298317655921,1.45659727717787,-0.5638023422628641,2.441030979156494,0.093531847000122,0.7684724926948547
1783201305028104000,2.49010400390625,0.9695911743476986,1.4727777198672294,0.483196773675084,2.323054790496826,0.1643819957971573,0.8970662951469421
1783201305038040800,2.500040771484375,1.058825455071032,1.602664913496375,1.3479717750251292,2.1418352127075195,0.1865991503000259,1.0060575008392334
1783201305047978000,2.50997802734375,0.8600447579577565,1.825454847228527,2.0687807885110376,1.8696471452713013,0.159585639834404,1.0660359859466553
1783201305057915000,2.519914794921875,0.455724390990287,2.034400964525342,2.7617899409234523,1.5015876293182373,0.0775730535387992,1.0837382078170776
1783201305067852000,2.52985205078125,-0.0124510469026863,2.148615664987266,3.365434464231133,1.0756659507751465,-0.0197951346635818,1.075511455535889
1783201305077789200,2.5397890625,-0.3680062139183283,2.172929729771614,4.02160646263361,0.6416700482368469,-0.0673868879675865,1.030431032180786
1783201305087724800,2.549724853515625,-0.6131481185816228,2.108229294063151,4.670469599327444,0.2674126625061035,-0.0071651646867394,0.9683376550674438
1783201305097662000,2.559661865234375,-0.7676334546335041,2.051417273516953,5.116297304072976,-0.0043890457600355,0.128923699259758,0.8893299102783203
1783201305107599000,2.56959912109375,-0.8507733640044927,2.1127418030515317,5.217341265055537,-0.1806234717369079,0.2807654142379761,0.8022913932800293
1783201305117536000,2.579535888671875,-0.8838044037297368,2.15743989969492,5.057271699130535,-0.2910016179084778,0.3775228559970855,0.6994004845619202
1783201305127473200,2.58947314453125,-0.9696164549194276,2.218956736931205,4.809568857938051,-0.3794484734535217,0.4468492567539215,0.5937851667404175
1783201305137410000,2.59941015625,-0.8104714564934372,2.194032431294024,4.7905800798296925,-0.4797708392143249,0.5167535543441772,0.5079895853996277
1783201305147347000,2.609346923828125,-0.7030898169219494,2.0542802617326377,4.871323595583439,-0.5964595675468445,0.5577962398529053,0.4418801367282867
1783201305157284000,2.6192841796875,-0.6130513802088797,1.9865382663711904,5.014405201828479,-0.7449555397033691,0.6057400703430176,0.40204057097435
1783201305167221000,2.629220947265625,-0.5463574325956404,1.9266800099968908,5.225225880825519,-0.920984148979187,0.6877070665359497,0.3665949702262878
1783201305177156900,2.639156982421875,-0.6388420934170485,1.8913471230700607,5.207540586531162,-1.1131764650344849,0.7525143027305603,0.3219659924507141
1783201305187094000,2.649093994140625,-0.8296165942072868,2.024486304232478,4.970198395833373,-1.313848614692688,0.8147988319396973,0.2510850727558136
1783201305197031000,2.659031005859375,-1.1274228982180357,2.1977076126754285,4.675525129151344,-1.5013377666473389,0.938617706298828,0.1358969509601593
1783201305206968000,2.668968017578125,-1.4784965359054505,2.3619451119348405,4.198247224131226,-1.6335710287094116,1.1219207048416138,-0.0012845087330788
1783201305216905200,2.6789052734375,-1.6112454025760292,2.505084293586016,3.4425498526155947,-1.7180265188217163,1.3221172094345093,-0.155372604727745
1783201305226841900,2.688841796875,-1.5236452989257872,2.6307155833363534,2.5434739377349613,-1.772821307182312,1.524655818939209,-0.3392332196235657
1783201305236779000,2.698779052734375,-1.1776646004632114,2.669664614933729,1.4227818090766668,-1.7955950498580933,1.6316704750061035,-0.5624282360076904
1783201305246716000,2.7087158203125,-0.7246524641063063,2.612511233603954,0.0055377603828907,-1.7747622728347778,1.6608623266220093,-0.7426213026046753
1783201305256652000,2.718652099609375,0.0338967166438698,2.714491598653793,-1.49767426071465,-1.7487776279449463,1.606420636177063,-0.8465673923492432
1783201305266589000,2.7285888671875,0.7825234191209077,2.841478394666314,-3.517066456678509,-1.6821871995925903,1.340240240097046,-0.9078292846679688
1783201305276526000,2.738526123046875,1.1594491448149085,2.8097204436168077,-5.931407818543911,-1.5616734027862549,0.9293387532234192,-0.9299705624580384
1783201305286463000,2.748462890625,1.0229704439662397,2.5458161169469355,-7.939034173390269,-1.390419363975525,0.4412142932415008,-0.8948301672935486
1783201305296400100,2.758400146484375,0.4629547441026195,2.023630564185977,-9.49601344051063,-1.1775290966033936,-0.0750536099076271,-0.8464562296867371
1783201305306337000,2.7683369140625,-0.2317082033988088,1.435804664517939,-10.461756414997575,-0.909635841846466,-0.5082789063453674,-0.8158745765686035
1783201305316274000,2.77827392578125,-0.8017646376203745,1.2323448696777224,-10.798502982777356,-0.5508710145950317,-0.8199113607406616,-0.8155997395515442
1783201305326211000,2.788211181640625,-1.062568075665459,1.4473632926255464,-10.689102696859836,-0.0992102921009063,-1.0375118255615234,-0.8851665258407593
1783201305336148000,2.79814794921875,-1.1629963159024714,1.7662188144057989,-10.286818365764615,0.4162650406360626,-1.2035906314849854,-1.0056780576705933
1783201305346084000,2.808083984375,-1.2527294860586524,1.988768363510817,-9.58635480569303,0.910752773284912,-1.35410737991333,-1.153642654418945
1783201305356021000,2.81802099609375,-1.2826362562835216,2.1820319046378134,-8.47352274288535,1.3492494821548462,-1.519608497619629,-1.295836091041565
1783201305365958000,2.8279580078125,-1.1477017161369325,2.2617530916064976,-7.208177228620648,1.7028868198394775,-1.698580026626587,-1.398828148841858
1783201305375895000,2.83789501953125,-0.8163859412342309,2.415880554131418,-5.754003086936473,1.9147255420684812,-1.8191626071929927,-1.4620089530944824
1783201305385832200,2.847832275390625,-0.316305983427912,2.766434551858902,-4.015437418609857,1.9940208196640012,-1.8595653772354128,-1.501679301261902
1783201305395769000,2.85776904296875,0.1900890027441084,3.130326900717616,-2.3618892900943758,1.994485855102539,-1.8463685512542725,-1.52924644947052
1783201305405706000,2.8677060546875,0.645682899222523,3.540487079754472,-0.9960089334130288,1.939387321472168,-1.7954111099243164,-1.5445603132247925
1783201305415643000,2.877642822265625,0.938935339321196,4.028363535678387,0.1608551633447408,1.8376774787902832,-1.7444565296173096,-1.556338906288147
1783201305425580000,2.887580078125,1.0500265009351073,4.5264735085859895,1.1519874306321145,1.6663697957992554,-1.707213044166565,-1.5735111236572266
1783201305435516200,2.89751611328125,0.9437981230519712,5.0297266896009445,2.039064280161261,1.4279276132583618,-1.6634119749069214,-1.622797608375549
1783201305445453000,2.907453125,0.6601447014257311,5.41496986952424,2.8000200105965134,1.1184841394424438,-1.617485284805298,-1.742523431777954
1783201305455390000,2.917389892578125,0.0913977423675358,5.515668378069996,3.497867250689864,0.7512161731719971,-1.5521949529647827,-1.9513589143753047
1783201305465327000,2.9273271484375,-0.6970797628521919,5.280713959291577,4.008409711930155,0.3740821182727813,-1.4666962623596191,-2.210348606109619
1783201305475264000,2.937263916015625,-1.3078292958594857,5.004826057100296,4.350642602166533,0.0283758547157049,-1.319869041442871,-2.481933832168579
1783201305485201200,2.947201171875,-1.5428523959599434,4.803725100345909,4.565922598659992,-0.2458450198173523,-1.1174259185791016,-2.723269462585449
1783201305495138000,2.957137939453125,-1.2522644988954066,4.558263608339429,4.57084953366816,-0.4480809271335602,-0.9226316809654236,-2.88107705116272
1783201305505075000,2.967074951171875,-0.5622092278525233,4.256188833229244,4.424527922588586,-0.6078086495399475,-0.7987077832221985,-2.955843687057495
1783201305515012000,2.97701220703125,0.1651518376253545,3.927508083005249,4.232564504274726,-0.7377533316612244,-0.7425206303596497,-2.993213653564453
1783201305524948200,2.9869482421875,0.7094226732052862,3.611999241304397,4.267865534758568,-0.8594240546226501,-0.6881040930747986,-3.026329517364502
1783201305534884900,2.996884765625,1.1265367630332708,3.224459182615578,4.600459074512123,-1.0013872385025024,-0.5885441899299622,-3.05986762046814
1783201305544822000,3.006822021484375,1.4193147174879908,2.731202202697098,4.995659584826231,-1.1464478969573977,-0.4359983503818512,-3.0871169567108154
1783201305554759000,3.016759033203125,1.620729562497139,2.2831506844222544,5.143059638792276,-1.2925962209701538,-0.3208411335945129,-3.110489845275879
1783201305564696000,3.026696044921875,1.8183973299324512,1.9396055425435303,4.989361945986747,-1.4357151985168457,-0.2178563922643661,-3.1384613513946533
1783201305574633200,3.03663330078125,2.038244342080504,1.6830089085385205,4.730822068959474,-1.5729011297225952,-0.104183904826641,-3.161198377609253
1783201305584569900,3.04656982421875,2.262854623107612,1.3589371134147048,4.434625538232923,-1.7168571949005127,0.0498176030814647,-3.170513391494751
1783201305594507000,3.056507080078125,2.41609726562202,0.8660521816790103,4.038137326195836,-1.8687505722045896,0.2186470925807953,-3.16084885597229
1783201305604444000,3.06644384765625,2.642885329079628,0.2874672808259725,3.5307723259478805,-2.0204434394836426,0.3914415836334228,-3.127384662628174
1783201305614380000,3.076380126953125,2.98007379540801,-0.2479588617801666,2.92679111803174,-2.167386531829834,0.5734432935714722,-3.04068660736084
1783201305624317000,3.08631689453125,3.4558830891802903,-0.6544374296948313,2.168141910973191,-2.301219940185547,0.7537878751754761,-2.914982795715332
1783201305634254000,3.096254150390625,4.052841266591846,-0.938127822330594,1.1445961513370275,-2.4118165969848637,0.9077739715576172,-2.7351114749908447
1783201305644191000,3.10619091796875,4.612012149661779,-0.9796746153362096,-0.2162994026690721,-2.4659104347229004,0.9524567127227784,-2.535951852798462
1783201305654128000,3.116128173828125,4.989013570940494,-0.831674257389456,-1.9578525623738765,-2.4410958290100098,0.8438040018081665,-2.343175172805786
1783201305664065000,3.12606494140625,5.147278717792034,-0.7623664740160108,-3.725595225346088,-2.30745792388916,0.6464957594871521,-2.1505355834960938
1783201305674002000,3.136001953125,5.003603821828961,-0.8293727024488151,-5.279281880661845,-2.056648731231689,0.4130172431468963,-1.9665063619613647
1783201305683939000,3.14593896484375,4.570267934387922,-0.972847691925615,-6.446826361387967,-1.7110826969146729,0.1762426495552063,-1.7204062938690186
1783201305693876000,3.1558759765625,3.862462194859981,-1.251965515948832,-7.232128013050556,-1.3177229166030884,-0.0548369139432907,-1.422012448310852
1783201305703813000,3.165813232421875,2.879051461735368,-1.2177695240974429,-7.561142525273561,-0.9441477060317992,-0.245488092303276,-1.1872212886810305
1783201305713749000,3.1757490234375,1.8430993711210784,-0.7674475766725838,-7.33712041939795,-0.5983189344406128,-0.3805377781391144,-1.0351850986480713
1783201305723686000,3.185685791015625,1.034407783781737,-0.1504132643073797,-6.900657339847087,-0.2743723690509796,-0.4585302174091339,-0.9923937320709229
1783201305733623000,3.195623046875,0.4001367976725101,0.6326288449253886,-6.155304836735129,-0.0091055436059832,-0.4328517615795135,-1.0381910800933838
1783201305743560200,3.205560302734375,-0.1371549196097999,1.266673255737126,-5.218796724560857,0.1867921501398086,-0.3709767460823059,-1.1572537422180176
1783201305753497000,3.2154970703125,-0.7095360704518854,1.485327258708328,-4.480041135495901,0.3412081003189087,-0.3513351380825043,-1.3279483318328855
1783201305763434000,3.22543408203125,-1.2177851600579916,1.345240742626041,-3.8939024582624433,0.4808172285556793,-0.3873478174209595,-1.5032950639724731
1783201305773371000,3.235370849609375,-1.4428586746826768,1.1961070698004217,-3.313166516855359,0.5999606847763062,-0.4439226984977722,-1.633220911026001
1783201305783308000,3.24530810546875,-1.343806179778278,1.1878237370364366,-2.724178879931569,0.7155784964561462,-0.5654792189598083,-1.7132614850997925
1783201305793245200,3.2552451171875,-1.0248786887403576,1.3047818909876048,-2.1205296804487705,0.8284871578216553,-0.7371857166290283,-1.7592390775680542
1783201305803182000,3.26518212890625,-0.6897120105631649,1.4802917487591505,-1.3251719141960143,0.9198523163795472,-0.9310553669929504,-1.7764766216278076
1783201305813118000,3.275117919921875,-0.5286484651647508,1.6490648456215855,-0.3294172478049993,0.9872774481773376,-1.1105388402938845,-1.7800129652023315
1783201305823055000,3.28505517578125,-0.385076518119499,1.8690230630591511,0.7108686342298984,1.0342884063720703,-1.2577494382858276,-1.7865980863571167
1783201305832992000,3.294991943359375,-0.2436091421380639,2.276727957898378,1.7591805863320826,1.0371700525283811,-1.3717740774154663,-1.811388611793518
1783201305842929200,3.30492919921875,-0.1086312012411653,2.58888953499794,2.886347463962436,0.9974481463432312,-1.3619892597198486,-1.8633257150650024
1783201305852866000,3.314865966796875,0.0523475884832441,2.739416196551919,4.224868104553223,0.8870974183082581,-1.1695798635482788,-1.9583501815795896
1783201305862803000,3.324802978515625,0.1574488620325922,2.87729380441308,5.517307377448677,0.66302490234375,-0.8014455437660217,-2.0918915271759038
1783201305872740000,3.334739990234375,0.2450678165137767,2.841384871163964,6.604093144851922,0.322235643863678,-0.3162069320678711,-2.2453300952911377
1783201305882677000,3.344677001953125,0.3472149164326489,2.5925077254951,7.175588379704952,-0.098099797964096,0.1618219465017318,-2.39320707321167
1783201305892614100,3.3546142578125,0.4092892414212226,2.080109261124581,7.033622625747323,-0.5299361944198608,0.4942531585693359,-2.5033035278320312
1783201305902551000,3.364551025390625,0.6451126981191336,1.558606283800304,6.328104120373726,-0.9523651003837584,0.6303629279136658,-2.5572609901428223
1783201305912488000,3.374488037109375,1.115145746577531,1.0755752220809458,5.329858806210756,-1.3208138942718506,0.5851041078567505,-2.571359634399414
1783201305922424000,3.384424072265625,1.7264894460856914,0.6882600581891835,4.288529552602768,-1.6021244525909424,0.418573647737503,-2.542837619781494
1783201305932361200,3.394361328125,2.3466752082191404,0.3998454135105013,3.4955046132117507,-1.780370593070984,0.2541588544845581,-2.459395170211792
1783201305942297900,3.4042978515625,3.021641485071182,0.3083725600801408,2.8466490753024813,-1.8589022159576416,0.1582016795873642,-2.312969207763672
1783201305952235000,3.414235107421875,3.5559167040765285,0.3123036159187555,2.2289421243727205,-1.86009418964386,0.1963895410299301,-2.1213629245758057
1783201305962172000,3.424171875,3.678317925864458,0.2202469712510704,1.7287889551997184,-1.8300918340682983,0.3098008036613464,-1.9396206140518188
1783201305972109000,3.434109130859375,3.519178334265947,0.0396386212967336,1.1281734243243933,-1.8226683139801023,0.4438776671886444,-1.7745206356048584
1783201305982046200,3.444046142578125,3.183283707140386,-0.1752687424920499,0.3934504517763852,-1.8157031536102293,0.5574293732643127,-1.618579983711243
1783201305991982800,3.45398291015625,2.7350623852565885,-0.3968879519443958,-0.452222958740592,-1.772019863128662,0.6166002750396729,-1.4701223373413086
1783201306001920000,3.463919921875,2.188642554949224,-0.4597985816266387,-1.3323656250923872,-1.704564929008484,0.5940013527870178,-1.347009778022766
1783201306011857200,3.473857177734375,1.739183507964015,-0.3253439704841002,-2.0747797366648912,-1.627814531326294,0.5460476875305176,-1.256388783454895
1783201306021793000,3.48379296875,1.4509170395843685,-0.0260335455207154,-2.6441075643509624,-1.5704059600830078,0.4712281823158264,-1.21822988986969
1783201306031730000,3.49372998046875,1.2955321243442597,0.4934112206321209,-3.357788917914033,-1.5292038917541504,0.333141416311264,-1.219248652458191
1783201306041667000,3.5036669921875,1.198021013662964,1.0961007813025263,-4.170505815246701,-1.5014973878860474,0.1359139084815979,-1.2249810695648191
1783201306051604000,3.51360400390625,1.094693252592161,1.4133486486904323,-4.855078563225269,-1.4616501331329346,-0.120960496366024,-1.2168234586715698
1783201306061541000,3.523541015625,0.987084453201294,1.4575323660708963,-5.4344198354035615,-1.37016499042511,-0.4202435314655304,-1.1636955738067627
1783201306071478000,3.53347802734375,0.9217305220201611,1.49406089252308,-5.769637293919921,-1.2174779176712036,-0.730761706829071,-1.1007105112075806
1783201306081415000,3.543414794921875,0.4951339527714997,1.486626212477684,-5.744698082974553,-0.975131630897522,-1.0078530311584473,-1.0742579698562622
1783201306091352000,3.55335205078125,-0.2625758545450866,1.3856693452566862,-5.318074844914674,-0.6628648042678833,-1.1346485614776611,-1.1159369945526123
1783201306101289000,3.5632890625,-0.9268313522905112,1.42962013066411,-4.571339947533607,-0.3012588620185852,-1.1598118543624878,-1.234433650970459
1783201306111225900,3.573225830078125,-1.413363846259564,1.632391650979221,-3.583221475109457,0.0478490591049194,-1.070885181427002,-1.4520313739776611
1783201306121163000,3.5831630859375,-1.6148362666748464,1.7790765424132349,-2.4317840795755385,0.3591493964195251,-0.8655683398246765,-1.7238430976867676
1783201306131100000,3.593099853515625,-1.4763012178182602,1.7106906961902977,-1.4815373649060726,0.6013678312301636,-0.663179337978363,-1.975996732711792
1783201306141036000,3.6030361328125,-1.075755839344859,1.3646668892383575,-0.7763637274473905,0.7677045464515686,-0.5142389535903931,-2.151057004928589
1783201306150973000,3.612972900390625,-0.5236756451882422,0.9791114284954964,-0.1603366924285888,0.8779828548431396,-0.4390507340431213,-2.254122018814087
1783201306160909800,3.622909912109375,0.0712161012127995,0.6987224885579199,0.3679717271268367,0.9354989528656006,-0.4489462971687317,-2.2758166790008545
1783201306170847000,3.632846923828125,0.7330753514714539,0.4241694516995921,0.8382219254672527,0.9108359217643738,-0.5060673952102661,-2.218827962875366
1783201306180783900,3.642783935546875,1.5014388739451765,0.0509847026322036,1.566446183645725,0.7608738541603088,-0.4963873326778412,-2.120114088058472
1783201306190721000,3.652720947265625,2.148863356138021,-0.3761236520634964,2.3607979877263308,0.5104227066040039,-0.4232577085494995,-1.9869643449783323
1783201306200658000,3.662657958984375,2.5078598957791924,-0.9724825849402696,2.9093115754425525,0.1742395609617233,-0.5603801012039185,-1.7647058963775637
1783201306210594800,3.6725947265625,2.1281528688035904,-1.5730371063433586,2.510238607609272,-0.1981364041566848,-0.6674191951751709,-1.6635361909866333
1783201306220532000,3.682531982421875,2.4224783449612555,-1.4543985980898142,2.668026784598827,-0.4583735167980194,-0.5267980098724365,-1.7125604152679443
1783201306230468900,3.69246875,2.720251477354765,-1.381029118235409,2.6546529237627983,-0.5119006037712097,-0.4769239127635956,-1.7370316982269287
1783201306240406000,3.702406005859375,2.746175023162365,-1.862875500214845,1.6420044057160614,-0.3654978573322296,-0.5147300362586975,-1.6987409591674805
1783201306250343000,3.712343017578125,2.782489614602923,-2.091419905820489,1.0256365944355723,-0.130630761384964,-0.5932924747467041,-1.6364868879318235
1783201306260279000,3.722279052734375,2.801360319289565,-2.021418148833513,0.8391869711071253,0.1640756875276565,-0.6434468626976013,-1.5389443635940552
1783201306270216000,3.7322158203125,2.7818378726959225,-1.679300555539876,1.091586445683241,0.4266364574432373,-0.5532639622688293,-1.36860191822052
1783201306280153000,3.742153076171875,2.746571913525462,-1.112927997462824,1.7283406269103287,0.6092198491096497,-0.2855724990367889,-1.131463885307312
1783201306290089700,3.75208984375,2.627838566595316,-0.6874439195007085,2.3080068932592868,0.6667702198028564,0.1513760685920715,-0.8689020276069641
1783201306300027000,3.76202685546875,2.262265278912336,-0.4393598969709127,2.611700501742959,0.5676602721214294,0.7098031640052795,-0.6598927974700928
1783201306309964000,3.771964111328125,1.870369509232044,-0.3301709887817501,2.586863582128286,0.302384078502655,1.2756657600402832,-0.4163296520709991
1783201306319901000,3.78190087890625,1.4104495662480592,-0.5549450090032071,1.926339233735204,-0.1186958253383636,1.6416151523590088,-0.2087422162294387
1783201306329838000,3.791838134765625,1.214944822065532,-0.5505170364931226,0.4098433681726455,-0.5737400650978088,1.375389575958252,-0.2124661207199096
1783201306339774700,3.801774658203125,1.3047693237669764,0.0064426368007436,-2.097717544659972,-1.0074727535247805,0.8005543351173401,-0.2107195556163787
1783201306349712000,3.8117119140625,1.304387192581594,0.5249617394760251,-3.94892642634809,-1.4541878700256348,0.2188781350851059,-0.1919543892145156
1783201306359649000,3.82164892578125,0.8720238034345209,0.7421772340767085,-4.725556695777177,-1.7624746561050415,-0.3300734162330627,-0.2033351808786392
1783201306369586000,3.8315859375,0.1304790220424533,0.3942299117162823,-4.9512785913079975,-1.8186441659927368,-0.5604017376899719,-0.266127198934555
1783201306379521800,3.841521728515625,-0.3609652093656361,0.1474769551271572,-4.350803930208087,-1.806496024131775,-0.3566409945487976,-0.4026592075824737
1783201306389459000,3.851458984375,-0.5058914205640554,0.337567455708608,-3.7395173677146434,-1.5892060995101929,-0.233204036951065,-0.6188397407531738
1783201306399395800,3.861395751953125,-0.4978193193979561,0.2376830034920945,-4.177096884074807,-1.0624345541000366,-0.2257631570100784,-0.8673394918441772
1783201306409333000,3.8713330078125,-0.1348997610941529,0.1929432961966842,-4.644787461060285,-0.3766447305679321,-0.2322570085525512,-1.0600556135177612
1783201306419270100,3.881270263671875,0.1353644559964537,0.1463819629646837,-4.202036095020175,0.3435301482677459,0.0178180616348981,-1.1917701959609983
1783201306429206800,3.891206787109375,0.1511351488411426,-0.3151436616502702,-2.874728922361135,1.0347338914871216,0.6368852853775024,-1.2297385931015017
1783201306439144000,3.90114404296875,0.3234576087482273,-1.192021846313402,-1.0128992779374122,1.7058442831039429,1.5163482427597046,-1.097659945487976
1783201306449080800,3.911080810546875,1.1646038241643455,-2.394621346873045,-0.1856558426022529,2.380135059356689,2.514967203140259,-0.8581627011299133
1783201306459018000,3.92101806640625,1.7366957828015088,-3.451685345229506,0.2420586978256702,3.12802791595459,3.017055988311768,-0.4850902259349823
1783201306468955100,3.930955078125,0.6508112020216882,-3.479370055490732,-1.0103338113635778,3.636433362960816,3.1068379878997803,-0.2509650886058807
1783201306478891800,3.940891845703125,-0.2053988548777066,-2.639583949446678,-2.177698259347677,3.570367813110352,2.648094415664673,-0.2171892076730728
1783201306488829000,3.950828857421875,-0.3339192353993654,-1.806994038517028,-2.44677589700222,3.01317834854126,2.145984411239624,-0.3411763906478882
1783201306498765800,3.960765869140625,-0.1018573231920599,-0.4570395652420818,-0.0306388838917016,2.2749030590057373,2.447559118270874,-0.5517037510871887
1783201306508703000,3.970702880859375,0.1666348792573437,0.6184549928180874,5.325689996093511,1.2762093544006348,3.4676098823547363,-0.8473953008651733
1783201306518638800,3.980638916015625,0.5450521952159703,0.4882239541873335,7.288215226453542,0.3829629719257355,4.251522541046143,-1.0982327461242676
1783201306528576000,3.990575927734375,0.366758844205737,-0.1490099733807146,6.410110203409195,-0.3889633119106293,4.554259300231934,-1.1280558109283447
1783201306538513000,4.000512939453125,0.2463499652788043,-0.9603650808408856,5.563938195720315,-1.1917215585708618,4.388436794281006,-0.9791345596313475
1783201306548450000,4.010449951171875,0.0136081079833209,-2.1145624426074323,5.057758605864644,-2.1825835704803467,3.718927621841431,-0.6406182646751404
1783201306558387000,4.020386962890625,-0.0367509370312094,-3.304855200105905,4.466641555696725,-2.776038408279419,0.793484628200531,0.000222735106945
1783201306568323800,4.03032373046875,1.8324492361605167,-5.457208590316772,-5.387884878721833,-3.0052754878997803,-2.3688197135925293,0.7341006994247437
1783201306578261000,4.040260986328125,3.895150704757869,-3.6681595199435946,-0.6111088678389788,-2.999802827835083,-3.284634590148926,1.1753950119018557
1783201306588198000,4.050197998046875,3.326423473313451,-0.5163843922015279,-0.9430711239516736,-2.5583174228668213,-4.150041103363037,1.2882845401763916
1783201306598135000,4.060135009765625,1.28433663046062,0.869322289390862,-0.8005822229027748,-1.9412840604782104,-4.108109474182129,1.1916422843933103
1783201306608072000,4.070072021484375,0.2853109065096825,1.808850626169145,0.714211514917016,-1.3474795818328855,-3.3900742530822754,1.0029513835906982
1783201306618008800,4.0800087890625,0.0801219497893005,2.1298738473773,1.2824644068479538,-0.9150128364562988,-2.400465726852417,0.7931972146034241
1783201306627946000,4.089946044921875,0.4367911059288308,1.6114285040579734,0.4994406369894743,-0.7114520072937012,-1.2134004831314087,0.5889090299606323
1783201306637883000,4.0998828125,1.4126196037635206,0.370059566251561,-0.033926234999299,-0.7223157286643982,0.3134208917617798,0.3457745611667633
1783201306647819000,4.109819091796875,0.7297983756273985,-0.8734915378995239,-1.5455226380825042,-0.7494410872459412,0.2848318517208099,0.0350861847400665
1783201306657756000,4.119755859375,-0.6221084007591009,-1.6075816193714736,-2.741300695124268,-0.8078605532646179,0.3091523647308349,-0.0657439902424812
1783201306667692800,4.12969287109375,-0.020139628643915,-1.4595293851070106,-3.048719461610913,-0.9134911298751832,0.3705571293830871,-0.0333237312734127
1783201306677630000,4.1396298828125,-0.2845561426196247,-1.17323078273423,-3.68747212317884,-1.1080713272094729,0.6148791313171387,-0.0218376889824867
1783201306687567000,4.149567138671875,-0.743328011547029,-1.954282741063088,-4.361308957609534,-1.0600366592407229,0.7284179925918579,0.0033174660056829
1783201306697504000,4.15950390625,-1.3618125227205455,-2.6459160750776527,-4.712908811128139,-0.9336078763008118,0.8915324211120605,-0.0275806244462728
1783201306707441000,4.16944091796875,-1.6843860421106218,-2.458408174867928,-4.546465033996105,-0.759495735168457,0.9719406962394714,-0.1185065358877182
1783201306717377800,4.179377685546875,-2.15251837151423,-2.093115457691997,-4.124938826814294,-0.7025254368782043,0.8362579345703125,-0.2477594166994094
1783201306727315000,4.18931494140625,-2.4630457715407013,-1.5105055391065776,-3.343911199209094,-0.5240089893341064,0.698369562625885,-0.214938074350357
1783201306737252000,4.199252197265625,-2.409902794896066,-1.6144956365436314,-2.451764791330695,-0.1103883311152458,0.833409309387207,-0.1009691730141639
1783201306747189000,4.20918896484375,-2.5096941254690286,-1.873262015803158,-1.9347446585088968,0.5012058019638062,1.2042059898376465,-0.0293309316039085
1783201306757126000,4.2191259765625,-2.83543356154412,-2.1934590153202413,-1.9914859519064425,1.092822551727295,1.5920623540878296,-0.0530936084687709
1783201306767062800,4.229062744140625,-3.056271192164719,-2.2346681008040905,-2.225483508351445,1.576003074645996,1.908762812614441,-0.1861778944730758
1783201306777000000,4.239,-3.256414117541909,-1.8691211166061457,-2.1390806516617533,1.9363452196121216,2.132553100585937,-0.3800198137760162
1783201306786937000,4.24893701171875,-3.42191272277832,-1.5150415751010178,-1.5941238796442747,2.0149545669555664,2.1553730964660645,-0.5823806524276733
1783201306796874000,4.2588740234375,-3.3810184023320677,-1.302553839674592,-1.09444183511436,1.9579248428344729,2.0152347087860107,-0.7215213775634766
1783201306806811000,4.268810791015625,-3.1443770533800124,-1.2881823461033404,-0.317034151571989,1.7866283655166626,1.788895845413208,-0.7922117710113525
1783201306816747000,4.2787470703125,-2.9812507302328943,-0.9596936843853444,0.7643231610417366,1.583793878555298,1.5890380144119265,-0.834496796131134
1783201306826684000,4.288683837890625,-2.848808299162984,-0.4093975241012871,1.7744927217543125,1.388996720314026,1.365705132484436,-0.8672062754631042
1783201306836621000,4.29862109375,-2.6575387083321806,0.4026030781881883,2.530654788172245,1.2378599643707275,1.0897526741027832,-0.8530987501144409
1783201306846558000,4.308557861328125,-2.357264552903175,1.130635138262808,3.332478535568714,1.1849822998046875,0.7948166131973267,-0.8068380355834961
1783201306856494800,4.318494873046875,-1.8194257961973548,1.638730206350982,4.0649364857941865,1.2082663774490356,0.5633266568183899,-0.7527364492416382
1783201306866432000,4.328431884765625,-1.1291375931814311,2.0512293497294185,4.577363445606827,1.257229924201965,0.4615760743618011,-0.7341124415397644
1783201306876369000,4.338368896484375,-0.5840636245250701,2.471806585623324,4.91140016990602,1.2582684755325315,0.3965551257133484,-0.8302744030952454
1783201306886306000,4.34830615234375,-0.0155973821043968,3.064879446034133,4.863754621633887,1.1129088401794434,0.3130205571651459,-1.0632051229476929
1783201306896243000,4.358242919921875,0.6330021352171897,3.0870255191296336,4.739498127368092,0.8478431105613708,0.0914383679628372,-1.2772637605667114
1783201306906179800,4.368179931640625,1.2301204716265202,2.46446557521075,4.84187362921536,0.4991221725940704,-0.2117995321750641,-1.4038046598434448
1783201306916117000,4.378116943359375,1.114208319596946,2.1680638773009178,5.282564555594325,0.1180595383048057,-0.6056464910507202,-1.4619758129119873
1783201306926054000,4.388053955078125,0.547698179680109,1.7730235259845852,5.271186252489685,-0.2531856596469879,-1.17622971534729,-1.4285025596618652
1783201306935991000,4.397990966796875,0.0483180407062172,0.9448884755719452,4.486376768258213,-0.5684898495674133,-1.9112427234649656,-1.3165205717086792
1783201306945928000,4.407927978515625,-0.1464586814627051,0.2242899630315601,3.339397521176934,-0.8274868130683899,-2.6349661350250244,-1.2581230401992798
1783201306955864800,4.41786474609375,-0.3911646789267659,-0.1234252310734242,2.263190430933237,-1.0189648866653442,-3.3204329013824463,-1.3169904947280884
1783201306965802000,4.427802001953125,-0.4246409782014786,-0.5155830492233857,0.6468348457366228,-1.2523382902145386,-3.468064308166504,-1.5390007495880127
1783201306975738000,4.437738037109375,-0.0978634312503039,-0.7309798404969274,-0.2941442743718624,-1.5637567043304443,-3.071063280105591,-1.9448950290679927
1783201306985674800,4.4476748046875,0.1529025969050824,-0.9149719146054236,-1.8175813373744487,-1.965914011001587,-2.4432475566864014,-2.5207033157348637
1783201306995612000,4.45761181640625,0.1923139853172004,-1.0249989541191606,-3.6428836243897673,-2.393669843673706,-1.860105037689209,-3.1298084259033203
1783201307005549000,4.467549072265625,0.6187311794109642,-1.3909996003687382,-5.494060941895842,-2.6868197917938232,-1.4931670427322388,-3.521070957183838
1783201307015486000,4.47748583984375,0.9683756610780954,-1.8146926301956177,-7.118284776249528,-2.6466152667999268,-1.270912766456604,-3.5687477588653564
1783201307025423000,4.487423095703125,1.3249936350196598,-2.457363926512002,-9.003902708017826,-2.251667022705078,-0.9755764603614808,-3.344196081161499
1783201307035359700,4.49735986328125,0.941990708303824,-2.8315295398429035,-9.892042802864312,-1.6257120370864868,-0.6721619367599487,-2.973418951034546
1783201307045297000,4.507296875,0.3022982086025178,-2.55718506770134,-10.07620110038519,-0.9361437559127808,-0.4751159846782684,-2.56058120727539
1783201307055234000,4.517234130859375,-0.3926831206656992,-2.196327264232933,-9.538585338780283,-0.2189209908246994,-0.2477090805768966,-2.193572998046875
1783201307065171200,4.527171142578125,-0.788874760909006,-1.7844947680696843,-8.564823308488727,0.5020821690559387,0.0921041443943977,-1.9397728443145752
1783201307075108400,4.5371083984375,-1.04159879126437,-1.2748435565806924,-7.515836818125844,1.1507158279418943,0.5291492938995361,-1.8080544471740725
1783201307085045000,4.547044921875,-1.23418158358559,-0.6232954185865819,-6.53332040349245,1.663854479789734,0.9924650192260742,-1.7921319007873535
1783201307094982100,4.556982177734375,-1.510676219498366,-0.0073109806004911,-5.61859099240601,1.9899237155914309,1.4426425695419312,-1.821965217590332
1783201307104919300,4.566919189453125,-1.7376304333031176,0.3228623462688177,-4.547511328178644,2.122910499572754,1.7800062894821167,-1.8406270742416384
1783201307114856200,4.576856201171875,-1.714332267563045,0.427539476121962,-3.632888884598017,2.0934596061706543,1.899304270744324,-1.77335786819458
1783201307124793300,4.58679345703125,-1.5658378424890338,0.2232639079194515,-3.035350861471892,1.94356369972229,1.8180879354476929,-1.5906107425689695
1783201307134730000,4.59672998046875,-1.460726924328506,-0.0842765669844113,-2.501316465485096,1.7204835414886477,1.6236066818237305,-1.342621684074402
1783201307144666000,4.606666015625,-1.374847653121501,-0.2800680739527568,-2.09026196795702,1.5179104804992676,1.3604522943496704,-1.0840167999267578
1783201307154603300,4.616603271484375,-1.3247615798294543,-0.5554549312867224,-1.7340087356746197,1.4062579870224,1.087567687034607,-0.9025886058807372
1783201307164540400,4.62654052734375,-1.5082242963016033,-0.5275683417778462,-1.0536305167764424,1.3897743225097656,0.8969753980636597,-0.8060750961303711
1783201307174477000,4.63647705078125,-1.4302901388801634,-0.9115957892358304,0.0129687871664762,1.4286104440689087,0.6991754770278931,-0.724163830280304
1783201307184414200,4.646414306640625,-1.5150689014993608,-0.8023893453899771,0.7030483158677816,1.4938647747039795,0.367356538772583,-0.7307413220405579
1783201307194351000,4.65635107421875,-1.6402305279113352,-0.3173566249920055,1.0859639296263457,1.577714920043945,0.0591149218380451,-0.784852147102356
1783201307204288300,4.666288330078125,-1.3728982726193963,-0.0510757419165223,1.5190607476145028,1.6773390769958496,-0.1573553383350372,-0.8545801043510437
1783201307214225400,4.676225341796875,-1.0904155022077262,0.0628305501833558,1.8301427127838132,1.730418086051941,-0.2443022727966308,-0.912463366985321
1783201307224162000,4.686162109375,-0.9789131294444204,0.1227762656453996,2.25311385807693,1.6775096654891968,-0.2555495798587799,-0.9447184801101683
1783201307234099200,4.69609912109375,-1.1039007144637405,0.141381378198415,2.585591662496328,1.5077286958694458,-0.2873170077800751,-0.9242371916770936
1783201307244036000,4.7060361328125,-1.1726001566804944,0.1733688271548598,2.8766028995394706,1.2612041234970093,-0.3580527007579803,-0.8269010782241821
1783201307253973200,4.71597314453125,-1.0448882612638175,0.284552416292578,3.193559894222021,1.036286473274231,-0.45594322681427,-0.6656087040901184
1783201307263910400,4.725910400390625,-0.7819580403231083,0.4670851584382355,3.49302624039948,0.9121008515357972,-0.5896389484405518,-0.4744289219379425
1783201307273847000,4.735846923828125,-0.7096896535784005,0.6214008370116353,3.722857324814796,0.9502646327018738,-0.8294703364372253,-0.3378632664680481
1783201307283784200,4.7457841796875,-1.0884694827064871,0.7914877929516136,3.945354997602105,1.076884150505066,-1.15623939037323,-0.3041037023067474
1783201307293721000,4.75572119140625,-1.3693383881807326,0.9324816331371664,4.059328582784533,1.2316877841949463,-1.412360429763794,-0.3903253972530365
1783201307303658200,4.765658203125,-1.328260527861118,1.2027213003084063,4.2675206668436525,1.3189624547958374,-1.5382362604141235,-0.5295695662498474
1783201307313595400,4.775595458984375,-1.2436483539804817,1.4634677474692463,4.436088012000918,1.2799692153930664,-1.5001521110534668,-0.7163854837417603
1783201307323532000,4.785531982421875,-1.4886810991808772,1.5850994461894037,4.777770282617211,1.157652735710144,-1.366387128829956,-0.9372372031211852
1783201307333469200,4.79546923828125,-1.7917963232547045,1.6522512205727398,5.058029239499569,1.1187971830368042,-1.189075589179993,-1.1255908012390137
1783201307343405300,4.8054052734375,-2.0054333748467266,1.7914831656523047,5.206565019497275,1.129123568534851,-1.0937185287475586,-1.2918198108673096
1783201307353342200,4.81534228515625,-2.1182354320317507,2.220260220745206,4.926659113836288,1.2176250219345093,-1.233665943145752,-1.4914571046829224
1783201307363279000,4.825279052734375,-2.0417811379045245,2.749667249192297,4.0762522450566285,1.389123558998108,-1.6524981260299685,-1.6946760416030884
1783201307373216300,4.83521630859375,-1.7482611329108475,3.250085791303217,2.9302853898882866,1.6504467725753784,-2.1655516624450684,-1.864917993545532
1783201307383153200,4.845153076171875,-0.8739557944104075,3.511388995563984,1.8836124371647835,1.9440323114395144,-2.5298073291778564,-1.8771328926086424
1783201307393090300,4.85509033203125,0.1289417477388866,3.6869405005201696,1.3913508980244398,2.171678304672241,-2.752725124359131,-1.7001067399978638
1783201307403027200,4.865027099609375,0.761869922670722,4.425193400759995,1.185375320971012,2.222908973693848,-2.794581174850464,-1.434276103973389
1783201307412964000,4.874964111328125,1.06928708172217,5.22324785875082,1.578255279383063,1.9907944202423096,-2.561737537384033,-1.153980374336243
1783201307422901200,4.8849013671875,1.2608256987527011,5.680433992856741,2.418447628140449,1.5315330028533936,-2.105419158935547,-0.9042780995368958
1783201307432838100,4.894838134765625,1.423087221764028,5.940132392269373,3.110141606301069,0.8930400013923645,-1.584626078605652,-0.6936210989952087
1783201307442775300,4.904775390625,1.479321150161326,6.008288813650608,3.1115117256104945,0.099780723452568,-1.203705668449402,-0.4598432779312134
1783201307452712200,4.914712158203125,1.4127730407595631,5.1634121064692735,2.4378081621706484,-0.7935454845428467,-1.0683813095092771,-0.1199674531817436
1783201307462649000,4.924649169921875,1.3678130783095954,3.81523311843425,1.5458488012969491,-1.688245177268982,-1.1039410829544067,0.2185147106647491
1783201307472586200,4.934586181640625,0.9892319135587662,3.1870503661975262,0.831609813851118,-2.3818416595458984,-1.1422091722488403,0.4539157152175903
1783201307482523100,4.944523193359375,0.5084965615611523,2.729870661832392,-0.0448912811279296,-2.817704439163208,-1.07334566116333,0.5470554828643799
1783201307492460300,4.954460205078125,0.115729196678102,2.1022563571333883,-1.5343454105079173,-2.9133141040802,-1.1131218671798706,0.4966568648815155
1783201307502397200,4.964397216796875,-0.2726464360520243,1.5213421365499495,-4.323540660229325,-2.667465925216675,-1.2078508138656616,0.3507142961025238
1783201307512334000,4.974333984375,-0.7538489671699702,0.7114546174243093,-6.2958309132784605,-2.1934964656829834,-1.0112329721450806,0.1965235024690628
1783201307522271200,4.984271240234375,-1.0480034706749022,0.0028457448199391,-6.651490271320939,-1.652732491493225,-0.5497442483901978,-0.0037267690058797
1783201307532208000,4.9942080078125,-1.396583537980914,-0.102000823315978,-6.832129747065902,-1.2185229063034058,0.1424849182367324,-0.2360476553440094
1783201307542144300,5.004144287109375,-1.0793984336309137,-0.0210476103343069,-6.683298198992014,-1.214329481124878,2.105213165283203,-0.5709041953086853
1783201307552081200,5.0140810546875,-0.6475055846050382,0.3808504979223012,-7.365707046934962,-1.1004163026809692,2.8495726585388184,-0.6008836030960083
1783201307562018000,5.02401806640625,-1.0745165798734873,0.1285292031489312,-9.865015679728984,-0.7703853845596313,2.0500168800354004,-0.2605045139789581
1783201307571955200,5.033955078125,-0.3902778130896389,-0.0555083906017243,-8.913210045179724,-0.3177205920219421,1.3691365718841553,0.0478753037750721
1783201307581892400,5.043892333984375,0.3861975580386817,-0.3091372608423233,-6.110042384207248,0.2479825019836425,1.178253173828125,0.0835619270801544
1783201307591829200,5.053829345703125,0.3695864688470959,-0.1485410406947135,-4.965264446562529,0.7860601544380188,1.0602033138275146,-0.0695285946130752
1783201307601766100,5.06376611328125,0.5318830266391859,0.3438961472734809,-4.626045935711264,1.1716476678848269,0.973209261894226,-0.2430854588747024
1783201307611703000,5.073703125,1.168907001250982,0.5140234352238476,-3.612116730204225,1.3836530447006226,0.9150913953781128,-0.3466889560222626
1783201307621640200,5.08364013671875,1.5168164758190512,0.62730874588117,-3.104836485630273,1.447852611541748,0.6230952143669128,-0.3666392564773559
1783201307631577300,5.093577392578125,1.4833894225135444,0.9608663083612918,-3.198700179719925,1.4315650463104248,0.31341153383255,-0.3297894299030304
1783201307641514200,5.10351416015625,1.4369351298525928,1.4236401794716715,-2.163233680665493,1.4083691835403442,0.330305814743042,-0.329923927783966
1783201307651451100,5.113451171875,1.4176480994500218,1.8439546727761624,-0.506015339204669,1.3910666704177856,0.7218828201293945,-0.3182140290737152
1783201307661388000,5.123387939453125,1.4045641614712774,1.8343568233475087,0.8485778997868298,1.3553584814071655,1.147527098655701,-0.2353753596544265
1783201307671325200,5.1333251953125,1.330222037192434,1.917849053287506,1.6734394084215165,1.2480117082595823,1.452504277229309,-0.1127580031752586
1783201307681262300,5.143262451171875,1.2573324498094618,2.238876073887944,2.3028631006300446,1.0955955982208252,1.4999003410339355,0.0172596499323844
1783201307691199200,5.15319921875,1.2141853820003567,2.6442320675134656,2.7780168531030416,0.906851291656494,1.2928035259246826,0.1211978569626808
1783201307701136100,5.16313623046875,1.2342530413866042,3.059064914536476,3.19943609277904,0.7123537659645081,1.0252751111984253,0.2111852765083313
1783201307711073300,5.1730732421875,1.4737828052565454,3.0318089510813357,3.983922336405516,0.5211374163627625,0.6964734196662903,0.2644560039043426
1783201307721010200,5.18301025390625,1.212066782411188,2.5191797466948627,4.453180601099133,0.2968252301216125,0.5286040306091309,0.2137408852577209
1783201307730947300,5.192947265625,1.4471727384895086,2.713018311230838,4.679604507419467,0.0633526369929313,0.2490507662296295,0.1813093572854995
1783201307740884200,5.20288427734375,1.5591617257259784,3.0817011092364788,4.5103234610348935,-0.2064120024442672,-0.0983505994081497,0.2316897064447403
1783201307750820000,5.212820068359375,1.82971104336828,2.8772800681486723,4.1651258757740255,-0.4286649823188782,-0.569118082523346,0.3495899438858032
1783201307760757200,5.22275732421875,1.8377933736674483,2.3868451599136,3.855644331538677,-0.5510841608047485,-0.8253772854804993,0.4584724903106689
1783201307770694100,5.232694091796875,2.0356886662483213,2.1300506652489304,3.361984031516313,-0.5181266665458679,-0.9232595562934875,0.5792691707611084
1783201307780631300,5.24263134765625,2.1355958782859146,1.966801592504978,2.6872522940725085,-0.4029081761837005,-0.914024531841278,0.6898638606071472
1783201307790568200,5.252568115234375,2.135992914779484,1.961736418069899,2.189107542112469,-0.2480905205011367,-0.8244802951812744,0.8117272853851318
1783201307800505000,5.262505126953125,2.193899306433648,1.7659528569459917,2.0814029541969297,-0.0630713999271392,-0.5378703474998474,0.95018208026886
1783201307810442200,5.272442138671875,2.2717205049999056,1.5362582583919169,1.78643333491683,0.1033573597669601,-0.5103122591972351,1.0903289318084717
1783201307820379100,5.282379150390625,2.182748820735514,1.6174290596470235,1.1036550691395997,0.2359178066253662,-0.5538003444671631,1.2146005630493164
1783201307830316300,5.29231640625,2.0372958091840148,1.571924030534923,1.224975509953499,0.3070842921733856,-0.6368248462677002,1.3319556713104248
1783201307840253200,5.302253173828125,1.9679373185366391,1.4267147646114229,1.3204179976671933,0.2790140509605407,-0.7856137752532959,1.4293756484985352
1783201307850190000,5.312190185546875,1.8705134477473797,1.1937050501599906,1.2887795813441276,0.1698154807090759,-0.9535715579986572,1.5232524871826172
1783201307860127200,5.322127197265625,1.6280694038659334,0.8129571358293295,1.1774234851837158,0.0152317592874169,-1.0645196437835691,1.623455047607422
1783201307870064400,5.332064453125,1.3547639193832874,0.3811442201718688,0.9879542217731476,-0.1712821424007415,-1.0656629800796509,1.7238329648971558
1783201307880001300,5.342001220703125,1.0307070295676588,0.104201548230648,0.398861370909214,-0.3425005078315735,-1.0680822134017944,1.80371367931366
1783201307889938200,5.351938232421875,0.5684289791502058,0.0027364392265677,-0.6062000530093908,-0.4932706654071808,-1.1065316200256348,1.862762689590454
1783201307899875000,5.361875,0.2313431694786995,0.054777007587254,-1.7747201007694005,-0.5937474370002747,-1.121305227279663,1.883608341217041
1783201307909812200,5.371812255859375,-0.190374103295803,-0.0493263409659266,-3.123091104245186,-0.677036702632904,-0.9940564036369324,1.86354660987854
1783201307919749400,5.381749267578125,-0.791202692399919,-0.0983276877611875,-4.2923435579329725,-0.7214129567146301,-0.7625073790550232,1.7827972173690796
1783201307929686300,5.391686279296875,-1.5548036766469475,0.1180710836291313,-5.2655485388636585,-0.7096359729766846,-0.4773001074790954,1.629633903503418
1783201307939623200,5.401623046875,-2.2447160320878026,0.4383905404821038,-6.059695175760984,-0.6131373643875122,-0.1151656135916709,1.4177902936935425
1783201307949560000,5.41156005859375,-2.745883931261301,0.6974823523037135,-6.479357927158475,-0.3989986479282379,0.3127960860729217,1.156148910522461
1783201307959497200,5.421497314453125,-2.7839877442061898,0.6385394572086632,-6.624293052315712,-0.0622831881046295,0.7708725929260254,0.979272186756134
1783201307969433300,5.431433349609375,-2.263154482837021,-0.1415863992512226,-6.497746985808014,0.3591901957988739,1.132643461227417,0.9217813014984132
1783201307979370200,5.441370361328125,-1.6176562925316391,-0.8340859947063028,-6.32792876380682,0.7798351645469666,1.3082244396209717,0.929408073425293
1783201307989307100,5.45130712890625,-1.2134602825962006,-0.8880662989579141,-5.761074048236012,1.1487168073654177,1.3616838455200195,0.9247849583625792
1783201307999244300,5.461244384765625,-1.0532022083617747,-0.4452873142585158,-4.768714284980296,1.4398953914642334,1.366637945175171,0.8914725184440613
1783201308009181200,5.47118115234375,-1.0001733596161009,-0.1129889580592513,-3.6006186001122,1.6513065099716189,1.3598092794418335,0.8615710139274597
1783201308019118300,5.481118408203125,-0.9314953255135564,0.0643809944957494,-2.4505904868543147,1.7882649898529053,1.329966425895691,0.8563637137413025
1783201308029055200,5.49105517578125,-0.8111781434580683,0.224087864588201,-1.4203952062010765,1.871356010437012,1.27313232421875,0.8750675320625305
1783201308038992100,5.5009921875,-0.6947387526839971,0.4500006065160036,-0.5325736757844686,1.921477437019348,1.2227226495742798,0.9002237319946289
1783201308048929300,5.51092919921875,-0.6149154205150902,0.7573682273373007,0.333740956223011,1.940131425857544,1.206653356552124,0.9124408960342408
1783201308058866200,5.5208662109375,-0.5735266676153987,1.0898173901841044,1.220452479571104,1.9200432300567627,1.2646600008010864,0.9132384657859802
1783201308068803300,5.53080322265625,-0.5411961043097079,1.4353244797855615,2.1401357136726378,1.833740472793579,1.3964389562606812,0.8939522504806519
1783201308078740500,5.540740478515625,-0.5408826179137454,1.780121959812939,3.08361951007843,1.6649993658065796,1.5840978622436523,0.8585103750228882
1783201308088677400,5.550677490234375,-0.5648392110299318,2.073764129881561,3.961868325507641,1.40776789188385,1.7683680057525637,0.8374592661857605
1783201308098614300,5.5606142578125,-0.5800851493481546,2.2419050663203,4.672199199599027,1.0776337385177612,1.8929331302642824,0.8560598492622375
1783201308108551200,5.57055126953125,-0.4794461159046739,2.1720579153731463,5.126246451157331,0.7198514342308044,1.9324449300765991,0.9146887063980104
1783201308118488300,5.58048828125,-0.1980509215340018,1.945391432468593,5.306513586458563,0.3895076215267181,1.875733733177185,1.0012537240982056
1783201308128425500,5.590425537109375,-0.0253011761255562,1.8249758315399287,5.28689936992824,0.1405562162399292,1.684269666671753,1.1245238780975342
1783201308138362400,5.6003623046875,0.1014059809616766,1.8509300647467373,5.0915591686576605,-0.0180347636342048,1.420439839363098,1.2435166835784912
1783201308148299300,5.61029931640625,0.2476688658576458,1.912878571398556,4.899349082106352,-0.0978104174137115,1.169659972190857,1.321763038635254
1783201308158236200,5.620236083984375,0.4031303534653037,1.9252388712778683,4.79021241556108,-0.118420623242855,0.9699153900146484,1.3682339191436768
1783201308168173300,5.63017333984375,0.4948191146686673,1.757486349634826,4.674474158793688,-0.1066352576017379,0.7948808670043945,1.4208980798721311
1783201308178110500,5.6401103515625,0.3844547329593449,1.4975284225031733,4.325015408957004,-0.0843280851840972,0.6387975215911865,1.4789966344833374
1783201308188047400,5.65004736328125,0.0015465535885654,1.3138026711806654,4.155288372370601,-0.1069715172052383,0.4839560389518738,1.5713943243026731
1783201308197984300,5.659984375,-0.3788490219067782,1.1254895920678971,4.225893355947733,-0.1551086753606796,0.3418002128601074,1.621401071548462
1783201308207921200,5.669921142578125,-0.7609210975132882,1.3209624798074364,4.225170302370191,-0.2336844056844711,0.1896467953920364,1.5976563692092896
1783201308217858300,5.6798583984375,-1.1894587178271263,1.6644389403641222,4.03861371153593,-0.348583310842514,0.0153682036325335,1.4988571405410769
1783201308227795500,5.68979541015625,-1.4676106924928725,1.9061805350646372,3.73103770866096,-0.5229663848876953,-0.1672476977109909,1.3256434202194214
1783201308237731300,5.6997314453125,-1.540447380644828,1.9298609781205651,3.28671865491271,-0.7788229584693909,-0.4756681025028229,1.177006483078003
1783201308247668200,5.709668212890625,-1.1894800528760998,1.3011468954861165,2.2203274407625195,-1.0714391469955444,-0.903589367866516,1.1158497333526611
1783201308257605400,5.71960546875,-0.569528026433289,0.555702622437477,0.9973626861095428,-1.358323097229004,-1.2778925895690918,1.100242257118225
1783201308267542300,5.729542236328125,0.0061332055253908,0.1615714949205517,-0.0731681120634079,-1.6059218645095823,-1.5168837308883667,1.0765275955200195
1783201308277479400,5.7394794921875,0.447116940838471,-0.1928878396824002,-1.3532909242212772,-1.787090539932251,-1.6603902578353882,1.0715725421905518
1783201308287416300,5.749416259765625,0.7472104790035635,-0.5622592044740915,-2.7548966742783785,-1.8597043752670288,-1.6470208168029783,1.1047762632369995
1783201308297353200,5.759353271484375,0.7839856006279587,-0.8157002970576286,-4.099837703305482,-1.818304181098938,-1.462598204612732,1.180214524269104
1783201308307290400,5.769290283203125,0.542167945016548,-0.9513336331233382,-5.338154340869188,-1.668850660324097,-1.1162962913513184,1.274087905883789
1783201308317227300,5.779227294921875,0.1462413854502141,-0.7324953596264123,-6.198494574642181,-1.4210776090621948,-0.6738946437835693,1.3306984901428225
1783201308327164400,5.789164306640625,-0.31479426369071,-0.4588263025283813,-6.787619574210047,-1.0963354110717771,-0.2570710778236389,1.3410365581512451
1783201308337101300,5.799101318359375,-0.6630405689977109,-0.5250704605475067,-7.143470655432343,-0.7286974191665649,0.0936421975493431,1.3343669176101685
1783201308347038200,5.8090380859375,-0.8679210442908107,-0.9175815856471656,-7.113968666616082,-0.363599956035614,0.3786770105361938,1.3064372539520264
1783201308356975400,5.818975341796875,-0.995574779779464,-1.243158524636924,-6.671589056497812,-0.0384975112974643,0.5885354280471802,1.2262953519821167
1783201308366912300,5.828912353515625,-1.0944899120397864,-1.2353060575708743,-5.951303774625063,0.2182962447404861,0.6949203610420227,1.1086515188217163
1783201308376849400,5.838849365234375,-1.0844931264214217,-1.1198211910426616,-5.156609440717101,0.3930994570255279,0.7018717527389526,0.9801207184791564
1783201308386786300,5.848786376953125,-0.9453671259343625,-0.9541524899363516,-4.397748052212596,0.5023145079612732,0.6570714712142944,0.8599581718444824
1783201308396723200,5.85872314453125,-0.7153888881333171,-0.7525088046073913,-3.650260290637612,0.5712267160415649,0.6048657894134521,0.7768782377243042
1783201308406660400,5.868660400390625,-0.4503640330009162,-0.5842559322267771,-2.968947421237826,0.6161535978317261,0.5870401263237,0.7384020090103149
1783201308416597200,5.87859716796875,-0.2451255380503833,-0.3975725001424551,-2.298628824061155,0.641110360622406,0.6379411220550537,0.7301198244094849
1783201308426534400,5.888534423828125,-0.1743799769587814,-0.1849053164958953,-1.5657459264218807,0.6542697548866272,0.7298116683959961,0.739342451095581
1783201308436471300,5.89847119140625,-0.1823540245778858,0.0544204492345452,-0.8757979151457548,0.6547610759735107,0.8274628520011902,0.7646903991699219
1783201308446408200,5.908408203125,-0.252114739350602,0.2631640296965837,-0.1811708061426878,0.6474015116691589,0.9157071709632874,0.7962464690208435
1783201308456345300,5.918345458984375,-0.3749675773635506,0.4637283953562379,0.4846370356112718,0.6348186135292053,0.97573584318161,0.8255236148834229
1783201308466282200,5.9282822265625,-0.4918351304218172,0.647324967341125,1.131441486209631,0.6297462582588196,1.0112063884735107,0.8512610793113708
1783201308476219400,5.938219482421875,-0.6090468938078731,0.8421794309213757,1.7480863608658312,0.6272729635238647,1.0305659770965576,0.8578034043312073
1783201308486156300,5.94815625,-0.7157197275228798,1.0528729764074087,2.3852777644664047,0.6405283212661743,1.0149478912353516,0.8550387620925903
1783201308496093200,5.95809326171875,-0.7925235657401383,1.266667410518229,2.937345245271921,0.6524976491928101,0.9521753191947936,0.8361462950706482
1783201308506030300,5.9680302734375,-0.8192655883237719,1.4755883933737872,3.457551606914401,0.6504573822021484,0.8536569476127625,0.8129144906997681
1783201308515967500,5.977967529296875,-0.7969952312614769,1.6457587898135184,4.013080626350641,0.6141393184661865,0.6872717142105103,0.8042080998420715
1783201308525903000,5.987903076171875,-0.6261836873739958,1.617125985047221,4.438801947134733,0.5145281553268433,0.450874924659729,0.8404586315155029
1783201308535840300,5.99784033203125,-0.4042728380313143,1.3959630679950117,4.738804884406924,0.3450315594673157,0.1844805181026458,0.9245452880859376
1783201308545777400,6.00777734375,-0.2564592348283157,1.126200662946701,4.916352239355445,0.1205793768167495,-0.1000008210539817,1.0417920351028442
1783201308555714300,6.01771435546875,-0.3430188529822975,0.9294231223493814,4.739996140018105,-0.1178283989429473,-0.4068286716938019,1.1239838600158691
1783201308565651500,6.0276513671875,-0.6498107928074895,0.9024082741737364,4.406387285742164,-0.3335682451725006,-0.6423414945602417,1.1350420713424685
1783201308575588400,6.03758837890625,-0.8565178990058601,0.925078078882396,4.062416027405858,-0.5228700041770935,-0.8219099044799805,1.0901107788085938
1783201308585525200,6.047525146484375,-0.8558382461786269,0.9217956962108612,3.380890976560116,-0.6695575714111328,-0.961529016494751,1.0289477109909058
1783201308595462400,6.05746240234375,-0.8026379863888025,0.9384329427570104,2.400700959047675,-0.7925133109092712,-1.0427088737487793,0.993221640586853
1783201308605399300,6.0673994140625,-0.7827167497359215,0.9870385682329534,1.3280243810176848,-0.9068256616592408,-1.0668097734451294,0.9892499446868896
1783201308615336400,6.07733642578125,-0.718043202034384,0.974497358828783,0.2150683995693922,-1.0148829221725464,-1.0414633750915527,1.004223108291626
1783201308625273300,6.0872734375,-0.6009018004707992,0.8015934457719326,-0.9908914442688226,-1.0982011556625366,-1.0105955600738523,1.0198904275894165
1783201308635210200,6.097210205078125,-0.3770041977576911,0.4860892802461981,-2.3196447240829468,-1.1425262689590454,-0.930609405040741,1.01910138130188
1783201308645147400,6.1071474609375,-0.0419064200982451,0.0402978158578276,-3.485625608754158,-1.1121350526809692,-0.7505898475646973,0.9979389309883118
1783201308655084300,6.117084228515625,0.2692532864823937,-0.3983315018162131,-4.42058590696454,-1.006991267204285,-0.4843176901340484,0.9724791646003724
1783201308665021400,6.127021484375,0.3348110696725547,-0.6364160353139042,-5.106552155128121,-0.8429439067840576,-0.1869704127311706,0.9386872053146362
1783201308674958300,6.136958251953125,0.2183428911954164,-0.6634034109607339,-5.549190708443522,-0.6450182795524597,0.1083645597100257,0.8991469740867615
1783201308684895200,6.146895263671875,0.1212228256583213,-0.6202754862435161,-5.727733504170179,-0.4284543991088867,0.3477851152420044,0.864784836769104
1783201308694832400,6.156832275390625,0.1355007957272231,-0.5881291203983128,-5.718197029539942,-0.2079667747020721,0.529310941696167,0.8587836623191833
1783201308704769300,6.166769287109375,0.2516904495239258,-0.617810265173763,-5.4324079110592605,0.0036984095349907,0.6609960198402405,0.8782004714012146
1783201308714706400,6.17670654296875,0.3343605494260788,-0.6781186034031212,-4.970727388143539,0.1893162131309509,0.712669849395752,0.9118463397026062
1783201308724643300,6.186643310546875,0.2697568520903587,-0.5779099242009222,-4.466910435765981,0.3392031490802765,0.7107990384101868,0.9237117767333984
1783201308734580200,6.196580322265625,0.1774760432779789,-0.431415879163891,-3.909921280649304,0.4597423374652862,0.7175946831703186,0.9168208241462708
1783201308744517400,6.206517333984375,0.1431625625267625,-0.3710232236519455,-3.250658915016055,0.5670322179794312,0.7515318393707275,0.9128102660179138
1783201308754454300,6.216454345703125,0.0829920253328979,-0.2840186016768217,-2.610962250596285,0.6558763384819031,0.8047543168067932,0.902182400226593
1783201308764391400,6.226391357421875,-0.0751521254874765,-0.0693209351159632,-1.9249550859004256,0.7413374781608582,0.8862553834915161,0.8867170810699463
1783201308774328300,6.236328369140625,-0.227216371872276,0.1694778841309249,-1.159279925727844,0.7992244958877563,0.9651485681533812,0.8856710195541382
1783201308784265200,6.24626513671875,-0.2986100216090679,0.3013181115239858,-0.4548854559481143,0.8370989561080933,1.0584661960601809,0.8912987112998962
1783201308794202400,6.256202392578125,-0.3335925607282668,0.5593061998873948,0.3196820357322693,0.8506933450698853,1.1563552618026731,0.8843260407447815
1783201308804139300,6.26613916015625,-0.4092280858185142,0.8405588439822197,1.0771259586542845,0.8410859107971191,1.2475119829177856,0.8689400553703308
1783201308814076400,6.276076416015625,-0.4611477312132715,1.023959308873117,1.814615473306179,0.804868221282959,1.324440598487854,0.8603151440620422
1783201308824013300,6.286013427734375,-0.5399669278409331,1.1686448431834575,2.5467840851962564,0.7396811246871948,1.373443841934204,0.8545198440551758
1783201308833950200,6.2959501953125,-0.6057282707791775,1.3052239356666802,3.177157625475526,0.6455628871917725,1.3767759799957275,0.8526047468185425
1783201308843887400,6.305887451171875,-0.6260249896809459,1.4248022089883683,3.7449563438981768,0.5331776142120361,1.3373602628707886,0.8558720946311951
1783201308853824300,6.31582421875,-0.6129180361527949,1.4969032763421537,4.233361792132258,0.4004203677177429,1.2488415241241455,0.8701090812683105
1783201308863760100,6.325760009765625,-0.5516855688158422,1.524299232789874,4.618525477078557,0.2594678103923797,1.1138088703155518,0.8989329934120178
1783201308873697300,6.335697265625,-0.503400115204975,1.510550108900666,4.8603076960504055,0.1003937348723411,0.9298281073570251,0.9218899607658386
1783201308883634400,6.345634521484375,-0.5613514419794082,1.47863229111433,4.980398887330294,-0.0604839697480201,0.7472512125968933,0.9405857920646667
1783201308893571300,6.3555712890625,-0.660898077076301,1.3097796992748976,4.992412565729022,-0.2368976175785064,0.5341058969497681,0.9685071706771852
1783201308903508500,6.365508544921875,-0.6632647331424057,1.0450810073569416,4.721740936881304,-0.4093978703022003,0.2640470862388611,1.0114526748657229
1783201308913445000,6.375445068359375,-0.6572596475087106,0.8362143850371241,4.322830466133356,-0.5539542436599731,-0.0297022517770528,1.071500301361084
1783201308923382300,6.38538232421875,-0.6749261640373617,0.7466954421535134,3.794476453870535,-0.6559709310531616,-0.3068463504314422,1.143243670463562
1783201308933319400,6.3953193359375,-0.8140912544257939,0.7443260826736688,3.117765525308251,-0.7177290916442871,-0.5627835988998413,1.2043466567993164
1783201308943256300,6.40525634765625,-1.005301881610975,0.7814271483168006,2.3756214628487826,-0.7722173929214478,-0.7488245964050293,1.2489312887191772
1783201308953193500,6.415193359375,-1.121632112922147,0.5737587958708406,1.6730933714628218,-0.8373026251792908,-0.8550769686698914,1.280778408050537
1783201308963130000,6.425130126953125,-1.129123272395134,0.3109986708000302,0.5877437743425369,-0.8845664262771606,-0.8890928626060486,1.3042948246002195
1783201308973067300,6.4350673828125,-1.1714798474136738,0.1322160749681294,-0.7538841846138239,-0.8992908000946045,-0.7570288181304932,1.3064535856246948
1783201308983004400,6.44500439453125,-1.2293471491664647,-0.0184407888367772,-1.8220570214837788,-0.885627031326294,-0.5298650860786438,1.2860465049743652
1783201308992941300,6.45494140625,-1.1694153891645371,-0.2668872880034149,-2.802839159670472,-0.8350613713264465,-0.281672865152359,1.245582938194275
1783201309002878500,6.46487841796875,-1.0875144470039757,-0.7308451082013547,-3.635685821840167,-0.74190753698349,-0.0247155055403709,1.1837552785873413
1783201309012815400,6.4748154296875,-1.0283751525539904,-1.1783883846931158,-4.084700339928269,-0.6121833920478821,0.2224223762750625,1.1046582460403442
1783201309022752300,6.484752197265625,-0.9965197324793784,-1.5033128511235117,-4.5545869656533,-0.4473716616630554,0.376406729221344,1.0127605199813845
1783201309032689400,6.494689453125,-1.0366818661935626,-1.7596088947467503,-5.089613879808783,-0.2462933957576751,0.4715090095996856,0.915429949760437
1783201309042626300,6.504626220703125,-1.0944683577951044,-1.9272323831826448,-5.157121481892466,-0.0200635530054569,0.5599054098129272,0.8179996013641357
1783201309052563500,6.5145634765625,-1.2437911234520376,-2.00559470288828,-4.978237325382232,0.1906249672174453,0.5969470143318176,0.7394217252731323
1783201309062500400,6.524500244140625,-1.4566019533529877,-2.045488029598445,-4.672813532105088,0.3670704364776611,0.5825341939926147,0.689864456653595
1783201309072437200,6.534437255859375,-1.6481299028590322,-2.0917497222967443,-4.272839231517911,0.4991139471530914,0.5267764329910278,0.6573337316513062
1783201309082374400,6.54437451171875,-1.85880021359995,-2.178902520570904,-3.894680456897616,0.5766367316246033,0.4450051188468933,0.6328336596488953
1783201309092311300,6.554311279296875,-2.113777575840056,-2.2798662559241056,-3.5965807228982447,0.6180371642112732,0.3215095400810241,0.600496232509613
1783201309102248200,6.564248291015625,-2.4066836867190897,-2.3615583045743405,-3.4246313340872523,0.6544007658958435,0.1711626201868057,0.5377299785614014
1783201309112185300,6.574185302734375,-2.700125511910021,-2.387471036726981,-3.337220177137852,0.720710813999176,-0.0012088785879313,0.4431084394454956
1783201309122122200,6.584122314453125,-2.9947052550897,-2.367890576335788,-3.2885137216359377,0.8241860270500183,-0.1415538489818573,0.327846884727478
1783201309132059400,6.594059326171875,-3.189391084104776,-2.2685843989312646,-3.093953857088089,0.9701823592185974,-0.1729487776756286,0.187954232096672
1783201309141996300,6.603996337890625,-3.3728085001304744,-2.0219648229308427,-2.6963831105113027,1.13184654712677,-0.0836790800094604,0.0388854965567588
1783201309151933200,6.61393310546875,-3.590884557083249,-1.6201453328683972,-2.1773954770088197,1.2685223817825315,0.0778474956750869,-0.1226629242300987
1783201309161870300,6.623870361328125,-3.747039287652075,-1.2191963420301677,-1.676418716493249,1.3455848693847656,0.252796322107315,-0.2727066576480865
1783201309171806200,6.63380615234375,-3.7538238332256673,-0.9470476263672112,-1.213604221111536,1.3674033880233765,0.4149500727653503,-0.4141524732112884
1783201309181743400,6.643743408203125,-3.5622830242380497,-0.8024567846029996,-0.7724766568809748,1.348636031150818,0.5343807339668274,-0.5266051888465881
1783201309191680300,6.65368017578125,-3.259026930388808,-0.741999977813661,-0.5133236163914203,1.3259210586547852,0.5533144474029541,-0.6312708854675293
1783201309201617200,6.6636171875,-3.023310587327182,-0.6263455999374389,-0.3707289168804883,1.3253659009933472,0.5399673581123352,-0.7333359122276306
1783201309211554300,6.67355419921875,-2.871626280170679,-0.4260115359023213,0.0062397711724042,1.343366026878357,0.572409451007843,-0.849640965461731
1783201309221491500,6.683491455078125,-2.819995461654663,-0.1336585288614034,0.5966249999344349,1.3729151487350464,0.6722184419631958,-0.9792115092277528
1783201309231428400,6.693428466796875,-2.7950913220226763,0.1834317368119954,1.2541776390403507,1.3861840963363647,0.7950788736343384,-1.1022170782089231
1783201309241365200,6.703365234375,-2.760572381827235,0.4807546412199735,1.8000614627748728,1.3749983310699463,0.8865639567375183,-1.2117233276367188
1783201309251302100,6.71330224609375,-2.7009628395169973,0.7486182269096374,2.286245727828145,1.3325048685073853,0.933955192565918,-1.2993950843811035
1783201309261239300,6.7232392578125,-2.5333093943342564,0.9217705617696046,2.7245260859340426,1.2600915431976318,0.9359145760536194,-1.3650882244110107
1783201309271176400,6.733176513671875,-2.294075836931914,0.9938982248693704,3.066439827218652,1.1697611808776855,0.8925716280937195,-1.4200667142868042
1783201309281113300,6.74311328125,-2.057619050766528,0.9873720379710196,3.281278509685397,1.0790226459503174,0.8085190653800964,-1.4579246044158936
1783201309291050200,6.75305029296875,-1.865599226090312,1.0499708252251148,3.507249411541223,0.9866749048233032,0.6956599354743958,-1.4877398014068604
1783201309300987100,6.762987060546875,-1.6790400049075482,1.1237284276142716,3.7902018452912567,0.9098997712135316,0.60630863904953,-1.501191020011902
1783201309310924300,6.77292431640625,-1.5644665541358291,1.2159478616282342,4.205675912827253,0.8492851257324219,0.5366917848587036,-1.4884089231491089
1783201309320861400,6.782861328125,-1.4563741359464824,1.3095797927886248,4.523171836692095,0.7998780012130737,0.4379600286483764,-1.4407213926315308
1783201309330798300,6.79279833984375,-1.2870436974622308,1.340627842003107,4.706194408181309,0.7526471018791199,0.2258109897375106,-1.3561015129089355
1783201309340735200,6.8027353515625,-1.114102521134913,1.3839292235910892,4.731965393775702,0.6778186559677124,-0.0559499599039554,-1.2474265098571775
1783201309350672100,6.812672119140625,-1.2701704502031206,1.4788348279491066,4.540228185433149,0.5673552751541138,-0.5306261777877808,-1.2514941692352295
1783201309360609300,6.822609375,-2.1719605924785137,1.6362544638872143,4.0006998682051895,0.4760336875915527,-0.8779539465904236,-1.3435373306274414
1783201309370546400,6.83254638671875,-1.93359227360338,1.753247104629874,3.9839112304896114,0.3923496901988983,-1.1232457160949707,-1.4765499830245972
1783201309380482300,6.842482421875,-1.5079111386992037,1.8595947249785063,3.637910512152314,0.2837258875370025,-1.3456621170043943,-1.6056647300720217
1783201309390419200,6.852419189453125,-1.0016901939198375,1.7867209196865557,2.9984909111082554,0.1582286804914474,-1.6045005321502686,-1.653838872909546
1783201309400356400,6.8623564453125,-0.6626471857659518,1.258224284082651,2.2425959711939094,0.0210748016834259,-1.8895090818405151,-1.6266615390777588
1783201309410293200,6.872293212890625,-0.276234377541393,0.6498135692864656,1.4958599047690628,-0.1049228087067604,-2.166063070297241,-1.4800779819488523
1783201309420230400,6.88223046875,-0.0326502602467313,0.4932657477468252,0.8906003474801778,-0.2634473741054535,-2.451770782470703,-1.3083162307739258
1783201309430167300,6.892167236328125,0.1569543565139174,0.405444840952754,0.0559884292036294,-0.4535238444805145,-2.800886631011963,-1.128636121749878
1783201309440104200,6.902104248046875,0.0065960372641682,0.1408148303568363,-0.9611246670365332,-0.6155509948730469,-3.099810838699341,-0.9772899150848388
1783201309450041300,6.912041259765625,-0.1522157745515462,-0.3143684394940734,-1.9508400532633063,-0.6556664705276489,-2.9538347721099854,-0.8314067721366882
1783201309459978200,6.921978271484375,-0.0248456874430179,-0.9852888019561769,-2.045859347128868,-0.6557275056838989,-2.478349208831787,-0.7419790029525757
1783201309469915400,6.931915283203125,-0.4351393931990489,-0.8913961740329861,-2.88648891825974,-0.6589110493659973,-2.09900450706482,-0.8022586107254028
1783201309479852300,6.941852294921875,-0.732904524949193,-0.5497711865618825,-3.945889835131168,-0.6399121284484863,-1.7369344234466553,-0.977543294429779
1783201309489789200,6.9517890625,-0.662839931859076,-0.3796738553583622,-4.386712863457203,-0.564914882183075,-1.3638190031051636,-1.2241365909576416
1783201309499726300,6.961726318359375,-0.5803402931530028,-0.3409685693889856,-4.586578433197737,-0.4242882430553436,-0.9115422368049622,-1.4095832109451294
1783201309509663200,6.971663330078125,-0.3723514765810221,-0.7355085699677467,-4.541536345422268,-0.2464554011821746,-0.512779951095581,-1.4802131652832031
1783201309519600400,6.981600341796875,-0.3227459533475339,-0.9829790637090802,-4.5260628819584845,-0.0653682053089141,-0.2252380549907684,-1.4848318099975586
1783201309529537300,6.991537353515625,-0.3565921819131821,-0.8858642588689922,-4.303564624649286,0.1054581329226493,-0.0462837480008602,-1.486291766166687
1783201309539473400,7.001473388671875,-0.4081427747998386,-0.6860802299320697,-3.955639660251141,0.2652653455734253,0.0431169867515563,-1.498054265975952
1783201309549410300,7.011410400390625,-0.2608313854979351,-0.6411351727902889,-3.635096623775363,0.4357950091361999,0.0390226431190967,-1.5073431730270386
1783201309559347500,7.021347412109375,0.0566359333269298,-0.6887152546107769,-3.5503590699493883,0.631165623664856,-0.0784399956464767,-1.5041993856430054
1783201309569284000,7.0312841796875,0.316735753147304,-0.5635179723635315,-3.4514591352581974,0.8481597304344177,-0.2345861941576004,-1.4830912351608276
1783201309579221200,7.04122119140625,0.4139807602383196,-0.2834329107433557,-3.172847945582866,1.0697122812271118,-0.3198407590389251,-1.4430763721466064
1783201309589158400,7.051158447265625,0.3760064188919961,0.0263671979218721,-2.61361890258491,1.275924563407898,-0.2950659096240997,-1.3750035762786863
1783201309599095300,7.06109521484375,0.291629076680541,0.3079623718440532,-1.9410954888403416,1.4363579750061035,-0.2123553305864334,-1.309764742851257
1783201309609032400,7.071032470703125,0.1273953768134117,0.6701783119231463,-1.234344811323285,1.5358432531356812,-0.121633157134056,-1.2580664157867432
1783201309618969000,7.080968994140625,-0.0391710037849843,0.9625088148713112,-0.5860714572161436,1.5733449459075928,-0.0464885830879211,-1.2090013027191162
1783201309628906200,7.09090625,-0.1635258438587188,1.1060738207191227,-0.0162678287118673,1.581926703453064,0.0029892213642597,-1.161344289779663
1783201309638843400,7.100843505859375,-0.2726448286168277,1.2180571088671683,0.5119681101292372,1.577863097190857,0.0321464352309703,-1.121329426765442
1783201309648780300,7.1107802734375,-0.3737707687944173,1.3641606932818888,1.049770918738842,1.5732265710830688,0.0470257811248302,-1.0924586057662964
1783201309658717400,7.120717529296875,-0.421628352382034,1.5291992797911167,1.572272113320231,1.5776550769805908,0.046919010579586,-1.0692334175109863
1783201309668653300,7.1306533203125,-0.4467996185176074,1.6800614569097756,2.103171133890748,1.5636696815490725,0.031066546216607,-1.0454261302947998
1783201309678590200,7.140590087890625,-0.4343928491480648,1.8082447692304848,2.63808874245286,1.5139693021774292,-0.0049242442473769,-1.0163826942443848
1783201309688527400,7.15052734375,-0.4321061995156109,1.9349889886587857,3.13071093159914,1.416784644126892,-0.0500520393252372,-0.9689045548439026
1783201309698464500,7.160464599609375,-0.4215447657518089,2.0340683715701102,3.5755385193914173,1.2935322523117063,-0.0964356884360313,-0.8978065848350525
1783201309708401200,7.170401123046875,-0.3571674245178699,2.1157962221860886,3.957124930372834,1.1418918371200562,-0.1929795444011688,-0.8106381297111511
1783201309718338300,7.18033837890625,-0.3506747014977037,2.197906350117922,4.035411700624227,0.9391318559646606,-0.3845240771770477,-0.7290056943893433
1783201309728275200,7.190275146484375,-0.4214404285944998,2.3238223020285367,3.94799411393404,0.6575068235397339,-0.5697109699249268,-0.701589822769165
1783201309738212400,7.20021240234375,-0.3740622990868985,2.4359336004704235,4.009623763895035,0.3188318908214569,-0.6794552206993103,-0.7112458348274231
1783201309748149500,7.2101494140625,-0.2071215504844673,2.3549118522971866,4.054208171030878,-0.0328385345637798,-0.7129444479942322,-0.7176438570022583
1783201309758086100,7.220086181640625,0.0491352023079991,2.073571529918909,3.9566538057297462,-0.3545128405094147,-0.7115647792816162,-0.690331757068634
1783201309768023300,7.230023193359375,0.2588869368992745,1.7926263443380592,3.708522509992122,-0.6024132370948792,-0.7745746374130249,-0.6245511174201965
1783201309777959400,7.23995947265625,0.2756549702182412,1.6196265696913004,3.22677768869102,-0.7504526972770691,-0.974019467830658,-0.5464599132537842
1783201309787896300,7.249896240234375,0.3150605134114623,1.5388362921863794,2.5488468629449605,-0.7763804197311401,-1.290152907371521,-0.4694482386112213
1783201309797833200,7.259833251953125,0.4018393638066947,1.448385621410608,1.885145053559541,-0.6727566123008728,-1.6173772811889648,-0.3755480349063873
1783201309807770400,7.269770263671875,0.377107804262638,1.338549866685271,1.2369587932139634,-0.4706437289714813,-2.0366547107696533,-0.2863113582134247
1783201309817707300,7.279707275390625,0.0361098626486957,1.3226888652086255,0.2566249833166599,-0.2551976144313812,-2.335778951644897,-0.2243298292160034
1783201309827644400,7.28964453125,-0.2768964947119355,1.3249497958779335,-0.1442863058596849,-0.0913652628660202,-2.3807973861694336,-0.1988122165203094
1783201309837581300,7.299581298828125,-0.6654414195943623,1.2438789478659629,-0.29409283644557,-0.051215473562479,-2.208139657974243,-0.2102478742599487
1783201309847518200,7.309518310546875,-0.8681585793737322,1.046823759371042,-0.4864730188667774,-0.1476778239011764,-1.94805109500885,-0.2444135695695877
1783201309857455400,7.319455322265625,-0.7358108408499509,0.634115064895153,-1.035710829204321,-0.3318080902099609,-1.747551202774048,-0.2685936093330383
1783201309867392300,7.329392333984375,-0.3990608390040695,0.0711953506857156,-1.8953712640196083,-0.5354205965995789,-1.544777512550354,-0.2680354118347168
1783201309877329400,7.339329345703125,-0.0837966197140514,-0.4758510870873927,-2.503903559368849,-0.6820606589317322,-1.295466065406799,-0.2529221773147583
1783201309887265300,7.349265380859375,-0.0338392143029719,-0.8336497952461243,-2.991889905408025,-0.7587935328483582,-1.0276806354522705,-0.2542764246463775
1783201309897202200,7.3592021484375,-0.1480306800197809,-1.0032383001446723,-3.4131425563454627,-0.7710283398628235,-0.7536903023719788,-0.2998935282230377
1783201309907139300,7.369139404296875,-0.336396731428802,-1.1738748527914284,-3.676667236047983,-0.7153509259223938,-0.52496737241745,-0.3795769214630127
1783201309917076200,7.379076171875,-0.5110268837563693,-1.4566881703317165,-3.91263287769556,-0.6097027659416199,-0.4009214341640472,-0.4852712452411651
1783201309927013400,7.389013427734375,-0.5299512183263898,-1.7119050404161211,-4.210215309822559,-0.4487460851669311,-0.3709616661071777,-0.6070927381515503
1783201309936950300,7.3989501953125,-0.4252873863462358,-1.8515274461179967,-4.422423059263825,-0.2375148236751556,-0.3952686190605163,-0.7164664268493652
1783201309946887200,7.40888720703125,-0.2974227845858782,-1.859938716110587,-4.531704687237739,0.0141264703124761,-0.4445498883724212,-0.7907087206840515
1783201309956824300,7.41882421875,-0.226593563798815,-1.7270283752679825,-4.436937322306632,0.2734061479568481,-0.4343200325965881,-0.8332161903381348
1783201309966761500,7.428761474609375,-0.2262952384393662,-1.439351835605502,-4.016873004370928,0.5014798045158386,-0.397676020860672,-0.8532085418701172
1783201309976697000,7.438697021484375,-0.2934920210082083,-1.0968816294819117,-3.504111113515496,0.6723529100418091,-0.3253220617771148,-0.8666278123855591
1783201309986634200,7.44863427734375,-0.4207864216651767,-0.7969184396982193,-2.792618794429302,0.7634780406951904,-0.2208659648895263,-0.8938373327255249
1783201309996571400,7.4585712890625,-0.5604954096719622,-0.5294885692507029,-2.045420371189713,0.7877934575080872,-0.1142702251672744,-0.9347756505012512
1783201310006508300,7.46850830078125,-0.6591431231677531,-0.215219790738821,-1.3063140689909458,0.7734161019325256,-0.00796614959836,-0.9799453020095824
1783201310016445200,7.478445068359375,-0.6891871099062263,0.1202086801797151,-0.6026444063544273,0.7289004325866699,0.0699021145701408,-1.0198848247528076
1783201310026382000,7.488382080078125,-0.6424247011441737,0.4035521590739488,-0.0393868384927511,0.686226487159729,0.1083088964223861,-1.0509202480316162
1783201310036319200,7.4983193359375,-0.6002003742031753,0.689509619858861,0.419424850988388,0.6682383418083191,0.1309463381767273,-1.066306233406067
1783201310046256400,7.50825634765625,-0.4808264643471687,0.9790437700867652,0.9107149147480724,0.6779407858848572,0.1365922391414642,-1.0737920999526978
1783201310056193300,7.518193359375,-0.3921662571847438,1.297173315680027,1.3660323323726653,0.6884961128234863,0.1238675490021705,-1.079992413520813
1783201310066129200,7.528129150390625,-0.2902594688277691,1.5498288108438252,1.771224075347185,0.6808645129203796,0.0790622606873512,-1.069756269454956
1783201310076066800,7.53806689453125,-0.1352105806089937,1.7282541176706552,2.095714388144016,0.6667467951774597,-0.0024485420435667,-1.036190629005432
1783201310086003500,7.54800341796875,0.0193600956387817,1.82699740049541,2.4320564667761326,0.6436457633972168,-0.0981716066598892,-0.9647787809371948
1783201310095940600,7.557940673828125,0.1538438963431865,1.911429833894968,2.7720985689699646,0.6035691499710083,-0.2372948378324508,-0.8712617754936218
1783201310105877800,7.567877685546875,0.2299452123142778,2.013084035730362,2.9901316635638477,0.5446672439575195,-0.4185165464878082,-0.7653675675392151
1783201310115814700,7.577814697265625,0.2856207031112164,2.1242887407213447,3.176267398637533,0.4593053162097931,-0.6171360611915588,-0.6659785509109497
1783201310125751800,7.587751708984375,0.3178156573385,2.171206559240818,3.288091112309694,0.3155260384082794,-0.8292033076286316,-0.5815438032150269
1783201310135688400,7.5976884765625,0.2516403998371213,2.1662147423028943,3.333713045799732,0.0900178104639053,-1.0046336650848389,-0.5429719090461731
1783201310145624600,7.60762451171875,0.1688174474608153,2.0908312922775742,3.3759342309355733,-0.2267223298549652,-1.1677546501159668,-0.5455756783485413
1783201310155561700,7.617561767578125,0.0518422693096101,1.8377566949188708,3.0654028853863475,-0.6010825634002686,-1.35969078540802,-0.5678766965866089
1783201310165498600,7.62749853515625,0.1318307289123535,1.3566618619590998,2.35445884783268,-0.9447365999221802,-1.5118569135665894,-0.5771381258964539
1783201310175435500,7.637435546875,0.3148630911432206,0.8734230027079581,1.5081301882773637,-1.2072489261627195,-1.5931942462921145,-0.5643398761749268
1783201310185372700,7.64737255859375,0.3734737586092204,0.638311347541213,0.5552911190271377,-1.3626725673675537,-1.5961047410964966,-0.5471137762069702
1783201310195309600,7.6573095703125,0.3439304148692637,0.5275695838868618,-0.36667876470685,-1.4178732633590698,-1.5417139530181885,-0.5443465709686279
1783201310205246700,7.667246826171875,0.2863076624620705,0.3604436697095632,-1.2572615765303372,-1.3874410390853882,-1.4716352224349976,-0.5494465231895447
1783201310215183600,7.67718359375,0.1954992642898112,0.0607166267693042,-2.2170132016479966,-1.2932127714157104,-1.3709715604782104,-0.5696637630462646
1783201310225119500,7.687119384765625,0.1089822797011584,-0.2896153987705707,-2.899627216774225,-1.1528236865997314,-1.2123019695281982,-0.5946170091629028
1783201310235056600,7.697056640625,-0.0289852714657783,-0.6001140110939741,-3.3430501984655856,-0.9878110885620116,-1.032411813735962,-0.6342223882675171
1783201310244993800,7.706993896484375,-0.2360511279739439,-0.8489180915266274,-3.655315820461512,-0.8274853825569153,-0.8510963916778564,-0.6859567165374756
1783201310254930700,7.7169306640625,-0.4271799951598048,-1.024917632511258,-3.7152328212857246,-0.6776706576347351,-0.6357387900352478,-0.7516949772834778
1783201310264867600,7.72686767578125,-0.5596204534683377,-1.1433335840553045,-3.4436224502831694,-0.5707388520240784,-0.414004236459732,-0.8284752368927002
1783201310274804500,7.736804443359375,-0.649072395530343,-1.183378009673953,-2.987565612468124,-0.524937093257904,-0.2282761037349701,-0.904138445854187
1783201310284741600,7.74674169921875,-0.7104328000959008,-1.1906377715438603,-2.485979195621609,-0.5310397148132324,-0.1097758263349533,-0.984075129032135
1783201310294678800,7.7566787109375,-0.7608098922237754,-1.085133324021101,-1.9432529591351744,-0.5811213850975037,-0.0434912107884883,-1.0678045749664309
1783201310304614700,7.76661474609375,-0.8364113689139485,-0.8924515283048152,-1.3787234716415404,-0.6648935675621033,-0.0329517498612403,-1.163703680038452
1783201310314551600,7.776551513671875,-1.0022606142189354,-0.6737976714640855,-0.9027981502741574,-0.7531184554100037,-0.1027587577700614,-1.2628425359725952
1783201310324488700,7.78648876953125,-1.2740202574990689,-0.5306219571948051,-0.606509265089035,-0.8144862055778503,-0.2097829431295395,-1.3693034648895264
1783201310334425600,7.796425537109375,-1.5556960954420267,-0.555396917489171,-0.2861234650015831,-0.8026560544967651,-0.2771147489547729,-1.4857990741729736
1783201310344362800,7.80636279296875,-1.801422229734063,-0.5697527750998735,0.0769037914603948,-0.711956262588501,-0.2484359741210937,-1.628978610038757
1783201310354299600,7.816299560546875,-1.9106199788168072,-0.3175076143026352,0.4546265127509832,-0.5889036059379578,-0.2136479765176773,-1.8036541938781736
1783201310364236500,7.826236572265625,-1.8546318418741223,0.1789876168847084,0.7605641007691621,-0.4725986123085022,-0.197009339928627,-1.9790772199630735
1783201310374172700,7.836172607421875,-1.608189376006275,0.6873948196619749,1.1243968283951282,-0.3847928941249847,-0.1851850301027298,-2.0888028144836426
1783201310384109800,7.84610986328125,-1.2154803902469575,1.0987900934517385,1.4599293442100283,-0.346216470003128,-0.2011858373880386,-2.1125025749206543
1783201310394046500,7.85604638671875,-0.8095949659198522,1.4572183316856622,1.7715192589014768,-0.3658809661865234,-0.2252326160669326,-2.040089607238769
1783201310403983600,7.865983642578125,-0.4394291628148406,1.7798977956682442,2.196896296292543,-0.4338424503803253,-0.2119714021682739,-1.8896633386611936
1783201310413920800,7.875920654296875,-0.0920351817545481,2.022117821535468,2.604987852361798,-0.5327392816543579,-0.1922028958797454,-1.7184951305389404
1783201310423857700,7.885857666015625,0.2022051186040043,2.214054351842403,2.8921085117071867,-0.6355847120285034,-0.2156576216220855,-1.5584567785263062
1783201310433794800,7.895794921875,0.4782063449766486,2.2653853106290103,3.0180969443321226,-0.7380037307739258,-0.3242925107479095,-1.427332878112793
1783201310443730700,7.905730712890625,0.6752545922741293,2.1120833391427998,3.076678897160292,-0.8548725843429565,-0.4789225459098816,-1.3293529748916626
1783201310453667600,7.91566748046875,0.7411283095456659,1.817835896657407,3.0780501855134963,-1.007623553276062,-0.6917178630828857,-1.2814242839813232
1783201310463604700,7.925604736328125,0.93423300684914,1.4690636677801607,2.5455939986288545,-1.1635072231292725,-0.9865005016326904,-1.2781786918640137
