time,seconds_elapsed,ax,ay,az,gx,gy,gz
1783196636429552000,0.08955224609375,0.4556455536004156,0.0803451640859246,1.3021587028771635,-1.0973697900772097,-0.2209280580282211,0.1586845517158508
1783196636439490000,0.099489990234375,0.2849813092291355,0.0338797655090689,1.389761583006382,-1.2685222625732422,-0.0941787809133529,0.1301700472831726
1783196636449427200,0.10942724609375,0.1703216414786875,0.0959019219189882,1.351155665758252,-1.4787697792053225,-0.0144069846719503,0.0896167680621147
1783196636459364000,0.119364013671875,0.3432672747854143,0.4381795280799269,1.057898695614934,-1.6118996143341064,-0.0380928367376327,0.0764155611395835
1783196636469301000,0.129301025390625,0.726922016473487,0.6758280082479119,0.7407382873147725,-1.5833609104156494,-0.001716187223792,0.0548442155122756
1783196636479238100,0.139238037109375,0.8660114843424409,0.4842383916825056,0.6723246763020754,-1.4343386888504028,0.071509949862957,0.0574815310537815
1783196636489175000,0.149175048828125,1.1185444491051135,0.2197425288602709,0.8133528571486472,-1.2510933876037598,0.1702722162008285,0.0962481051683425
1783196636499113000,0.159113037109375,1.3072889053724706,-0.0886991509333252,0.7148749472618102,-1.071205735206604,0.1760615855455398,0.147946298122406
1783196636509050000,0.169050048828125,1.5831955122642218,-0.3849780992463231,0.5209498734861612,-0.9191984534263612,0.1927292346954345,0.1954783946275711
1783196636518987000,0.178987060546875,1.7770546811968086,-0.667026862154901,-0.0691980393886566,-0.8113938570022583,0.3641397953033447,0.2469808310270309
1783196636528924000,0.188923828125,1.9567559993088244,-0.8065358706101775,0.0467430464744567,-0.7746566534042358,0.6681284308433533,0.3683812618255615
1783196636538861000,0.198861083984375,2.090580240125954,-0.8543594057977199,0.7319733815789222,-0.768750011920929,0.8788675665855408,0.5221308469772339
1783196636548798200,0.208798095703125,2.1051731213629243,-0.8199103159680962,0.9828145207971334,-0.7741042971611023,0.989679515361786,0.6455526351928711
1783196636558734800,0.21873486328125,2.373356732787192,-0.5074243292197584,0.6738298201680183,-0.7999261021614075,0.9841756224632264,0.7174836993217468
1783196636568672800,0.2286728515625,2.591871765679121,-0.4190485650219023,0.5558119280308484,-0.8549296855926514,0.8526005148887634,0.7702076435089111
1783196636578610000,0.23860986328125,2.575677586725354,-0.5620606131620705,0.3621948972910642,-0.8969427347183228,0.4761969149112701,0.8021502494812012
1783196636588547000,0.248547119140625,2.5667694731265307,-0.7180630757786333,-0.3734428520143031,-0.92907452583313,0.2239998131990432,0.8377599120140076
1783196636598484000,0.25848388671875,2.892704724034667,-0.6858109114713966,-0.6885130100369453,-0.9772927165031432,-0.2925992310047149,0.8959968686103821
1783196636608420900,0.2684208984375,2.7757714122638104,-0.5105854235991836,-1.2979057216078045,-0.9229215979576112,-0.1883186101913452,0.911690890789032
1783196636618358000,0.27835791015625,2.769530179786682,-0.1409288121253251,-0.8522188866376876,-0.7500313520431519,-0.1067330762743949,0.9731622338294984
1783196636628296000,0.2882958984375,2.311753094050288,-0.1268739832878112,0.1432914496034383,-0.5611839294433594,0.0130993202328681,1.0591332912445068
1783196636638232800,0.29823291015625,1.9063190667524927,-0.353629313519597,-0.2864922983139753,-0.3579059839248657,0.3626358211040497,1.0923043489456177
1783196636648170000,0.308169921875,1.8273340851038693,-0.4560922013893723,-0.363029010027647,-0.1240535601973533,0.6323988437652588,1.1072529554367063
1783196636658107100,0.318107177734375,1.4705036374554037,-0.5425706075333059,-0.4021802861988544,0.1044996976852417,0.8057733774185181,1.1367450952529907
1783196636668043800,0.328043701171875,1.3314043788447976,-0.4398063986293971,-0.4492974266827106,0.2895457148551941,0.9662232398986816,1.1601214408874512
1783196636677981000,0.33798095703125,1.4091621567860244,-0.1854034752763807,-0.2951730328977108,0.4364828169345855,1.0736970901489258,1.1971657276153564
1783196636687917800,0.347917724609375,1.2655077190890909,0.0100024847067892,-0.1804097586423158,0.6093661189079285,0.7952566146850586,1.1260936260223389
1783196636697856000,0.35785595703125,0.9238703105278312,0.2720627909451723,-0.8265700661182404,0.7650075554847717,0.9515945911407472,1.0595176219940186
1783196636707793000,0.36779296875,0.9405786495488137,0.5474376290477811,-1.6348948659718037,0.8382407426834106,1.168956995010376,1.113568902015686
1783196636717730000,0.37772998046875,1.143968301762268,0.1611776732973754,0.1725906093239784,0.9284387230873108,1.1349016427993774,1.1543946266174316
1783196636727667000,0.3876669921875,0.328099808530882,-0.1594067181020975,0.1291290687382221,0.9357001185417176,1.275701642036438,1.1673250198364258
1783196636737603800,0.397603759765625,0.2069913299672305,0.1219686755895614,-0.0092436291635036,0.8703360557556152,1.4761073589324951,1.1995168924331665
1783196636747541000,0.407541015625,0.2685223418593406,0.236783826162666,0.0838227770686149,0.7813286781311035,1.5130494832992554,1.2333688735961914
1783196636757479000,0.41747900390625,0.0692675244282931,0.1136298863112926,-0.0624245997309684,0.6122627854347229,1.459980845451355,1.2643522024154663
1783196636767416000,0.427416015625,0.0324005415356718,0.0939108942322432,-0.2579734753161669,0.3777679800987243,1.331085443496704,1.2836369276046753
1783196636777353000,0.43735302734375,0.114592447733134,0.0905079539209604,-0.5188116924136876,0.1257357597351074,1.1295534372329712,1.3023782968521118
1783196636787289900,0.447289794921875,0.2526105965761467,0.0123097387358546,-0.8803642001479863,-0.1080524921417236,0.8809300661087036,1.3286311626434326
1783196636797227000,0.45722705078125,0.4211193434139713,-0.0507565198995172,-1.2171896783828735,-0.2985378503799438,0.6290785670280457,1.355985164642334
1783196636807164000,0.467163818359375,0.4936799545709043,-0.0322552330471575,-1.4221990407526492,-0.4203266203403473,0.4287478625774383,1.3651912212371826
1783196636817101000,0.47710107421875,0.4642307919204235,0.0738198539704084,-1.46298522464931,-0.4723381996154785,0.3350223004817962,1.3473691940307615
1783196636827039000,0.4870390625,0.3094389472026377,0.1716597582146525,-1.4270458962619303,-0.4428471624851227,0.3569481074810028,1.319544792175293
1783196636836976000,0.49697607421875,0.1793979512512683,0.1796720920175313,-1.383985337692499,-0.3526072800159454,0.4387778043746948,1.295182704925537
1783196636846912800,0.506912841796875,0.0816309661127626,0.0327580680027604,-1.4142150562614202,-0.2118935585021972,0.552469789981842,1.290273904800415
1783196636856850000,0.516849853515625,0.0670720236780121,-0.2140089536443352,-1.629666317668557,-0.0482968613505363,0.6527632474899292,1.3179851770401
1783196636866787000,0.526787109375,0.2181734894452616,-0.4196903700567782,-1.8909563701868053,0.109972134232521,0.7021939158439636,1.3720611333847046
1783196636876724000,0.536723876953125,0.3877107390806079,-0.5386164630800485,-2.073729935351014,0.2308367490768432,0.7192589044570923,1.4480379819869995
1783196636886660900,0.546660888671875,0.4975288120187818,-0.6404543509192764,-2.218247127357125,0.2903650403022766,0.6734524965286255,1.513860106468201
1783196636896598800,0.556598876953125,0.5482507720615715,-0.717926443786919,-2.333482110777497,0.2753007113933563,0.5511354207992554,1.5538651943206787
1783196636906536000,0.566535888671875,0.6035773763556033,-0.6742506759285927,-2.311717438215017,0.1963475495576858,0.4177899062633514,1.5593361854553225
1783196636916472800,0.576472900390625,0.6143530373919754,-0.5325979334428906,-2.16469440086782,0.1202133297920227,0.2984157800674438,1.5671448707580566
1783196636926410000,0.586409912109375,0.540447550964728,-0.4207384178049862,-2.117050606161356,0.108237087726593,0.182847112417221,1.5853819847106934
1783196636936347000,0.596346923828125,0.521384757772088,-0.4408285812839865,-2.3608763136595488,0.1632184237241745,0.0383184440433979,1.6168373823165894
1783196636946283800,0.60628369140625,0.5574090610291809,-0.4702887767851352,-2.785493472594023,0.2570644915103912,-0.11476831138134,1.6526994705200195
1783196636956221000,0.616220947265625,0.681438687736541,-0.396944139111042,-3.077992317846417,0.3601990342140198,-0.2544107437133789,1.6738637685775757
1783196636966158800,0.626158935546875,0.7356327808693051,-0.2363698385342955,-3.1044968784123657,0.4549665451049804,-0.3581405878067016,1.6902246475219729
1783196636976096000,0.636095947265625,0.6859009278424084,-0.0779413178145885,-2.880121721315384,0.5281918048858643,-0.364153504371643,1.708003282546997
1783196636986033000,0.646032958984375,0.5487530955605209,-0.0472244002506136,-2.4307477222651244,0.5877376794815063,-0.2915453612804413,1.7297189235687256
1783196636995970000,0.655969970703125,0.3899634864434599,-0.1493432969883084,-2.132628699043393,0.6478922367095947,-0.2332457154989242,1.7571289539337158
1783196637005907000,0.665906982421875,0.345110929890722,-0.2750079044863581,-2.1574574353516103,0.7257068753242493,-0.2685219347476959,1.7769612073898315
1783196637015843800,0.67584375,0.4600798097208142,-0.2085153246641159,-2.2981600375056264,0.8718402981758118,-0.3636057078838348,1.7667025327682495
1783196637025781800,0.68578173828125,0.665030281510204,0.2336579492270946,-2.26812671829164,1.081415057182312,-0.4547159075736999,1.725419282913208
1783196637035719000,0.695718994140625,0.8180085740000009,0.7691141947105526,-2.040272486907244,1.2845920324325562,-0.533962607383728,1.6500746011734009
1783196637045656000,0.705656005859375,0.8513014795318246,1.2484861494004726,-1.4776263289421796,1.4172800779342651,-0.5087392926216125,1.5588788986206057
1783196637055593000,0.715593017578125,0.6420180931046605,1.4226087905973197,-0.7797060236126184,1.4616878032684326,-0.3969162106513977,1.4829431772232056
1783196637065529900,0.72552978515625,0.3385078783638775,1.2161065593212843,-0.1786889261990785,1.427106499671936,-0.3640208542346954,1.4138882160186768
1783196637075466800,0.735466796875,-0.24014625180047,0.7625178651854395,0.0929559315949678,1.3165740966796875,-0.1858347654342651,1.4432085752487185
1783196637085404000,0.74540380859375,-0.0376643986143171,0.525394577935338,0.3813683843165635,1.1688216924667358,-0.0129511356353759,1.540624976158142
1783196637095341000,0.755341064453125,0.3050970455408096,0.5832715973645448,0.360740606829524,1.0035609006881714,-0.0293756313621997,1.596293807029724
1783196637105279000,0.765279052734375,0.3885468245785683,0.8420075814858079,0.2099631853848695,0.7964586019515991,-0.1512615829706192,1.5940433740615845
1783196637115216100,0.775216064453125,0.3382442589916288,1.2642922058194874,0.092961192291975,0.6583896279335022,-0.3533514142036438,1.5972214937210083
1783196637125152800,0.78515283203125,0.6454002098236232,0.9024290247008204,0.1793131955772638,0.5762492418289185,-0.4242359697818756,1.6441056728363037
1783196637135090000,0.79508984375,0.601257335910201,0.8124369113475084,0.1142336974233388,0.4530090391635895,-0.4097238183021545,1.681107759475708
1783196637145026800,0.80502685546875,0.3875106864638626,0.7923822575733065,0.3043301528215408,0.2985368967056274,-0.521616518497467,1.7057099342346191
1783196637154964000,0.8149638671875,0.4213712358158081,0.8536009886458515,0.4205564853668213,0.1192743778228759,-0.6621578335762024,1.6976487636566162
1783196637164901000,0.824901123046875,0.5507045218892395,1.0273226478263735,0.6544593492656946,-0.0633652061223983,-0.7508515119552612,1.668486714363098
1783196637174839000,0.834839111328125,0.7023654481701552,1.284155428674817,0.9600368717998266,-0.1915711462497711,-0.6968010067939758,1.646742820739746
1783196637184776000,0.84477587890625,0.8325932719305157,1.4223065927803515,1.229557577046752,-0.2334757149219513,-0.5754146575927734,1.638833999633789
1783196637194712800,0.854712890625,0.8047238527521491,1.440013514384627,1.503569748494029,-0.2100243270397186,-0.4353757798671722,1.6328914165496826
1783196637204650000,0.86464990234375,0.630764731553942,1.4412696519255637,1.7194781060189008,-0.1381056606769561,-0.2469105571508407,1.6062451601028442
1783196637214587000,0.8745869140625,0.4009128966115415,1.4995210576251148,1.936540309754014,-0.0002408856526017,-0.1152610555291175,1.6734750270843506
1783196637224524000,0.88452392578125,-0.2917214311391115,0.735830641528964,1.6340777043700216,0.1663289070129394,0.2639291286468506,1.7002294063568115
1783196637234461000,0.8944609375,-0.2253147760346531,0.6266369840994477,1.5793097568720578,0.2687155604362488,0.580174446105957,1.6685678958892822
1783196637244398800,0.90439892578125,-0.0261206758148968,1.5377505427762863,1.5990502301305531,0.3520072698593139,0.5911195278167725,1.5775994062423706
1783196637254336000,0.9143359375,-0.4254878042891621,1.872386109751463,0.969782605266571,0.439320296049118,0.4440079033374786,1.454776644706726
1783196637264273000,0.92427294921875,-0.130716337929666,1.6152847410947084,0.7650573205351829,0.5134973526000977,0.3158563077449798,1.34032142162323
1783196637274210000,0.9342099609375,0.0794544988565146,1.775797374612093,0.86127839140594,0.5217827558517456,0.1893493235111236,1.2889220714569092
1783196637284147000,0.94414697265625,0.1751625056385994,1.6577523022070526,1.0495791955590248,0.4988308250904083,0.0636276230216026,1.2576181888580322
1783196637294083800,0.954083740234375,0.2233285706534981,1.4453136666193604,1.2309276963561773,0.4567492306232452,0.066944345831871,1.210995316505432
1783196637304021000,0.96402099609375,0.1093240058109164,1.4676631533324718,1.681008382371068,0.3826198875904083,0.2273627817630767,1.1592538356781006
1783196637313959000,0.973958984375,-0.0026040450185537,1.547249900266528,2.167536930817365,0.2633318305015564,0.4507188498973846,1.0883859395980835
1783196637323895800,0.983895751953125,-0.2600403447180986,1.686502595873177,2.351792843493819,0.1275069117546081,0.6981360912322998,1.0142992734909058
1783196637333833000,0.9938330078125,-0.5680936097159981,1.5883353593707084,2.180409856393933,0.0069947857409715,0.9216638207435608,0.9601008892059326
1783196637343770000,1.00377001953125,-0.6964787282191216,1.3981225841164588,1.6719523847341538,-0.0701423436403274,1.0637061595916748,0.9191768765449524
1783196637353706800,1.013706787109375,-0.524260605469346,1.3420628432422876,1.0059148258775472,-0.0765702798962593,1.0571333169937134,0.9074873328208924
1783196637363644000,1.023643798828125,-0.1191124093756079,1.2384452323794364,-0.0361105933010578,-0.0370969027280807,0.8960551619529724,0.9151665568351746
1783196637373581000,1.0335810546875,0.2017947842374444,0.9872659472480416,-1.0166823036074637,0.0288717411458492,0.7087085843086243,0.9113062024116516
1783196637383519000,1.04351904296875,0.1947355133756995,0.7694213609635829,-1.484373465114832,0.100803717970848,0.6153935194015503,0.911430597305298
1783196637393455900,1.053455810546875,-0.0112317342408001,0.6012316169470548,-1.534681510594487,0.162280261516571,0.5571405291557312,0.898378312587738
1783196637403393000,1.06339306640625,-0.2011266757175326,0.4773144376382231,-1.4895494064480066,0.2434052079916,0.4751095771789551,0.8682060241699219
1783196637413330000,1.073329833984375,-0.3521491579644382,0.4014113476529717,-1.6085037026524542,0.3448754251003265,0.3756923377513885,0.8287539482116699
1783196637423266800,1.083266845703125,-0.4363213329926133,0.352909474812448,-1.6854484106451273,0.4267261028289795,0.3169773519039154,0.7811453938484192
1783196637433204000,1.093203857421875,-0.4620072706520557,0.3280249166637659,-1.4700211146354674,0.4699251353740692,0.312443345785141,0.7223733067512512
1783196637443140900,1.103140869140625,-0.5427392420984805,0.2831310051873326,-1.1327046380132435,0.4791487455368042,0.3271594643592834,0.6602169871330261
1783196637453078000,1.113078125,-0.6110982003144919,0.1671241606116294,-0.98241061617136,0.5060043931007385,0.3839181959629059,0.6232957243919373
1783196637463016000,1.123015869140625,-0.6726442636452615,0.0214618902236223,-1.0369944392740726,0.5631654262542725,0.4529425203800201,0.6225476264953613
1783196637472952800,1.132952880859375,-0.736557056107372,-0.1249079439118504,-1.1776368356734517,0.6277454495429993,0.5973774194717407,0.635763943195343
1783196637482890000,1.142889892578125,-0.8197992568090557,-0.2355804417222738,-0.8132745312154293,0.6483449935913086,0.9024598598480223,0.6061056852340698
1783196637492827000,1.152826904296875,-1.350355455291271,-0.3657932140439748,-0.420040352538228,0.7081443071365356,1.0554624795913696,0.5761598944664001
1783196637502764000,1.162763916015625,-1.4013567437320946,-0.3269102334201336,-0.7653858218371867,0.7524742484092712,1.0659856796264648,0.5514558553695679
1783196637512701000,1.172700927734375,-0.928445363358408,-0.127131757441163,-1.2271318112045526,0.7558990716934204,0.9149181842803956,0.5608590841293335
1783196637522637800,1.182637939453125,-0.7504170930251479,-0.2247755545914173,-1.7344003653407096,0.696910560131073,0.6367433071136475,0.6138623952865601
1783196637532575700,1.19257568359375,-0.6935932359106838,-0.5656821646600961,-2.211000809490681,0.5936891436576843,0.3231455981731415,0.680448591709137
1783196637542513000,1.202512939453125,-0.6851056858114898,-0.743626409971714,-2.3303087414383885,0.4887888133525848,0.0719977915287017,0.7215510010719299
1783196637552449500,1.212449462890625,-0.6108224521130323,-0.662826780116558,-1.939517279738188,0.4169795513153076,-0.0414558798074722,0.7335955500602722
1783196637562386400,1.222386474609375,-0.5575821525737643,-0.5452949179306626,-1.157388997414708,0.3863771557807922,-0.0009364187717437,0.7257975339889526
1783196637572323600,1.232323486328125,-0.6072885788984597,-0.5517945090830326,-0.3727414257466793,0.3926650285720825,0.1430091857910156,0.7264625430107117
1783196637582260700,1.2422607421875,-0.8410589024588465,-0.7163678161680698,0.0419827002048492,0.425952136516571,0.3893744647502899,0.7358651161193848
1783196637592197600,1.25219775390625,-1.160334841608256,-0.8844470855474471,0.3368465210229158,0.448187917470932,0.6446053981781006,0.7207768559455872
1783196637602135600,1.262135498046875,-1.2565741787880658,-0.7132187044873833,0.5860369704246521,0.4314030706882477,0.8782048225402832,0.6653681993484497
1783196637612072400,1.272072509765625,-1.4193091645300389,-0.3473486258149146,0.6873445507794618,0.4051234424114227,1.0302706956863403,0.5904209613800049
1783196637622009600,1.282009521484375,-1.6390815040066835,-0.0151361943334341,0.5661649797409772,0.416604071855545,1.0681685209274292,0.5231252908706665
1783196637631946500,1.291946533203125,-1.7734822295375168,0.1249906537592411,0.038163434177637,0.4442228078842163,1.010896921157837,0.4514843225479126
1783196637641883600,1.301883544921875,-1.8243911635197696,0.2387853752434253,-0.5272486813694238,0.463600218296051,0.8677930235862732,0.363052487373352
1783196637651820500,1.311820556640625,-1.9056223166599868,0.4640308854341506,-0.8884411236196755,0.5033701658248901,0.6547442078590393,0.252235859632492
1783196637661757400,1.32175732421875,-1.9146989186935128,0.6880570829629897,-1.1808902845114468,0.5797107219696045,0.3873599469661712,0.1483867019414901
1783196637671694600,1.331694580078125,-1.7365839929901064,0.7649906850397586,-1.3892682465314865,0.6775092482566833,0.1359119266271591,0.086550623178482
1783196637681632500,1.341632568359375,-1.5076311527140438,0.7046621808052063,-1.2662000852674244,0.7687142491340637,-0.0530822277069091,0.0718718096613884
1783196637691569700,1.351569580078125,-1.2938351111680269,0.5880909803450107,-0.7579302451342343,0.8226860761642456,-0.1363293081521988,0.0885038301348686
1783196637701506600,1.361506591796875,-1.1095761297516524,0.5125912104636431,-0.0087993925273418,0.8179062008857727,-0.1136442199349403,0.1122847944498062
1783196637711443700,1.371443603515625,-1.0475418445125222,0.5851952589035034,0.8115174584150314,0.7836052775382996,-0.0170822329819202,0.1183174178004264
1783196637721380400,1.38138037109375,-1.1983178046524523,0.7035188559889793,1.529300986599922,0.7468768358230591,0.121872991323471,0.0826547592878341
1783196637731317500,1.3913173828125,-1.452751999926567,0.7915881845861673,1.988532947319746,0.7395983338356018,0.2645978927612304,0.0325870811939239
1783196637741254700,1.401254638671875,-1.6106046204544602,0.8986334318101405,2.176153952515125,0.7230185270309448,0.40300452709198,-0.0269454885274171
1783196637751192600,1.411192626953125,-1.6445970525577664,1.0758318271905185,2.204793771544099,0.7074854373931885,0.5050235986709595,-0.0872958898544311
1783196637761129700,1.421129638671875,-1.5782248842447997,1.3261580026239157,2.206584162092209,0.677933394908905,0.5417597889900208,-0.1504524797201156
1783196637771066600,1.431066650390625,-1.2960172775126992,1.5975778194904326,2.1070231331437825,0.6113133430480957,0.5248125195503235,-0.1914795488119125
1783196637781003500,1.44100341796875,-0.9307477950818837,1.795914864489436,2.0831372306436298,0.4994637966156006,0.4864717423915863,-0.202346846461296
1783196637790940400,1.4509404296875,-0.6321681686110794,1.8241694835931064,2.1097458361059425,0.327811062335968,0.489227145910263,-0.1733434349298477
1783196637800877600,1.460877685546875,-0.2502968762736767,1.7797212700575589,2.164810720723868,0.1276007294654846,0.4926298856735229,-0.1086161062121391
1783196637810814700,1.470814697265625,0.0470497743360698,1.7798662314862013,2.0522177762448788,-0.0244628377258777,0.4500664472579956,-0.0318938940763473
1783196637820751600,1.480751708984375,0.1180634848445653,1.6682266422092913,1.7449264355301857,-0.1038729771971702,0.4255227446556091,0.0269342698156833
1783196637830689800,1.490689697265625,0.0615942133214324,1.5462807629734276,1.3815484659343955,-0.08452158421278,0.4450452923774719,0.0532907247543334
1783196637840626400,1.50062646484375,-0.1230669922202825,1.563231313252449,1.092573118633032,0.0110134584829211,0.5141689777374268,0.0477745197713375
1783196637850563600,1.5105634765625,-0.3840305892631411,1.6900123575598,0.8977771072417497,0.1540742516517639,0.5982993245124817,-0.0068178065121173
1783196637860500500,1.52050048828125,-0.6653685735538601,1.8362316773086784,0.7735609449863433,0.2956774532794952,0.6792213320732117,-0.1096419245004654
1783196637870437600,1.530437744140625,-0.9003580636456608,1.9646634114325048,0.7422913619756698,0.398904800415039,0.7507941722869873,-0.2350493669509887
1783196637880374800,1.540374755859375,-0.9652347327038644,2.018454622852802,0.7892483434617519,0.4303615391254425,0.8294892907142639,-0.32719287276268
1783196637890311400,1.5503115234375,-0.7781532412126659,2.012498344796896,0.8141384545683861,0.3559004068374634,0.8957939743995667,-0.359194278717041
1783196637900249600,1.56024951171875,-0.5277651064589619,2.005879218918085,0.8415233051002025,0.2289427369832992,0.8956219553947449,-0.3605831265449524
1783196637910186500,1.5701865234375,-0.4730921437680721,1.919350105500221,0.7171060673147439,0.0945272967219352,0.8107921481132507,-0.3633026778697967
1783196637920123600,1.58012353515625,-0.4907286304846405,1.7223446013659238,0.4344523242503404,-0.0161893665790557,0.6701855063438416,-0.3883790075778961
1783196637930060500,1.590060546875,-0.5171268080666661,1.5794763456106184,0.0939747532486915,-0.078019380569458,0.5197296738624573,-0.4329617023468017
1783196637939997700,1.599997802734375,-0.5561453977689147,1.506730842873454,-0.1290139179259538,-0.0824490115046501,0.4042243957519531,-0.4896705448627472
1783196637949934600,1.6099345703125,-0.6886359057642519,1.3792062867224215,-0.2440910804361104,-0.0612935125827789,0.334786057472229,-0.5436477065086365
1783196637959871500,1.61987158203125,-0.8072992561981082,1.17476741771698,-0.2683388019859791,-0.0379463732242584,0.2911557555198669,-0.5792073011398315
1783196637969809400,1.629809326171875,-0.8248857662931084,0.910891440358758,-0.300346051621437,-0.0427848398685455,0.2634538114070892,-0.580490231513977
1783196637979746600,1.63974658203125,-0.667452101829648,0.7112035652726888,-0.2944090627878904,-0.0970566049218177,0.2606809139251709,-0.5620286464691162
1783196637989683700,1.64968359375,-0.4343618694879114,0.6113736562550067,-0.1726256806373596,-0.2119465768337249,0.2909404933452606,-0.5144029259681702
1783196637999620600,1.65962060546875,-0.1261314943574369,0.5897095214575528,-0.0051981531649827,-0.3739634156227112,0.3441145122051239,-0.4654633402824402
1783196638009557500,1.6695576171875,0.0286854117363691,0.5168114585071801,0.0646434448242187,-0.5254393815994263,0.3934910297393799,-0.4166303873062134
1783196638019494700,1.67949462890625,-0.0866349484125152,0.3485568325608968,-0.1154974337488412,-0.6125245094299316,0.4312554597854614,-0.3761681914329529
1783196638029431600,1.689431640625,-0.2891565856197848,0.1579278777211904,-0.5778355437904596,-0.6249046325683594,0.4310110211372375,-0.3391973376274109
1783196638039369500,1.699369384765625,-0.4556729530639946,0.0538753825724124,-1.1727321124970913,-0.5756747722625732,0.387528508901596,-0.3013708591461181
1783196638049306600,1.709306640625,-0.4795055179417133,0.0411678766906261,-1.720550119164586,-0.5023379921913147,0.290516197681427,-0.2735369205474853
1783196638059243500,1.719243408203125,-0.3638260056242346,0.0356038128226995,-2.1669395494461057,-0.5290359258651733,0.2865417003631592,-0.2451734691858291
1783196638069180400,1.729180419921875,-0.1134353866524994,0.5117769714713096,-2.2282933050751685,-0.4440952837467193,-0.0185694806277751,-0.2931936681270599
1783196638079117600,1.73911767578125,-0.3115815852545202,0.2245019983470439,-2.5074983689904213,-0.3234553933143616,-0.3041413128376007,-0.3705270886421203
1783196638089054500,1.749054443359375,-0.6379417835764587,-0.5561848529964685,-2.858899485066533,-0.2771542370319366,-0.2546458542346954,-0.3575499057769775
1783196638098991600,1.75899169921875,-0.745685388328135,-0.7324789930135012,-2.521926707315445,-0.2702731788158417,-0.1176086440682411,-0.2748576998710632
1783196638108929500,1.768929443359375,-0.611228548695892,-0.3473439496397972,-1.9709645574033257,-0.264304518699646,-0.0306947231292724,-0.2535562515258789
1783196638118866400,1.778866455078125,-0.6400235582865774,-0.1940150901466608,-1.797517038989067,-0.2348558157682418,0.0433997437357902,-0.3221571743488312
1783196638128803600,1.788803466796875,-0.803804034493491,-0.1336602824270725,-1.8431956711024045,-0.1818281263113021,0.0866168737411499,-0.3948558270931244
1783196638138740500,1.798740478515625,-0.8961818008743226,-0.136591075181961,-1.9958090758025648,-0.1266815215349197,0.1150660887360572,-0.4129381477832794
1783196638148677600,1.808677734375,-0.827672036010772,-0.3075514529556036,-2.178095734232664,-0.0654816627502441,0.0700939819216728,-0.3844574689865112
1783196638158614500,1.818614501953125,-0.6453001835152506,-0.622982845506072,-2.460323945361376,-0.0160515252500772,-0.0430496148765087,-0.3377677500247955
1783196638168551400,1.828551513671875,-0.456962700613588,-0.8135346434563397,-2.675699803444743,-0.016484186053276,-0.1895322650671005,-0.2932300567626953
1783196638178489300,1.8384892578125,-0.2857726788025349,-0.8253092524021863,-2.5979092922776936,-0.0521931797266006,-0.3264240622520447,-0.2712547183036804
1783196638188426500,1.848426513671875,-0.2174231460019946,-0.7425304314285517,-2.2981617910712955,-0.0956650599837303,-0.4094356298446655,-0.2553946077823639
1783196638198363600,1.85836376953125,-0.2053375714108347,-0.7313830144703388,-1.939369395700097,-0.1488284170627594,-0.4339913129806518,-0.2208946943283081
1783196638208300500,1.868300537109375,-0.1758356556598097,-0.7715367456823587,-1.6361761379539963,-0.2146532386541366,-0.4167661070823669,-0.176573246717453
1783196638218237700,1.87823779296875,-0.1843568888328969,-0.7791630027770996,-1.4203297397494314,-0.2697018682956695,-0.3799313902854919,-0.1492718458175659
1783196638228174300,1.88817431640625,-0.2162528601136058,-0.7080629291594028,-1.3604086472719907,-0.3001069724559784,-0.3693704009056091,-0.1410393714904785
1783196638238111500,1.898111572265625,-0.2362485502421855,-0.5700429902181029,-1.4422697688788175,-0.3047754764556885,-0.3831804990768432,-0.1537554264068603
1783196638248049400,1.90804931640625,-0.2242955890547484,-0.4220142829596996,-1.4912339985340832,-0.2689469456672668,-0.4008261561393738,-0.1648287922143936
1783196638257986600,1.917986572265625,-0.1896342447139322,-0.3326192587167024,-1.4669646496742963,-0.192558154463768,-0.3950121998786926,-0.1624045222997665
1783196638267923700,1.927923828125,-0.1666756861917674,-0.3437412489727139,-1.4393459903866053,-0.0927478373050689,-0.368717759847641,-0.146851360797882
1783196638277860600,1.937860595703125,-0.1561310574322938,-0.3265235721901059,-1.3451812675237655,-0.0045916140079498,-0.336546242237091,-0.1260352879762649
1783196638287797500,1.947797607421875,-0.1654599171938374,-0.2843605469822883,-1.1946598666667938,0.0656231045722961,-0.3218856751918793,-0.1046408042311668
1783196638297734400,1.957734375,-0.1415323309764266,-0.2508899467959999,-1.088617074483633,0.118495374917984,-0.3518212139606476,-0.076382540166378
1783196638307671600,1.967671630859375,-0.0262301640713587,-0.1611336880251765,-0.9694570265740156,0.1469704955816269,-0.4303621053695678,-0.0486542806029319
1783196638317609500,1.977609375,0.1674732663102447,-0.0892953632608056,-0.7839560822725296,0.1499945223331451,-0.5062406659126282,-0.0128030739724636
1783196638327546600,1.987546630859375,0.2729801980510354,0.0037906244546175,-0.4624047455370426,0.1232808381319046,-0.5473731756210327,0.0182676818221807
1783196638337483500,1.9974833984375,0.2946437483265995,0.0744862089246511,-0.0664145461499691,0.072074644267559,-0.5561323165893555,0.0420630238950252
1783196638347420400,2.00742041015625,0.1872889967620372,0.1403551038905978,0.3046516398608684,0.0110447090119123,-0.5368181467056274,0.049330823123455
1783196638357357600,2.017357666015625,0.0358994347684085,0.2112242913618683,0.5905827971607446,-0.0412469916045665,-0.501649022102356,0.0456338226795196
1783196638367294500,2.02729443359375,-0.0925679551906883,0.2919546553730964,0.7492261296749114,-0.0721136778593063,-0.4636411964893341,0.0269090421497821
1783196638377231600,2.037231689453125,-0.2007682359349913,0.4550616892978549,0.8377583996087312,-0.0797646716237068,-0.4238820672035217,-0.0007396291475743
1783196638387169500,2.04716943359375,-0.2847546608664095,0.6165110191434622,0.8921177663058042,-0.062547780573368,-0.3848084807395935,-0.0383700020611286
1783196638397106700,2.057106689453125,-0.3498798978582024,0.745894062642753,0.9436357720971108,-0.0368820987641811,-0.3437779545783996,-0.0914662480354309
1783196638407043600,2.067043701171875,-0.3494892911054194,0.8931529545724392,1.0406628986537456,-0.0027563320472836,-0.2993947863578796,-0.1554587334394455
1783196638416980500,2.07698046875,-0.3326541838996112,1.0248799308493732,1.1991752982646229,0.0372070632874965,-0.2473746985197067,-0.2009037137031555
1783196638426917600,2.086917724609375,-0.1871576254673302,1.0215238984197377,1.3719552926808596,0.0527534484863281,-0.1771478652954101,-0.208402469754219
1783196638436854500,2.0968544921875,0.0351942091085016,0.8916551172301173,1.5998685607761145,0.0275546200573444,-0.0861007794737815,-0.1716796159744262
1783196638446791700,2.106791748046875,0.2078480929270386,0.7989502377867698,1.8311761474847792,-0.0424820370972156,0.0161832086741924,-0.1146912351250648
1783196638456729600,2.1167294921875,0.3063764178268611,0.7503378903090954,1.9947388162225483,-0.1355243623256683,0.1002408266067504,-0.0669524744153022
1783196638466666500,2.12666650390625,0.3005475655429065,0.7872051471963525,2.012345784583688,-0.2207542061805725,0.1487166732549667,-0.0374043472111225
1783196638476603400,2.136603271484375,0.2279226204454898,0.8682435542434453,1.884094083201885,-0.2836721837520599,0.1722984313964843,-0.0370357632637023
1783196638486540500,2.14654052734375,0.0477747276097536,0.9507447273194788,1.6408891379505397,-0.318745493888855,0.1779927015304565,-0.0436898730695247
1783196638496477700,2.156477783203125,-0.1063451361306011,1.0132529136806725,1.3652940812259913,-0.3288244903087616,0.1620169281959533,-0.0608147978782653
1783196638506414600,2.16641455078125,-0.1406225226551294,1.1179881303966044,1.0585814171820878,-0.3206076622009277,0.1320562958717346,-0.0838835164904594
1783196638516352800,2.176352783203125,-0.1115446044698357,1.2109382167726754,0.8248714455068111,-0.3009412884712219,0.0766902267932891,-0.1157647520303726
1783196638526289400,2.186289306640625,-0.0358158481381833,1.2684621849805116,0.6886918737351894,-0.2902869582176208,0.0070204166695475,-0.1473457068204879
1783196638536226600,2.1962265625,0.0518166964769363,1.2559615998476743,0.6807265939444304,-0.2969427108764648,-0.0406344532966613,-0.1747584193944931
1783196638546163500,2.20616357421875,0.1022397283720783,1.2050164255082607,0.8421791386604308,-0.3242657780647278,-0.0260074492543935,-0.1949089765548706
1783196638556100400,2.216100341796875,0.1733060641169548,1.166844515763223,1.1083534560889006,-0.3610749244689941,0.0575018227100372,-0.1848968118429184
1783196638566037500,2.22603759765625,0.3149833565220236,1.1357239858344197,1.272725103121996,-0.3864848613739013,0.1538038402795791,-0.1649676263332367
1783196638575974400,2.235974365234375,0.3525875493817031,1.0994853822395203,1.2635440178006887,-0.4063688218593597,0.2505117356777191,-0.143278568983078
1783196638585912600,2.24591259765625,0.2761084130741655,1.0259843849599362,1.0630261216312646,-0.4193455576896667,0.2901327610015869,-0.1299401968717575
1783196638595849500,2.255849365234375,0.1731130257628857,0.942199309553206,0.7117354801923036,-0.4195636808872223,0.2693497240543365,-0.1209666803479194
1783196638605786600,2.26578662109375,0.1318393506102264,0.8679524623423814,0.3417582584619522,-0.4218884706497192,0.2186800688505172,-0.1115765273571014
1783196638615723300,2.27572314453125,0.127195178066194,0.8633218799322843,0.0937181481391191,-0.4266920387744903,0.1652759611606598,-0.1098089888691902
1783196638625660400,2.285660400390625,0.1291752459675073,0.884714212051034,0.011046294671297,-0.4404406249523163,0.1106496527791023,-0.1120182275772094
1783196638635597600,2.29559765625,0.1570470032334327,0.8964403056800365,-0.0251923089236021,-0.4617128670215606,0.0672060400247573,-0.1089478731155395
1783196638645535500,2.305535400390625,0.187711752218753,0.8249421726554632,-0.0741641373634338,-0.4955920577049255,0.0158037990331649,-0.0957163050770759
1783196638655472600,2.31547265625,0.233183280920051,0.6998623793080448,-0.1127057572036981,-0.550402045249939,-0.0412560254335403,-0.0698114708065986
1783196638665409500,2.325409423828125,0.3222156458631158,0.6265870074778794,-0.1010492216795682,-0.6123297214508057,-0.0962082967162132,-0.0453954935073852
1783196638675346400,2.335346435546875,0.3660656012445688,0.5960089138627052,-0.1187584813714027,-0.6659353971481323,-0.1243184879422187,-0.0236784778535366
1783196638685283300,2.345283447265625,0.3182150319196283,0.5659867005646229,-0.1336678812116384,-0.6967788338661194,-0.1185578554868698,0.0014683434274047
1783196638695220500,2.355220458984375,0.2621872936189174,0.5489689302682876,-0.2051250977039337,-0.7086924314498901,-0.0879583954811096,0.0278879664838314
1783196638705158400,2.365158447265625,0.2395968377567827,0.504691104863584,-0.3718646429121494,-0.7057610154151917,-0.0834126621484756,0.059622436761856
1783196638715095600,2.375095458984375,0.2242138290554285,0.4484241509795189,-0.62884267745018,-0.6893854737281799,-0.1218732297420501,0.0832348242402076
1783196638725032400,2.385032470703125,0.2127045930474996,0.3923910058513283,-0.9202566500753164,-0.6650728583335876,-0.1776409149169922,0.0883269980549812
1783196638734969300,2.39496923828125,0.1337085054829716,0.3524988481849432,-1.1138725117713213,-0.6359930038452148,-0.2246723473072052,0.0807985141873359
1783196638744906500,2.404906494140625,0.03832110895738,0.3025149200931191,-1.2212538590818642,-0.6045893430709839,-0.2369031459093094,0.0800177231431007
1783196638754843400,2.414843505859375,-0.0324500249668955,0.2545321026906371,-1.2667518739312886,-0.5675227046012878,-0.2152266204357147,0.0790725648403167
1783196638764780500,2.424780517578125,-0.0695110508605837,0.2306996839433908,-1.3160627250671386,-0.5320438146591187,-0.1832354962825775,0.0782457143068313
1783196638774718500,2.434718505859375,-0.0554408783234655,0.2343839254140853,-1.3900456606447695,-0.497119665145874,-0.1575676798820495,0.066458836197853
1783196638784655600,2.444655517578125,-0.1049305931575596,0.2542553315758705,-1.5064666389793158,-0.4546602666378021,-0.1578810065984726,0.037549965083599
1783196638794592300,2.45459228515625,-0.2848021532699465,0.2192263960316777,-1.6322189247608183,-0.4008130133152008,-0.1437734365463256,-0.0083115324378013
1783196638804529400,2.464529296875,-0.5792454105883836,0.1081438561156392,-1.6915543263047932,-0.3347121179103851,-0.0767862275242805,-0.0545353703200817
1783196638814466600,2.474466552734375,-0.8177586908921599,-0.0353852016359567,-1.7579028214812278,-0.2498321086168289,0.0215440765023231,-0.0971395522356033
1783196638824403500,2.484403564453125,-0.8737991425439715,-0.0772179719761013,-1.914048491960764,-0.1462919116020202,0.0848897844552993,-0.1331763267517089
1783196638834340600,2.494340576171875,-0.7766358223870397,0.0117763625115156,-2.1842940043509005,-0.0402704179286956,0.0708711743354797,-0.1754564195871353
1783196638844278500,2.504278564453125,-0.5865396592497826,0.1253551031574606,-2.4897335797190663,0.0592384785413742,0.0064061488956213,-0.2280493527650833
1783196638854215400,2.51421533203125,-0.4486225961610675,0.2008063577219843,-2.6746675377875566,0.1519210189580917,-0.0635300576686859,-0.2793474495410919
1783196638864152300,2.52415234375,-0.3931197585172951,0.1997895818948745,-2.695373641207814,0.2225418239831924,-0.1228062734007835,-0.3133341073989868
1783196638874089500,2.53408935546875,-0.3662229837633669,0.0881917859330773,-2.57615163397789,0.2701631486415863,-0.1508989036083221,-0.3290329277515411
1783196638884026600,2.544026611328125,-0.3228605196379125,0.0069368135258555,-2.359372338837385,0.2956762909889221,-0.1899873316287994,-0.3281828761100769
1783196638893963500,2.553963623046875,-0.2222776185621507,-0.0393058822110295,-2.1958061629682777,0.2991544008255005,-0.2404861897230148,-0.3163240849971771
1783196638903901700,2.563901611328125,-0.1309041155867278,-0.0855842337831854,-2.051808610922098,0.2889131307601928,-0.2890624105930328,-0.2997310161590576
1783196638913838300,2.57383837890625,-0.0805624600984156,-0.1213879530921578,-1.9038608599454163,0.2789912819862366,-0.3197571933269501,-0.2966846227645874
1783196638923775500,2.583775390625,-0.066873395833373,-0.0979591467097401,-1.7945476677894592,0.2955339848995209,-0.3491967618465423,-0.3042763173580169
1783196638933712400,2.59371240234375,-0.0596587882794439,0.0109980716153979,-1.7417425447970627,0.3290125727653503,-0.3848372995853424,-0.3194749653339386
1783196638943649500,2.6036494140625,-0.0430742948338389,0.1467097336143255,-1.6841607089221478,0.367765724658966,-0.4131037592887878,-0.3317413628101349
1783196638953586700,2.613586669921875,-0.0293593654751777,0.2193260570138692,-1.5766548584491014,0.4060766100883484,-0.4356522262096405,-0.344652384519577
1783196638963524600,2.623524658203125,-0.0229204184688627,0.2338672080636024,-1.4078303236603735,0.4397846162319183,-0.4449541270732879,-0.348006933927536
1783196638973461500,2.63346142578125,0.0293386149480938,0.2416647300720214,-1.1674188085198405,0.4607815146446228,-0.4591261446475982,-0.3420606255531311
1783196638983398400,2.6433984375,0.0930221286989748,0.2545914316624403,-0.945528453975916,0.4538938999176025,-0.4721020460128784,-0.3441806435585022
1783196638993335600,2.65333544921875,0.1243757367312908,0.2744008785039186,-0.6868605666548013,0.4364994764328003,-0.4685129225254059,-0.3475441932678222
1783196639003272400,2.6632724609375,0.1293146544381976,0.3191811004728078,-0.4089443735063076,0.4201603829860687,-0.4680601060390472,-0.3524123430252075
1783196639013209600,2.673209716796875,0.1224045827887952,0.3938935193687677,-0.2013432410776615,0.4109857976436615,-0.4540998041629791,-0.3587032556533813
1783196639023147500,2.6831474609375,0.0607012830697,0.4243836424395442,-0.0576508094578981,0.4070044159889221,-0.4321421086788177,-0.3761058151721954
1783196639033084400,2.69308447265625,0.0019793372489511,0.4561716963663696,0.0754009856820106,0.4163766205310821,-0.4072956144809723,-0.3932320475578308
1783196639043021600,2.703021484375,-0.0022737718845717,0.5358747631564736,0.211385327142477,0.4232829213142395,-0.3679185807704925,-0.4103531241416931
1783196639052958500,2.71295849609375,0.0452512004815041,0.6259048704326152,0.3902168766826391,0.4257764518260956,-0.315346211194992,-0.4266338348388672
1783196639062895600,2.7228955078125,0.1046560139998793,0.6906874314665794,0.5889063883811235,0.4244752824306488,-0.2569077610969543,-0.4376223087310791
1783196639072832500,2.73283251953125,0.1611595531187951,0.7275079266026616,0.7920680770576,0.3973531126976013,-0.2192618548870086,-0.4370417296886444
1783196639082770700,2.742770751953125,0.2425372751228511,0.7483700973674654,0.9445663309454916,0.3527551889419555,-0.2231334149837494,-0.4278542995452881
1783196639092707300,2.752707275390625,0.3259156694248318,0.7472372939452528,1.0480097542852165,0.2772516310214996,-0.2615761458873749,-0.4206850826740265
1783196639102644500,2.76264453125,0.3613714520789682,0.714914694750309,1.1451800887048245,0.1963884830474853,-0.329071044921875,-0.4124750792980194
1783196639112581400,2.772581298828125,0.3480712410010397,0.7249161565437913,1.2422744352787731,0.1181836947798729,-0.3918627798557281,-0.404849112033844
1783196639122518500,2.7825185546875,0.328560777106136,0.7395578453585505,1.381862938711047,0.0501538850367069,-0.4235167503356933,-0.4002827107906341
1783196639132455700,2.79245556640625,0.2815465124748647,0.7411454068109393,1.5566846680879591,0.0026236502453684,-0.4164894819259643,-0.40201535820961
1783196639142393600,2.8023935546875,0.2300691309548914,0.7694272061824798,1.771156855329871,-0.0234035961329936,-0.3615538477897644,-0.4092395603656769
1783196639152330500,2.81233056640625,0.2129050840556621,0.8117989057049155,1.9963351455032825,-0.017091903835535,-0.2683413326740265,-0.4234560430049896
1783196639162267400,2.822267333984375,0.1451511059954762,0.8215940312713385,2.155609177136421,0.0135923642665147,-0.1425745189189911,-0.4395969808101654
1783196639172204500,2.83220458984375,0.0789456725515425,0.806663588643074,2.2182652475357054,0.0435806214809417,-0.0164722427725791,-0.4594532251358032
1783196639182141400,2.842141357421875,0.0671156984229572,0.8000146521478891,2.1940479211241004,0.0588804222643375,0.0935342758893966,-0.4739054143428802
1783196639192078600,2.85207861328125,0.1000030918938107,0.7713745408579706,2.102755538827181,0.0646168738603591,0.1756840050220489,-0.4730302989482879
1783196639202015500,2.862015380859375,0.1604163335360586,0.6749930187284946,1.9595722257733343,0.0570411123335361,0.2070648968219757,-0.4667640328407287
1783196639211953400,2.871953369140625,0.2039806038439273,0.5919900336101651,1.7582091109514235,0.0485730580985546,0.2089520096778869,-0.4626944661140442
1783196639221890600,2.881890625,0.1900545159526169,0.554546438139677,1.5757786601364612,0.0384990498423576,0.205947071313858,-0.4651806950569153
1783196639231827500,2.891827392578125,0.1545595703318715,0.5377706599056721,1.4545581725656986,0.010282858274877,0.216236725449562,-0.460305780172348
1783196639241764600,2.9017646484375,0.1513875161670148,0.5338572858542203,1.3959329651176928,-0.0396894328296184,0.22457817196846,-0.4448551833629608
1783196639251701500,2.911701416015625,0.2276655769445001,0.4684060317784547,1.310841775548458,-0.0963902622461319,0.2201802134513855,-0.4229751825332641
1783196639261638400,2.921638427734375,0.3068677084751427,0.3524573471307754,1.1496224550664425,-0.1423318535089492,0.2045731097459793,-0.3870258033275604
1783196639271576300,2.931576416015625,0.4271954849898814,0.262242238676548,0.9134218356192112,-0.1732735186815261,0.181411862373352,-0.3481585383415222
1783196639281513500,2.941513427734375,0.5007442669339478,0.2218099827840924,0.6706330699533224,-0.1859484314918518,0.1583308726549148,-0.3195728361606598
1783196639291450600,2.95145068359375,0.446795672994852,0.271227801425755,0.4635404715687036,-0.1815046817064285,0.147934153676033,-0.2978004217147827
1783196639301387500,2.961387451171875,0.3535220537528395,0.3275239814043045,0.2865267851054668,-0.1750919967889785,0.1434846371412277,-0.2813738286495209
1783196639311324400,2.971324462890625,0.2780263755246996,0.3450380107849836,0.1213631109118461,-0.1723342984914779,0.1267559975385666,-0.2709986865520477
1783196639321261300,2.98126123046875,0.1531881358481943,0.3558180557355284,-0.0675794982761144,-0.1775606721639633,0.1066969186067581,-0.2703840434551239
1783196639331199500,2.991199462890625,0.036406653638184,0.3935398836255073,-0.2769260130673647,-0.1919510513544082,0.0484490543603897,-0.2678042650222778
1783196639341136400,3.001136474609375,0.0158146598505787,0.4189765226989984,-0.544978983849287,-0.2219424545764923,-0.0516068302094936,-0.2513773143291473
1783196639351073500,3.011073486328125,0.0785942287653684,0.3843523685634136,-0.8531634740114211,-0.2687432467937469,-0.1612121611833572,-0.2308699339628219
1783196639361010400,3.021010498046875,0.1040361285358667,0.3689367727667093,-1.071224041134119,-0.3268697261810303,-0.2675749659538269,-0.2237319350242614
1783196639370947300,3.030947265625,0.0250403332322835,0.4034855235785246,-1.1937561958253382,-0.3667638897895813,-0.3553080558776855,-0.22475166618824
1783196639380885200,3.04088525390625,-0.0507286089792847,0.4802922844052315,-1.2930354852229355,-0.3769840896129608,-0.4128036499023437,-0.2504007816314697
1783196639390822400,3.050822509765625,-0.1313276016958058,0.6063613810509443,-1.3379109842598438,-0.3698252737522125,-0.4418385028839111,-0.2795557379722595
1783196639400759600,3.060759521484375,-0.2267129523947834,0.7128840657055378,-1.3662462673842906,-0.3404704332351684,-0.45109823346138,-0.3192633092403412
1783196639410696400,3.070696533203125,-0.3453212116405367,0.76168696731925,-1.328117319998145,-0.2840420603752136,-0.4230956137180328,-0.3643959164619446
1783196639420633600,3.080633544921875,-0.4617889517262578,0.7736936314553022,-1.311759474915266,-0.212491750717163,-0.3679906725883484,-0.4173352122306824
1783196639430570200,3.0905703125,-0.5447027972564101,0.7786439473390578,-1.2533020252496003,-0.1337178498506546,-0.2883799970149994,-0.4539100229740143
1783196639440507400,3.10050732421875,-0.6122160984285175,0.8092609116598963,-1.2468600095033644,-0.0547716282308101,-0.2137032598257064,-0.4995356202125549
1783196639450445300,3.1104453125,-0.7000564405754208,0.8649854292303323,-1.3199153088420628,0.0225093066692352,-0.1650784760713577,-0.5550113916397095
1783196639460382500,3.120382568359375,-0.7875209351472556,0.8696212723374366,-1.4083037863910195,0.0904883444309234,-0.1323919743299484,-0.6110031604766846
1783196639470319600,3.130319580078125,-0.7954888452865183,0.8710562735766172,-1.4682494287878274,0.1560582965612411,-0.1160883679986,-0.6680390238761902
1783196639480256500,3.140256591796875,-0.7184248948283493,0.9390689025729894,-1.476012464004755,0.2061453163623809,-0.1263313889503479,-0.7217797040939331
1783196639490193400,3.150193359375,-0.6012907997883856,0.977919734492898,-1.4541653738558291,0.2397821098566055,-0.1448464840650558,-0.7679620981216431
1783196639500131300,3.16013134765625,-0.4876083065070211,0.9441618417978286,-1.3966571877390146,0.2438735663890838,-0.1715244352817535,-0.7974856495857239
1783196639510068500,3.170068359375,-0.3903117153592407,0.8240253500714898,-1.3102256894767284,0.2194912731647491,-0.2074163854122162,-0.8127983212471008
1783196639520005400,3.18000537109375,-0.2936151359312236,0.6711582628712057,-1.2226245629131791,0.1816321164369583,-0.2609576284885406,-0.8227561712265015
1783196639529942500,3.189942626953125,-0.1918887456424534,0.5546756174772978,-1.202490121901035,0.1456048637628555,-0.330857902765274,-0.8328409790992737
1783196639539879700,3.199879638671875,-0.1285778645962476,0.4431833277165889,-1.1840484562814235,0.1305199861526489,-0.3941372036933899,-0.8393980860710144
1783196639549816300,3.20981640625,-0.0743929776832461,0.3568085280776024,-1.159582123544812,0.1349855810403823,-0.4266818463802337,-0.8378065824508667
1783196639559754500,3.21975439453125,0.056063832527399,0.2866851905375719,-1.1018506500661371,0.1580585539340973,-0.4344517588615417,-0.8264088034629822
1783196639569691600,3.229691650390625,0.1883108871556818,0.2616165079936385,-0.953256417879462,0.1809135377407074,-0.433459997177124,-0.8137790560722351
1783196639579628800,3.23962890625,0.2798223190307617,0.2435778702169656,-0.8193406993865966,0.1871985793113708,-0.4577074348926544,-0.8067994117736816
1783196639589565700,3.249565673828125,0.3087228348225355,0.2119607889428734,-0.7191805355012416,0.1830946505069732,-0.4942358732223511,-0.7901046276092529
1783196639599502800,3.2595029296875,0.3143795454099774,0.1418511876672506,-0.6034820262223481,0.1693984270095825,-0.529578447341919,-0.7716931104660034
1783196639609439500,3.269439453125,0.338823081792891,0.0927805750280618,-0.4524643662810325,0.1456861644983291,-0.5831149220466614,-0.7517092823982239
1783196639619377700,3.279377685546875,0.3545097496159374,0.116240068809688,-0.2938029135882854,0.1065191105008125,-0.6242859363555908,-0.743368923664093
1783196639629314600,3.289314453125,0.3760165018945932,0.1784001723855733,-0.0785971513748168,0.0530207343399524,-0.6533921360969543,-0.7432006001472473
1783196639639251700,3.299251708984375,0.4400814161784946,0.2750651876315474,0.1708691923588514,-0.0128962201997637,-0.674905002117157,-0.7476614117622375
1783196639649188900,3.30918896484375,0.4815963527411222,0.299590849339962,0.3901169234395027,-0.0794339701533317,-0.6952124238014221,-0.748603105545044
1783196639659125500,3.31912548828125,0.4971301680900156,0.2485091891393065,0.5603606773763895,-0.140969380736351,-0.7116281986236572,-0.7479026913642883
1783196639669062700,3.329062744140625,0.5181082203194499,0.1731821454763412,0.7320873633474111,-0.1864412575960159,-0.7157105207443237,-0.7291689515113831
1783196639679000600,3.33900048828125,0.5488976185977459,0.0712795218378305,0.8907260196864605,-0.2228200882673263,-0.6922516822814941,-0.6875938177108765
1783196639688937700,3.348937744140625,0.6551040769100189,-0.0383078110843896,1.1009475637465715,-0.270976185798645,-0.6609401106834412,-0.6364794969558716
1783196639698874600,3.35887451171875,0.7631032638579607,-0.0786567726075649,1.3449965586066246,-0.3575499653816223,-0.6452016830444336,-0.5980955958366394
1783196639708811800,3.368811767578125,0.801377026542276,-0.0820262490406632,1.5983336062937974,-0.4688855409622192,-0.6301593780517578,-0.5580107569694519
1783196639718748700,3.378748779296875,0.7385774560190737,-0.1315980892002582,1.7805857779324057,-0.5822880268096924,-0.617789626121521,-0.5048694014549255
1783196639728685600,3.388685546875,0.6715344027072191,-0.2656520471200347,1.816578882333636,-0.6772022843360901,-0.6211878061294556,-0.4380937814712524
1783196639738623700,3.398623779296875,0.6178849378451705,-0.3751040632247924,1.7085761882543562,-0.7439523935317993,-0.6377460956573486,-0.3783139884471893
1783196639748560600,3.408560546875,0.5827167399607598,-0.3162771957248449,1.6029022293835875,-0.7838276028633118,-0.6403085589408875,-0.3485289216041565
1783196639758497800,3.418497802734375,0.6173294959194958,-0.1246817339405417,1.6045587644189596,-0.8111559152603149,-0.5900318026542664,-0.3438561260700226
1783196639768434700,3.4284345703125,0.6081446477385237,0.0622577187314629,1.7125848393738268,-0.8367416858673096,-0.4968472719192505,-0.3529681265354156
1783196639778371600,3.43837158203125,0.5386066723383963,0.1289814769610762,1.8490262769520285,-0.8500004410743713,-0.3824765682220459,-0.3666732013225555
1783196639788309500,3.4483095703125,0.4843405368827283,0.0877805747836828,1.8405472024202345,-0.84336918592453,-0.270983874797821,-0.3643762171268463
1783196639798246700,3.45824658203125,0.4512306232349947,-0.0298743292599916,1.6295850691258906,-0.817745566368103,-0.173125684261322,-0.3541455566883087
1783196639808183600,3.46818359375,0.3961209861598909,-0.1357414726153016,1.32357616943717,-0.7709245681762695,-0.110549122095108,-0.3502935469150543
1783196639818120700,3.47812060546875,0.3856377321988344,-0.1316308224260807,1.0466238528847691,-0.7046253085136414,-0.0639432668685913,-0.3666381537914276
1783196639828057900,3.488057861328125,0.4204258447244763,-0.0268923908397555,0.8410714696794748,-0.6264444589614868,-0.0255660489201545,-0.3916074335575104
1783196639837994500,3.497994384765625,0.4030161525011062,0.0393429993510246,0.7275485508739948,-0.546464204788208,0.0318085700273513,-0.4159758687019348
1783196639847932700,3.5079326171875,0.3793554370589554,0.0281157951548695,0.6949561948269605,-0.4852674305438995,0.0969018191099166,-0.4246324896812439
1783196639857869600,3.51786962890625,0.420778895945847,0.0110179453596472,0.7484557298243045,-0.4445298016071319,0.1637812554836273,-0.4244740307331085
1783196639867806700,3.527806640625,0.453441869543679,-0.0132584177628159,0.8165706501513719,-0.4255371987819671,0.2241598963737487,-0.4143470823764801
1783196639877743600,3.53774365234375,0.4584026702888309,-0.0495128034487366,0.8287550089418888,-0.3991041779518127,0.2787413895130157,-0.39899742603302
1783196639887680800,3.5476806640625,0.3770293687315657,-0.1084367015823721,0.6719751322120427,-0.3515707552433014,0.3221858143806457,-0.3911757171154022
1783196639897617700,3.55761767578125,0.3435729066684841,-0.1049342464193701,0.4330161539673805,-0.2747017443180084,0.3838578760623932,-0.3877832591533661
1783196639907555600,3.5675556640625,0.2855057714946568,0.0127633277222514,0.2025298205137252,-0.1677659749984741,0.4416964054107666,-0.3919324874877929
1783196639917492700,3.57749267578125,0.2197666403882205,0.1636748969405889,-0.0866962866783142,-0.0378283336758613,0.488817811012268,-0.4114927053451538
1783196639927429600,3.5874296875,0.2074107244230806,0.3283791369289159,-0.3343073579341173,0.0947568714618682,0.5173354148864746,-0.4338193237781524
1783196639937366800,3.59736669921875,0.1898074093237519,0.4717123798474669,-0.5296557425111532,0.2152839452028274,0.5283342003822327,-0.451177030801773
1783196639947303700,3.6073037109375,0.2197397523812949,0.5246142412126064,-0.6912468189150095,0.3020987510681152,0.5290167331695557,-0.4495602250099182
1783196639957241900,3.617241943359375,0.2430098610706627,0.5528557085737585,-0.7549830857664346,0.3260336220264435,0.4902719855308532,-0.4355999231338501
1783196639967178500,3.627178466796875,0.2043456377640366,0.6328834772735834,-0.7837859864026308,0.2751717865467071,0.4008142650127411,-0.4318738877773285
1783196639977115600,3.63711572265625,0.1731963201321661,0.7238710314050316,-0.8011047854721546,0.1721633225679397,0.2810122668743133,-0.4357975125312805
1783196639987052800,3.647052734375,0.1075746779255568,0.822827664719522,-0.8108154476255178,0.0438431575894355,0.1351762413978576,-0.4329287409782409
1783196639996989700,3.65698974609375,0.0324178762629628,0.8692202903211116,-0.8835089279145002,-0.1009372621774673,-0.0229206290096044,-0.4383875131607055
1783196640006926800,3.6669267578125,-0.0288445478208363,0.8554472010344266,-0.9601917701005936,-0.2313693016767501,-0.1441687643527984,-0.4512031674385071
1783196640016864800,3.67686474609375,-0.0531667959116399,0.8505477385550737,-0.9797802676677704,-0.344536542892456,-0.2203859239816665,-0.4800548553466797
1783196640026801700,3.6868017578125,-0.0577874414496123,0.8777958109647035,-0.9957996745765209,-0.4156477451324463,-0.2481014430522918,-0.5158472061157227
1783196640036738600,3.696738525390625,-0.1171519320907536,0.8909849628835916,-1.1111515623748305,-0.4050144255161285,-0.2392338514328003,-0.563971221446991
1783196640046675700,3.70667578125,-0.2313015953592956,0.8607426770940423,-1.35962655698359,-0.3177911043167114,-0.2202878594398498,-0.6232302784919739
1783196640056612600,3.716612548828125,-0.3393764778919518,0.8517249656409025,-1.7049802095890043,-0.1876684427261352,-0.200476735830307,-0.6977697610855103
1783196640066549800,3.7265498046875,-0.3728168290704488,0.9319716377884149,-1.943034347948432,-0.0357609204947948,-0.1766678094863891,-0.7941189408302307
1783196640076487700,3.73648779296875,-0.390279566655308,1.0296581050366165,-2.058741040533781,0.0999511033296585,-0.1536738127470016,-0.8943163752555847
1783196640086424600,3.746424560546875,-0.3516200195237994,1.0510831703811885,-2.0118314053207635,0.20489002764225,-0.1420227438211441,-0.9709562659263612
1783196640096361700,3.75636181640625,-0.2416128720206208,0.8987769319340586,-1.9156793080329892,0.2715702652931213,-0.131867304444313,-1.0146632194519043
1783196640106298600,3.766298583984375,-0.0895385243669152,0.660534869787097,-1.785230973389745,0.2983949482440948,-0.1577894538640976,-1.0369137525558472
1783196640116235800,3.77623583984375,0.0634247166842222,0.4614022904962301,-1.635686893132329,0.300826221704483,-0.2137252986431121,-1.037840485572815
1783196640126173700,3.786173583984375,0.2436640871956944,0.3127057669788599,-1.5185311707824467,0.2877383828163147,-0.2870618104934692,-1.010779619216919
1783196640136110800,3.79611083984375,0.4532711526192724,0.1699532465577125,-1.4467624041229483,0.261755108833313,-0.3562962710857391,-0.9694814085960388
1783196640146047500,3.806047607421875,0.6064623572073876,0.0610626637279987,-1.2965040381163355,0.2318193167448043,-0.4322821199893951,-0.9341497421264648
1783196640155984600,3.815984619140625,0.6717578361995518,-0.0151610365137457,-1.1596487590402365,0.2100172191858291,-0.4868714213371277,-0.9030982851982116
1783196640165921800,3.825921875,0.6507645864009857,-0.0957870633676648,-1.0039841500759124,0.1970907747745514,-0.51119065284729,-0.8786510229110718
1783196640175858700,3.835858642578125,0.5568463856451213,-0.1480827755331993,-0.831000157520175,0.1972813755273819,-0.5005939602851868,-0.8633213043212891
1783196640185796900,3.845796875,0.4788483692072331,-0.1647930873155594,-0.6257417888253927,0.1962605863809585,-0.4747304618358612,-0.8638608455657959
1783196640195733800,3.855733642578125,0.4688650275923311,-0.1204629472017288,-0.4701590129256248,0.1950154304504394,-0.4574401378631592,-0.8717656135559082
1783196640205670700,3.865670654296875,0.4664724333673715,-0.0748877754628658,-0.3702963706821203,0.1827936470508575,-0.4526626765727997,-0.8809548616409302
1783196640215607600,3.875607666015625,0.5085476341612637,-0.1474134979695081,-0.2920446717441082,0.1615209281444549,-0.4562478065490722,-0.8584846258163452
1783196640225544700,3.885544677734375,0.6328511824391782,-0.2920636687055229,-0.2396405307680368,0.1242960542440414,-0.4919503927230835,-0.8122832775115967
1783196640235482600,3.895482666015625,0.7547983768492936,-0.4753311548665165,-0.1982189715772867,0.082331895828247,-0.5514370799064636,-0.7519744038581848
1783196640245419800,3.905419677734375,0.8216893083393574,-0.6194014798879623,-0.1500093596816062,0.037325270473957,-0.6136764287948608,-0.69151771068573
1783196640255356700,3.915356689453125,0.8423714463621378,-0.6618897915273905,-0.024946225208044,-0.0052070748060941,-0.6601679921150208,-0.6423953175544739
1783196640265293600,3.92529345703125,0.7881777916207909,-0.617911825852096,0.1407049402415752,-0.0426593720912933,-0.6731948256492615,-0.609507143497467
1783196640275230700,3.935230712890625,0.7135995204985142,-0.5405342794001102,0.3251099059998989,-0.0738073736429214,-0.6756427884101868,-0.5873994827270508
1783196640285167600,3.945167724609375,0.7182770107902586,-0.4295756581246853,0.4871417119085788,-0.0929941162467002,-0.6838493347167969,-0.5607271194458008
1783196640295105800,3.955105712890625,0.7656941571339965,-0.3644970367535948,0.5874503443539142,-0.1070838421583175,-0.667194664478302,-0.5346736311912537
1783196640305042700,3.965042724609375,0.7843520958527922,-0.3690074999153613,0.7221294484347105,-0.1152898445725441,-0.6284922957420349,-0.5020608305931091
1783196640314979800,3.974979736328125,0.792246210103482,-0.3553890166684985,0.8627987328410148,-0.1183671802282333,-0.5883539915084839,-0.4710243642330169
1783196640324916500,3.98491650390625,0.7801258564598857,-0.2936690580755472,0.9342027578413484,-0.1093710288405418,-0.5636987090110779,-0.4549820125102997
1783196640334853600,3.994853515625,0.7499531287752091,-0.2446542672768235,0.9752344409316778,-0.1046987175941467,-0.5340701341629028,-0.4442260861396789
1783196640344791600,4.00479150390625,0.714507502188906,-0.1993956141412258,1.0558873557925224,-0.1063892915844917,-0.5029628276824951,-0.4395759403705597
1783196640354728700,4.014728759765625,0.624281433949247,-0.2081689954444766,1.1781716732025145,-0.1040833219885826,-0.4557759165763855,-0.4438999891281128
1783196640364665900,4.024665771484375,0.508807673336938,-0.2615884509429335,1.2492039422810075,-0.0861954018473625,-0.4076888263225555,-0.4511022269725799
1783196640374602800,4.034602783203125,0.4587701153617352,-0.265104934631288,1.238679041135311,-0.0499798059463501,-0.377262532711029,-0.459422618150711
1783196640384539600,4.04453955078125,0.5100777663379907,-0.2297819845765829,1.192591243699193,-0.0088616628199815,-0.3598529100418091,-0.4627004265785217
1783196640394476500,4.0544765625,0.6141570764284581,-0.1978849173173308,1.2155635384857657,0.0103809395805001,-0.3265606462955475,-0.4538316428661346
1783196640404414700,4.064414794921875,0.7086606027916074,-0.1978399091318249,1.362567871132493,-0.0021404447034001,-0.2915408909320831,-0.4273052513599396
1783196640414351600,4.0743515625,0.815978383346647,-0.2577010881155729,1.5175351454824209,-0.0400414243340492,-0.2575614750385284,-0.391400545835495
1783196640424288800,4.084288818359375,0.8409515696268528,-0.3420844216763973,1.632352195751667,-0.0801875069737434,-0.2127109169960022,-0.3498451113700866
1783196640434226000,4.094225830078125,0.802621546710655,-0.3760580029487609,1.65744922760725,-0.0961408466100692,-0.1489839702844619,-0.322111427783966
1783196640444162600,4.10416259765625,0.7530772521451116,-0.2858002243965864,1.5756640938460826,-0.0969310104846954,-0.0849237516522407,-0.3169890940189361
1783196640454100700,4.114100830078125,0.7272773327171802,-0.0782271490186452,1.4849936428397894,-0.0931011736392974,-0.0322291329503059,-0.3260166943073272
1783196640464037600,4.12403759765625,0.6951784592755138,0.0886009512558579,1.3780278905928134,-0.1134479865431785,0.0020822351798415,-0.3265341520309448
1783196640473974800,4.133974853515625,0.6673022450301795,0.1016471875727176,1.277633917951584,-0.1525607854127884,0.014406219124794,-0.3186691701412201
1783196640483911700,4.14391162109375,0.6455261012256145,0.0615384645462036,1.119261219072342,-0.2015392482280731,-0.0121313827112317,-0.3005692362785339
1783196640493848800,4.153848876953125,0.6247739667065442,0.0369666256085038,0.8951175326436758,-0.2408042848110199,-0.0647071003913879,-0.2945811152458191
1783196640503785700,4.16378564453125,0.6105514166193082,0.0658493134826421,0.6510930877029896,-0.2613700032234192,-0.0929496586322784,-0.2911978363990783
1783196640513723600,4.1737236328125,0.5926436752133071,0.1099213871821761,0.5367196895480155,-0.2760289907455444,-0.07825518399477,-0.293474406003952
1783196640523660500,4.18366064453125,0.6328671106606721,0.1355509184792638,0.5283136802524327,-0.2929049134254455,-0.0563648045063018,-0.2919611930847168
1783196640533597700,4.19359765625,0.6974032226528972,0.1787716360464692,0.4832330140322446,-0.324834793806076,-0.0489457920193672,-0.2855278551578522
1783196640543534800,4.203534912109375,0.7597578258875757,0.1846972267031669,0.3775315826326608,-0.3509745299816131,-0.0746985673904419,-0.2667064964771271
1783196640553471500,4.213471435546875,0.7483413096643984,0.0917985782533884,0.2334422606498002,-0.3503662645816803,-0.1009467393159866,-0.2388643473386764
1783196640563409700,4.22340966796875,0.6367063234973699,-0.0611146861761808,0.0714396808356046,-0.3243578374385834,-0.1011744365096092,-0.2093482613563537
1783196640573346600,4.2333466796875,0.5432616220047697,-0.1123974219068884,0.0399964948236942,-0.2880493104457855,-0.0704433470964431,-0.1923691183328628
1783196640583283700,4.24328369140625,0.4901376788541674,0.0053875382572412,0.0692360333114862,-0.256450355052948,-0.0278282389044761,-0.1872942000627517
1783196640593220400,4.253220458984375,0.4933568600963801,0.2155637818709015,0.0834358235776424,-0.2163002789020538,-0.009020303376019,-0.1933688074350357
1783196640603157500,4.263157470703125,0.4414653082849457,0.3917351722911,-0.046847091370821,-0.1714395880699157,-0.0184582807123661,-0.2104433923959732
1783196640613094700,4.2730947265625,0.2818306631784886,0.4308402712330222,-0.2092541603326797,-0.1392313092947006,-0.0366733819246292,-0.2363834083080291
1783196640623032600,4.283032470703125,0.0895177007745951,0.380761358334124,-0.2990665332049131,-0.1357825249433517,-0.0565176606178283,-0.2643668353557586
1783196640632969700,4.2929697265625,-0.018080284961313,0.3350543769091367,-0.2547036598652601,-0.16751529276371,-0.0658571049571037,-0.285968005657196
1783196640642906600,4.30290673828125,-0.0243524240333586,0.2827256392568349,-0.1126689323246478,-0.2141730785369873,-0.0500483177602291,-0.2953695058822632
1783196640652843500,4.312843505859375,0.0034506519105285,0.2078206203982233,-0.005264788660407,-0.2589522898197174,-0.0220142863690853,-0.3012215495109558
1783196640662780400,4.322780517578125,0.0006915624607354,0.1574114526316523,-0.0085731825560331,-0.2774998545646667,0.0023469787556678,-0.3106589913368225
1783196640672718600,4.332718505859375,0.001270202598907,0.1341010119318962,-0.112398298689723,-0.2675872147083282,0.0155828641727566,-0.3128950297832489
1783196640682655500,4.342655517578125,-0.0045748336348682,0.0830932937502861,-0.3161521080404519,-0.2391931563615799,0.0292307659983634,-0.309599906206131
1783196640692592600,4.352592529296875,-0.0593564443320035,-0.0602998626619577,-0.5339776973634958,-0.2180728167295456,0.0396938845515251,-0.306327223777771
1783196640702529800,4.36252978515625,-0.0438799121282994,-0.1028958724595606,-0.7001274599850177,-0.212150752544403,0.0249490309506654,-0.3038691282272339
1783196640712466400,4.372466552734375,0.0518372278083115,-0.0251347335174679,-0.7901543523907661,-0.2259194254875183,0.0027873213402926,-0.3021289408206939
1783196640722404400,4.382404296875,0.1541565424889326,0.0448448116376996,-0.8583651343077421,-0.2513214349746704,-0.0101338028907775,-0.3002367615699768
1783196640732341500,4.392341552734375,0.1389083391483873,0.0402633290663361,-0.8766694372832775,-0.2752290666103363,-0.003949255682528,-0.3012276589870453
1783196640742278700,4.402278564453125,0.0480108379205688,0.0231071732126176,-0.9459323586016892,-0.2754274606704712,-0.0014501451514661,-0.3014774620532989
1783196640752215600,4.412215576171875,0.0170521109573543,0.0702912414528429,-1.0844950261175632,-0.2547408640384674,-0.0234542675316333,-0.3123610615730285
1783196640762152700,4.422152587890625,0.0789664230786263,0.1770851442642509,-1.2812380799233911,-0.2126799821853637,-0.0875203385949134,-0.3259903192520141
1783196640772089600,4.432089599609375,0.1889470296347513,0.343546164792031,-1.4826426957994698,-0.1718192249536514,-0.1838254481554031,-0.338062435388565
1783196640782027500,4.442027587890625,0.2406212854336947,0.4176777150601148,-1.5625304715067148,-0.137665256857872,-0.2625719308853149,-0.3525918424129486
1783196640791964400,4.45196435546875,0.1839871787376701,0.3563322888679802,-1.4667033683896065,-0.1155735552310943,-0.2844721972942352,-0.3686403930187225
1783196640801901600,4.461901611328125,0.0127586515471339,0.2067297564215958,-1.233177521109581,-0.0770200416445732,-0.2433076947927475,-0.3950365781784057
1783196640811838700,4.471838623046875,-0.1321900637440383,0.080821841686964,-1.017730351355672,-0.0274966657161712,-0.1691080629825592,-0.4310052394866943
1783196640821775600,4.481775634765625,-0.0943874257028102,0.08478314653337,-0.9304185631275176,0.0431016013026237,-0.0781235694885253,-0.4601966738700866
1783196640831713800,4.4917138671875,0.0242395382434129,0.1213273089461028,-0.9321639454901218,0.0978118330240249,0.0051336446776986,-0.4651491045951843
1783196640841650400,4.501650390625,0.2056166075479239,0.0435448349550366,-1.017481929552555,0.129353255033493,-0.0151484571397304,-0.4651269912719726
1783196640851587600,4.511587646484375,0.371659329598397,-0.0828311356827616,-1.2571990326881408,0.1308441013097763,-0.1162648350000381,-0.4498921632766723
1783196640861524500,4.5215244140625,0.4121199713351204,-0.2198657168485224,-1.4969441928744316,0.1108112707734108,-0.2238096743822097,-0.4154236614704132
1783196640871461600,4.531461669921875,0.3819548789676278,-0.4334921009160578,-1.5497089838564395,0.0751280412077903,-0.3214488625526428,-0.369920015335083
1783196640881399600,4.541399658203125,0.3587115486873313,-0.5494960228823125,-1.483794788444042,0.0257857926189899,-0.3868300020694732,-0.3334416449069977
1783196640891336400,4.55133642578125,0.3695316699199378,-0.5031926829993725,-1.331674135696888,-0.0202182494103908,-0.4274466335773468,-0.3024887442588806
1783196640901273600,4.561273681640625,0.3562546935871243,-0.3643418461918831,-1.197544482192397,-0.0438585989177227,-0.4278362393379211,-0.2911604344844818
1783196640911210500,4.57121044921875,0.2962565172854811,-0.2503048403844237,-1.1173252825737,-0.0362811684608459,-0.4096904397010803,-0.293133407831192
1783196640921147600,4.581147705078125,0.2690498728647827,-0.1743606877364218,-1.0539344681590794,-0.0157079845666885,-0.3909148871898651,-0.2950282394886017
1783196640931084500,4.59108447265625,0.2481687051385641,-0.0978955799542367,-0.9928700508654116,0.0159742962568998,-0.3500934541225433,-0.2935156226158142
1783196640941022700,4.601022705078125,0.1737226820938289,-0.0750024878837168,-0.8866244295865296,0.0597878210246562,-0.2785465717315674,-0.2846153378486633
1783196640950959400,4.61095947265625,0.1354308722961694,-0.0310449804745614,-0.7456652223229407,0.1054555922746658,-0.1825358569622039,-0.2903487682342529
1783196640960896500,4.620896484375,0.0914902429565787,0.1255607087321579,-0.5766314286977052,0.1484941393136978,-0.0800419673323631,-0.3102471232414245
1783196640970833700,4.630833740234375,0.0773923786949366,0.3562790973760187,-0.4566302537888288,0.1826246678829193,-0.0084004988893866,-0.3325323760509491
1783196640980770600,4.6407705078125,0.0856462661687284,0.4947032332040369,-0.4828542438477277,0.1977503597736358,0.0031363144516944,-0.3642570078372955
1783196640990708500,4.65070849609375,0.1078657698266208,0.5581976541236042,-0.6308458339661359,0.1908305287361145,-0.0510827228426933,-0.3945249319076538
1783196641000645600,4.660645751953125,0.1611856374081224,0.6155927352547645,-0.7561223189294338,0.171870157122612,-0.1707691848278045,-0.4191415905952453
1783196641010582500,4.67058251953125,0.2586912681967019,0.6524390954844653,-0.8160358126223087,0.153738334774971,-0.3240094780921936,-0.4371973276138305
1783196641020519400,4.68051953125,0.2936766568601131,0.6326423619940876,-0.7254466101586818,0.147048220038414,-0.4321767091751098,-0.4582901000976562
1783196641030456600,4.69045654296875,0.2851683562338352,0.5462190470382571,-0.4364940592110157,0.1536362022161483,-0.4588987827301025,-0.477727860212326
1783196641040394500,4.70039453125,0.2948240002643317,0.504691104863584,-0.0033346973806619,0.1668489426374435,-0.4283331632614136,-0.4973692297935486
1783196641050331600,4.71033154296875,0.371258347582072,0.5491001554325222,0.4448492151021957,0.1885946094989776,-0.3686500787734985,-0.5161377191543579
1783196641060268500,4.7202685546875,0.4993188372407108,0.6363868092194199,0.8210977721869945,0.1968980878591537,-0.3059930801391601,-0.5255096554756165
1783196641070205400,4.730205322265625,0.6945538245711476,0.705518797634542,1.0946586927354336,0.1977678686380386,-0.2631662487983703,-0.5303592681884766
1783196641080142600,4.740142578125,0.8338159455932677,0.7059642033144832,1.2336673504531384,0.19446662068367,-0.2591513395309448,-0.5307159423828125
1783196641090080500,4.75008056640625,0.8801007269062101,0.6628022301971912,1.3204817105531692,0.185409128665924,-0.2657594680786133,-0.5223103165626526
1783196641100017700,4.760017578125,0.8316387476846575,0.5661117882490158,1.4855734885543583,0.166040226817131,-0.230639562010765,-0.502326488494873
1783196641109954600,4.76995458984375,0.7575080741994082,0.4496650909513235,1.7089613881796597,0.1531907320022583,-0.1672518998384475,-0.4717139005661011
1783196641119891700,4.7798916015625,0.6581402297355234,0.3386769513204694,1.8364923740714787,0.1398309916257858,-0.086988478899002,-0.4657620191574096
1783196641129828400,4.789828369140625,0.5753259721223265,0.3806266260385513,1.8947890802174805,0.116176538169384,-0.0309590771794319,-0.4796129167079925
1783196641139765500,4.799765625,0.6109365800119936,0.5458756404280662,1.8409966997534035,0.079866737127304,-0.0360443852841854,-0.509880542755127
1783196641149703400,4.809703369140625,0.7083669536072761,0.6857455911502242,1.7022908243745565,0.034360833466053,-0.0953526422381401,-0.5422223806381226
1783196641159640600,4.819640625,0.8145406056284904,0.662731795309484,1.5279226839840412,-0.0188232958316802,-0.1724572777748108,-0.5600117444992065
1783196641169577500,4.829577392578125,0.8900650715596974,0.465844949118793,1.4223697211444375,-0.0816078633069992,-0.2392189502716064,-0.5577021241188049
1783196641179514600,4.8395146484375,0.8899876224093138,0.1746595245525241,1.4508359371721744,-0.1394791603088379,-0.2534727156162262,-0.5437930226325989
1783196641189451500,4.849451416015625,0.8372946545545011,-0.0624941578358411,1.5872604236155747,-0.1790790259838104,-0.2161501049995422,-0.5252033472061157
1783196641199389400,4.859389404296875,0.778127595314756,-0.1892807551011443,1.6962269942909478,-0.2014301419258117,-0.1372744739055633,-0.500298261642456
1783196641209326600,4.86932666015625,0.7989347479566932,-0.2153977776542305,1.7605308318972586,-0.1997707039117813,-0.0303384251892566,-0.4800089299678802
1783196641219263500,4.879263427734375,0.8568844672959297,-0.2221794006183743,1.7079741307079792,-0.1904440373182296,0.0721868872642517,-0.4671168327331543
1783196641229200600,4.88920068359375,0.8836693061079829,-0.2294210423097014,1.5935159768790006,-0.184264525771141,0.1601462662220001,-0.4505325853824615
1783196641239137500,4.899137451171875,0.9318271878164262,-0.2707961320102214,1.4344722468703983,-0.1936742663383484,0.2191597819328308,-0.4271215498447418
1783196641249075700,4.90907568359375,0.9676419399760664,-0.3766828568488359,1.25099024117589,-0.2118477374315261,0.2591558694839477,-0.4103608429431915
1783196641259012400,4.919012451171875,0.9429977664545178,-0.4607669152021408,1.116944758823514,-0.2281838357448578,0.2727531492710113,-0.3976080417633056
1783196641268949500,4.928949462890625,0.9450278109773992,-0.5301996401295066,0.9833633868515492,-0.2423914074897766,0.2812395989894867,-0.3768263459205627
1783196641278886700,4.93888671875,0.9982363271389156,-0.567808655294776,0.910712576660514,-0.2534347474575043,0.3130728900432586,-0.3631640672683716
1783196641288823600,4.948823486328125,1.0230705433398484,-0.6049266720727086,0.9004740912407636,-0.2387032508850097,0.3700001835823059,-0.3435941636562347
1783196641298760700,4.9587607421875,1.0904148446206003,-0.6755711108773946,0.8582692727178335,-0.1999894231557846,0.4128645360469818,-0.2901293337345123
1783196641308698600,4.96869873046875,1.2233898481972514,-0.825994312056899,0.6621458121150732,-0.1389511674642563,0.4285078644752502,-0.212677851319313
1783196641318635500,4.978635498046875,1.3165904022030532,-1.0104106759920717,0.4254354895800352,-0.0817459300160408,0.4191681742668152,-0.1317843347787857
1783196641328572400,4.988572509765625,1.3184255086757242,-1.074718897512555,0.2025461871266365,-0.0439545921981334,0.3627951741218567,-0.0550504364073276
1783196641338509600,4.998509521484375,1.2382061629265546,-1.0247355539426206,0.0186930100321769,-0.0339594855904579,0.2808361351490021,0.0043953144922852
1783196641348446700,5.00844677734375,1.0883603963088244,-0.8727841202825307,-0.1089332529276609,-0.0613037273287773,0.2222355157136917,0.0594732016324996
1783196641358384600,5.018384521484375,0.7905716279547661,-0.6213365396037698,-0.1536918475866317,-0.1209465488791465,0.2248853594064712,0.0960522517561912
1783196641368321500,5.028321533203125,0.4584085155077278,-0.2774304554581642,-0.1273661507189273,-0.2017874717712402,0.2688970863819122,0.0807024240493774
1783196641378258400,5.038258544921875,0.0741672791685909,0.0311621771134436,-0.1741705719918012,-0.2869729399681091,0.3240271806716919,0.0232963897287845
1783196641388195600,5.048195556640625,-0.2872121370211243,0.2385581423588097,-0.3333966728299856,-0.3537220060825348,0.3989978730678558,-0.0508086271584034
1783196641398132500,5.058132568359375,-0.5090381210919469,0.3418728247523308,-0.6248989082604647,-0.3856714069843292,0.4583248496055603,-0.1098485141992569
1783196641408070700,5.068070556640625,-0.6070508246198296,0.2767255220592022,-1.0597796870559453,-0.383314698934555,0.4795595407485962,-0.14055235683918
1783196641418007600,5.078007568359375,-0.568762448888272,0.0942946328528225,-1.6256763712495566,-0.3606546819210052,0.4481342434883117,-0.1586698442697525
1783196641427944700,5.08794482421875,-0.3953908452544361,-0.0126426239520311,-2.105412190815806,-0.3275210261344909,0.3658178150653839,-0.1649229079484939
1783196641437881300,5.09788134765625,-0.2447747518513351,-0.0130984048955142,-2.469003510901332,-0.2911414504051208,0.2710580229759216,-0.1699304431676864
1783196641447818500,5.107818603515625,-0.1318333592608571,-0.0908028452143073,-2.713364055928588,-0.2561522424221039,0.2034016251564026,-0.1508448868989944
1783196641457756400,5.11775634765625,-0.1022308326795697,-0.1950437025420367,-2.807961909511685,-0.2183622270822525,0.1623330265283584,-0.1300663650035858
1783196641467693600,5.127693603515625,-0.178443719266355,-0.2620503693662583,-2.843582088947296,-0.169973149895668,0.1387603133916854,-0.1237459406256675
1783196641477630700,5.137630615234375,-0.2912469454951584,-0.2699091200426221,-2.8897113874375817,-0.1103473678231239,0.1111462488770484,-0.1222407221794128
1783196641487567600,5.147567626953125,-0.3478385282237082,-0.2372397532366216,-2.9442426035702227,-0.0315274596214294,0.0856205224990844,-0.1265649050474167
1783196641497504500,5.15750439453125,-0.3377068641792982,-0.1675681049868464,-2.939347817265987,0.0494717843830585,0.0695629864931106,-0.1291388571262359
1783196641507442400,5.1674423828125,-0.3072997432168572,-0.0485332908920943,-2.8945909761726853,0.1171822845935821,0.071374699473381,-0.1347347497940063
1783196641517379600,5.177379638671875,-0.2849406849578023,0.1106371342360973,-2.719361835038662,0.1598658263683319,0.0875307619571685,-0.1392645090818405
1783196641527316500,5.18731640625,-0.280007831665501,0.2445632279925048,-2.464870356619358,0.1843277513980865,0.1150339096784591,-0.1423889100551605
1783196641537253600,5.197253662109375,-0.2208555316034704,0.340291839171201,-2.171044062155485,0.187521144747734,0.122671328485012,-0.138948380947113
1783196641547190800,5.207190673828125,-0.1499861249364912,0.36691651898548,-1.9046721763283008,0.1727016270160675,0.1040214374661445,-0.1309081017971038
1783196641557128700,5.217128662109375,-0.1174528056003153,0.3880928702659905,-1.7142653398066758,0.1411658078432083,0.0713018402457237,-0.1277253627777099
1783196641567065600,5.227065673828125,-0.0925887787830084,0.3713103700302541,-1.5649632516115903,0.1161742657423019,0.0252677015960216,-0.1284051239490509
1783196641577002800,5.237002685546875,-0.0824316880363971,0.2953967586509883,-1.4478800099760294,0.0931927785277366,-0.0537259206175804,-0.1233680248260498
1783196641586939600,5.246939697265625,-0.0223410111457109,0.2112915113791823,-1.398284496679902,0.0676968768239021,-0.1454915851354599,-0.1072733104228973
1783196641596876500,5.25687646484375,0.0388460096143186,0.1264607263118028,-1.3621242190182208,0.03780023381114,-0.2502416968345642,-0.0885970965027809
1783196641606814700,5.266814697265625,0.1785221913300454,0.0952107247844338,-1.283769644227624,0.0266706123948097,-0.3699048459529876,-0.0772856473922729
1783196641616751600,5.276751708984375,0.3490275918778032,0.1455576409697532,-1.1683195567518472,0.0279963314533233,-0.4921998679637909,-0.0755841508507728
1783196641626688800,5.286688720703125,0.480960319859907,0.2199167163833975,-0.9990396794110536,0.0361138395965099,-0.6058754324913025,-0.0820505917072296
1783196641636625700,5.296625732421875,0.5469743954502045,0.277431770632416,-0.7551900065153837,0.0494227223098278,-0.6838126182556152,-0.0957067459821701
1783196641646562600,5.3065625,0.5109917393777519,0.2488352062232792,-0.4151823911130428,0.0670967996120452,-0.707554042339325,-0.1225483566522598
1783196641656499700,5.316499755859375,0.4296403939239681,0.1799606997005641,0.0409007501870393,0.0813508406281471,-0.6744185090065002,-0.1452123969793319
1783196641666437600,5.326437744140625,0.3960101827291771,0.1223420389465987,0.5077724120050668,0.0936348438262939,-0.5952341556549072,-0.1731181889772415
1783196641676374800,5.336374755859375,0.4217531478054821,0.1072971761584281,0.934869697317481,0.0958742946386337,-0.4836269319057464,-0.1956514716148376
1783196641686311700,5.346311767578125,0.5259510793069377,0.1172837326437234,1.253780164155364,0.0927819237112999,-0.3894179165363312,-0.1989230215549469
1783196641696248800,5.356248779296875,0.7070715800344943,0.107204237177968,1.3968956726700066,0.0811463072896003,-0.3341799676418304,-0.176292285323143
1783196641706185500,5.366185546875,0.9041815674565732,0.0295076879046857,1.437021931353211,0.0599570572376251,-0.3263048827648163,-0.1402844786643982
1783196641716123600,5.37612353515625,0.994250180112198,-0.1058366020865738,1.3664455893486738,0.0450516119599342,-0.3468698263168335,-0.0987311825156211
1783196641726060500,5.386060546875,0.9865132291845976,-0.254642285066843,1.2819389216691257,0.037647645920515,-0.3858653306961059,-0.0617490448057651
1783196641735997700,5.395997802734375,0.8833033954050391,-0.4140433040805161,1.2719091105639937,0.0477090664207935,-0.4021923840045929,-0.0365821756422519
1783196641745934800,5.405934814453125,0.7245454235352575,-0.5172273458316922,1.3696692275702953,0.0713354349136352,-0.3943732976913452,-0.0063131153583526
1783196641755871700,5.415871826171875,0.6379337464004755,-0.5137760363340378,1.5190741916179655,0.106270782649517,-0.3627330958843231,0.0149599481374025
1783196641765809700,5.4258095703125,0.6440053213991225,-0.4468929958894848,1.715742426621914,0.1391246765851974,-0.3024191558361053,0.0394502989947795
1783196641775746600,5.43574658203125,0.6905847748097032,-0.3111557610578835,1.946044051158428,0.1602073311805725,-0.2409177124500274,0.0609422735869884
1783196641785683700,5.44568359375,0.7335347126115113,-0.2167320949979126,2.11124279666543,0.1624888777732849,-0.182342916727066,0.0696261078119278
1783196641795620600,5.45562060546875,0.6854306799821556,-0.2025898801378905,2.196145185664296,0.1375907212495803,-0.1155644133687019,0.0685430020093917
1783196641805557800,5.465557861328125,0.6515335980121046,-0.1945379449769854,2.2416320945978163,0.0870864316821098,-0.0730588063597679,0.0706124976277351
1783196641815495700,5.47549560546875,0.6377066596463322,-0.1914861561909318,2.223594333603978,0.0251250565052032,-0.0659052953124046,0.0730796456336975
1783196641825432800,5.485432861328125,0.6319573754046112,-0.209947403293848,2.112211349436641,-0.04079420119524,-0.0734374672174453,0.0872583612799644
1783196641835369500,5.495369384765625,0.6632261546976864,-0.2255838022343814,2.0224784715414046,-0.1100020334124565,-0.1093169078230857,0.1136907711625099
1783196641845306600,5.505306640625,0.7313771692514419,-0.2602650933846831,1.9342764564752577,-0.1774060279130935,-0.1398044675588607,0.1478610634803772
1783196641855243800,5.515243896484375,0.810599978243932,-0.2872279191121459,1.898654523473978,-0.2360949069261551,-0.1623867452144622,0.1926876604557037
1783196641865181700,5.525181640625,0.8674042538750916,-0.3359840589746832,1.9115432311415672,-0.2843826413154602,-0.1700885891914367,0.2393960356712341
1783196641875118800,5.535118896484375,0.8532437727060168,-0.4368520788684487,1.9054770629704,-0.3224855661392212,-0.1389892548322677,0.2864138782024383
1783196641885055700,5.5450556640625,0.8254868739914148,-0.5294833085536956,1.940490508684516,-0.3447824120521545,-0.0947148203849792,0.3424269258975982
1783196641894992600,5.55499267578125,0.7991535052739084,-0.5436811991237104,1.918950292527676,-0.3443682789802551,-0.0467885807156562,0.4027888178825378
1783196641904929500,5.564929443359375,0.7855464932691305,-0.5343763412922621,1.8217267666161057,-0.333689272403717,0.0074129295535385,0.4521218836307525
1783196641914867700,5.57486767578125,0.8468882661994546,-0.4499610051579773,1.781942453238368,-0.3231660425662994,0.0561423860490322,0.4893254339694977
1783196641924804600,5.5848046875,0.8707571444995701,-0.284146611970663,1.73182613093853,-0.3112313449382782,0.1284607946872711,0.5178963541984558
1783196641934741800,5.59474169921875,0.7874983579892665,-0.1726972845688462,1.6425322289824484,-0.3006777763366699,0.2085162103176117,0.5465236902236938
1783196641944678700,5.6046787109375,0.6222920867629349,-0.191933315436542,1.4479735334783792,-0.3127431571483612,0.2637447118759155,0.5762094259262085
1783196641954615600,5.614615478515625,0.5151568962331861,-0.2990753010332584,1.08690676343441,-0.3585266172885895,0.2839322686195373,0.5954787731170654
1783196641964553500,5.624553466796875,0.4470817964598536,-0.3569908989071846,0.6575491319745779,-0.4204561412334442,0.2676394879817962,0.6088362336158752
1783196641974490600,5.63449072265625,0.4429593827676027,-0.3050736646652222,0.2207265714615583,-0.4660603702068329,0.2230824083089828,0.6210917830467224
1783196641984427800,5.644427734375,0.4696468256197869,-0.237273509375751,-0.2256727956920862,-0.4875072538852691,0.1289344280958175,0.6335244178771973
1783196641994364700,5.65436474609375,0.4685134376756846,-0.2492763741195201,-0.6916279271870851,-0.476429283618927,0.0369488522410392,0.6442383527755737
1783196642004301800,5.6643017578125,0.3910147490620613,-0.3093424280256033,-1.032871806386113,-0.4455459117889404,0.0108682615682482,0.6389647722244263
1783196642014239700,5.67423974609375,0.1852986997276544,-0.3284511792518198,-1.1391197657525538,-0.4058797359466553,0.0738506913185119,0.636285126209259
1783196642024176600,5.6841767578125,-0.0253524679213762,-0.278618788459897,-1.109667461296916,-0.3609077930450439,0.1815026104450225,0.6255438327789307
1783196642034113500,5.694113525390625,-0.1648486168950796,-0.2370806171521544,-1.1316957532316445,-0.3200796544551849,0.2864468693733215,0.6042510271072388
1783196642044050700,5.70405078125,-0.1558491717509925,-0.1860381199181079,-1.2828501912951469,-0.2979299128055572,0.350163847208023,0.5809253454208374
1783196642053987800,5.71398779296875,-0.0560774226613342,-0.1274957684479653,-1.4845324550688266,-0.2789064049720764,0.3817233741283417,0.5635740160942078
1783196642063925800,5.72392578125,-0.0238362912047654,-0.142699036668241,-1.7340274403750895,-0.2661228477954864,0.412137508392334,0.5566675066947937
1783196642073863000,5.73386279296875,-0.0311395268902182,-0.2721212431341409,-1.9364292505949732,-0.2454647123813629,0.4534322023391723,0.5758702158927917
1783196642083799600,5.743799560546875,-0.0598756459005177,-0.4301921825878322,-2.1064953098773955,-0.2183202505111694,0.4931550025939941,0.6041015386581421
1783196642093736700,5.75373681640625,-0.1075279161743819,-0.5763116952240467,-2.2914029644608496,-0.1793350279331207,0.5177873373031616,0.6388888359069824
1783196642103673600,5.763673583984375,-0.1529415406759828,-0.6382404742620885,-2.4886048679500816,-0.1308068335056305,0.4885702431201935,0.669987142086029
1783196642113611800,5.77361181640625,-0.1404379233358428,-0.6591307020775974,-2.709001769065857,-0.0768919438123703,0.3887621462345123,0.6904330253601074
1783196642123548700,5.783548583984375,-0.1254424161147326,-0.6672397742532193,-2.9005981076329945,-0.0323520451784133,0.2488366365432739,0.7005777955055237
1783196642133485800,5.79348583984375,-0.1278884575599804,-0.6381675551563502,-2.9662048445314166,0.0140146547928452,0.1004801839590072,0.7110546827316284
1783196642143422700,5.803422607421875,-0.0612047025471925,-0.5738622562453151,-2.9121085126847026,0.0634342953562736,-0.0327932238578796,0.7272858023643494
1783196642153359600,5.813359619140625,-0.0070909811742603,-0.5281335013799369,-2.6924989625543354,0.1212938725948333,-0.0882415696978569,0.7343176007270813
1783196642163297500,5.823297607421875,-0.0641863121738657,-0.5093585121527314,-2.319707267925143,0.1954747140407562,-0.0712762922048568,0.7410202026367188
1783196642173234700,5.833234619140625,-0.1111449376277625,-0.459545702844113,-1.9341367557436224,0.2849566638469696,-0.0001911944709718,0.7381458878517151
1783196642183171800,5.843171875,-0.1291467505253851,-0.3633690556369722,-1.586592899617553,0.3752865791320801,0.0876633450388908,0.7429929375648499
1783196642193108700,5.853108642578125,-0.0492973340671509,-0.2329930555775761,-1.3638409598082304,0.4528223872184753,0.1531382352113723,0.7471168637275696
1783196642203045600,5.863045654296875,0.0404378819156438,-0.1057293423198163,-1.2637456778526306,0.5185930728912354,0.1929757297039032,0.7371277213096619
1783196642212983600,5.872983642578125,0.0340793066691607,-0.0122159229725599,-1.164017475643754,0.5711817145347595,0.2152594625949859,0.727241039276123
1783196642222920700,5.882920654296875,0.0365278688650578,0.034798195528239,-1.0815221477866173,0.618839681148529,0.2081140726804733,0.7233386635780334
1783196642232857600,5.892857666015625,-0.0233029149804264,-0.0151508073806762,-0.9621241994678974,0.6495416760444641,0.1823573112487793,0.7228025794029236
1783196642242794800,5.902794677734375,-0.065667307979241,-0.1147615206897258,-0.7892045043200254,0.6629673838615417,0.1382724344730377,0.7354356646537781
1783196642252732000,5.91273193359375,-0.0246781488563865,-0.1530900823011994,-0.5981576163291931,0.647025465965271,0.0760687142610549,0.762790858745575
1783196642262669800,5.922669921875,0.0190191367140039,-0.1812299889840185,-0.3772416597753762,0.608081579208374,0.0187707263976335,0.7891469597816467
1783196642272606700,5.932606689453125,0.0931512349713593,-0.1537035380244255,-0.0935293475687503,0.5430365800857544,-0.0330216288566589,0.8113006949424744
1783196642282543600,5.942543701171875,0.1450487415995448,-0.0664253598049283,0.1997995187669992,0.4706765413284302,-0.0668050795793533,0.8199422955513
1783196642292480800,5.952480712890625,0.1526429961208254,0.0182166246920824,0.4854378306001424,0.4004154503345489,-0.0722776055335998,0.8174517154693604
1783196642302417700,5.962417724609375,0.1579142875872552,0.0624921120092272,0.7404711608111858,0.3438137173652649,-0.08839051425457,0.8175710439682007
1783196642312355800,5.97235595703125,0.1259935471914708,0.0952069253921508,0.9227519740223884,0.300311803817749,-0.0826902836561203,0.8188059329986572
1783196642322292500,5.98229248046875,0.1016967988681048,0.1316419283419847,1.0747001928120852,0.2761192619800567,-0.0437638536095619,0.8150771260261536
1783196642332229600,5.992229736328125,0.0338487127836793,0.098467534623295,1.2178326524615286,0.2714209258556366,0.02668341062963,0.8164204359054565
1783196642342166800,6.002166748046875,-0.0807956112671643,0.0601157382667064,1.3616080861896276,0.2824466228485107,0.118881456553936,0.8280045390129089
1783196642352103700,6.012103759765625,-0.1179488454889506,0.0431096584081649,1.4574042096465825,0.2981398701667785,0.1984985172748565,0.8462775349617004
1783196642362041600,6.02204150390625,-0.1042553242444992,0.0246972188830375,1.4441723876297472,0.3144567608833313,0.2388609647750854,0.8624207973480225
1783196642371978800,6.031978759765625,-0.0923626418769359,0.0239544376917183,1.3772937310993671,0.3145262598991394,0.2488012164831161,0.8779520988464355
1783196642381915600,6.04191552734375,-0.0239811065029352,0.0122774439014494,1.329184656968713,0.290326863527298,0.2178273946046829,0.8914989233016968
1783196642391852500,6.0518525390625,0.0327019539013504,0.0450717522613704,1.3407798176944254,0.2369166612625122,0.1922171115875244,0.8947101831436157
1783196642401789700,6.061789794921875,0.0299139306180179,0.0976737538971006,1.4531611652493477,0.1876231431961059,0.1759068518877029,0.8899683952331543
1783196642411727600,6.0717275390625,-0.0706492611102759,0.0658987055823206,1.5878484526365997,0.1448876708745956,0.177895963191986,0.8825421929359436
1783196642421664800,6.081664794921875,-0.1660513437483459,0.0144650170736014,1.7105606400698423,0.1102431416511535,0.2187301069498062,0.8795449137687683
1783196642431601700,6.0916015625,-0.243694117007777,-0.0779193982437252,1.8012445350795985,0.093711033463478,0.2633519172668457,0.8698086738586426
1783196642441538600,6.10153857421875,-0.306687602667883,-0.1185834170654416,1.8441992951869963,0.0721651166677475,0.3151735663414001,0.8557190895080566
1783196642451475700,6.111475830078125,-0.2940938593588769,-0.0604452624820172,1.8770751443505287,0.0425909757614135,0.3763777911663055,0.8422735929489136
1783196642461413600,6.12141357421875,-0.2221081620130688,0.0355054670147597,1.9403776959598065,-0.0004085293039679,0.4450305700302124,0.8294627070426941
1783196642471350800,6.131350830078125,-0.1853152124710381,0.0424812973767518,1.91523039522171,-0.0424997881054878,0.5070651769638062,0.8273875713348389
1783196642481287700,6.14128759765625,-0.159719510378316,0.0177326405674219,1.8032570439457891,-0.091316744685173,0.564612865447998,0.8238098621368408
1783196642491224800,6.151224853515625,-0.0740177146300673,0.0110924719005823,1.6662047809928655,-0.152420312166214,0.6007365584373474,0.8302677869796753
1783196642501161500,6.161161376953125,-0.0082579791270196,-0.0029432138450443,1.42771809643507,-0.2190322279930114,0.6298612952232361,0.8432592153549194
1783196642511099600,6.171099609375,0.0383203052397817,-0.0450493942990899,1.1441162588655949,-0.2964820265769958,0.6462357640266418,0.8618537187576294
1783196642521036500,6.18103662109375,0.0906699395496398,-0.0605522299878299,0.8501859195053577,-0.3816491365432739,0.6481446027755737,0.8741713762283325
1783196642530973700,6.1909736328125,0.1017579544708132,-0.040757834585011,0.5177496161401272,-0.4726980626583099,0.63333660364151,0.883785605430603
1783196642540910800,6.200910888671875,0.0957484118577092,-0.0197780287899076,0.1376613347619772,-0.5459966063499451,0.5817667841911316,0.8973573446273804
1783196642550847700,6.21084765625,0.0775854170490056,-0.070028937254846,-0.3012012071460485,-0.5914048552513123,0.5188754200935364,0.9132034182548524
1783196642560785400,6.220785400390625,0.0457142879486083,-0.20040420666188,-0.7755582562834024,-0.5857980251312256,0.4384729862213135,0.918803870677948
1783196642570722300,6.230722412109375,-0.0018758768744766,-0.2493114454329013,-1.2086129886955022,-0.5289883017539978,0.3734383285045624,0.9124035239219666
1783196642580659500,6.240659423828125,-0.0067081924017518,-0.2350285069279372,-1.5177689542382955,-0.4257224798202514,0.3255480825901031,0.8924024105072021
1783196642590596000,6.25059619140625,-0.0112665863584727,-0.2096814458340406,-1.723790123999119,-0.3107306361198425,0.3147883713245392,0.869690477848053
1783196642600533200,6.260533203125,-0.0608913988143205,-0.2236478657357394,-1.7805962993264195,-0.194910779595375,0.345050036907196,0.8508781790733337
1783196642610471200,6.27047119140625,-0.1204545446995645,-0.2810750955708325,-1.7676234205067156,-0.1005584448575973,0.3855641484260559,0.8475497364997864
1783196642620408300,6.280408203125,-0.0584855067163705,-0.3092367756940424,-1.7730840240001675,-0.0188395157456398,0.4181371927261352,0.8581766486167908
1783196642630345500,6.290345458984375,0.0015072079588659,-0.2986344253979623,-1.797334083637595,0.0380085855722427,0.429497480392456,0.8699683547019958
1783196642640282400,6.300282470703125,0.0356013286046683,-0.2711629194959998,-1.8873294118613004,0.0926140397787094,0.4236329197883606,0.8802207112312317
1783196642650219300,6.31021923828125,0.0280841031086631,-0.250404062975198,-1.996241037479043,0.1341705322265625,0.4039793014526367,0.8808998465538025
1783196642660157200,6.3201572265625,-0.0612324490706436,-0.2882274515435099,-2.095571180281043,0.160662367939949,0.365054577589035,0.8661375045776367
1783196642670094300,6.33009423828125,-0.169999862178415,-0.3472384434387087,-2.1908476637780665,0.1799290031194687,0.3212823271751404,0.8474950790405273
1783196642680031200,6.34003125,-0.2288306752011179,-0.3829242354564368,-2.251505838358402,0.2073943018913269,0.2583416998386383,0.837296724319458
1783196642689968400,6.349968505859375,-0.2430143911153078,-0.3872705940976739,-2.3168308357059955,0.2470490336418151,0.1906036585569381,0.8352549076080322
1783196642699905300,6.3599052734375,-0.2073878550041467,-0.3330138109922408,-2.354185291588306,0.2870861887931824,0.1276926547288894,0.8223247528076172
1783196642709843500,6.369843505859375,-0.208826947896555,-0.2526388362899422,-2.296003151732683,0.3175210654735565,0.0798433721065521,0.7839670181274414
1783196642719780000,6.379780029296875,-0.2359940640244633,-0.1614586821958422,-2.1213468420505524,0.3326641917228699,0.0321947336196899,0.741944432258606
1783196642729717200,6.38971728515625,-0.3024519378595054,-0.1638745111659169,-1.9457763401329515,0.3609464466571808,-0.005684470757842,0.7167387008666992
1783196642739654400,6.399654296875,-0.2888257096976042,-0.3235238058522343,-1.7844851234585046,0.3961442410945892,-0.0279692150652408,0.7155278325080872
1783196642749591300,6.40959130859375,-0.2485288436878472,-0.4462126124098897,-1.5956716936081647,0.4380288124084472,-0.0193475000560283,0.7237812280654907
1783196642759529500,6.419529541015625,-0.1991043030444532,-0.4684796815365553,-1.3035504494965076,0.4846686422824859,0.0256705787032842,0.7257847785949707
1783196642769466400,6.42946630859375,-0.1883232351806014,-0.4471892023570835,-0.974775006726384,0.5423077344894409,0.0938397794961929,0.7264162302017212
1783196642779403300,6.4394033203125,-0.2068789556339383,-0.4203878508016467,-0.7428595172524451,0.6069419980049133,0.1717702001333236,0.7237161993980408
1783196642789340200,6.449340087890625,-0.2644728472728282,-0.4056427016124129,-0.5102367562919855,0.650082528591156,0.2439115047454834,0.7090027332305908
1783196642799277300,6.45927734375,-0.2867365553986281,-0.3883243409343063,-0.2691045256614685,0.6775379180908203,0.2792551219463348,0.6995594501495361
1783196642809215200,6.46921533203125,-0.2232371660429984,-0.3538325810067355,-0.0898585501015186,0.6764500141143799,0.2888422310352325,0.6975173354148865
1783196642819152400,6.47915234375,-0.1281906919095665,-0.3673883742809295,0.0510030420064926,0.6455100774765015,0.2764133512973785,0.7049967050552368
1783196642829089300,6.48908935546875,-0.0275165140874683,-0.3731581898540258,0.1799380494773387,0.5859492421150208,0.237771138548851,0.7301398515701294
1783196642839026200,6.499026123046875,0.0583434130982495,-0.3753492701575159,0.3282569718539714,0.4876706898212433,0.1909611523151397,0.7616386413574219
1783196642848963300,6.50896337890625,0.0902409004826098,-0.3285577083662152,0.5269312859833241,0.3762831687927246,0.1337271630764007,0.8041264414787292
1783196642858901200,6.5189013671875,0.1393970177144743,-0.2156082055345177,0.7094862399607896,0.257504254579544,0.0786557868123054,0.8444318175315857
1783196642868838400,6.52883837890625,0.1816418029216118,-0.076008303925395,0.8481102822750807,0.1521607935428619,0.0421547703444957,0.8746997117996216
1783196642878775300,6.538775390625,0.1167312133274972,0.0756041070386767,0.9757458975851536,0.0815459191799163,0.050126377493143,0.8772155046463013
1783196642888712400,6.54871240234375,-0.0480792452479712,0.1779556434884667,1.0510177039295434,0.0776997879147529,0.0735310390591621,0.8617976307868958
1783196642898649000,6.558649169921875,-0.2458401160605251,0.2600789231628179,0.918145941531658,0.1498106122016906,0.1119623184204101,0.8304219245910645
1783196642908587300,6.568587158203125,-0.3488176754541695,0.3453215039014816,0.7698281881988048,0.2660165727138519,0.1361853629350662,0.7978821396827698
1783196642918524200,6.578524169921875,-0.4180055587749928,0.4354804982542991,0.7158136894166469,0.3826127052307129,0.1547891348600387,0.7646482586860657
1783196642928461300,6.58846142578125,-0.4697090772010385,0.4712000464111566,0.8525099785387515,0.4535547792911529,0.2069130539894104,0.7174397110939026
1783196642938398500,6.5983984375,-0.5280407085299491,0.4938830028623342,1.2040548869997263,0.436328649520874,0.2845683991909027,0.6851881742477417
1783196642948335400,6.60833544921875,-0.3746002053558826,0.6200760181486606,1.614000546503067,0.336394339799881,0.3316456377506256,0.6916325092315674
1783196642958273500,6.6182734375,-0.0536009495452046,0.7848030544906854,1.8378876278221603,0.1946783512830734,0.3392146825790405,0.7250623106956482
1783196642968210200,6.628210205078125,0.0934527752012014,0.728892951220274,1.8580787674576045,0.0719756036996841,0.3327722549438476,0.7688092589378357
1783196642978147300,6.638147216796875,0.0967614613577723,0.4618529568731784,1.7286790650844572,0.000118127092719,0.3346212804317474,0.820401132106781
1783196642988084200,6.648084228515625,0.020776976699382,0.2266395948976278,1.5051795217782258,-0.0087366169318556,0.3382634222507477,0.85528564453125
1783196642998021400,6.658021484375,-0.0841151658776216,0.1585807886719703,1.2823551012545824,0.0342704243957996,0.3378124535083771,0.869041919708252
1783196643007959300,6.667959228515625,-0.2145823696181178,0.179378077507019,1.1104565658479928,0.0886082351207733,0.3349213302135467,0.8572933673858643
1783196643017896400,6.677896484375,-0.3161236125983298,0.2434475218355655,1.06889121427238,0.1358558088541031,0.3355183601379394,0.829025149345398
1783196643027833300,6.687833251953125,-0.4130743129178881,0.3099818949729204,1.1477589992821216,0.1475694477558136,0.3422305881977081,0.810332715511322
1783196643037770200,6.697770263671875,-0.3213011613667011,0.4146753183737397,1.2395821274548768,0.103369802236557,0.3318783044815063,0.8212590217590332
1783196643047707400,6.707707275390625,-0.0357103419370949,0.5748886766836047,1.2879051365971566,0.0181984547525644,0.2931098639965057,0.8507308959960938
1783196643057645300,6.717645263671875,0.0927570480220019,0.6882832929342985,1.2742086196780205,-0.0960834994912147,0.2443243265151977,0.8922713994979858
1783196643067582500,6.72758251953125,0.1115054415032267,0.7111056578561663,1.2123223646074532,-0.2079748809337616,0.2013920396566391,0.9171801805496216
1783196643077519400,6.737519287109375,0.0121475339114665,0.7496642288312315,1.096336270558834,-0.2947717905044555,0.1664691716432571,0.9196683168411256
1783196643087456300,6.747456298828125,-0.1644694083191454,0.8179241105869411,0.98446228800416,-0.3369456231594085,0.1404759138822555,0.8870707154273987
1783196643097393200,6.75739306640625,-0.3808414378330111,0.8849833843812346,0.8545639884591102,-0.3290754854679107,0.1201913058757782,0.8249756693840027
1783196643107331300,6.767331298828125,-0.5586547502413391,0.91061700733155,0.692553225338459,-0.281005710363388,0.1149749606847763,0.7516319155693054
1783196643117268200,6.777268310546875,-0.6877214943330735,0.8859399544537067,0.5840595328718423,-0.2238256782293319,0.1239350438117981,0.6907651424407959
1783196643127205400,6.787205322265625,-0.6774991563305258,0.847354203210771,0.5758610288470983,-0.170772835612297,0.1272621303796768,0.6165457367897034
1783196643137142500,6.797142578125,-0.6352449457079172,0.8383698095053433,0.6249515152305364,-0.1481020152568817,0.1402856260538101,0.5507947206497192
1783196643147079200,6.8070791015625,-0.535288122374937,0.7884902185708283,0.7126227844208478,-0.156634509563446,0.1687710583209991,0.5134419202804565
1783196643157017300,6.817017333984375,-0.2369791112727485,0.7620654452428222,0.769303872063756,-0.2003231346607208,0.20172980427742,0.5203070640563965
1783196643166954200,6.826954345703125,0.1006236897438764,0.7837868631854653,0.7722218053370714,-0.2758322656154632,0.226929172873497,0.5486748218536377
1783196643176891400,6.836891357421875,0.2793123419483192,0.7332000007644295,0.6771598413735628,-0.3660871088504791,0.2844187319278717,0.6053833961486816
1783196643186828300,6.846828369140625,0.3358487421572208,0.6553709111526608,0.4771422959417104,-0.4539447724819183,0.3281877934932709,0.6700111031532288
1783196643196766500,6.856766357421875,0.190930348939076,0.5844362572297453,0.1905599812567233,-0.5202851891517639,0.3452208936214447,0.6976900100708008
1783196643206703400,6.866703369140625,-0.093244685408473,0.5303711973041295,-0.1875029317736625,-0.5674905180931091,0.3467631340026855,0.6707656979560852
1783196643216640300,6.87664013671875,-0.3729555799540132,0.5366378564834594,-0.5888853455930948,-0.5790224671363831,0.3018741309642792,0.5916088819503784
1783196643226577400,6.886577392578125,-0.6743310476884246,0.5226654452323913,-1.050156703186035,-0.5506781935691833,0.2331256866455078,0.4920487403869629
1783196643236514300,6.896514404296875,-0.8482917763218283,0.410155795122683,-1.502965352860093,-0.4796176552772522,0.1648009866476059,0.4052625000476837
1783196643246451500,6.906451416015625,-0.952954146997258,0.1685474714130163,-1.8675825088620184,-0.3769679665565491,0.1083515509963035,0.3334498405456543
1783196643256389400,6.916389404296875,-0.9464415502328424,-0.0578939705640077,-2.0164047045856712,-0.2951678335666656,0.0931004285812377,0.2890261709690094
1783196643266326500,6.926326416015625,-0.7721285010304302,-0.1418165547452867,-1.9763865824520588,-0.2409842163324356,0.109734795987606,0.2800765931606293
1783196643276263200,6.93626318359375,-0.5471873806137592,-0.1756225243657827,-1.8410621662050484,-0.2144412249326706,0.1466374844312667,0.295810729265213
1783196643286200300,6.946200439453125,-0.3108949181646108,-0.190263190267235,-1.7350556143790483,-0.2078621536493301,0.1726933121681213,0.3194284439086914
1783196643296138200,6.95613818359375,-0.1605732045982033,-0.2134273543640971,-1.776582387509942,-0.2045233249664306,0.1878632754087448,0.3503838181495666
1783196643306075400,6.966075439453125,-0.1117841123141348,-0.2217554761178791,-1.910336777961254,-0.1755734384059906,0.1950801759958267,0.386333554983139
1783196643316012300,6.97601220703125,-0.2256282258979976,-0.2232134198412299,-2.0967226884037253,-0.123356357216835,0.1969355344772339,0.3978656828403473
1783196643325949200,6.98594921875,-0.4375814160563051,-0.1820256694063544,-2.265252039638161,-0.0604567527770996,0.1849843263626098,0.363809198141098
1783196643335886300,6.99588623046875,-0.6203042739465833,-0.0656112669430673,-2.3983359834820037,0.0051060607656836,0.1720623075962066,0.3064274787902832
1783196643345824300,7.00582421875,-0.7466789294101297,0.0402276732310652,-2.429789106366038,0.0656050890684127,0.1324049085378646,0.2181839197874069
1783196643355761400,7.015761474609375,-0.8301032086804508,0.0494761247001588,-2.4131699799984694,0.1235381960868835,0.0724371522665023,0.1531582176685333
1783196643365698300,7.0256982421875,-0.8041807588513941,-0.093605481544882,-2.3451164344698188,0.166966363787651,-0.0103019420057535,0.115227073431015
1783196643375635500,7.035635498046875,-0.69338602290079,-0.3134513246491551,-2.219562886130809,0.198576346039772,-0.0954940468072891,0.1251092702150344
1783196643385572000,7.045572021484375,-0.5485800040159374,-0.5177640830568969,-1.9924913295567035,0.1943232864141464,-0.1486621797084808,0.1718059331178665
1783196643395510300,7.05551025390625,-0.2678676042776555,-0.5709396467968821,-1.652870667645335,0.1591231524944305,-0.1868978887796402,0.2287110388278961
1783196643405447200,7.065447265625,0.0458477781351655,-0.4375299781300127,-1.282016078558564,0.1081888750195503,-0.215170532464981,0.2810970246791839
1783196643415384300,7.07538427734375,0.1652343282770365,-0.2627656780287623,-0.9862567702054976,0.0552940890192985,-0.1967575401067733,0.3171874284744262
1783196643425321200,7.0853212890625,0.1034076944392174,-0.2503592009201645,-0.7140081012994051,0.048291839659214,-0.1337205171585083,0.3427844047546386
1783196643435258400,7.09525830078125,-0.156441639485117,-0.3024497459024191,-0.6160872407734393,0.11927330493927,-0.0787605717778205,0.3522956967353821
1783196643445196300,7.1051962890625,-0.3689068160198628,-0.2945212909907102,-0.7581810050249099,0.2559984028339386,-0.0363593101501464,0.3441586792469024
1783196643455133200,7.11513330078125,-0.515446234568581,-0.1846424277760088,-0.9585790742069482,0.425739586353302,-0.0062204366549849,0.3188844621181488
1783196643465070300,7.1250703125,-0.6041904667526483,0.0042190789997577,-0.9918377852082252,0.5760992765426636,0.0108834495767951,0.2764014601707458
1783196643475007200,7.13500732421875,-0.6756122466053813,0.2076287510879337,-0.8121551717966794,0.6769189238548279,0.0181972123682498,0.221094399690628
1783196643484944400,7.1449443359375,-0.7280801004674285,0.4082819640748202,-0.5097147782444954,0.7180247902870178,0.0135550554841756,0.1681776493787765
1783196643494882300,7.15488232421875,-0.6856505332779139,0.5410691169291735,-0.1377349845200777,0.7117593288421631,-0.0086207436397671,0.1333119422197342
1783196643504819500,7.1648193359375,-0.5755321622189135,0.5883358950167894,0.2109814225167036,0.6697466373443604,-0.0516523644328117,0.1353899985551834
1783196643514756000,7.174756103515625,-0.4354670542508363,0.5062362884789705,0.4717758004724979,0.6088073253631592,-0.0987056195735931,0.1674654185771942
1783196643524693200,7.184693359375,-0.2478549630142748,0.3716445704206824,0.7120207268744707,0.5322917699813843,-0.1495400369167328,0.2124983966350555
1783196643534630400,7.19463037109375,-0.1314482141344808,0.3074421473622322,0.95473408921659,0.451848566532135,-0.1703377664089203,0.2485971748828888
1783196643544568300,7.204568359375,-0.1398295273802243,0.3251043530419468,1.2003653848320246,0.372420072555542,-0.1669451743364334,0.268383651971817
1783196643554505500,7.21450537109375,-0.1412307907465845,0.4467912890806794,1.4082418270707129,0.2976093888282776,-0.1322987079620361,0.2737221121788025
1783196643564442400,7.2244423828125,-0.1554638987604528,0.6502963843673467,1.5730454357802868,0.2385370135307312,-0.0789255052804946,0.2802537977695465
1783196643574379500,7.234379638671875,-0.1776867634192109,0.835892021214962,1.6574182479470967,0.1959846317768097,-0.0109218982979655,0.2880052924156189
1783196643584316400,7.24431640625,-0.2302360850196331,0.9570411971151828,1.6892881349384783,0.177170991897583,0.0580465160310268,0.2824403643608093
1783196643594254600,7.254254638671875,-0.3555076380794867,1.0064382652297614,1.663015045040846,0.1766603738069534,0.1446112841367721,0.2492503225803375
1783196643604191500,7.26419140625,-0.482938195804134,1.1008674842476844,1.6158733546376227,0.1891934722661972,0.2186333239078521,0.1936592310667038
1783196643614128600,7.274128662109375,-0.6243836522147059,1.1792907403603194,1.5661515846133232,0.2001381963491439,0.2789279818534851,0.161661610007286
1783196643624065300,7.284065185546875,-0.6218493114314974,1.150501575988531,1.4007307207882405,0.2027299851179123,0.3007973134517669,0.151222825050354
1783196643634002400,7.29400244140625,-0.4828311552330851,1.1350181756526232,1.2411252652436493,0.1985579282045364,0.2958398163318634,0.1520842909812927
1783196643643940400,7.3039404296875,-0.4073864765398204,1.1382210633471608,1.1822177337229252,0.1844921857118606,0.3020939826965332,0.1387208253145218
1783196643653877500,7.31387744140625,-0.4404008573912084,1.1704670901745555,1.244399172347784,0.1543223559856414,0.3432957530021667,0.1023945361375808
1783196643663814700,7.323814697265625,-0.5657613673761487,1.2403659713089463,1.4129554115891456,0.1056224480271339,0.3888445794582367,0.041767667979002
1783196643673751600,7.33375146484375,-0.6703576140128076,1.2497531005963682,1.5151304224282502,0.0430519692599773,0.4219655096530914,-0.0120463194325566
1783196643683689500,7.343689453125,-0.6322608153305947,1.1435869742944835,1.4952882423609497,-0.0357048958539962,0.4352991580963135,-0.0382427684962749
1783196643693626400,7.35362646484375,-0.5095535963334142,0.9797709153175354,1.3911539141476152,-0.1158537417650222,0.4189902245998382,-0.0430210903286933
1783196643703563500,7.3635634765625,-0.3792471543788909,0.8569175658479332,1.2415724244892596,-0.1741103827953338,0.3907583057880401,-0.0465913228690624
1783196643713500400,7.37350048828125,-0.271195214330405,0.878826323056221,1.0575240170836449,-0.2079015970230102,0.3662015199661255,-0.0578307397663593
1783196643723437600,7.3834375,-0.2133627646952867,0.921758579070866,0.9205413122355938,-0.2322103977203369,0.3757087588310241,-0.0730626881122589
1783196643733374500,7.39337451171875,-0.2666854818210005,0.9073930768489836,0.8952432048499583,-0.2374878674745559,0.4017854034900665,-0.0977689996361732
1783196643743312400,7.4033125,-0.3527535535983741,0.8131506125748157,0.8423053953886032,-0.2294608205556869,0.418222963809967,-0.1124986782670021
1783196643753249300,7.413249267578125,-0.3298602423321455,0.6529881076693534,0.6668266634076834,-0.213687390089035,0.4106743037700653,-0.1178410574793815
1783196643763186400,7.4231865234375,-0.264902178600803,0.5165946008861064,0.4534615606248378,-0.1986312121152877,0.3659342527389526,-0.1085088104009628
1783196643773123600,7.43312353515625,-0.1514137465868145,0.4320779963344335,0.2842120784223079,-0.1933979988098144,0.3020563125610351,-0.0960463806986808
1783196643783061500,7.4430615234375,-0.0414157870370894,0.3519569963932037,0.2278612456470727,-0.2047478556632995,0.2436659634113311,-0.0921150222420692
1783196643792998700,7.45299853515625,-0.0361558937475085,0.2767617624163627,0.2941407672405243,-0.2306310683488845,0.2188793122768402,-0.1078470200300216
1783196643802935300,7.462935302734375,-0.1578980123058892,0.1406695766672492,0.4050432744145393,-0.2545284032821655,0.231277659535408,-0.1365622878074646
1783196643812872400,7.47287255859375,-0.240423863165453,-0.0155903678417205,0.48801615665555,-0.2598638832569122,0.2875827252864837,-0.140402540564537
1783196643822809300,7.482809326171875,-0.0903259484175592,-0.1874064856618642,0.4791694178551435,-0.2520179450511932,0.3520690500736236,-0.1031776741147041
1783196643832747500,7.49274755859375,0.1843442850796505,-0.2548758015617728,0.3133873195022344,-0.2505498230457306,0.413849800825119,-0.0436905324459075
1783196643842684400,7.502684326171875,0.4249544280648231,-0.2006725022092461,0.1007879403948783,-0.2454131096601486,0.476684957742691,0.0232155304402112
1783196643852621600,7.51262158203125,0.3280546907475218,-0.232754570646584,-0.1429524269074201,-0.2405332326889038,0.5167359113693237,0.0704127997159957
1783196643862558500,7.522558349609375,0.1438859814304858,-0.276065596845746,-0.4979074360728263,-0.2398493289947509,0.5168094038963318,0.1059329733252525
1783196643872495400,7.532495361328125,-0.0127145201444625,-0.2523588503047824,-0.8985872545808553,-0.2394492626190185,0.4882648587226867,0.1317999362945556
1783196643882433500,7.54243359375,-0.1533767902880907,-0.1405526722893118,-1.2897194925427435,-0.244905799627304,0.4368405342102051,0.144864872097969
1783196643892370400,7.552370361328125,-0.2263048099853098,0.0073942019045352,-1.6132079348206518,-0.2538007497787475,0.3716062903404236,0.1376368552446365
1783196643902307600,7.5623076171875,-0.352751434706524,0.1234630058005452,-1.83856041251719,-0.2577489018440246,0.3091884553432464,0.1087633892893791
1783196643912244500,7.572244384765625,-0.5068172301720828,0.1764122134387493,-2.0007465322047477,-0.2467846572399139,0.2497374862432479,0.073699876666069
1783196643922181400,7.582181396484375,-0.6196974671598523,0.164905607779324,-2.126540903562307,-0.2260109484195709,0.1917615383863449,0.0481425933539867
1783196643932119300,7.592119384765625,-0.6476481348808855,0.128114630998671,-2.2018325836509467,-0.1936033219099044,0.1492273509502411,0.0376264676451683
1783196643942056400,7.602056396484375,-0.6745888949070126,0.0803299665167927,-2.235203522855043,-0.1654800772666931,0.1284520328044891,0.0301586985588073
1783196643951993300,7.611993408203125,-0.6372142730195075,0.092885642837733,-2.254264197155833,-0.1418150067329406,0.1175208166241645,0.0203792508691549
1783196643961930500,7.621930419921875,-0.5819798770535737,0.1514930223681032,-2.280399924409389,-0.1061017662286758,0.1055725440382957,0.0066844779066741
1783196643971867600,7.63186767578125,-0.6034453474737703,0.2020914290964603,-2.346434531331062,-0.0345972515642643,0.0898811742663383,-0.0160850416868925
1783196643981805600,7.6418056640625,-0.6869704567700624,0.2233895070604979,-2.473525956761837,0.0633000135421752,0.079387255012989,-0.0372300073504447
1783196643991742500,7.651742431640625,-0.7550726637460291,0.2229312418989837,-2.5458026729434726,0.1623260825872421,0.0819239094853401,-0.066870704293251
1783196644001679400,7.661679443359375,-0.7838982146054506,0.292209214656055,-2.500617377305031,0.2293826192617416,0.0895155221223831,-0.0951305702328682
1783196644011616500,7.671616455078125,-0.737481039084494,0.4193561696663498,-2.34446235447526,0.2592309117317199,0.0778680741786956,-0.1248290315270423
1783196644021553400,7.681553466796875,-0.6718926415603608,0.5272337760612368,-2.2221681001931426,0.2619409561157226,0.0334225818514823,-0.1458869129419326
1783196644031491600,7.69149169921875,-0.612968670361489,0.5537833448126912,-2.1769050631433724,0.2572428584098816,-0.0380894169211387,-0.1646432876586914
1783196644041428500,7.701428466796875,-0.5626035609323531,0.5360913285166025,-2.1243974617928267,0.2553922235965729,-0.1153682321310043,-0.1767897009849548
1783196644051365400,7.711365478515625,-0.5373308802489191,0.527115994900465,-2.0335235971689225,0.2595777809619903,-0.179611399769783,-0.1781239807605743
1783196644061302500,7.721302490234375,-0.5026669786248356,0.4752037290945649,-1.863888915041089,0.266480416059494,-0.2244707494974136,-0.1743436157703399
1783196644071239400,7.731239501953125,-0.5023745715495199,0.433746221807599,-1.6268120972812177,0.2789306640625,-0.250418484210968,-0.1814255267381668
1783196644081177600,7.741177490234375,-0.50316689097099,0.4568254840999841,-1.3893945032596586,0.3150367438793182,-0.2738300561904907,-0.1949634402990341
1783196644091114500,7.751114501953125,-0.5332327242150903,0.5347635870441794,-1.2797311824917792,0.3775680363178253,-0.3070650994777679,-0.2103524506092071
1783196644101051600,7.7610517578125,-0.5260526034526527,0.6283341434061527,-1.1946435000538824,0.4604258835315704,-0.3250882923603058,-0.2326779961585998
1783196644110988300,7.77098828125,-0.553434969766438,0.7235445759296417,-1.0007727868139744,0.526347279548645,-0.3141271770000458,-0.2614777982234955
1783196644120925400,7.780925537109375,-0.5906938563197851,0.8318339779958128,-0.6524421642243862,0.561771035194397,-0.2725387215614319,-0.3049240708351135
1783196644130863400,7.79086328125,-0.6149811792276799,0.9211497995227574,-0.2348071192622184,0.5595200657844543,-0.2325936555862426,-0.3564731478691101
1783196644140800500,7.800800537109375,-0.5980223725769669,0.976310253469646,0.1429921743959188,0.531682014465332,-0.2106971442699432,-0.399631530046463
1783196644150737400,7.8107373046875,-0.5214825190581381,0.9679664957553148,0.3878630070328712,0.4985261559486389,-0.2147126644849777,-0.4166246950626373
1783196644160674600,7.820674560546875,-0.3863464649900794,0.8843713899627328,0.5409083734095096,0.4661977887153625,-0.235085055232048,-0.4070535600185394
1783196644170612500,7.830612548828125,-0.2336819146245717,0.7396516611218452,0.6515332326859236,0.4363493323326111,-0.2577619850635528,-0.3801814019680023
1783196644180549400,7.84054931640625,-0.1411249557519331,0.6498866345226765,0.7798878099203109,0.4051940739154815,-0.263353019952774,-0.3611035943031311
1783196644190486500,7.850486572265625,-0.0975713164359331,0.6389978685006499,1.0182377163559198,0.3687556982040405,-0.2305938750505447,-0.3725165724754333
1783196644200423400,7.86042333984375,-0.1309235144069418,0.731168202675879,1.3205033378630875,0.3296492993831634,-0.1841156035661697,-0.4083528518676758
1783196644210360600,7.870360595703125,-0.152359356873855,0.813200296935439,1.549896615383029,0.2953982055187225,-0.130105122923851,-0.447054773569107
