time,seconds_elapsed,ax,ay,az,gx,gy,gz
1783202046671736300,0.088736328125,0.6671659783646464,-1.3301736680060623,-0.3110147451519966,0.6042683124542236,0.4114543199539184,0.3155355155467987
1783202046681673000,0.0986728515625,0.6333104705139995,-1.606572150067985,-0.2277396650940179,0.6210324764251709,0.4811785221099853,0.3336677849292755
1783202046691609000,0.108609130859375,0.6752949242845178,-1.8599048138409853,-0.244830500626564,0.6767524480819702,0.4848824441432953,0.3992169797420501
1783202046701546200,0.118546142578125,0.7988651898518204,-2.2406623727828263,-0.5260258615761995,0.7309648394584656,0.4751791954040527,0.5087602734565735
1783202046711483100,0.128483154296875,1.0023018960773944,-2.52067729177624,-0.7964210115700959,0.7729524970054626,0.42404705286026,0.6482433676719666
1783202046721420000,0.138419921875,1.335664958898723,-2.547860482256114,-0.9100485597938298,0.7913432121276855,0.3247491121292114,0.7910271883010864
1783202046731356200,0.148356201171875,1.6375515179604292,-2.419390461948514,-0.927470819237828,0.7601658701896667,0.2199734300374984,0.9176876544952391
1783202046741293300,0.158293212890625,1.7371376813501118,-2.314826217885315,-0.7730880667775869,0.688555896282196,0.148426741361618,1.0042333602905271
1783202046751230200,0.168230224609375,1.6802835752278564,-2.1571172436118125,-0.4833528410196304,0.6050562262535095,0.1020880043506622,1.0686028003692627
1783202046761167000,0.1781669921875,1.5374056748613714,-1.9559382531851528,-0.1904173579156398,0.5242897272109985,0.0939938575029373,1.1129292249679563
1783202046771103200,0.188103271484375,1.3745292348220943,-1.745289715884626,0.0392728567242622,0.4623203575611114,0.0931443125009536,1.1464720964431765
1783202046781040000,0.1980400390625,1.2908309609159827,-1.5218445331141353,0.2062567320823669,0.4179211556911468,0.1038780957460403,1.1756970882415771
1783202046790977300,0.207977294921875,1.3102888178408143,-1.2462383704736828,0.3391396003961563,0.3799521923065185,0.143721118569374,1.1980172395706177
1783202046800914200,0.2179140625,1.379574535512924,-0.9322940016105772,0.5274643699467182,0.3319553434848785,0.1858835965394973,1.230634331703186
1783202046810850000,0.22785009765625,1.482920051436126,-0.7146779633849859,0.7577472897827625,0.2537337839603424,0.2515299618244171,1.2967928647994995
1783202046820787200,0.237787109375,1.6762047814816234,-0.6396940340712666,1.0457920782357453,0.1486370116472244,0.3337486684322357,1.383510947227478
1783202046830724400,0.247724365234375,1.804449176339805,-0.5733087140157819,1.3363637548178433,0.0214763879776,0.4173503518104553,1.465155005455017
1783202046840661200,0.2576611328125,1.7950445113956928,-0.4528235549822449,1.5625415774226188,-0.1451350003480911,0.5168405175209045,1.5332446098327637
1783202046850597000,0.26759716796875,1.7125424615368243,-0.3147559775069355,1.9021482108086347,-0.3399012982845306,0.6298802495002747,1.5730966329574585
1783202046860534300,0.2775341796875,1.5827061213120817,-0.1719409132435918,2.305806168344617,-0.558790385723114,0.7930882573127747,1.5842180252075195
1783202046870471200,0.28747119140625,1.5301362683802842,-0.0168681326925754,2.7712095111757518,-0.7939869165420532,1.0400807857513428,1.597992777824402
1783202046880408300,0.297408203125,1.5742299693897366,0.1373912856489419,3.216279675552249,-1.03527569770813,1.2879869937896729,1.6281838417053225
1783202046890344200,0.30734423828125,1.4444979663223028,-0.1829652883440256,3.235007172375917,-1.2604161500930786,1.5139732360839844,1.6498515605926514
1783202046900281000,0.317281005859375,1.2176374221503734,-0.1295668756335973,2.7597710023164748,-1.4740333557128906,1.5982093811035156,1.7583887577056885
1783202046910218200,0.32721826171875,1.1726909037038684,-0.4459960470497608,1.8722469935417172,-1.6407709121704102,1.343192219734192,1.977454781532288
1783202046920155400,0.3371552734375,1.1583438139215112,-1.212723931145668,0.807463799110055,-1.7714273929595947,1.0266138315200806,2.2108142375946045
1783202046930091300,0.34709130859375,1.3995745364904404,-0.9930737567439676,0.1473661516964435,-1.9484295845031736,0.7858691215515137,2.33133864402771
1783202046940028200,0.357028076171875,1.6282055974662304,-0.5172491192720831,0.2603559865385293,-2.165128469467163,0.6081265211105347,2.332844018936157
1783202046949965300,0.36696533203125,1.573747738830745,-0.0512146389305591,0.5004050981074571,-2.367665529251098,0.5083642601966858,2.267923593521118
1783202046959902200,0.376902099609375,1.30736913100183,0.2322157875947654,0.6512327884346246,-2.4946773052215576,0.471834659576416,2.182518482208252
1783202046969838000,0.386838134765625,1.0408546218335628,0.3366189958773553,0.6316857919216156,-2.533991575241089,0.5296263098716736,2.11037278175354
1783202046979775200,0.396775146484375,0.8799442211702465,0.4093550001338124,0.5595511145591735,-2.484178304672241,0.6713215708732605,2.047657966613769
1783202046989712100,0.406712158203125,0.6690712274640798,0.4171576367087662,0.4490437441825866,-2.345673084259033,0.8245510458946228,2.005265474319458
1783202046999649300,0.416649169921875,0.4383063693299889,0.3197212717641144,0.1117541555672883,-2.1357738971710205,0.914117395877838,2.013007402420044
1783202047009585200,0.426585205078125,0.2866575718782842,0.2387329874690621,-0.5221691861480474,-1.8836270570755005,0.9020732641220092,2.03433895111084
1783202047019522300,0.436522216796875,0.2235197093114256,0.1802154781792312,-1.1997533904135227,-1.6037378311157229,0.7639662623405457,2.055772066116333
1783202047029459200,0.446459228515625,0.2231559905655682,0.07004486547634,-1.8011971888065337,-1.3044339418411257,0.5452759861946106,2.0552492141723637
1783202047039396400,0.456396240234375,0.4036579575359821,0.0200669287338852,-2.2380992442965506,-0.9925822019577026,0.2984507977962494,2.0121006965637207
1783202047049333200,0.466333251953125,0.6631197717137635,0.0904543971028178,-2.4329589685738084,-0.6963247656822205,0.1143712475895881,1.9338074922561648
1783202047059269000,0.47626904296875,0.90358155573681,0.209129511039704,-2.275682248237729,-0.419692188501358,0.0419830493628978,1.792014718055725
1783202047069206300,0.486206298828125,1.0702736085414886,0.4062753734927624,-1.8596078767210245,-0.1745226681232452,0.0263827852904796,1.595834493637085
1783202047079143200,0.49614306640625,1.0689742163807152,0.6431506042659282,-1.5325567735254764,0.0513218455016613,0.0324113331735134,1.4605708122253418
1783202047089080300,0.506080322265625,0.9683404436342418,0.1285998572323471,-1.4008143074184656,0.3034816682338714,0.1062999442219734,1.4262586832046509
1783202047099016200,0.51601611328125,0.9018637920334934,-0.1221045769289135,-1.3314555245101451,0.5403532385826111,0.2197786718606948,1.4970495700836182
1783202047108953300,0.525953369140625,0.8460019118189811,-0.2109297653947025,-1.1346072567641734,0.7501938343048096,0.3288974165916443,1.6292870044708252
1783202047118890200,0.53589013671875,0.7729907438829541,-0.3891321501858532,-1.1128151116728782,0.9282206892967224,0.418311059474945,1.7755829095840454
1783202047128827400,0.545827392578125,0.7697536616578697,-0.4885775168653577,-1.1453805797129868,1.0540419816970823,0.5076614022254944,1.914372801780701
1783202047138763300,0.55576318359375,0.8478728202573954,-0.3526990469321608,-1.1274421874403953,1.1210871934890747,0.5671175718307495,2.01863694190979
1783202047148700200,0.5657001953125,0.9587234511137008,-0.0576503710664808,-1.0427654238909485,1.1476035118103027,0.6147080063819885,2.065992832183838
1783202047158637300,0.57563720703125,1.0454466257989403,0.2089060044821351,-0.9292536110013724,1.1738929748535156,0.6935439705848694,2.126805067062378
1783202047168574200,0.58557421875,1.1176439931340516,0.4446569439331069,-0.7352806064307689,1.2305458784103394,0.7683899402618408,2.1550638675689697
1783202047178510000,0.595510009765625,1.0448467602096498,0.510793878718093,-0.7407844645440578,1.3164167404174805,0.8187903165817261,2.1558570861816406
1783202047188447200,0.605447265625,0.9169548320509492,0.5573469190457836,-0.8631851018100977,1.3946598768234253,0.8445659875869751,2.154530763626098
1783202047198384400,0.61538427734375,0.8184769221641123,0.6939965560145676,-0.987026585534215,1.4725679159164429,1.0308183431625366,2.0735504627227783
1783202047208321300,0.6253212890625,1.082987982555479,0.9505175675000996,-0.7672340800523757,1.480190396308899,1.0881454944610596,1.9397281408309937
1783202047218258200,0.635258056640625,1.2371227516040206,1.297691786596179,-0.5520546213239431,1.385819911956787,0.9311956167221068,1.90196430683136
1783202047228194300,0.6451943359375,0.5909522149950266,1.1987922902964054,-1.2336544909715652,1.3181508779525757,0.8218297362327576,1.8299076557159424
1783202047238131200,0.655131103515625,0.8102780528131872,1.26091673803702,-0.7848913172960281,1.231356859207153,0.6968136429786682,1.7754186391830444
1783202047248068400,0.665068359375,0.7362748050998896,1.230150282242894,-0.7095990526854992,1.11616849899292,0.5739585757255554,1.74540913105011
1783202047258005200,0.675005126953125,0.6848780145354568,1.1010421101622283,-0.7706020951807498,0.9868621230125428,0.4054330289363861,1.720789670944214
1783202047267941000,0.684941162109375,0.7525911491286009,1.010897728856653,-0.6659007807344198,0.8427355289459229,0.200266033411026,1.7017768621444702
1783202047277878300,0.694878173828125,0.8639521406598388,0.953222369479388,-0.4750619825363159,0.6982359290122986,0.0310825742781162,1.693528413772583
1783202047287815400,0.7048154296875,0.9261896933861076,0.9190010970562696,-0.2308323704123497,0.5867581367492676,-0.0808234587311744,1.6719293594360352
1783202047297752000,0.714751953125,0.9489010722141712,0.907501651789993,-0.029231939703226,0.533176839351654,-0.1204627677798271,1.6421314477920532
1783202047307689200,0.724689208984375,0.9359982629559932,0.9461517004407942,0.0241080208182334,0.547001302242279,-0.1094947978854179,1.6168609857559204
1783202047317625300,0.734625244140625,0.8845647205777466,0.9864356339037418,-0.0364934551388025,0.6236974000930786,-0.0946426168084144,1.5973613262176514
1783202047327562200,0.744562255859375,0.7337631876051426,0.9696139707013964,-0.1933750386774539,0.7266789078712463,-0.119495503604412,1.5818341970443726
1783202047337499100,0.7544990234375,0.6071230130732059,1.0060857254650444,-0.3678185823917388,0.8048334121704102,-0.1718794554471969,1.558790683746338
1783202047347436300,0.764436279296875,0.5718683790143579,1.1709772316537796,-0.3751829736799001,0.8309614658355713,-0.2302756458520889,1.5001319646835327
1783202047357372200,0.7743720703125,0.5383496288374066,1.3330932087145746,-0.2150800900071859,0.8218246102333069,-0.2798039615154266,1.4314961433410645
1783202047367309300,0.784309326171875,0.4383168907240033,1.365640556576103,-0.018735680130124,0.7871797680854797,-0.2862511873245239,1.3808960914611816
1783202047377246200,0.79424609375,0.3650327510654926,1.331198042617738,0.2312128941625356,0.7518538236618042,-0.26358363032341,1.3494842052459717
1783202047387183000,0.80418310546875,0.3469219248354435,1.2538707650482654,0.509657495099306,0.7499103546142578,-0.1807683855295181,1.3427093029022217
1783202047397119200,0.814119140625,0.3595049275547265,1.2111660341791808,0.7031319024980068,0.7765267491340637,-0.0242648385465145,1.3419369459152222
1783202047407056400,0.824056396484375,0.4442515414699912,1.230887510476261,0.9115922821044922,0.8018105626106262,0.1458136886358261,1.340762972831726
1783202047416993000,0.833992919921875,0.4101685084737837,1.1964030570723116,1.0427776988506317,0.8096149563789368,0.3146005570888519,1.3348040580749512
1783202047426930200,0.84393017578125,0.2700363996841013,1.1173216293118893,1.07194943279922,0.7877136468887329,0.4434562623500824,1.3249553442001345
1783202047436867300,0.853867431640625,0.1783513648077845,1.0102397033393382,1.022161027279496,0.7302350997924805,0.5063727498054504,1.31361985206604
1783202047446803500,0.863803466796875,0.2486421678692102,0.949583720716089,0.9205664466768504,0.631570041179657,0.5198989510536194,1.3056782484054563
1783202047456740000,0.873739990234375,0.4044477927394211,0.9177008281126616,0.7958546098589897,0.5091630816459656,0.4929311573505401,1.302575707435608
1783202047466677200,0.88367724609375,0.4676809323742985,0.8950620030641555,0.6341466290771961,0.3964463770389557,0.4346156716346741,1.3024108409881592
1783202047476614100,0.8936142578125,0.4586788568817079,0.9105186615236104,0.4206114304244518,0.3160048127174377,0.3525194525718689,1.297044277191162
1783202047486551300,0.90355126953125,0.5132257089748978,1.003593397192657,0.1558475643157958,0.2805275022983551,0.2474378049373626,1.2868471145629885
1783202047496487200,0.913487060546875,0.5116534912221133,1.1187580918557942,-0.1150491054594516,0.2898597121238708,0.1551202237606048,1.2588953971862793
1783202047506424000,0.923424072265625,0.4178058714844286,1.1670625424280765,-0.2745359030604362,0.3385409414768219,0.1101657971739769,1.211903691291809
1783202047516361200,0.933361328125,0.2916130023285746,1.1530670425623657,-0.3065636109620333,0.3907268941402435,0.1234094649553299,1.1805542707443235
1783202047526298400,0.94329833984375,0.3203073280237615,1.1540027159772812,-0.2537286773532629,0.4300809502601623,0.1573948562145233,1.172532320022583
1783202047536234200,0.953234130859375,0.4427935977466404,1.1882703117601572,-0.1863069999873638,0.4385156631469726,0.2005137205123901,1.1819504499435425
1783202047546171100,0.963171142578125,0.5692980170696973,1.2465775393001737,-0.1751741960763931,0.4323392510414123,0.244230568408966,1.193489670753479
1783202047556108300,0.9731083984375,0.6775346660353243,1.3394690273568033,-0.2435071430683136,0.4154753386974334,0.2744869887828827,1.203849196434021
1783202047566045200,0.983045166015625,0.6437139372371137,1.4482276543699204,-0.4259516224086284,0.386033296585083,0.2869580388069153,1.2063610553741455
1783202047575982300,0.992982421875,0.4857108023226261,1.558512760297954,-0.6386743356347083,0.3387905061244964,0.2558574676513672,1.1798748970031738
1783202047585918200,1.002918212890625,0.2541352123275399,1.629188032632321,-0.8529781805723905,0.2848668396472931,0.195730984210968,1.1227107048034668
1783202047595855400,1.01285546875,-0.0154521284148097,1.6645877011850476,-1.0188099632859229,0.2279748320579528,0.0952772572636604,1.0511932373046875
1783202047605792300,1.022792236328125,-0.2075559781126678,1.7003728619240224,-1.1527046389907598,0.1773720979690551,-0.0300569646060466,0.9645188450813292
1783202047615729400,1.0327294921875,-0.3111673053652048,1.7299230737961828,-1.2096347329586743,0.1395224332809448,-0.1547889709472656,0.8795379400253296
1783202047625666000,1.042666015625,-0.4084370085060596,1.7155831444069742,-1.1743857249230143,0.1328624039888382,-0.2470789402723312,0.7967125773429871
1783202047635602200,1.052602294921875,-0.454876688119769,1.6555426633335648,-0.9826812498062848,0.1540334522724151,-0.3071718513965606,0.7132207751274109
1783202047645539300,1.062539306640625,-0.4985032100088894,1.5642865213938058,-0.6623854660898446,0.2072117179632187,-0.3042943179607391,0.6366908550262451
1783202047655476200,1.072476318359375,-0.4514781317226588,1.4565896783933043,-0.2990992664307356,0.2844019532203674,-0.2399826496839523,0.5677527785301208
1783202047665413000,1.0824130859375,-0.3409165469408035,1.303220340759307,0.1030535472393035,0.3586181402206421,-0.1587367951869964,0.5242444276809692
1783202047675349200,1.092349365234375,-0.2725149186268448,1.0954593415938316,0.4509212284922599,0.4202780723571777,-0.0697463080286979,0.4907949268817901
1783202047685286400,1.102286376953125,-0.2698474529832601,0.8396336919613182,0.7352291685044765,0.4700837135314941,0.0111711751669645,0.4805241823196411
1783202047695223300,1.112223388671875,-0.1905320703364908,0.6381722313314676,0.91329324080348,0.4996743202209472,0.063881516456604,0.4986277520656585
1783202047705160200,1.12216015625,-0.0302115983903408,0.471973368871212,1.0585258876025676,0.4844940304756164,0.1285414695739746,0.5380629897117615
1783202047715097000,1.13209716796875,0.2456064534351229,0.3226255418382585,1.2715905461341142,0.4192424118518829,0.2077153176069259,0.5908929705619812
1783202047725033200,1.142033203125,0.5097251535080373,0.2115399331822991,1.4829250198721884,0.3000848889350891,0.2894266843795776,0.6335920095443726
1783202047734970400,1.151970458984375,0.5628516174092888,0.0631365473926067,1.6028835246831177,0.143342912197113,0.3893239200115204,0.6713828444480896
1783202047744907300,1.1619072265625,0.5458890844315291,-0.0164554602384567,1.6224053867548702,-0.0363150015473365,0.4726986885070801,0.688991904258728
1783202047754844200,1.17184423828125,0.5335667784750461,-0.0307898366697132,1.363899411997199,-0.2024317979812622,0.5181500911712646,0.7012954354286194
1783202047764781300,1.18178125,0.4682607780888676,-0.0932416166685521,0.9177689249128104,-0.3474939465522766,0.5287854075431824,0.7256364822387695
1783202047774717400,1.191717529296875,0.4720832589864731,-0.1571149539031088,0.3784890294879675,-0.4495390653610229,0.4883376657962799,0.7644031643867493
1783202047784654000,1.201654052734375,0.5181714948140085,-0.1436262345157563,-0.2100900266349315,-0.5035644769668579,0.4174027740955353,0.7869915962219238
1783202047794591200,1.21159130859375,0.5586912828594446,-0.0183143859781324,-0.7397755797624588,-0.4845602214336395,0.355323314666748,0.7814146876335144
1783202047804528400,1.2215283203125,0.601653787881881,0.1662932627454399,-1.129853924757242,-0.3900550305843353,0.2795526385307312,0.7594092488288879
1783202047814465500,1.231465576171875,0.6035802258998155,0.2877029892779886,-1.511934256735444,-0.2338155657052993,0.1997154951095581,0.7523152828216553
1783202047824401700,1.241401611328125,0.5899151270322501,0.3537129001498222,-1.8396932159394024,-0.0577111020684242,0.1148059293627739,0.7812166810035706
1783202047834338300,1.25133837890625,0.5931744210891425,0.4166984947644174,-2.012619925349951,0.1161847710609436,0.0216128602623939,0.8429356217384338
1783202047844275500,1.261275390625,0.576223432418704,0.5422277854450047,-2.0259961242735383,0.282286137342453,-0.0687346160411834,0.9066855907440186
1783202047854212600,1.271212646484375,0.4832755379997193,0.7970648624315857,-1.975627288517356,0.4460312128067016,-0.1557299196720123,0.9658877849578856
1783202047864149500,1.2811494140625,0.3677931556895375,1.2114002813264726,-1.8626286858469248,0.6093772649765015,-0.2378120124340057,1.0002650022506714
1783202047874085400,1.29108544921875,0.2203057157009839,1.7445798140496014,-1.6934914318472143,0.7703834772109985,-0.2868967056274414,1.007993459701538
1783202047884022500,1.3010224609375,0.0343298473641276,2.2988927356943485,-1.5380699839890002,0.9288394451141356,-0.3148535192012787,0.987725555896759
1783202047893959400,1.31095947265625,-0.2626433668233454,2.862181575477123,-1.352822722187638,1.0642857551574707,-0.3244243860244751,0.9184954166412354
1783202047903896600,1.320896484375,-0.5676344677716493,3.3595568043693897,-1.136041088959575,1.1514182090759275,-0.3099522292613983,0.8046950697898865
1783202047913833700,1.330833740234375,-0.8762579338729382,3.688845749619603,-0.8482312783062458,1.180062770843506,-0.2683218419551849,0.6360647678375244
1783202047923769600,1.34076953125,-1.1935314471587537,3.854783330795168,-0.5933984391033649,1.1352310180664062,-0.2335633188486099,0.4497444331645965
1783202047933706500,1.35070654296875,-1.3228558923386036,3.941137087646127,-0.3973819460064172,1.0147680044174194,-0.2545758187770843,0.2776035070419311
1783202047943643600,1.3606435546875,-1.2391960507467388,3.9198473391190167,-0.2652069337010383,0.8454258441925049,-0.3103456199169159,0.1210168004035949
1783202047953580500,1.37058056640625,-1.1179635804772377,3.788401810131967,-0.1430249076217412,0.6402949094772339,-0.3618325293064117,-0.042274847626686
1783202047963517400,1.380517333984375,-1.088826041059196,3.580873450678587,0.0664215604126453,0.4155853986740112,-0.3939965963363647,-0.2141049206256866
1783202047973453600,1.39045361328125,-1.1482125882685184,3.3603070382148026,0.2896060464203357,0.1995816230773925,-0.4028276205062866,-0.3964727222919464
1783202047983390500,1.400390380859375,-1.1828384959697722,3.078483608494699,0.4631763144314288,0.0130394361913204,-0.3960842490196228,-0.5690330266952515
1783202047993327600,1.41032763671875,-1.108407670494169,2.777606226475537,0.5367974309593438,-0.1352024525403976,-0.379369705915451,-0.7225711345672607
1783202048003264500,1.420264404296875,-0.9496497716896236,2.4702286687821147,0.5779793361753225,-0.2423475533723831,-0.3562731742858886,-0.8634491562843323
1783202048013201400,1.430201416015625,-0.8574620479881763,2.0780027903646228,0.5679454334169626,-0.3248811364173889,-0.3060729205608368,-0.97457617521286
1783202048023137500,1.440137451171875,-0.6403926838599145,1.6801432899743318,0.6268669934630393,-0.3869434595108032,-0.2550299763679504,-1.0612770318984983
1783202048033074700,1.45007470703125,-0.4181425560928881,1.2595102322399616,0.6631810003817081,-0.436265617609024,-0.1938373297452926,-1.1076254844665527
1783202048043011300,1.46001123046875,-0.1847184156216681,0.8214782959371805,0.6092214466571807,-0.4830605387687683,-0.1527969390153885,-1.1167038679122925
1783202048052948500,1.469948486328125,0.0720548901244998,0.434040820840001,0.5170540350914001,-0.524381697177887,-0.1479922384023666,-1.094506025314331
1783202048062885600,1.4798857421875,0.3367778397008776,0.0700061409011483,0.384200392872095,-0.5629714727401733,-0.1787783801555633,-1.0476711988449097
1783202048072821500,1.489821533203125,0.5674765007309616,-0.2606713360980153,0.2585445532023906,-0.5997761487960815,-0.2199159264564514,-0.9842572808265686
1783202048082758400,1.49975830078125,0.7451511353209614,-0.4635270275652408,0.17314707416296,-0.6423526406288147,-0.2541122436523437,-0.912937581539154
1783202048092695600,1.509695556640625,0.838984142011404,-0.59439621796906,0.1653653342455625,-0.6772452592849731,-0.2721678912639618,-0.8588443398475647
1783202048102632400,1.519632568359375,0.7894682698227464,-0.7001458724245428,0.164030870771408,-0.6965696811676025,-0.2518660724163055,-0.8216722011566162
1783202048112569600,1.529569580078125,0.6524224366106093,-0.7483624985828995,0.1571978098809719,-0.698151707649231,-0.2312928885221481,-0.8028205633163452
1783202048122505500,1.53950537109375,0.5350717762105167,-0.7802709640190005,0.0668225424289703,-0.6844558715820312,-0.21775683760643,-0.7814375162124634
1783202048132442400,1.5494423828125,0.4772667991042137,-0.7958709764719009,-0.0663023179471492,-0.6585043668746948,-0.1958603858947754,-0.7681111097335815
1783202048142379500,1.559379638671875,0.4627852692872286,-0.8396629180558025,-0.1975993783742189,-0.620465099811554,-0.1789597123861313,-0.7510117292404175
1783202048152316700,1.569316650390625,0.4476112271614372,-0.9388498529948294,-0.3066793462961912,-0.5640837550163269,-0.1689370721578598,-0.7210360169410706
1783202048162253600,1.579253662109375,0.4446779501885175,-1.0269001846306025,-0.443996397665143,-0.4865239560604095,-0.1623814404010772,-0.6895012259483337
1783202048172189400,1.589189453125,0.4563016063563525,-1.0877442371718584,-0.5452893649727105,-0.3924742639064789,-0.1526859849691391,-0.6563585996627808
1783202048182126600,1.599126708984375,0.4371840873017907,-1.118775773642957,-0.5751829834550619,-0.2806137502193451,-0.1377342045307159,-0.6217676401138306
1783202048192063500,1.6090634765625,0.3892990311853587,-1.1448301062233746,-0.6035106677949428,-0.1673299968242645,-0.1261764764785766,-0.5890519022941589
1783202048202000600,1.619000732421875,0.4016002943538129,-1.1305438067175446,-0.5778659389287233,-0.0653652772307396,-0.1238597929477691,-0.5577960014343262
1783202048211937500,1.6289375,0.4045914389938115,-1.1314541995607317,-0.5227478628188371,0.0174812190234661,-0.1306948661804199,-0.5268914103507996
1783202048221873400,1.638873291015625,0.4327573569007217,-1.133418339240551,-0.4533019861489534,0.0657254457473754,-0.1399275213479995,-0.4925025701522827
1783202048231810600,1.648810546875,0.4677252099074423,-1.0934607151225209,-0.3195639623105525,0.0835636407136917,-0.1374295800924301,-0.4552419185638428
1783202048241747700,1.658747802734375,0.508520015501976,-1.0924471541658043,-0.2091711582243442,0.0786983072757721,-0.1433814764022827,-0.3993037939071655
1783202048251684400,1.668684326171875,0.6108956634797156,-1.1517714497938751,-0.2012853734105825,0.0547623857855796,-0.171587735414505,-0.3318686187267303
1783202048261621500,1.67862158203125,0.6944757178336382,-1.1789642848849295,-0.252980489334464,0.0264053121209144,-0.2082394808530807,-0.275594413280487
1783202048271558400,1.688558349609375,0.6407372595138847,-1.110129818111658,-0.3459299911886453,0.0011036377400159,-0.2436911463737487,-0.2363883256912231
1783202048281494500,1.69849462890625,0.5580534233473241,-1.009990843144804,-0.4330202456206083,-0.0096994740888476,-0.2834843695163727,-0.2127413302659988
1783202048291431400,1.708431396484375,0.4426419143162667,-0.8678009250424802,-0.5732096375554799,0.0011685555800795,-0.3452755212783813,-0.1960155516862869
1783202048301368600,1.71836865234375,0.3177104433983564,-0.7124680322505533,-0.7554214771836996,0.0255809538066387,-0.4124657213687897,-0.1950160562992096
1783202048311305500,1.728305419921875,0.224186648787558,-0.517834810205549,-0.8876841677725315,0.035150159150362,-0.4791224002838135,-0.212787464261055
1783202048321242600,1.73824267578125,0.1376907069869339,-0.3685201547898352,-0.9239093273639678,0.0332987308502197,-0.5663241744041443,-0.247495099902153
1783202048331178500,1.748178466796875,0.0994125603884458,-0.3019470570772886,-0.9776987852185964,0.0191778056323528,-0.6737633347511292,-0.2785511612892151
1783202048341115400,1.758115478515625,0.1024564581289887,-0.3011392478257417,-1.0603934350401163,0.0027724681422114,-0.7875617742538452,-0.2922890782356262
1783202048351052500,1.768052490234375,0.1374510530121624,-0.3652132221989333,-1.1616437322497368,-0.0110855484381318,-0.9078050255775452,-0.3028184175491333
1783202048360989700,1.77798974609375,0.1967532829388976,-0.4162387682981789,-1.218436463573575,-0.0166321136057376,-1.023423433303833,-0.3107248246669769
1783202048370926600,1.787926513671875,0.3070109163381159,-0.4569463340006768,-1.1986334464728832,-0.0045579243451356,-1.1164729595184326,-0.3124249279499054
1783202048380862500,1.797862548828125,0.3919838863551616,-0.469714776289463,-1.1225088226914406,0.0293241422623395,-1.1981579065322876,-0.3092190027236938
1783202048390799600,1.807799560546875,0.4338754011452198,-0.4418371738046407,-1.0202268443465232,0.0809559747576713,-1.2359532117843628,-0.3047798871994018
1783202048400736500,1.817736572265625,0.4539063817828893,-0.4517126711308956,-0.7754518732994794,0.1389838606119156,-1.208527684211731,-0.2902816236019134
1783202048410673700,1.827673583984375,0.443425612039864,-0.5009064717583358,-0.4371878866940736,0.2210782170295715,-1.1545222997665403,-0.2733492851257324
1783202048420610300,1.8376103515625,0.4351911599189043,-0.5370949526011943,-0.1599357104122638,0.3308420181274414,-1.0807554721832275,-0.2513185441493988
1783202048430547500,1.84754736328125,0.4288827074244618,-0.5227522467330098,0.0726256757497787,0.4728193581104278,-0.9524409174919128,-0.2215949892997741
1783202048440483600,1.857483642578125,0.371468044809997,-0.4959139241680502,0.3750222301602363,0.6311951279640198,-0.7662848830223083,-0.240732192993164
1783202048450420700,1.867420654296875,0.3423243679121136,-0.4546221288368106,0.7293079617619515,0.7714585065841675,-0.5949273705482483,-0.2491869330406189
1783202048460357400,1.877357421875,0.4272419544801116,-0.2381204815939068,1.1317577125519511,0.9240930080413818,-0.4764569401741028,-0.1603409498929977
1783202048470294500,1.88729443359375,0.6026479134857654,-0.1154202768594026,1.453210849609971,1.0425978899002075,-0.336249977350235,-0.0730567350983619
1783202048480231400,1.8972314453125,0.6342609031066299,-0.1396998548522591,1.942549194779992,1.0855225324630735,-0.1573153734207153,-0.0202664919197559
1783202048490167600,1.90716748046875,0.4545169148966669,-0.0109103933319449,2.423147184133529,1.0346599817276,0.0609857439994812,-0.0030627551022917
1783202048500104400,1.9171044921875,0.3392477369457483,0.214044901740551,2.9512779090344905,0.9073845148086548,0.2887416779994964,-0.0067043616436421
1783202048510041600,1.92704150390625,0.2321630344942212,0.3572515956699848,3.336674818214774,0.7414248585700989,0.4612517356872558,-0.0299283619970083
1783202048519978500,1.936978515625,0.2102653832018375,0.4653048508927225,3.601021920216083,0.5549958944320679,0.6217458248138428,-0.0987649485468864
1783202048529915600,1.94691552734375,0.2753334831789136,0.6825128928393125,3.89528894418478,0.3511401414871216,0.8014765977859497,-0.1689170002937317
1783202048539852500,1.9568525390625,0.270239374910295,0.8144166869878768,4.204569997411966,0.1315233558416366,0.9534286260604858,-0.2114045470952987
1783202048549788400,1.966788330078125,0.0956274888917803,0.7777858692049979,4.275800419411063,-0.0980260297656059,1.019367814064026,-0.2124401479959488
1783202048559725600,1.9767255859375,-0.073251698693633,0.659906216494739,4.066722784689069,-0.3513413667678833,1.0644612312316897,-0.1789876371622085
1783202048569662500,1.986662353515625,0.0586135170102119,0.5162091086998581,3.987258202829957,-0.6148738265037537,1.1072555780410769,-0.1403880268335342
1783202048579599600,1.996599609375,0.3134408032551408,0.3600833119645714,3.9684202313691377,-0.8571772575378418,1.1346895694732666,-0.0827223435044288
1783202048589536500,2.00653662109375,0.7591244233548641,0.1017637996897101,3.818913560512662,-1.061014175415039,1.1887009143829346,0.0454504787921905
1783202048599473400,2.016473388671875,1.3988862619653344,-0.2625175484865903,3.36042511163652,-1.2072677612304688,1.358365535736084,0.234971672296524
1783202048609409500,2.026409423828125,1.8091380648083983,-0.4781555646374821,2.73413621032238,-1.2506287097930908,1.7052897214889526,0.4213216006755829
1783202048619346700,2.0363466796875,1.465657950989902,-0.5267930465564131,1.836672991335392,-1.1439992189407349,2.047337532043457,0.5172595381736755
1783202048629283300,2.046283447265625,0.6828294114425778,-0.604465192040801,0.3636374973148107,-0.8871838450431824,2.2969985008239746,0.5585231184959412
1783202048639220500,2.056220458984375,0.1806640256643295,-0.5902028579324483,-1.3222265083938836,-0.5118113160133362,2.454783201217652,0.5935708284378052
1783202048649157600,2.06615771484375,-0.1639797251060605,-0.4457189836740493,-2.85267608050704,-0.0607455223798751,2.5350849628448486,0.6528124213218689
1783202048659093500,2.076093505859375,-0.3939636619955301,-0.2326823821932077,-4.129744181269407,0.4108355939388275,2.507011890411377,0.7287362217903137
1783202048669030400,2.086030517578125,-0.4184565904781222,0.0543842088773846,-5.143590384668111,0.8383208513259888,2.3938512802124023,0.7708518505096436
1783202048678967600,2.095967529296875,-0.3311176950473338,0.479632943713665,-5.843159041726589,1.164818286895752,2.215282678604126,0.758642852306366
1783202048688904400,2.105904541015625,-0.1529252471283078,0.979461995498836,-6.237467571637034,1.3395910263061523,1.9869192838668823,0.6976850032806396
1783202048698841600,2.115841552734375,0.0613374620813876,1.4296961185097694,-6.355729209402203,1.3162803649902344,1.7145565748214722,0.5931947827339172
1783202048708778500,2.125778564453125,0.2233028151577338,1.723325429096818,-6.274974003210663,1.1206533908843994,1.3489521741867063,0.4630767703056335
1783202048718714400,2.13571435546875,0.2947811840359121,1.8251421280175448,-6.154900347587466,0.8118776082992554,0.8487458229064941,0.3279080390930176
1783202048728651500,2.145651611328125,0.2645353363160975,1.8161603646606208,-6.061229545721411,0.4574683606624603,0.2578505575656891,0.2021016925573349
1783202048738588700,2.155588623046875,0.2068835587438195,1.811407324914634,-5.947524256086349,0.1198381334543228,-0.3378298580646515,0.1010879874229431
1783202048748525600,2.165525634765625,0.1721511949934065,1.909743780504167,-5.711127821806073,-0.1345037817955017,-0.8909392356872559,-0.0015652982983738
1783202048758462500,2.17546240234375,0.0557439163906499,2.0292393439784644,-5.354713846004009,-0.2846919596195221,-1.3348612785339355,-0.1389287412166595
1783202048768399400,2.1853994140625,-0.154282141629979,2.159508230401576,-4.756978254479169,-0.3418684899806976,-1.6361217498779297,-0.3013417720794678
1783202048778335500,2.19533544921875,-0.3291553089331835,2.3098516443431376,-3.962991776579618,-0.3314129114151001,-1.8030582666397093,-0.4790097773075104
1783202048788272600,2.205272705078125,-0.2664109757285565,2.383973988391459,-3.131281424963474,-0.2866440117359161,-1.87981915473938,-0.6425861120223999
1783202048798209500,2.21520947265625,-0.0849656634934246,2.3524881322816014,-2.362723987352848,-0.2237704992294311,-1.89979100227356,-0.7794984579086304
1783202048808147000,2.22514697265625,0.1011032899543643,2.266931663288176,-1.6717273438066242,-0.1606208235025406,-1.881398677825928,-0.8820154666900635
1783202048818083800,2.235083740234375,0.2350805293761193,2.1343267351329325,-1.062191424372792,-0.1190651357173919,-1.849015474319458,-0.9359692931175232
1783202048828020000,2.24502001953125,0.3700634387090802,1.954837598466873,-0.4504892668157815,-0.11802838742733,-1.7927061319351196,-0.9490285515785216
1783202048837956900,2.254956787109375,0.428959718183428,1.7577201583907007,0.2518184598177671,-0.1551507264375686,-1.7231051921844482,-0.9447811245918274
1783202048847894000,2.26489404296875,0.3345769686557352,1.5769067873835565,0.9388900388747452,-0.2101847529411316,-1.6130211353302002,-0.9388477206230164
1783202048857830700,2.27483056640625,0.2447629883483052,1.5053215605974195,1.608638727208972,-0.2602804005146026,-1.4591399431228638,-0.9311330318450928
1783202048867767800,2.284767822265625,0.2823240727186203,1.543213484357297,2.2092355533838277,-0.275949090719223,-1.313049077987671,-0.9303061962127686
1783202048877705000,2.294705078125,0.3717100368723273,1.656585888776183,2.5864865655094382,-0.2539561688899994,-1.1879249811172483,-0.9294211864471436
1783202048887640800,2.304640869140625,0.3966768664769828,1.840171939367056,2.842382650029659,-0.2154041826725006,-1.0815069675445557,-0.9262807369232178
1783202048897577700,2.31457763671875,0.3688466102652251,2.067136236174405,3.103953857576847,-0.1740394383668899,-0.9883596897125244,-0.9291231036186218
1783202048907515000,2.324514892578125,0.2273956739619374,2.295838901081681,3.440444989290833,-0.1545292884111404,-0.8860159516334534,-0.9469667673110962
1783202048917451800,2.33445166015625,0.0523068180814385,2.5351430395022034,3.802761467134952,-0.1778423339128494,-0.7610582709312439,-1.002918362617493
1783202048927389000,2.344388916015625,-0.1955311937980353,2.749261006478965,4.183025689601898,-0.2501021325588226,-0.6152536869049072,-1.1014260053634644
1783202048937326000,2.354326171875,-0.6146753281489015,2.80131355753839,4.463472862532735,-0.3590997159481048,-0.4086935520172119,-1.2429970502853394
1783202048947261700,2.36426171875,-0.9021747576788068,2.7434695635959505,4.7448131849110124,-0.4888213574886322,-0.1771806180477142,-1.3971023559570312
1783202048957198800,2.37419873046875,-0.968569576214999,2.598236624535918,4.90722083839476,-0.6368019580841064,0.067972145974636,-1.5044407844543457
1783202048967136000,2.384135986328125,-0.6485638614863157,2.388988309422136,4.88450748680532,-0.808069109916687,0.3059624135494232,-1.5787734985351562
1783202048977073000,2.394072998046875,-0.0822884071081876,2.112058496962488,4.6935921162396665,-1.0067566633224487,0.5555200576782227,-1.6301409006118774
1783202048987009800,2.404009765625,0.3615475392982363,1.7778046227812765,4.273403879663348,-1.2298314571380615,0.8081097602844238,-1.674614429473877
1783202048996946700,2.41394677734375,0.589212239459902,1.4000555980056524,3.613734102272987,-1.430406928062439,1.0268936157226562,-1.697992205619812
1783202049006882800,2.4238828125,0.6333594242222607,0.9378042894646524,2.6580267841100693,-1.5814385414123535,1.1862168312072754,-1.6906296014785769
1783202049016820000,2.433820068359375,0.6366397610671818,0.4568927041172981,1.464424902063608,-1.659119725227356,1.260745644569397,-1.6734399795532229
1783202049026756900,2.4437568359375,0.7066741051495075,0.0909150734171271,0.1786895107209682,-1.6632007360458374,1.247553467750549,-1.658411741256714
1783202049036693800,2.45369384765625,0.7827882075369358,-0.2539779759392142,-1.1731868705272674,-1.589309573173523,1.1555732488632202,-1.652895450592041
1783202049046631000,2.463630859375,0.932128289654851,-0.5161565017297863,-2.5015315695405005,-1.4544425010681152,0.9909338355064392,-1.643080472946167
1783202049056567800,2.47356787109375,1.1457347269129008,-0.6511360500618815,-3.634433191430568,-1.2800248861312866,0.7776165008544922,-1.634041428565979
1783202049066503700,2.483503662109375,1.302520229665935,-0.7906178782492875,-4.521001506915688,-1.0930861234664917,0.5570601224899292,-1.6156772375106812
1783202049076440800,2.49344091796875,1.4940494943462312,-0.9501327329009772,-5.095771233394742,-0.9187430739402772,0.3234695196151733,-1.574366569519043
1783202049086378000,2.5033779296875,1.7249670588240027,-1.1044973651826382,-5.404218758407235,-0.7605348825454712,0.0797989219427108,-1.516979694366455
1783202049096315000,2.51331494140625,1.7797673011563715,-1.3260317458957434,-5.5683104194551705,-0.6095104813575745,-0.1803495734930038,-1.456080198287964
1783202049106252000,2.523251953125,1.7194351436600088,-1.5511042376071211,-5.573761086076498,-0.4695107340812683,-0.4235531091690063,-1.3965660333633425
1783202049116188700,2.533188720703125,1.6145165332011877,-1.7181046257086097,-5.381284457543492,-0.3419200181961059,-0.6479066014289856,-1.3329073190689087
1783202049126124800,2.543124755859375,1.529152956431359,-1.8574026217617092,-5.005789349174499,-0.233418121933937,-0.8263311982154846,-1.2593473196029663
1783202049136062000,2.55306201171875,1.5514230942979454,-1.884960783033818,-4.481915112674236,-0.1433020830154419,-0.9948320388793944,-1.1830347776412964
1783202049145998800,2.562998779296875,1.6456066679917274,-1.827619185655564,-3.946999257677793,-0.0574852488934993,-1.1317241191864014,-1.095816731452942
1783202049155935700,2.572935791015625,1.698430934076011,-1.776333235054463,-3.368116250661015,0.045033935457468,-1.236957311630249,-1.0002330541610718
1783202049165873000,2.582872802734375,1.672362134578824,-1.7484762369662523,-2.7639193541675806,0.1611298620700836,-1.3147568702697754,-0.8981584310531616
1783202049175809800,2.592809814453125,1.6399534645356235,-1.6288471102401614,-2.161924936154485,0.3005439639091491,-1.3866357803344729,-0.8052942752838135
1783202049185746000,2.602745849609375,1.6028132359258829,-1.3743522708199918,-1.5730565416961908,0.4425644278526306,-1.4571019411087036,-0.7344570755958557
1783202049195682800,2.612682861328125,1.5020071753524242,-1.0391903418831527,-0.9652724343657492,0.5645704865455627,-1.5224745273590088,-0.6800505518913269
1783202049205619700,2.62261962890625,1.353207337591052,-0.6315471141032875,-0.2812088049530983,0.6496208906173706,-1.5537275075912476,-0.6357417702674866
1783202049215556900,2.632556884765625,1.1710692938514051,-0.2364684766031801,0.5298720156103373,0.664770781993866,-1.5256649255752563,-0.5959429144859314
1783202049225494000,2.642493896484375,0.978674936774373,0.06393690399006,1.50537709017694,0.6191914677619934,-1.433666467666626,-0.5827341675758362
1783202049235431000,2.652430908203125,0.6743783939614891,0.2937155275657773,2.446239305907488,0.5164312720298767,-1.2978527545928955,-0.579310417175293
1783202049245366800,2.66236669921875,0.3731136200599372,0.5099982713609934,3.203476892602444,0.3910022974014282,-1.116444706916809,-0.5799596905708313
1783202049255304000,2.672303955078125,0.1513347630664706,0.7332727737396955,3.740478906223178,0.2672971487045288,-0.9365384578704834,-0.5886729955673218
1783202049265240800,2.68224072265625,-0.0088515611059963,0.9443728542000056,4.139500436130166,0.155378833413124,-0.7381479740142822,-0.5985037088394165
1783202049275178000,2.692177978515625,-0.1073277174271643,1.1402280192553995,4.474904357129335,0.0504633486270904,-0.5076921582221985,-0.6080788373947144
1783202049285115000,2.702114990234375,-0.1366537651546299,1.269003598380834,4.822531215363741,-0.0562907978892326,-0.2180314064025879,-0.6368879079818726
1783202049295051800,2.7120517578125,-0.2128720585688948,1.3629125929169357,5.113131533518433,-0.1766246706247329,0.1440101563930511,-0.717698872089386
1783202049304988000,2.72198779296875,-0.5103568755403161,1.4161504082381724,5.283632477086782,-0.3226691782474518,0.527061402797699,-0.8396398425102234
1783202049314925000,2.731925048828125,-0.6666586133643985,1.447601923687011,5.15549241938591,-0.5050642490386963,0.8548254370689392,-0.9621739983558656
1783202049324861700,2.74186181640625,-0.5354126986026764,1.387779907669872,4.610934291297197,-0.7096021175384521,1.1376510858535769,-1.0505579710006714
1783202049334798800,2.751798828125,-0.3464429091468453,1.10512324199602,3.930901524835825,-0.9195401668548584,1.3534642457962036,-1.087360978126526
1783202049344735700,2.76173583984375,-0.1575787720225751,0.6765113143369555,3.0175229438364504,-1.1182103157043457,1.458189606666565,-1.0619125366210938
1783202049354673000,2.7716728515625,0.2259893142953515,0.2802808764532208,1.8799089064717287,-1.2936897277832031,1.4762812852859497,-1.0084130764007568
1783202049364608800,2.78160888671875,0.6668390844978391,-0.0297977568924427,0.7365513570189476,-1.4274752140045166,1.4422045946121216,-0.9548084139823914
1783202049374546000,2.7915458984375,0.992796693368256,-0.230953804834932,-0.3518547050625085,-1.497079610824585,1.382495403289795,-0.9263067245483398
1783202049384482800,2.80148291015625,1.145941428466141,-0.3899775149688124,-1.300267190042138,-1.5040946006774902,1.2795323133468628,-0.9250401854515076
1783202049394420000,2.811419921875,1.0839793316803872,-0.6771534116327762,-2.2195260612517598,-1.4524320363998413,1.119469165802002,-0.92194002866745
1783202049404356900,2.82135693359375,0.9557023497268556,-1.067025712661445,-3.1024902147650715,-1.3698055744171145,0.9123734831809998,-0.8798817992210388
1783202049414293800,2.831293701171875,0.8497273620828986,-1.470065684429556,-3.825143979334831,-1.2785842418670654,0.6808769106864929,-0.8212792277336121
1783202049424231000,2.84123095703125,0.8460204703889787,-1.825115240010619,-4.283640611517429,-1.2105023860931396,0.4560440182685852,-0.7736191749572754
1783202049434166800,2.851166748046875,0.9292136443171648,-2.06811896360144,-4.509464213857054,-1.1677104234695437,0.2655771374702453,-0.74010169506073
1783202049444104000,2.86110400390625,0.9572788783285766,-2.2729317804858087,-4.612615960773826,-1.1232911348342896,0.068980373442173,-0.7081053853034973
1783202049454040800,2.871040771484375,0.90256748332344,-2.585501061603426,-4.679442594856024,-1.053908348083496,-0.1248183920979499,-0.6742962598800659
1783202049463977700,2.880977783203125,0.9266643982257692,-2.916244589576125,-4.696363919040561,-0.9398698806762696,-0.3261832892894745,-0.6168015003204346
1783202049473915000,2.890914794921875,1.0694299242589622,-3.240999106267094,-4.644548976129293,-0.7841580510139465,-0.5141282081604004,-0.5312314629554749
1783202049483852000,2.90085205078125,1.3213430035576224,-3.5240006398558616,-4.437081114691496,-0.5787711143493652,-0.6835460066795349,-0.4230850040912628
1783202049493787600,2.91078759765625,1.61792064255625,-3.7397745573461054,-4.076712263783812,-0.3445868492126465,-0.8143469095230103,-0.3120325207710266
1783202049503724800,2.920724853515625,1.8641203857094049,-3.8892455723673103,-3.630048692736029,-0.0834771692752838,-0.9156762361526488,-0.1908685714006424
1783202049513662000,2.930661865234375,2.0270123155787587,-3.993536260186136,-3.154634828022122,0.1879034787416458,-0.9896072149276732,-0.0489979833364486
1783202049523598800,2.940598876953125,2.155241220606863,-4.048232896013558,-2.62107915546298,0.4544088840484619,-1.0531513690948486,0.1104612722992897
1783202049533536000,2.950535888671875,2.238554148457199,-4.067021475374698,-2.0480466280400758,0.695510983467102,-1.0781270265579224,0.2884989082813263
1783202049543472600,2.96047265625,2.2726593932852146,-3.963621014393866,-1.369437756901979,0.8975770473480225,-1.0625087022781372,0.4589768052101135
1783202049553409800,2.970409912109375,2.231136127285659,-3.792490833011269,-0.6146522395342588,1.0675041675567627,-1.0241706371307373,0.6112275719642639
1783202049563346000,2.980345947265625,2.1111633016884324,-3.6197669526964416,0.0729249509572982,1.1959025859832764,-0.9833316802978516,0.7580910921096802
1783202049573283000,2.990282958984375,1.927670043947548,-3.447043656903505,0.692622198921442,1.271344542503357,-0.9317518472671508,0.8883593678474426
1783202049583219700,3.0002197265625,1.6681662903241812,-3.281199891491234,1.3220078972071407,1.311895489692688,-0.8625683188438416,0.998768389225006
1783202049593156900,3.010156982421875,1.4068671777166426,-3.121520201666653,1.9413684605628247,1.3089944124221802,-0.77937912940979,1.1064502000808716
1783202049603093800,3.02009375,1.2369567473873495,-3.0009137543410063,2.552051796466112,1.274444341659546,-0.6854655742645264,1.2080011367797852
1783202049613031000,3.030031005859375,1.1773322997689246,-2.859501834873855,3.138973733031749,1.2101426124572754,-0.5930890440940857,1.3027490377426147
1783202049622966800,3.039966796875,1.1497517805345356,-2.628480371630192,3.685162092670798,1.11884343624115,-0.4973718822002411,1.3817933797836304
1783202049632904000,3.049904052734375,1.0997228442572056,-2.354816575229168,4.188573971378803,0.995591163635254,-0.3933861255645752,1.4440364837646484
1783202049642840800,3.0598408203125,1.0252240681119262,-2.0981483372926717,4.697138995066285,0.8424549102783203,-0.2708425521850586,1.484449028968811
1783202049652778000,3.069778076171875,0.9260432706527412,-1.902934392750263,5.144289472848176,0.6875185966491699,-0.1327872425317764,1.5260545015335083
1783202049662715000,3.07971484375,0.9107929484203456,-1.810147826372832,5.419388855010271,0.5468990206718445,0.0327276960015296,1.6076310873031616
1783202049672651800,3.08965185546875,1.1623467659525573,-1.7518593035332857,5.514951169711351,0.4266221225261688,0.2424409687519073,1.7298542261123655
1783202049682589000,3.0995888671875,1.6432986833103,-1.6675604333855212,5.544933050999045,0.3232075572013855,0.46969935297966,1.85767126083374
1783202049692524800,3.10952490234375,2.0820110030926764,-1.532472748503834,5.454081982728838,0.2535824179649353,0.7522162795066833,1.992945671081543
1783202049702462000,3.1194619140625,2.4044822311520577,-1.2924803355582055,5.222675027298927,0.2335168570280075,1.0608361959457395,2.122611284255981
1783202049712398800,3.12939892578125,2.669621944835782,-0.9464920383110642,4.757037875711918,0.2476819306612014,1.3610024452209473,2.24845814704895
1783202049722335700,3.139335693359375,2.7928552335336803,-0.5174311978407203,4.033032696533203,0.2633164823055267,1.665073037147522,2.347370386123657
1783202049732273000,3.14927294921875,2.6834087703868743,0.001249415539205,3.193343036600947,0.2673858106136322,1.9745798110961916,2.405380249023437
1783202049742209800,3.159209716796875,2.4330484004229307,0.5136147082924842,2.2459879517197607,0.2502574920654297,2.236844301223755,2.4211316108703613
1783202049752145700,3.169145751953125,2.118811186093092,1.0234507748290895,1.162428745147586,0.2156771421432495,2.3961939811706543,2.3976709842681885
1783202049762082800,3.179082763671875,1.7515933460734785,1.4372941724233328,-0.0937748467624187,0.1773757040500641,2.4233241081237797,2.335843563079834
1783202049772020000,3.18902001953125,1.3782681290894745,1.709191543673724,-1.371875797703862,0.1503731161355972,2.3268613815307617,2.253811836242676
1783202049781956900,3.198956787109375,1.0884741588816047,1.927543348827958,-2.5955098299205304,0.1446056067943573,2.0818326473236084,2.1796696186065674
1783202049791894000,3.20889404296875,0.902885682427138,1.986541627372056,-3.695437402969599,0.1406502872705459,1.7603814601898191,2.1291098594665527
1783202049801830700,3.21883056640625,0.998310999810323,1.8748095375061036,-4.525238121572136,0.104929432272911,1.4318115711212158,2.10641884803772
1783202049811767600,3.228767578125,1.3035158165745435,1.8023223934441803,-4.969914902716875,0.0732846856117248,1.130744457244873,2.12453293800354
1783202049821703400,3.238703369140625,1.5676114280328153,1.71941468539387,-5.226802920883894,0.067807026207447,0.9332249760627748,2.1525700092315674
1783202049831640600,3.248640625,1.606298739954084,1.7602344792991875,-5.308444846782088,0.110823206603527,0.8312466740608215,2.1590707302093506
1783202049841577500,3.258577392578125,1.346209733788669,1.992997525513172,-5.358678657981753,0.2008785009384155,0.7514876127243042,2.1182520389556885
1783202049851514600,3.2685146484375,1.0356500389277934,2.302784774696826,-5.535514649790525,0.3090736865997314,0.6637265682220459,2.06328558921814
1783202049861451500,3.278451416015625,0.7841176295097917,2.573315241508186,-5.735754898062348,0.4109398126602173,0.5049393177032471,1.989043951034546
1783202049871388400,3.288388427734375,0.4099374761968851,2.7051564918145536,-5.881265192759036,0.4792040884494781,0.3058869540691376,1.873413681983948
1783202049881325600,3.29832568359375,-0.0970277110785245,2.759730085784197,-5.904483571261167,0.5044917464256287,0.0966336131095886,1.709809184074402
1783202049891261700,3.30826171875,-0.5534064377916976,2.7074150843963025,-5.659556040000915,0.5108575224876404,-0.1490294188261032,1.5337213277816772
1783202049901198600,3.318198486328125,-0.7582027784653007,2.607916014768183,-5.252986578932404,0.5323449969291687,-0.4479280412197113,1.368632197380066
1783202049911135500,3.328135498046875,-0.7605505106352269,2.414983166900277,-4.793490414318442,0.6034431457519531,-0.6838814616203308,1.2255754470825195
1783202049921072400,3.338072265625,-0.7473867854185402,2.101868672990054,-4.082100386562943,0.7218525409698486,-0.925723135471344,1.0286496877670288
1783202049931009500,3.348009521484375,-0.5862834925316274,1.9068566807605325,-3.2599773629814384,0.7844451069831848,-1.0903613567352295,0.9160242676734924
1783202049940946700,3.35794677734375,-0.063939315142855,1.8961431251749397,-2.1007693334460256,0.8170239925384521,-0.942182183265686,0.8986759185791016
1783202049950882600,3.367882568359375,0.5603531516570598,2.2254523825608192,-0.6315069282233715,0.9171047806739808,-0.7307543754577637,0.9418220520019532
1783202049960819500,3.3778193359375,0.5973078676320612,2.0021534763932225,0.3885948284387588,1.0869098901748655,-0.6821109652519226,0.9452672004699708
1783202049970756600,3.387756591796875,0.0838163473278284,1.6142999678410588,0.9886913038760424,1.3144155740737915,-0.6258599162101746,0.9188553094863892
1783202049980693500,3.397693603515625,-0.253868378084898,1.583694693958014,1.5188316150337458,1.4908658266067505,-0.6205741763114929,0.9095143675804138
1783202049990630700,3.407630615234375,-0.2738439752735197,1.889110596189648,2.0911942803710697,1.4636019468307495,-0.4419312179088592,0.8589898943901062
1783202050000567600,3.417567626953125,-0.3108800128564238,2.518924018368125,3.4557056867867706,1.2647712230682373,-0.2830348908901214,0.7475922107696533
1783202050010504400,3.42750439453125,-0.6396114703543484,2.458731707733869,4.279707363721728,0.932596743106842,-0.2217749953269958,0.6251155734062195
1783202050020440600,3.437440673828125,-0.7473992065086961,2.5553087524354456,4.772765606197715,0.5505814552307129,-0.1690505445003509,0.4183467030525207
1783202050030377700,3.447377685546875,-0.9507081947013736,2.365371579252183,5.255503530189395,0.1723130047321319,-0.0339499674737453,0.2817853987216949
1783202050040314400,3.457314453125,-1.137033753258735,2.493017423695325,5.576198542356491,-0.1776577979326248,0.1061903610825538,0.1936209052801132
1783202050050251500,3.46725146484375,-1.1658018748424948,2.631780582219362,5.786884196797013,-0.4544611871242523,0.2245742529630661,0.0815801247954368
1783202050060188400,3.4771884765625,-1.4647994344644248,2.307349306133389,5.653002380573749,-0.6535593867301941,0.3443557918071747,-0.060594592243433
1783202050070125600,3.48712548828125,-1.8089017718344929,2.211786406910419,5.316767269447445,-0.7611185908317566,0.4919931888580322,-0.2379379570484161
1783202050080062700,3.497062744140625,-1.940525579997897,2.265269575294852,4.819555998945236,-0.7351161241531372,0.6685512661933899,-0.433154821395874
1783202050089998600,3.50699853515625,-1.7599993553690612,2.0914738279648124,4.113703147050738,-0.5710435509681702,0.8775665760040283,-0.6209800839424133
1783202050099935500,3.516935546875,-1.416414319871366,1.6197674394667148,3.4827187813967466,-0.3734885156154632,1.3188881874084473,-0.6995856165885925
1783202050109872600,3.52687255859375,-0.5527225837133825,1.4659974120773374,3.225923117688298,-0.1742033809423446,1.8319780826568604,-0.6889931559562683
1783202050119809500,3.5368095703125,0.2325144782803952,1.036332029842585,2.5003157640099523,0.0197736956179142,2.288159847259521,-0.6405203342437744
1783202050129746400,3.546746337890625,0.4498001885730773,0.5936841241769493,1.1198673682719469,0.1190574094653129,2.65612268447876,-0.5749794244766235
1783202050139683600,3.55668359375,0.373642064380832,0.4221139439418911,-0.4932295073896646,0.0406732857227325,2.8399658203125,-0.5162478089332581
1783202050149620500,3.566620361328125,0.2768719813251867,0.4528939898699521,-2.2327058608204124,-0.1250288635492324,2.67667818069458,-0.546067476272583
1783202050159556600,3.576556640625,0.3691653573581949,0.6340121890425682,-4.471494840946793,-0.2634318768978119,2.108799457550049,-0.6740143299102783
1783202050169493500,3.586493408203125,0.7705133939839899,0.865736685989052,-7.026925758457184,-0.3411407768726349,1.378730535507202,-0.7985914349555969
1783202050179430400,3.596430419921875,1.4252201421394943,0.9807384451754392,-8.591081200817227,-0.3195050656795501,0.6951770782470703,-0.833472728729248
1783202050189367600,3.606367431640625,1.87388307031095,0.5643477011859417,-9.235241274386643,-0.2109346687793731,0.2146765291690826,-0.757789671421051
1783202050199304700,3.6163046875,2.1910487393081186,-0.0554049302272498,-9.152772834536432,-0.0508561730384826,-0.0762667953968048,-0.5569742918014526
1783202050209241600,3.62624169921875,2.5525097693666816,-0.5120025969207287,-8.721444779786466,0.1491671949625015,-0.2651602923870086,-0.291974276304245
1783202050219178500,3.636178466796875,2.896705191847682,-0.6754587365441024,-8.234165705233812,0.3570097386837005,-0.419397622346878,-0.0296992938965559
1783202050229114600,3.646114501953125,3.0931016241729257,-0.540154340171814,-7.6075886346280575,0.552476704120636,-0.4992075264453888,0.1341767311096191
1783202050239051500,3.656051513671875,3.022276860365271,-0.1545056481875479,-6.793878050082921,0.7480329871177673,-0.5301620364189148,0.1797801703214645
1783202050248988700,3.66598876953125,2.762303735664487,0.4187923983037471,-5.999376608398556,0.9753678441047668,-0.6217284202575684,0.2033539414405822
1783202050258925300,3.67592529296875,2.5429274097681045,1.0099328293472527,-5.256227752810716,1.2155486345291138,-0.7415654063224792,0.2943456768989563
1783202050268862500,3.685862548828125,2.544409757280349,1.5063251846820116,-4.364640147858858,1.3785640001296997,-0.9063757061958312,0.4398107528686523
1783202050278799600,3.695799560546875,2.58618612125814,2.0668588805377484,-3.127174574166536,1.4214999675750732,-1.1955351829528809,0.5745182633399963
1783202050288736500,3.705736572265625,2.375519902170449,2.8595757768929,-1.7918126898676157,1.3454347848892212,-1.5662684440612793,0.6323274970054626
1783202050298672400,3.71567236328125,1.898704792356491,3.824051507923007,-0.5236199694782495,1.1547996997833252,-1.8969908952713013,0.6029866337776184
1783202050308609500,3.725609619140625,0.8965535567961632,4.640141096559167,0.5981342354536057,0.8858044743537903,-1.8907859325408936,0.5908274054527283
1783202050318546400,3.73554638671875,0.1810949278948828,4.595728246597945,1.8763982680022715,0.5897855758666992,-1.5374915599822998,0.4661724865436554
1783202050328483600,3.745483642578125,-0.2660975623978301,5.135472544664144,3.069011723533273,0.210605189204216,-1.0452762842178345,0.2016808986663818
1783202050338420700,3.755420654296875,-0.79797299025245,5.615840816915035,3.653555825051665,-0.1691762953996658,-0.5883033275604248,-0.217649906873703
1783202050348357400,3.765357421875,-1.2091048638656734,5.911391450953484,3.7544308592081066,-0.4728057086467743,-0.288748025894165,-0.7724990248680115
1783202050358294500,3.77529443359375,-1.6963453599736094,6.071002167195082,3.304612623521685,-0.7516047358512878,-0.2294464260339737,-1.3468708992004397
1783202050368230700,3.785230712890625,-2.054191998927295,5.911109711402655,2.6840970449119803,-0.9476006031036376,-0.2954060137271881,-1.8913708925247192
1783202050378167600,3.79516748046875,-2.410955226558446,5.457751026630401,2.0576438929468392,-1.0308605432510376,-0.3747062683105469,-2.389130115509033
1783202050388104400,3.8051044921875,-2.522368313603103,4.95755927901268,1.6483225028216837,-1.0663551092147827,-0.4910421967506408,-2.80447769165039
1783202050398041600,3.81504150390625,-2.2650401504531503,4.499908157743513,1.633879551449418,-1.0787254571914673,-0.5794428586959839,-3.032771587371826
1783202050407978500,3.824978515625,-1.4220968955524265,4.428025993837416,1.6806249360114336,-1.0749880075454712,-0.5870989561080933,-3.09858775138855
1783202050417915600,3.83491552734375,-0.1485296790504828,4.64064816929847,1.8263064956218005,-1.0302592515945437,-0.6289411187171936,-3.120333671569824
1783202050427852500,3.8448525390625,0.0810239766629412,4.507912308239937,2.060113497930765,-0.950659155845642,-0.6883775591850281,-3.1531805992126465
1783202050437789400,3.85478955078125,-0.0155457615150138,4.093205133423209,2.3326947597920893,-0.8578904867172241,-0.6292776465415955,-3.2289841175079346
1783202050447725600,3.8647255859375,-0.0327968656431883,3.573433071544766,3.0446476821273563,-0.7896198630332947,-0.5094454884529114,-3.296284437179565
1783202050457662500,3.874662353515625,0.0332777810279279,3.073723554486036,3.498424300050736,-0.7708497047424316,-0.3804772794246673,-3.2417097091674805
1783202050467599600,3.884599609375,0.3944313525725156,2.282598018975556,3.583483925437927,-0.8194912672042847,-0.3506618738174438,-3.147120952606201
1783202050477536500,3.89453662109375,0.6501772149670869,1.5936150533393023,3.3294752620995043,-0.9161800146102904,-0.3905714750289917,-3.080606460571289
1783202050487473400,3.904473388671875,1.1020494605738669,1.4172702060483395,2.888562217402458,-1.0280218124389648,-0.401640385389328,-3.0940890312194824
1783202050497410600,3.91441064453125,1.6082330690175295,1.3127614915646613,2.5791777038007973,-1.1468578577041626,-0.4156236946582794,-3.190103769302368
1783202050507347500,3.924347412109375,1.7628629281066357,0.8714433731980621,2.195572938734293,-1.2723262310028076,-0.4572156369686126,-3.356339454650879
1783202050517283300,3.934283447265625,1.9448387670218945,0.28000264403373,1.5089537796199322,-1.4070829153060913,-0.4626368582248688,-3.487813949584961
1783202050527220500,3.944220458984375,2.206898780999333,-0.5626894125849008,0.8480757954835891,-1.5580124855041504,-0.4047706127166748,-3.626744985580444
1783202050537157600,3.95415771484375,2.455741001485288,-1.222920769380778,0.3659399290382862,-1.757856011390686,-0.3324805498123169,-3.667645215988159
1783202050547094500,3.964094482421875,3.0208368906900285,-1.679981815802306,-0.0726519792348146,-1.9447827339172363,-0.2557272017002105,-3.583548784255981
1783202050557031700,3.97403173828125,3.662511869445443,-2.6368267596930264,-0.4666366840183734,-2.10767149925232,-0.1995208263397216,-3.419136047363281
1783202050566968300,3.98396826171875,4.179989098384977,-3.605733166646957,-0.8623205939352512,-2.214470863342285,-0.2020218074321746,-3.2006845474243164
1783202050576905500,3.993905517578125,4.568066332690417,-4.435478355669975,-1.7115192559689285,-2.2015860080718994,-0.3366422653198242,-2.940337657928467
1783202050586842600,4.003842529296875,4.528325273932516,-4.954722594282031,-2.8308728294998406,-2.1065990924835205,-0.549081563949585,-2.6606016159057617
1783202050596778800,4.01377880859375,4.330216776992381,-4.840146367031336,-3.6379023288458585,-1.9613170623779297,-0.645427942276001,-2.4157235622406006
1783202050606715400,4.02371533203125,3.980430402636528,-4.349591047286987,-4.073391594928503,-1.75617778301239,-0.5416906476020813,-2.2831664085388184
1783202050616652500,4.033652587890625,3.483264724841714,-3.723815063931048,-4.0783915951728815,-1.4505445957183838,-0.3754593431949615,-2.1891183853149414
1783202050626589400,4.04358935546875,3.076795509277284,-3.63781552734524,-4.0520635602176185,-1.0659469366073608,-0.2801418602466583,-2.0536787509918213
1783202050636526600,4.053526611328125,2.744997503815591,-3.867802971366048,-4.089621429717541,-0.6798170208930969,-0.3437126278877258,-1.839812397956848
1783202050646463700,4.063463623046875,2.523271107661724,-3.9427579668462274,-4.099053859451413,-0.28807133436203,-0.4926091432571411,-1.5713915824890137
1783202050656400400,4.073400390625,2.475131638392806,-3.907193024729192,-4.006842024222016,0.0622071847319603,-0.6447417736053467,-1.2484139204025269
1783202050666336500,4.08333642578125,2.5722861907213925,-3.701324707442522,-3.486109008356929,0.3565834164619446,-0.7895450592041016,-0.9190919995307922
1783202050676273700,4.093273681640625,2.661374340972304,-3.4892744866505265,-2.7329367714047432,0.5719991326332092,-0.8953657746315002,-0.6381102800369263
1783202050686210600,4.10321044921875,2.525546651378274,-3.309936741153896,-1.8786662129342555,0.698894739151001,-0.9296957850456238,-0.4082030951976776
1783202050696147500,4.1131474609375,2.254367657530308,-3.115798901410401,-0.8332318620949983,0.7424969673156738,-0.8606346249580383,-0.1915004104375839
1783202050706084600,4.123084716796875,1.985308870706707,-2.931918251787126,0.2215741282016038,0.7342076301574707,-0.6827391982078552,-0.0122377062216401
1783202050716021500,4.133021484375,1.552297392914444,-2.803640831442177,1.2185253109008074,0.7160703539848328,-0.4915780127048492,0.1360657960176468
1783202050725958700,4.142958740234375,1.0477521993275731,-2.5893159437164663,1.951083798891306,0.7325484156608582,-0.3966360688209533,0.2500331103801727
1783202050735895600,4.1528955078125,0.5045454127825796,-2.263048392114043,2.3423498923659323,0.772161602973938,-0.4097219705581665,0.3434695601463318
1783202050745831400,4.16283154296875,-0.00836903828606,-1.8683644530199468,2.700700389188528,0.8103481531143188,-0.4092162251472473,0.453141987323761
1783202050755768600,4.1727685546875,-0.4679824726041406,-1.545580798010528,3.120143360355496,0.8002658486366272,-0.3062655925750732,0.6015543937683105
1783202050765705500,4.18270556640625,-0.4808621932476759,-1.2397399483650922,3.7955233325749633,0.7530847787857056,-0.2032576948404312,0.7581413388252258
1783202050775642600,4.192642578125,-0.3088865740168839,-1.0011253996439278,4.633846964851021,0.6371778845787048,0.0133047550916671,0.8376268744468689
1783202050785579500,4.20257958984375,-0.3216748169846832,-0.4944023505613207,5.59686548281014,0.4944060444831848,0.458691269159317,0.7718364000320435
1783202050795516400,4.212516357421875,-0.1060537519685924,0.7330135382816195,6.982300434789061,0.1960805058479309,0.6385751366615295,0.7409441471099854
1783202050805453000,4.222453125,0.0554886629879474,1.0281936585072426,6.619218233269453,-0.1298587173223495,0.9842177033424376,0.7353872060775757
1783202050815390200,4.23239013671875,0.0982384751077741,0.7092775656461715,6.085539811113477,-0.4994723498821258,1.4032717943191528,0.7255750298500061
1783202050825326000,4.242326171875,0.0699708503920584,0.7671085539765655,5.9812897475659845,-0.9023764133453368,1.8342459201812744,0.7116796970367432
1783202050835263000,4.252262939453125,0.242619729241915,0.7481658800322561,5.159828402763605,-1.3123914003372192,1.961503267288208,0.6846991181373596
1783202050845200100,4.2622001953125,0.3758595212345942,0.4854107964627444,3.4879636963129044,-1.7233736515045166,1.832382321357727,0.6057702302932739
1783202050855137000,4.272136962890625,0.4498795374196022,0.1197738050269428,1.4540636670470235,-2.0975701808929443,1.6201059818267822,0.5812869668006897
1783202050865074200,4.28207421875,1.1903921262197197,-0.5867659422863275,-0.1438432382673025,-2.303342819213867,1.3753831386566162,0.6281697750091553
1783202050875011300,4.29201123046875,1.5953034448176622,-1.5360799792155622,-1.9611486813098191,-2.343823909759521,1.217124581336975,0.7562587857246399
1783202050884948000,4.301947998046875,1.5342637235738337,-2.362390371484309,-3.961195540812611,-2.2395682334899902,1.1046295166015625,0.9166263341903688
1783202050894885000,4.311885009765625,1.4353189268276094,-2.892730150736868,-5.413122780352831,-1.941938161849976,0.8882717490196228,1.013675093650818
1783202050904821200,4.3218212890625,1.1000929927438496,-3.0871491455093025,-6.821040197774767,-1.427889704704285,0.6439821124076843,1.067570447921753
1783202050914758100,4.331758056640625,1.0226837359793484,-2.946664862281084,-7.896624772205948,-0.7758960723876953,0.5168127417564392,1.1137219667434692
1783202050924695000,4.341695068359375,1.181647240358591,-2.95191269980669,-8.593662449482084,-0.0613464973866939,0.4874412715435028,1.2028212547302246
1783202050934632000,4.3516318359375,1.2956406992852687,-3.250942408132553,-9.021452393233776,0.5770544409751892,0.4151913225650787,1.3148853778839111
1783202050944569000,4.361569091796875,1.3307511756330728,-3.649216334542632,-8.95378170954287,1.0196216106414795,0.2163533121347427,1.422553539276123
1783202050954506200,4.37150634765625,1.437929109326005,-3.7703532354831695,-8.2970935783118,1.2072887420654297,-0.2908460795879364,1.48762047290802
1783202050964443100,4.381443115234375,1.656067710120976,-3.7841166801586734,-7.802361849665641,1.3685755729675293,-0.6972455382347107,1.5853837728500366
1783202050974380000,4.391380126953125,2.1995146620973944,-3.6922570193678137,-6.6802101698488,1.4940671920776367,-1.0577913522720337,1.75262188911438
1783202050984316200,4.401316162109375,2.658392694813013,-3.4668943125382063,-5.381293809893727,1.6252957582473757,-1.24504816532135,1.8957518339157104
1783202050994253000,4.411253173828125,2.593689044234156,-3.377906115530431,-4.04646617860198,1.7969355583190918,-1.261441946029663,2.038984775543213
1783202051004190200,4.421190185546875,2.558548465009033,-3.0996093986317512,-2.516120651385188,2.04397964477539,-1.1346412897109983,2.2010555267333984
1783202051014127000,4.431127197265625,2.583316411040723,-2.812341439770162,-1.256077919703722,2.3372628688812256,-0.914938986301422,2.3864288330078125
1783202051024064000,4.44106396484375,2.5671868217557665,-2.499162502321601,-0.2043628811597824,2.599528789520264,-0.696475625038147,2.557222604751587
1783202051034001200,4.451001220703125,2.4207358852081,-2.0537322724610565,0.841996183308959,2.7518575191497803,-0.531083881855011,2.6882247924804688
1783202051043938000,4.46093798828125,2.165337374946475,-1.462787656250596,1.9405232419103384,2.7175302505493164,-0.354677677154541,2.8824920654296875
1783202051053875200,4.470875244140625,2.4485911297306417,-0.8364683597981929,3.2243577680677173,2.5677592754364014,-0.329841285943985,3.022188663482666
1783202051063811000,4.48081103515625,2.4832886413633823,-0.3944324485510587,4.149619094562531,2.358217000961304,-0.2468920648097992,3.053690195083618
1783202051073748200,4.490748291015625,1.643481346400827,-0.1982595958486199,4.692136656734347,2.1657395362854004,-0.2009121924638748,3.043440103530884
1783202051083685000,4.50068505859375,1.2452411761298774,0.0966724679000675,5.402620675560832,1.9757413864135744,-0.1072754487395286,3.029212951660156
1783202051093622300,4.510622314453125,0.945757221230492,0.3000540829375386,6.040784723585844,1.8332984447479248,0.1024566665291786,2.9774529933929443
1783202051103559000,4.520558837890625,0.5636016320589929,0.4816745325438678,6.586817600402235,1.7397228479385376,0.3930467069149017,2.922358751296997
1783202051113496000,4.53049609375,0.4434191457664593,0.599946253311634,6.696931003025174,1.642695426940918,0.7234535813331604,2.912666320800781
1783202051123433200,4.54043310546875,0.7749293107300996,0.9113537971735,6.651884239074588,1.4711005687713623,1.0060734748840332,2.915942668914795
1783202051133370000,4.5503701171875,1.28907359585464,1.5318714216098188,6.75764412266314,1.1751978397369385,1.1941909790039062,2.8918802738189697
1783202051143306000,4.560305908203125,1.4292286471284923,2.0594839678555728,6.906665640351176,0.756289005279541,1.3316729068756104,2.817443370819092
1783202051153243100,4.5702431640625,1.092400976936519,2.495831312072277,6.985932653811574,0.2786784768104553,1.439145803451538,2.6493980884552
1783202051163180000,4.580179931640625,0.5241302205553278,2.9434914929419755,6.893823109912872,-0.1997320502996444,1.5141342878341677,2.3657894134521484
1783202051173117200,4.5901171875,-0.1043438062455505,3.4585037930727003,6.285864815059304,-0.5946472883224487,1.523770093917847,2.024000883102417
1783202051183054300,4.600054443359375,-0.4025171900030225,3.848583599372208,5.344093667790293,-0.9057236909866332,1.3891977071762085,1.7482742071151731
1783202051192991000,4.609990966796875,-0.7480825125977396,3.788410285699367,4.026564961823821,-1.0967719554901123,1.3053369522094729,1.488883376121521
1783202051202928000,4.61992822265625,-0.9359767087113112,3.812604231235385,2.9498528446674346,-1.3594483137130735,1.3863306045532229,1.1625971794128418
1783202051212865000,4.629864990234375,-0.7619136887472122,4.190280483035743,2.24073076184392,-1.7371731996536257,1.3790781497955322,0.7473480105400085
1783202051222801200,4.63980126953125,-0.6856635388899595,4.858358023287356,1.329201023581624,-2.1989500522613525,1.3062849044799805,0.3151924014091491
1783202051232738000,4.649738037109375,-0.7558528543382883,5.1184857540279625,0.1540115810602903,-2.765454769134521,1.1636446714401243,-0.1042433604598045
1783202051242675000,4.659675048828125,-0.5852065109498799,5.004605692347884,-0.9347650678992272,-3.4647390842437744,1.024842381477356,-0.4254448413848877
1783202051252612000,4.669612060546875,-0.046748672497645,4.83761947890222,-2.0031009863764044,-4.176506519317627,0.8313674926757812,-0.4741527140140533
1783202051262549200,4.67954931640625,1.4299842878013849,4.207983605247736,-2.8202123192757367,-4.689929008483887,0.6290086507797241,-0.1979350000619888
1783202051272486100,4.689486083984375,3.440032901358604,3.436428154864907,-4.042003353974223,-4.822870254516602,0.3909235298633575,0.2823896110057831
1783202051282423000,4.699423095703125,4.982902394583821,3.073780837631225,-6.030971770101785,-4.522608280181885,0.1029742881655693,0.7167051434516907
1783202051292360200,4.709360107421875,4.802669746074081,3.5137340973854063,-8.296776767447591,-3.85297155380249,-0.2443169057369232,0.8519593477249146
1783202051302297000,4.719297119140625,2.990870499232411,4.252891837510466,-10.12700072877407,-2.945070743560791,-0.4270350635051727,0.7271484136581421
1783202051312233200,4.729233154296875,1.198085822527483,4.936960143098235,-10.721444293016194,-2.003260374069214,-0.4132225215435028,0.3808023333549499
1783202051322170000,4.739170166015625,-0.2217730117745697,5.241434672826529,-10.497236893701553,-1.0159318447113037,-0.5126343369483948,0.1132041662931442
1783202051332107000,4.74910693359375,-0.8382739479154347,4.623082409730554,-10.304571464598178,-0.0305700078606605,-0.6841657757759094,0.0083108507096767
1783202051342044200,4.759044189453125,-0.6010301760908215,3.7835476480990646,-10.0098613730371,0.9073538184165956,-0.9120290279388428,-0.0291648842394351
1783202051351981000,4.76898095703125,-0.3376299630181864,3.5631039852321145,-9.060487349548936,1.7024444341659546,-0.9245591759681702,-0.0550785176455974
1783202051361918200,4.778918212890625,0.1472672578992322,3.335026466485858,-7.49238287730217,2.3608787059783936,-0.9038315415382384,-0.1109178140759468
1783202051371855000,4.788855224609375,0.3697481622148305,3.144526690983772,-5.879740759670734,2.86176872253418,-0.8712171316146851,-0.1218025237321853
1783202051381792000,4.7987919921875,0.4112077883936464,2.9941558045133947,-4.331445149743557,3.202237844467163,-0.8681063055992126,-0.1148063987493515
1783202051391729200,4.808729248046875,0.488657669429481,2.8960680629879234,-2.915645454639196,3.381904125213623,-0.8843803405761719,-0.1255162507295608
1783202051401665300,4.818665283203125,0.5788731432098895,3.066500909756124,-1.596827293384075,3.4324960708618164,-0.8607476949691772,-0.147586390376091
1783202051411602000,4.828601806640625,0.6818606394756584,3.3202544292896983,-0.2696498845845461,3.3781871795654297,-0.7841053605079651,-0.1778887063264846
1783202051421539000,4.8385390625,0.6942948083087801,3.57163566673398,0.8283949434578418,3.235875606536865,-0.6710970401763916,-0.2406722009181976
1783202051431476200,4.848476318359375,0.5741247065737843,3.913164792615175,1.563007441368699,3.016408920288086,-0.579789400100708,-0.3307148814201355
1783202051441413000,4.8584130859375,0.3295006152395159,4.218432810808718,1.9772306320607664,2.7202181816101074,-0.501711368560791,-0.4448057413101196
1783202051451350300,4.868350341796875,0.0854430534805171,4.4275200901418925,2.214587435805797,2.337894916534424,-0.4590450227260589,-0.5805338621139526
1783202051461287000,4.878286865234375,0.0085199910640716,4.650748999813199,2.3844629409521816,1.916824460029602,-0.4341990649700165,-0.7161366939544678
1783202051471224000,4.88822412109375,0.0084165854885242,4.750474571673572,2.5120085398912426,1.50457501411438,-0.377748042345047,-0.8326159715652466
1783202051481161200,4.8981611328125,0.0217196643769741,4.631326506462693,2.5442004984438418,1.101387858390808,-0.2830521762371063,-0.951240062713623
1783202051491097000,4.90809716796875,0.0634117476047948,4.524917219054698,2.463651628479361,0.7278125882148743,-0.1728082597255706,-1.0549627542495728
1783202051501034000,4.918033935546875,0.2343555943687446,4.469071413192153,2.239185870489478,0.3944822549819946,-0.0989904999732971,-1.135430932044983
1783202051510971100,4.92797119140625,0.3620029914481565,4.264857292853296,1.8798674054175613,0.1249568611383438,-0.0613430850207805,-1.190060019493103
1783202051520908000,4.937907958984375,0.4193642799075692,4.043241663597524,1.3828560414016249,-0.124900110065937,-0.0111587438732385,-1.2500137090682983
1783202051530845200,4.94784521484375,0.4113860675700008,3.9040138101711865,1.0727473051786425,-0.3614032566547394,0.0429692566394805,-1.3176971673965454
1783202051540782300,4.9577822265625,0.215667205712758,3.79660206772238,0.950679260867834,-0.5727157592773438,0.1078241541981697,-1.3870501518249512
1783202051550719000,4.967718994140625,0.17282891159188,3.59641267285496,0.6699842506557703,-0.7681286334991455,0.1505984812974929,-1.4595166444778442
1783202051560656100,4.97765625,0.1912086909564211,3.343548795637488,0.2329284659087657,-0.9401166439056396,0.0922419801354408,-1.554583191871643
1783202051570592300,4.98759228515625,0.0192657707021222,3.0375194376826284,-0.4354401662439107,-1.0933934450149536,-0.0850905552506446,-1.69380521774292
1783202051580529200,4.997529052734375,-0.2973961523072794,2.8756670799940824,-1.070608539584279,-1.2104204893112185,-0.2917806208133697,-1.866194009780884
1783202051590466000,5.007466064453125,-0.588058137521334,2.7705834882318974,-1.4677327114373444,-1.2928966283798218,-0.4253826737403869,-2.0596272945404053
1783202051600403000,5.01740283203125,-0.6547463495135307,2.650629659596085,-1.6712959666520355,-1.3438820838928225,-0.4884772300720215,-2.267732858657837
1783202051610340000,5.027340087890625,-0.5132373263474553,2.693341258597374,-1.68527539216578,-1.3270937204360962,-0.5501830577850342,-2.454681396484375
1783202051620277200,5.03727734375,-0.166873766047135,2.797869262303412,-1.773143060711026,-1.212918400764465,-0.5973942279815674,-2.5914740562438965
1783202051630214100,5.047214111328125,0.2400981383424252,2.6080048620954157,-1.9412147313058372,-1.0205265283584597,-0.6092066168785095,-2.671884536743164
1783202051640151000,5.057151123046875,0.6374011008284985,2.2775306525833905,-1.9795909314513205,-0.7726044058799744,-0.6448063850402832,-2.699792623519897
1783202051650088200,5.067088134765625,1.0694614884410052,2.015695533403009,-1.9920792416244744,-0.496705412864685,-0.734600305557251,-2.7143704891204834
1783202051660025000,5.077025146484375,1.4154627182349562,1.9457547128230333,-1.9905314276605843,-0.2311112582683563,-0.8278399705886841,-2.7409911155700684
1783202051669961200,5.086961181640625,1.610835360470414,2.0663100144833324,-1.7141724008262156,0.0471507161855697,-0.9348284602165222,-2.781095266342163
1783202051679898000,5.096898193359375,1.738760021854937,2.2869296184390784,-1.4198387413620948,0.3193899393081665,-1.0085705518722534,-2.8312737941741943
1783202051689835000,5.1068349609375,1.7847306226521729,2.386198678703606,-1.0097019432008263,0.5420650839805603,-1.0498034954071045,-2.894632339477539
1783202051699772200,5.116772216796875,1.7853937627360223,2.485015903547406,-0.4855190791428089,0.7101156115531921,-1.0795248746871948,-2.975170135498047
1783202051709709000,5.126708984375,1.839125060662627,2.644735048599541,-0.0048293198525905,0.8405550718307495,-1.1295984983444214,-3.056428909301758
1783202051719646200,5.136646240234375,1.9765973025932904,2.76779941047132,0.4023720093786716,0.9320157766342164,-1.1808842420578003,-3.137260913848877
1783202051729583000,5.1465830078125,2.1042096831582486,2.9610353329390287,0.8609937292456626,0.9905094504356384,-1.1945515871047974,-3.185537815093994
1783202051739520000,5.15652001953125,2.408656155835837,3.228063929109275,1.402031281992793,1.025755524635315,-1.2152765989303589,-3.2236664295196533
1783202051749456100,5.1664560546875,2.7091534524962304,3.489870114456117,1.7764771735697984,1.014776349067688,-1.243496656417847,-3.2858033180236816
1783202051759393300,5.176393310546875,2.9918939970612524,3.888524564616382,2.035128109756112,0.9328249096870422,-1.3245140314102173,-3.387709140777588
1783202051769330000,5.186329833984375,3.1470325363248586,4.325772657065094,2.308801258507371,0.7784820199012756,-1.4241596460342407,-3.525086641311645
1783202051779267000,5.19626708984375,3.1643998507112263,4.654059731796384,2.694844064375758,0.5664874911308289,-1.4992676973342896,-3.6700479984283447
1783202051789204200,5.206204345703125,3.16989435647428,4.713335804368556,3.1936165928453204,0.3237010836601257,-1.5485786199569702,-3.831259489059448
1783202051799141000,5.21614111328125,2.9762296872004863,4.380788149583339,3.639382338270545,0.0373617373406887,-1.4131138324737549,-4.0451483726501465
1783202051809078500,5.22607861328125,2.4982529862612486,3.805678815886378,4.125294216123223,-0.3453108370304107,-1.0711524486541748,-4.1468119621276855
1783202051819015200,5.23601513671875,3.20560981297791,3.2362510349571703,4.867533555650711,-0.768829345703125,-0.7735056281089783,-4.137171268463135
1783202051828952300,5.245952392578125,3.607771978998184,2.0511394794888798,4.823320319914817,-1.2497953176498413,-0.5873137712478638,-4.098869800567627
1783202051838889500,5.255889404296875,3.71263958992213,0.5959669744171202,4.228423166686296,-1.7373141050338743,-0.5597162246704102,-4.022680759429932
1783202051848825300,5.265825439453125,3.9701057002380487,-0.7119036763660609,3.293238412070274,-2.184805154800415,-0.6416463851928711,-3.847865343093872
1783202051858762200,5.27576220703125,4.426183288580179,-1.8047563425928352,2.325759407570958,-2.574033737182617,-0.767100989818573,-3.634169578552246
1783202051868699400,5.285699462890625,4.722227843615412,-2.7215912015259263,1.47648768030107,-2.928677082061768,-0.8128993511199951,-3.458949327468872
1783202051878636300,5.29563623046875,4.69927425352931,-3.604511223636568,0.9807494049608708,-3.2491707801818848,-0.8148897886276245,-3.296203136444092
1783202051888573400,5.305573486328125,4.443492735299468,-4.418045574831963,0.631776392814517,-3.497037649154663,-0.8125931620597839,-3.0768775939941406
1783202051898510300,5.31551025390625,4.3771535924732685,-5.189392350900173,0.0729056617349386,-3.620103597640991,-0.7546997666358948,-2.796133756637573
1783202051908447200,5.325447265625,4.571839129227399,-5.79960982285738,-0.5546007986754179,-3.5422704219818115,-0.6463333368301392,-2.464824914932251
1783202051918384400,5.33538427734375,4.783637713345885,-6.185550337395072,-1.1929086390852928,-3.252426624298096,-0.4666503369808197,-2.090933322906494
1783202051928321300,5.3453212890625,4.85690460960865,-6.368655326470733,-1.7805378471374511,-2.7935070991516118,-0.2191183269023895,-1.70535147190094
1783202051938257400,5.35525732421875,4.579013258640468,-6.349705711328983,-2.143026174417138,-2.202701568603516,0.0392549149692058,-1.3454023599624634
1783202051948194300,5.3651943359375,4.130803627194464,-6.076343528223037,-2.444970893406868,-1.5675013065338137,0.2507099509239197,-1.037563443183899
1783202051958131200,5.375131103515625,3.652037529443205,-5.590489518037438,-2.784869203215837,-1.0225930213928225,0.3450391292572021,-0.7969455718994141
1783202051968068400,5.385068359375,3.0322493883252144,-5.050153976079821,-2.897262241208553,-0.6063386797904968,0.3772697150707245,-0.6326895356178284
1783202051978005500,5.395005615234375,2.4074226685181257,-4.465142841571569,-2.7628935182511807,-0.2940031588077545,0.369342565536499,-0.5627275109291077
1783202051987942400,5.4049423828125,1.8611720572978256,-4.0166520550966265,-2.649811913472414,-0.0875095278024673,0.3486177027225494,-0.5390409827232361
1783202051997879300,5.41487939453125,1.510644947577268,-3.869897313296794,-2.47025672583282,0.0179095715284347,0.3249616622924804,-0.4721727669239044
1783202052007816200,5.424816162109375,1.341398972506076,-3.973268548183143,-2.141731458431482,0.0902966856956482,0.3094005584716797,-0.3365007042884826
1783202052017753300,5.43475341796875,1.2240879134640097,-4.001012295155227,-2.0229151093930007,0.204099953174591,0.2283504456281662,-0.2074002474546432
1783202052027689500,5.444689453125,1.1093386677339672,-3.65072177066952,-2.350742457658052,0.4133464395999908,0.0713802054524421,-0.0383703708648681
1783202052037626400,5.45462646484375,0.8698628990735858,-2.664504163430631,-2.577892924687266,0.7604026794433594,-0.0904414504766464,0.2921361625194549
1783202052047563300,5.464563232421875,1.450847919870913,-3.1763147449105977,-2.758573901486397,1.2002737522125244,-0.3593324720859527,0.7579642534255981
1783202052057500400,5.47450048828125,1.9668929240502413,-3.561401857489347,-3.6042736154884096,1.712132453918457,-0.2348901480436325,1.1568697690963743
1783202052067437300,5.484437255859375,2.4233297010935844,-2.861793745203316,-3.499975621145964,2.1959383487701416,-0.0400416031479835,1.4159024953842163
1783202052077374500,5.49437451171875,2.30778682076782,-1.7232757447361946,-3.0774118876099585,2.5964274406433105,-0.2745856940746307,1.6392983198165894
1783202052087311400,5.504311279296875,1.3501957346849145,-1.6079983834788203,-4.383148448973894,2.685030937194824,-0.5386089086532593,1.9090487957000728
1783202052097248300,5.514248291015625,1.1421795186493544,-1.029653136600554,-4.0363124488562345,2.4275453090667725,-0.6912407875061035,2.126863956451416
1783202052107185400,5.524185302734375,0.8600226922564208,-0.2973612636569887,-2.2901924196273087,1.950281381607056,-0.8658873438835144,2.15168833732605
1783202052117121500,5.53412158203125,-0.0073936173826456,0.1172711654230952,-1.104029747670889,1.5114355087280271,-1.1856868267059326,2.042609691619873
1783202052127058200,5.54405810546875,-0.4531310134962201,0.5244982136175036,-0.5176888258635998,1.1393927335739136,-1.2437090873718262,1.8045893907547
1783202052136995300,5.553995361328125,-0.9375750107534228,1.0196499212414023,-0.1928074679225683,0.8113253712654114,-1.0660631656646729,1.4252721071243286
1783202052146932500,5.563932373046875,-1.5352749464429911,1.4293207093261182,0.1143634612828493,0.5454258918762207,-0.8516798615455627,0.9300903677940368
1783202052156869400,5.573869384765625,-1.884623367772996,1.7075393925525246,0.3736316525846719,0.3600688278675079,-0.5880327820777893,0.3872737288475036
1783202052166806500,5.583806640625,-1.9845709118209776,1.905058545297384,0.734706021413207,0.2773863077163696,-0.2907482981681824,-0.1424339562654495
1783202052176743200,5.5937431640625,-1.914113520020992,2.052326058924943,1.1556862851500511,0.2610291838645935,0.0357400812208652,-0.6158454418182373
1783202052186680300,5.603680419921875,-1.7764716206118465,2.0432848204657432,1.6060668308943509,0.2381811589002609,0.2789406776428222,-1.0080498456954956
1783202052196617500,5.613617431640625,-1.5848045548960563,1.89051432550773,2.1881997796177863,0.2089724093675613,0.5574691891670227,-1.2654895782470703
1783202052206554400,5.623554443359375,-1.30407739598006,1.7289670882456003,2.816075073340535,0.1995907872915268,0.8929017186164856,-1.3885725736618042
1783202052216490200,5.633490234375,-0.9691210726179182,1.595124873380363,3.30477161347568,-0.0035538142547011,0.0551452599465847,-1.432961344718933
1783202052226427400,5.643427490234375,-0.4601132735989988,1.62626673835814,1.6869488783359528,-0.2806824147701263,-0.0618806630373001,-1.3881652355194092
1783202052236364300,5.6533642578125,1.8617989570245144,2.101622443144023,-0.661375996786356,-0.0340073779225349,0.4079891145229339,-1.3129483461380005
1783202052246301400,5.663301513671875,2.6480273681432007,1.9754912410475312,1.9291046067953108,0.34607595205307,-0.0313423164188861,-1.1255178451538086
1783202052256238300,5.67323828125,2.2442798326276243,1.7410607000127434,0.0710574035197496,0.6235080361366272,-0.1019160822033882,-0.9050586819648744
1783202052266175200,5.68317529296875,2.4644495008587834,1.6675348605528473,1.3304466397285462,0.7059306502342224,0.1308653056621551,-0.748792827129364
1783202052276112400,5.6931123046875,1.7193140014983712,1.9385874515421688,2.3203671931385994,0.6588142514228821,0.3946865797042846,-0.6706492900848389
1783202052286049300,5.70304931640625,0.9211157511226832,2.206759957050532,2.8549416873514653,0.4879886209964752,0.6353630423545837,-0.6798838376998901
1783202052295986400,5.712986328125,0.3900738149501383,2.5959990747421977,3.0317186424493787,0.2091561704874038,0.8466795086860657,-0.7736191153526306
1783202052305923600,5.722923583984375,-0.1949588007375597,2.840415149348974,2.882648609444499,-0.0998623967170715,1.0314383506774902,-0.9473419189453124
1783202052315859200,5.732859130859375,-0.7306561615005135,2.760876917731762,2.536007839637995,-0.3657782077789306,1.236832857131958,-1.1607497930526731
1783202052325796400,5.74279638671875,-1.1370474164579063,2.28924271768704,1.876782298883796,-0.5514111518859863,1.430011510848999,-1.359233260154724
1783202052335733500,5.7527333984375,-1.1655272956848144,1.4955945318311452,0.8840934498041868,-0.6468274593353271,1.486854076385498,-1.4613697528839111
1783202052345670400,5.76267041015625,-0.7439628023192286,0.5263029249519109,-0.3516296641349792,-0.6357086300849915,1.3335928916931152,-1.4716116189956665
1783202052355607300,5.772607177734375,-0.0821346778512001,-0.2363603400535881,-1.8221189808040856,-0.4986136555671692,1.0347929000854492,-1.3809988498687744
1783202052365544200,5.782544189453125,0.7205632220312953,-0.8627895266212523,-3.087173987689614,-0.2511187791824341,0.6769554615020752,-1.2125273942947388
1783202052375481300,5.7924814453125,1.4149384020999074,-1.4976491262733935,-3.981194957268238,0.0184802059084177,0.3844655156135559,-1.0333459377288818
1783202052385418500,5.80241845703125,1.5126947197139262,-2.1013684683829545,-4.147937425085902,0.2309817969799041,0.1956330686807632,-0.8923748135566711
1783202052395355400,5.81235546875,1.0371122204348444,-2.660586405465007,-3.735082015615701,0.3849124908447265,0.0847832560539245,-0.7900409698486328
1783202052405292300,5.822292236328125,0.6377138200394808,-3.099606476022303,-3.318745778292417,0.4811106622219085,0.0023879697546362,-0.6882789731025696
1783202052415228400,5.832228515625,0.5099352891273796,-3.3516064298868176,-3.009706132605672,0.5120709538459778,-0.0830323845148086,-0.6035483479499817
1783202052425165300,5.842165283203125,0.404257165538147,-3.48918417801857,-2.6088293302208183,0.4834648072719574,-0.1714151352643966,-0.5219455361366272
1783202052435102500,5.8521025390625,0.3323532281916588,-3.668675068250298,-2.233430667963624,0.4189095199108124,-0.2582224607467651,-0.4359984397888183
1783202052445039400,5.862039306640625,0.372473422460258,-3.938719505110383,-1.951277275636792,0.3346120119094848,-0.348654955625534,-0.3271836042404175
1783202052454976300,5.871976318359375,0.4908046183302998,-4.1235134701862926,-1.684128560218215,0.2781410217285156,-0.4204716384410858,-0.2035772204399109
1783202052464913400,5.881913330078125,0.6353470178429037,-4.212841274411976,-1.453470377328992,0.2614991664886474,-0.4824739992618561,-0.0707518011331558
1783202052474850300,5.891850341796875,0.8199833081390708,-4.161267446780204,-1.3569395098567008,0.2982393503189087,-0.5159797668457031,0.0622989311814308
1783202052484787500,5.901787353515625,0.913714681085944,-3.9376217730015513,-1.2490110500574112,0.3650058209896087,-0.5337363481521606,0.1742240935564041
1783202052494724400,5.911724365234375,0.8273231495078652,-3.592892389774322,-1.0393073923915623,0.4811816811561584,-0.5357339978218079,0.2658344209194183
1783202052504660500,5.921660400390625,0.7765335310563445,-3.183427791786193,-0.909291019424796,0.6194494366645813,-0.5201532244682312,0.3512110412120819
1783202052514597400,5.931597412109375,0.7847718556348234,-2.8558523724555966,-0.739510206824541,0.7784228324890137,-0.4673214852809906,0.42600217461586
1783202052524534500,5.941534423828125,0.6828817261517047,-2.547790047368407,-0.5241688355326652,0.9116445779800416,-0.4521199762821197,0.512201726436615
1783202052534471200,5.95147119140625,0.615463263656199,-2.2082813213989136,-0.3771756088018417,1.0344395637512207,-0.3980074822902679,0.5596046447753906
1783202052544408300,5.961408203125,0.6644374301835895,-1.8121864925935864,0.0043739773005247,1.1274971961975098,-0.3370854258537292,0.5562254786491394
1783202052554345500,5.971345458984375,0.6471876046970486,-1.4240095973059534,0.3965928414553403,1.1980140209197998,-0.2962287962436676,0.537200391292572
1783202052564282400,5.981282470703125,0.642519393690303,-1.174797228333354,0.5702677388846874,1.2519665956497192,-0.2573796808719635,0.5255699157714844
1783202052574219500,5.991219482421875,0.6426250460218638,-1.02071784273386,0.6620961277544498,1.2896852493286133,-0.25222247838974,0.5258586406707764
1783202052584156200,6.00115625,0.6138048289246857,-0.7839800476700067,0.6586725830465555,1.3414455652236938,-0.2115812301635742,0.5212900638580322
1783202052594093300,6.01109326171875,0.6943918389424681,-0.4748460016980766,0.7034200717896223,1.3878275156021118,-0.1234798654913902,0.4775718450546264
1783202052604029400,6.021029541015625,0.5868922720797359,-0.2302723984420299,0.7743108865708113,1.3992316722869873,-0.0085394345223903,0.4351407885551452
1783202052613966600,6.030966552734375,0.4287341657992452,-0.0510422049731016,0.9334545698225498,1.3484419584274292,0.113654650747776,0.4178536534309387
1783202052623903200,6.0409033203125,0.3768394356500357,0.0426946478664875,1.150133911719918,1.2343438863754272,0.240071639418602,0.4285123646259308
1783202052633840400,6.05084033203125,0.3802296626102179,0.0988639865949749,1.3843722911834715,1.118032455444336,0.3494889438152313,0.4592742621898651
1783202052643777300,6.06077734375,0.4239898208163678,0.127963532090187,1.3462398366659878,1.034969925880432,0.4217250049114227,0.5099243521690369
1783202052653714400,6.07071435546875,0.4110373271975666,0.2512310153186321,1.0003080919116736,0.9703717827796936,0.4051050245761871,0.5449515581130981
1783202052663651600,6.080651611328125,0.3610460195168852,0.6106815823376178,0.5791659156113863,0.8896174430847168,0.2404206246137619,0.5372889637947083
1783202052673588200,6.090588134765625,0.3006225304752588,1.108378590530157,0.1442716928124427,0.7813308835029602,0.0237117502838373,0.4573384523391723
1783202052683525400,6.100525390625,0.1989044696234166,1.6839152097284793,-0.2354974396139383,0.7016292810440063,-0.1402579545974731,0.3333081901073456
1783202052693461500,6.11046142578125,0.0529929006494581,2.0942180121064187,-0.426722606781125,0.6687136888504028,-0.2828944623470306,0.1988760977983474
1783202052703398400,6.1203984375,-0.09227810539864,2.269713987483084,-0.6319856516510248,0.627754271030426,-0.207488939166069,0.0432783663272857
1783202052713335300,6.130335205078125,-0.1363276019401848,2.5906492381468413,-0.5123018721282482,0.5571754574775696,-0.108607642352581,-0.0848503038287162
1783202052723272400,6.1402724609375,0.0637052871912717,2.936549418719113,-0.0819359404087066,0.5156967639923096,-0.0097660161554813,-0.1058074235916137
1783202052733209300,6.150209228515625,0.012092588853836,2.242975325900316,0.146236855405569,0.4513790309429168,0.1741193979978561,-9.29743982851e-05
1783202052743146500,6.160146484375,0.0172699914917349,1.6020856523036957,0.4958008191823959,0.3302700817584991,0.3227243721485138,0.172408640384674
1783202052753083400,6.17008349609375,0.0388359266117215,1.4653957929223775,0.8850140717804431,0.1640917807817459,0.254964530467987,0.2676834762096405
1783202052763020300,6.180020263671875,-0.7377034496635199,1.610247915971279,0.9149977066338062,-0.0582527667284011,0.2847787737846374,0.2445344775915146
1783202052772957400,6.18995751953125,-1.4444421444818376,1.9351690214008093,0.8700596637547016,-0.2936085760593414,0.4454616606235504,0.162873163819313
1783202052782893300,6.199893310546875,-0.8260990876056253,2.1796149066239594,1.0854226623564958,-0.5547122955322266,0.5254421830177307,0.053257368505001
1783202052792830500,6.20983056640625,-0.743316905631125,2.058192174479365,0.7426257084965705,-0.8454713821411133,0.4444421231746673,-0.0733911246061325
1783202052802767400,6.219767333984375,-0.8161756594844162,1.962245536635816,0.0802560244977474,-1.1020427942276,0.1904312372207641,-0.2671510279178619
1783202052812705500,6.22970556640625,-0.9144822313923388,2.047007640381157,-0.4706850826263427,-1.3198598623275757,-0.054551888257265,-0.5305168628692627
1783202052822642700,6.239642578125,-0.7856732614539563,2.111362039130926,-0.5102309110730886,-1.543757677078247,-0.2027916610240936,-0.7433823943138123
1783202052832579600,6.24957958984375,-0.4930288702510297,1.923037269580364,-0.3484305758327246,-1.6674928665161133,0.1157237365841865,-0.9613834619522096
1783202052842516500,6.2595166015625,0.1063287695176899,1.8484429241061209,0.2532008540868759,-1.7036463022232056,0.5207552909851074,-1.1522949934005735
1783202052852453400,6.269453369140625,-0.0088172204449772,1.5676169809907674,-0.0691390026777982,-1.6717467308044434,0.7617630958557129,-1.3036082983016968
1783202052862389500,6.279389404296875,-0.1204164046462625,1.0649871925711631,-0.4613631275296211,-1.4781831502914429,0.5873239636421204,-1.343065619468689
1783202052872326700,6.28932666015625,0.1910671270612627,0.4355559015780687,-1.6833476389735935,-1.2565338611602783,0.1680153608322143,-1.221216917037964
1783202052882263300,6.29926318359375,0.3547856439478695,-0.3097615302205085,-2.447221887204051,-1.0002118349075315,-0.1770106256008148,-0.9787537455558776
1783202052892200400,6.309200439453125,0.7097783547751605,-0.6932756943941116,-2.3418945498138664,-0.7536457777023315,-0.4621464610099792,-0.6758766770362854
1783202052902137600,6.3191376953125,0.880735225417465,-0.6679544983938336,-1.981007227990031,-0.5392010807991028,-0.5927172899246216,-0.3623644709587097
1783202052912074500,6.329074462890625,0.9144058782204983,-0.5790554409742354,-1.184769171771407,-0.339227557182312,-0.5476792454719543,-0.1051427945494651
1783202052922011600,6.33901171875,0.5529886873036622,-0.4918608493849635,-0.5458709642529487,-0.1184273809194564,-0.5029274225234985,0.0732057765126228
1783202052931948500,6.348948486328125,0.1699598224289715,-0.432891943065822,-0.2741355055660009,0.0743956118822097,-0.3748024404048919,0.1526119261980056
1783202052941884400,6.358884521484375,0.0574052371989935,-0.377091145388782,-0.2304991929352283,0.1766213178634643,-0.2443336993455886,0.1467954218387603
1783202052951821600,6.368821533203125,-0.0172531134221702,-0.246583481773734,-0.0674725307703018,0.2144280821084976,-0.1413066536188125,0.0948693752288818
1783202052961758700,6.3787587890625,-0.1674449169985949,-0.1244043783038854,0.1314303314179182,0.2421370893716812,-0.0317085869610309,0.0186294298619031
1783202052971695400,6.3886953125,-0.407737774195522,0.0396548417791724,0.289741655498743,0.2924894690513611,0.0303539857268333,-0.0598019957542419
1783202052981632500,6.398632568359375,-0.6101459410909563,0.1317857207268476,0.2881488333493471,0.3332502245903015,0.0215005408972501,-0.1224671304225921
1783202052991569400,6.4085693359375,-0.5608701612684875,0.0547793456748127,0.1814823563098907,0.3088426291942596,-0.0088424514979124,-0.1514516323804855
1783202053001506600,6.418506591796875,-0.2748465764448046,-0.0815446030035614,0.193024325543642,0.2374097555875778,-0.0322363264858722,-0.149895429611206
1783202053011442400,6.4284423828125,0.0102859778232872,-0.1680938824266195,0.2953238395452499,0.1642908006906509,-0.053418044000864,-0.1324642449617386
1783202053021379600,6.438379638671875,0.1738265077944845,-0.2767074018806219,0.3775134624540806,0.0932186022400856,-0.0664439648389816,-0.0913268476724624
1783202053031316500,6.44831640625,0.2163568319447338,-0.428921578130126,0.3613262977629899,0.0163275524973869,-0.0818759128451347,-0.0354289598762989
1783202053041253600,6.458253662109375,0.2493145872380584,-0.4715142269268632,0.3291962985306978,-0.0479827672243118,-0.081403873860836,0.0118478825315833
1783202053051190500,6.4681904296875,0.2866607136834412,-0.3213186970233917,0.2983943330317735,-0.0993069410324096,-0.0649519264698028,0.0295720193535089
1783202053061127400,6.47812744140625,0.2167988035585731,-0.1584960329979658,0.3199702050238847,-0.1332724690437317,-0.0082888808101415,0.020888078957796
1783202053071064600,6.488064697265625,0.0631323096089065,-0.0671352616399526,0.3526794654488563,-0.1453206092119217,0.0413319356739521,-0.0101057896390557
1783202053081000400,6.49800048828125,-0.1037001745797693,-0.0045145548149943,0.3018225539147853,-0.1400780379772186,0.0078865615651011,-0.046198159456253
1783202053090937600,6.5079375,-0.0995222313079983,0.0108592476665973,0.0345236163705587,-0.1218481808900833,-0.1017709597945213,-0.0550244078040123
1783202053100874500,6.51787451171875,0.0993926135789602,-0.0121048638135194,-0.3640045770615339,-0.087985023856163,-0.2523307800292969,-0.0485238805413246
1783202053110811400,6.527811279296875,0.4144497659895569,-0.0362093775004148,-0.5380220043182373,-0.0164597071707248,-0.2806537747383117,-0.0246819294989109
1783202053120748500,6.53774853515625,0.4636822911921888,-0.0185164844214916,-0.0409475119382143,0.0280736908316612,-0.0813145190477371,-0.0092186592519283
1783202053130685400,6.547685546875,0.0100292996484786,-0.2320978603035211,0.4302268155097961,0.0721106603741645,0.1015714108943939,-0.0158512629568576
1783202053140622600,6.55762255859375,-0.2806748442068696,-0.4615399454012512,0.4682546406090259,0.0976936593651771,0.1714293509721756,0.0104669854044914
1783202053150558500,6.567558349609375,0.021226474032551,-0.6067538874998688,0.1062684176325798,0.0992867574095726,0.1701211929321289,0.0634007677435875
1783202053160495600,6.57749560546875,0.4247767334103584,-0.6205398362681269,-0.2306815637648105,0.1035384982824325,0.1457234472036361,0.1233109757304191
1783202053170432500,6.5874326171875,0.5527003718815744,-0.596462502849102,-0.2983013940513134,0.0920847728848457,0.0937436074018478,0.1699730306863784
1783202053180369700,6.59736962890625,0.5013219206914306,-0.6480272703915834,-0.3916396029621362,0.0651237294077873,0.0336517691612243,0.2209941297769546
1783202053190306300,6.607306396484375,0.3769021256227046,-0.6580234714880585,-0.5063087691932916,0.0498675480484962,-0.016502745449543,0.2666273713111877
1783202053200243500,6.617243408203125,0.2816032841634005,-0.4972206228524446,-0.5758668740659952,0.0661628916859626,-0.0817224904894828,0.2742738425731659
1783202053210180600,6.6271806640625,0.2715454160075634,-0.1978893012315034,-0.6256564486294984,0.1180511265993118,-0.1279826611280441,0.2600461840629577
1783202053220116700,6.63711669921875,0.2547827164508402,0.0191565358906984,-0.5751701239734888,0.162845179438591,-0.0913831144571304,0.245668739080429
1783202053230053400,6.647053466796875,0.108836587620154,-0.0128711720108985,-0.3205482971727847,0.1822897046804428,0.0238220375031232,0.2533114850521087
1783202053239990500,6.656990478515625,-0.1648780621852725,-0.0511298832565546,-0.0941536169469356,0.1943816244602203,0.121280200779438,0.2578701376914978
1783202053249927400,6.666927490234375,-0.3212311648704111,0.0126361942112445,-0.0389554613381624,0.194387212395668,0.1777027398347854,0.2503475248813629
1783202053259864600,6.676864501953125,-0.2571637663684785,-0.0044309681847691,-0.0067348612129688,0.1799023598432541,0.2206314653158188,0.248956948518753
1783202053269801700,6.6868017578125,-0.1511690511107444,-0.0763417736634612,-0.082573069268465,0.1728007644414901,0.1854838579893112,0.2628461122512817
1783202053279737600,6.696737548828125,-0.0554066837929189,-0.1539139659047126,-0.2622685421615839,0.1793259233236313,0.0610644109547138,0.3021223247051239
1783202053289674500,6.706674560546875,0.1541193522837013,-0.2107639803737402,-0.4916583125501871,0.1719122231006622,-0.062944084405899,0.3563698530197143
1783202053299611600,6.716611572265625,0.4118763353049754,-0.3057493719696998,-0.5771902316242457,0.1542419344186782,-0.1742812544107437,0.4081910848617553
1783202053309548500,6.726548583984375,0.4916578010935336,-0.3553641744881868,-0.421722606536746,0.1502613127231598,-0.2459168434143066,0.4288510978221893
1783202053319485400,6.7364853515625,0.4080914099387824,-0.3348147229343652,-0.1384106918245554,0.1538802832365036,-0.2517632842063904,0.4209109544754028
1783202053329422600,6.746422607421875,0.2318563796978443,-0.3373559318497777,0.1699620143860578,0.1524954438209533,-0.2010314017534256,0.3758537471294403
1783202053339358500,6.7563583984375,0.0063140785176306,-0.3848389830365776,0.4664052133500576,0.1525952816009521,-0.1062047258019447,0.3284449875354767
1783202053349295600,6.766295654296875,-0.1719885517776012,-0.5210054030656814,0.722458534258604,0.1364879608154297,0.003946014214307,0.2881132960319519
1783202053359232500,6.776232421875,-0.2428895226266235,-0.71299161773324,0.9064081574648618,0.1007541120052337,0.1154861152172088,0.2632570564746856
1783202053369169400,6.78616943359375,-0.1582527988266199,-1.0152844195082784,1.031206503522396,0.0411520339548587,0.2397159188985824,0.2659399509429931
1783202053379106600,6.7961064453125,0.0859010446473956,-1.43100018684566,1.107896944493055,-0.0334072485566139,0.4164460897445678,0.2975888848304748
1783202053389043500,6.80604345703125,0.3073978698290884,-2.026573047378659,1.197031856495142,-0.1378116756677627,0.5419643521308899,0.3603995442390442
1783202053398979300,6.815979248046875,0.4743520807012915,-2.8834435592144727,1.0551689783900975,-0.2599133849143982,0.5232189893722534,0.5064843893051147
1783202053408916500,6.82591650390625,0.9493968198418616,-3.7413594884499903,0.4982821146041155,-0.3680646419525146,0.3918683528900146,0.756325900554657
1783202053418853600,6.835853515625,1.9046976030305027,-4.319584323818981,-0.1952566146403551,-0.4550271034240722,0.2149000912904739,1.074378490447998
1783202053428790500,6.84579052734375,2.6580238615006206,-4.4703091382935645,-0.7804705782443284,-0.4945423007011413,0.0568883493542671,1.39263653755188
1783202053438727700,6.855727783203125,2.8447826969087124,-4.238315615147352,-1.1438052932202816,-0.4594011008739471,-0.0795403271913528,1.6289995908737185
1783202053448663600,6.86566357421875,2.4999738187044858,-3.659600950434804,-1.3481488851577044,-0.3422041535377502,-0.1818621754646301,1.7386987209320068
1783202053458600400,6.875600341796875,1.9007666933223604,-2.7536893443152306,-1.4638526551336049,-0.1188508123159408,-0.234401524066925,1.7438504695892334
1783202053468537600,6.88553759765625,1.3451327522069214,-1.8125608788639307,-1.528874285620451,0.1827995777130127,-0.1873562484979629,1.6829400062561035
1783202053478474500,6.895474609375,0.8831344685789198,-1.0387117645859718,-1.456373697555065,0.510259747505188,-0.044565126299858,1.5869306325912476
1783202053488411400,6.905411376953125,0.4747324583210051,-0.4742418983250856,-1.2680483434826135,0.7912682294845581,0.1096814349293708,1.4882251024246216
1783202053498348500,6.9153486328125,0.264651637905836,-0.1855319239616394,-1.151279574623704,0.953972101211548,0.2077143937349319,1.4254533052444458
1783202053508284700,6.92528466796875,0.3610311142086982,-0.0557180878296494,-1.1830495083719492,0.990962564945221,0.1908147782087326,1.4177613258361816
1783202053518221600,6.9352216796875,0.6053799687981605,0.0802528096273541,-1.3766706307649612,0.9204758405685424,0.0671961903572082,1.4482747316360474
1783202053528158500,6.945158447265625,0.923251228781417,0.3569371228933334,-1.618560401764512,0.7794164419174194,-0.1344908475875854,1.479992389678955
1783202053538095400,6.955095458984375,1.1212540003247558,0.7962091223850846,-1.5921189695626496,0.5910491347312927,-0.3632565140724182,1.5045219659805298
1783202053548032500,6.965032470703125,1.142271507781744,1.2014414896309376,-1.3622604126185178,0.3848600685596466,-0.5754132270812988,1.5177459716796875
1783202053557968600,6.97496875,1.006239527787268,1.545515623819828,-0.9964753818809986,0.1877961009740829,-0.7537688612937927,1.49379301071167
1783202053567905500,6.984905517578125,0.7988704505488275,1.961760675728321,-0.5927274079740047,0.0288959369063377,-0.8773192763328552,1.4283041954040527
1783202053577842400,6.994842529296875,0.5688318608626723,2.3715090590938925,-0.1516834303736686,-0.0785627365112304,-0.9526687860488892,1.3315898180007937
1783202053587779600,7.004779541015625,0.3121310358308256,2.705337985861301,0.2453518941521644,-0.12872976064682,-0.973452627658844,1.2308536767959597
1783202053597716500,7.014716552734375,0.1009562826991081,2.9214456653505563,0.5655944863766431,-0.1414073556661605,-0.9923961758613586,1.1422806978225708
1783202053607652400,7.02465234375,0.0278697114393115,2.9801310785532,0.8182908980727195,-0.1469264924526214,-0.9790763854980468,1.08601713180542
1783202053617589500,7.034589599609375,0.1256700143255293,2.889341092820465,1.0518477250128984,-0.1998975574970245,-0.9718748331069946,1.030345439910889
1783202053627526400,7.0445263671875,0.2062389041647314,2.738642289569974,1.3974538910746577,-0.3213382363319397,-0.9838886260986328,0.9626436233520508
1783202053637463600,7.054463623046875,0.2178868179909884,2.541904496461153,1.7346937953293322,-0.4836851358413696,-0.9916120171546936,0.8914536833763123
1783202053647400700,7.064400634765625,0.1427799929499626,2.287042138902843,2.0408160922646523,-0.6491361856460571,-0.9975208044052124,0.8480960726737976
1783202053657336600,7.074336669921875,0.1990238582193851,1.984220929339528,2.259406820741296,-0.818078875541687,-0.998900830745697,0.8478396534919739
1783202053667273500,7.0842734375,0.415985816450417,1.6196151715144511,2.342052370724082,-1.0243207216262815,-0.9592977166175842,0.8627357482910156
1783202053677210600,7.094210693359375,0.5233475822776555,1.2472023932002485,2.4945114616453647,-1.2741222381591797,-0.914666712284088,0.8817673325538635
1783202053687147500,7.1041474609375,0.5396034282907843,0.958609469345212,2.7034710229456422,-1.546149492263794,-0.8046624660491943,0.9173133373260498
1783202053697084400,7.11408447265625,0.4888996614918112,0.7356720899663866,2.8210961163729427,-1.7847577333450315,-0.6798573136329651,0.9677820205688475
1783202053707020500,7.1240205078125,0.3372431191250681,0.6184720900833607,2.5857313632279637,-1.9629924297332764,-0.6053194403648376,0.996533751487732
1783202053716957700,7.133957763671875,0.2528530635625123,0.6670360683746636,2.029399210715294,-2.07581114768982,-0.5934333801269531,0.9904459714889526
1783202053726894600,7.14389453125,0.2082216024145483,0.8230524133861065,1.37408061427176,-2.123195171356201,-0.6194713711738586,0.956487238407135
1783202053736831500,7.15383154296875,0.1211021218881011,0.9530225360583512,0.643203211236,-2.0863161087036133,-0.6333706974983215,0.9005432724952698
1783202053746768400,7.163768310546875,0.0056634325891733,1.1581335321716963,0.0596048661351203,-1.959449887275696,-0.5623314380645752,0.833052396774292
1783202053756704500,7.17370458984375,-0.2668982477888464,1.339058254598826,-0.2507330026686191,-1.7281813621520996,-0.3946997225284576,0.7362369894981384
1783202053766641700,7.1836416015625,-0.6038958677202463,1.503573547886312,-0.3667109134107827,-1.4426833391189575,-0.1524956077337265,0.614413857460022
1783202053776578300,7.193578369140625,-0.7793097177714109,1.6306548903144895,-0.4580278456270694,-1.3467096090316772,0.3082238435745239,0.2950301766395569
1783202053786515500,7.203515380859375,-0.6815949012115597,1.7602448545627294,-0.4267582626163959,-1.3918123245239258,0.2609900236129761,-0.0568514391779899
1783202053796452600,7.21345263671875,-0.8654442789137363,1.7978076924987136,-0.5625760153383016,-1.382471799850464,0.0691958367824554,-0.091665543615818
1783202053806388700,7.223388671875,-1.1556655346229672,1.121427311065048,-1.1565671596378089,-1.3543708324432373,-0.0560877881944179,-0.0457057729363441
1783202053816324400,7.233324462890625,-0.6964888112217188,0.7986369340538978,-1.3421370775222778,-1.2912580966949463,-0.1837452501058578,-0.0821421295404434
1783202053826261200,7.24326123046875,-0.4241229456767439,0.7304321434862912,-1.4481822077929971,-1.2141430377960205,-0.1878843307495117,-0.1400845199823379
1783202053836198400,7.253198486328125,-0.3583046118542551,0.6212748725444078,-1.238522389268875,-1.0946531295776367,-0.1497781127691269,-0.1766975224018097
1783202053846135000,7.263135009765625,-0.4127329521343111,0.387825159240514,-0.999559319370985,-0.9287025332450868,-0.1694255918264389,-0.1373642235994339
1783202053856071200,7.2730712890625,-0.4243625996515154,-0.0298109086349606,-1.0685936926305293,-0.7140265703201294,-0.1566510200500488,-0.0092795174568891
1783202053866008300,7.28300830078125,-0.2690741305232048,-0.4833373511895537,-1.223436463817954,-0.5769878029823303,-0.1074051707983017,0.0050940955989062
1783202053875945200,7.2929453125,-0.051136605258286,-0.6295445421092212,-1.1786439668893811,-0.477714866399765,-0.1423141062259674,-0.0293238945305347
1783202053885882000,7.302882080078125,-0.1235150282487273,-0.7024528341926634,-1.2570131547272203,-0.3630407452583313,-0.1986607313156128,-0.02894838899374
1783202053895818200,7.312818359375,-0.0887269157230854,-0.8035477947100996,-1.363537592947483,-0.226732388138771,-0.3068137168884277,-0.0175032503902912
1783202053905755400,7.32275537109375,-0.0202042913779616,-0.8576119778528809,-1.5508388646692035,-0.0995115786790847,-0.4513930082321167,-0.0261201746761798
1783202053915692300,7.3326923828125,0.0555152587339282,-0.6760939657077193,-1.522426424655318,0.0387181043624877,-0.5576164126396179,-0.0422197543084621
1783202053925629200,7.342629150390625,0.1095432015195488,-0.3824707926005125,-1.185222176235914,0.1982337385416031,-0.5694435238838196,-0.0490310564637184
1783202053935566000,7.352566162109375,0.1192255143612623,-0.1712586300678551,-0.6938087783575058,0.3715928792953491,-0.5069127678871155,-0.040107637643814
1783202053945502200,7.362502197265625,0.05989449673146,0.0796976234300062,-0.1770674624770879,0.526930034160614,-0.4006201922893524,-0.0307604782283306
1783202053955439400,7.372439453125,-0.0029389760613441,0.4859601009085774,0.2599433140844106,0.6346743702888489,-0.3042165338993072,-0.0255476236343383
1783202053965376300,7.382376220703125,-0.0538151768177747,0.9761236448563636,0.5760334628045558,0.6823704838752747,-0.2505863308906555,-0.0302164107561111
1783202053975313200,7.392313232421875,-0.2065647751182317,1.4510400814421474,0.7901485071718692,0.6582027673721313,-0.2173496037721634,-0.0572932735085487
1783202053985249300,7.402249267578125,-0.3170394122689962,1.7958068740703164,1.022560840252042,0.5756117701530457,-0.1818693727254867,-0.0895657241344451
1783202053995186400,7.4121865234375,-0.3792781340390443,1.9954485719271,1.261081427079439,0.4232657253742218,-0.1520661115646362,-0.1194017007946968
1783202054005123000,7.422123046875,-0.4254612085431813,1.974229842809588,1.4454180037766695,0.2094050794839859,-0.1167368963360786,-0.1498826295137405
1783202054015060200,7.432060302734375,-0.4053457644924521,1.8440544798888263,1.5674650052994488,-0.0444532483816146,-0.1019263267517089,-0.1868026703596115
1783202054024997000,7.4419970703125,-0.3717392629668116,1.6758740882225334,1.5951760190457105,-0.3142330646514892,-0.0890651196241378,-0.2200120240449905
1783202054034933200,7.451933349609375,-0.3207236537396907,1.4884507975563406,1.5907833370447158,-0.5188702344894409,-0.0218325722962617,-0.2442967742681503
1783202054044870100,7.4618701171875,-0.2249099946260452,1.220145459448546,1.4739409184277057,-0.6292648911476135,0.0750617459416389,-0.2619604766368866
1783202054054807300,7.471807373046875,-0.0737467887341976,0.9179488115243614,1.2191045720934868,-0.6470946669578552,0.1697521209716797,-0.2671612799167633
1783202054064744200,7.481744140625,0.106978611728549,0.6490978222325444,0.8171978421390056,-0.5921465158462524,0.2380989640951156,-0.2525705993175506
1783202054074680300,7.491680419921875,0.3193459356456994,0.4009392000965774,0.3738543554246425,-0.4992748498916626,0.2344487905502319,-0.2397099882364273
1783202054084617200,7.5016171875,0.4631447502493858,0.2688391527235508,-0.0454927541524171,-0.3780863881111145,0.2211939692497253,-0.2373152673244476
1783202054094554000,7.51155419921875,0.5500421124577521,0.2107053820542991,-0.3166027744174003,-0.3367909789085388,0.193361222743988,-0.2489580363035202
1783202054104491300,7.5214912109375,0.5685629807934165,-0.0967960942797362,-0.3968775036156177,-0.4059735238552093,0.0260278917849063,-0.252008706331253
1783202054114427400,7.531427490234375,0.6253893221259117,-0.6566445843502878,-0.5077209740787744,-0.4724180698394775,-0.1053485125303268,-0.1815515160560608
1783202054124364000,7.541364013671875,0.8269780623972416,-0.8453221128612757,-0.5185755455702543,-0.9975289702415466,0.0707732588052749,-0.1904440820217132
1783202054134301200,7.55130126953125,1.1678691826358436,-3.9904181281656026,0.1290618487209081,-1.3074661493301392,-0.0025728484615683,-0.2954917550086975
1783202054144238300,7.56123828125,1.4757380309775472,-1.8757168616093691,1.0024784216880798,-0.9102419018745422,-0.1196070611476898,0.0104655148461461
1783202054154175200,7.57117529296875,0.6652496233493089,0.4290700466901063,0.0853740981638431,-0.4615729451179504,0.184658795595169,0.2277731895446777
1783202054164111000,7.581111083984375,0.1290294077560305,-2.0086723567679523,-0.237014273917675,-0.1860603988170623,0.4095824658870697,0.1850859224796295
1783202054174048300,7.59104833984375,-0.1017977019593119,-0.3922155762191862,0.0368009136527776,0.0063969157636165,0.5199148654937744,0.1076907888054847
1783202054183985200,7.600985107421875,-0.4716369765236973,0.405955347758159,-0.0574929885476827,0.1940264701843261,0.5146729946136475,0.0195036698132753
1783202054193921300,7.61092138671875,-0.5753641852408647,0.3858545898199081,-0.6016799452364444,0.3164481222629547,0.3290043771266937,-0.0279851071536541
1783202054203858200,7.620858154296875,-0.4430307675033808,0.6855785640202462,-1.1436088938653468,0.3501554727554321,0.1009709239006042,-0.0695615783333778
1783202054213795000,7.630795166015625,-0.3079325612276792,0.9608199850015342,-1.2073708796799183,0.3752549588680267,-0.0825360566377639,-0.1077606305480003
1783202054223732200,7.640732177734375,-0.3462836269319057,1.02246117926985,-0.9730243636667728,0.4266007244586944,-0.1328676640987396,-0.1343842446804046
1783202054233669400,7.65066943359375,-0.3432373911038041,0.9894606808133424,-0.5453560004681348,0.4624439179897308,-0.0762747004628181,-0.120144322514534
1783202054243605200,7.660605224609375,-0.1648638144642114,0.5820877944074571,-0.0251139829903841,0.4269991219043731,-0.0247846059501171,-0.0781912803649902
1783202054253542100,7.670542236328125,0.1263444064557552,0.498952561211586,0.4042617686480284,0.3157538175582886,0.0043523889034986,-0.0460954941809177
1783202054263479300,7.680479248046875,0.2042480226084589,0.3809991126127541,0.694589699602127,0.1578925549983978,0.0383050292730331,-0.0091372095048427
1783202054273416200,7.690416259765625,0.1938210288792848,0.2696463774532079,0.9517226324409246,-0.001442702487111,0.0863196700811386,0.0269921943545341
1783202054283352000,7.70035205078125,0.2444944005399942,0.1977284115813672,1.1312596999019384,-0.1264986097812652,0.1258012950420379,0.0761152654886245
1783202054293289200,7.710289306640625,0.3564551845952868,0.1313231447163969,1.0574071127057074,-0.2342702746391296,0.1436788737773895,0.1048957481980323
1783202054303226000,7.72022607421875,0.4560445628553629,0.2180292952015995,0.8890449347317219,-0.3161880373954773,0.1572434157133102,0.1206747144460678
1783202054313163300,7.730163330078125,0.4164449583947658,0.2367018469676375,0.7290934422284364,-0.3639989793300628,0.1898832023143768,0.1362478882074356
1783202054323099100,7.74009912109375,0.3202642195343971,0.1881564272463321,0.6208341430395842,-0.3523710966110229,0.2209942489862442,0.1436666548252105
1783202054333036300,7.750036376953125,0.2333843929827213,0.2495408702746033,0.4359732502073049,-0.2667413353919983,0.2893075942993164,0.1412056386470794
1783202054342973200,7.75997314453125,0.0648445203542709,0.3834618494644761,0.2195516824632883,-0.1168671548366546,0.3547241687774658,0.0999956279993057
1783202054352909300,7.769909423828125,-0.1216831366464495,0.5979431698609143,-0.0290372939139604,0.1157207787036895,0.4122764766216278,0.0785410329699516
1783202054362846200,7.77984619140625,-0.2567754977032542,0.8569722917098551,-0.3005494652390479,0.45377978682518,0.5213587284088135,-0.1459322869777679
1783202054372783000,7.789783203125,-0.5476742142826319,2.5256366677492856,-0.4970008426219224,0.5957434773445129,0.5012365579605103,-0.3261076807975769
1783202054382720300,7.79972021484375,-1.0047603951454165,1.7705920610539614,-0.7503495807468891,0.560259222984314,0.4341666996479034,-0.2148895561695099
1783202054392656400,7.809656494140625,-0.1839934623479843,-0.663716422432661,-0.4601870694875717,0.578097939491272,0.3667666912078857,-0.0695883184671402
1783202054402593000,7.819593017578125,1.15778618003875,0.0764215609014034,-0.1392611711740493,0.71990567445755,0.3723918199539184,0.0344981402158737
1783202054412530200,7.8295302734375,1.104658108702302,0.238415811278671,-0.1812105536311865,0.9041950702667236,0.4586396217346191,0.0514574162662029
1783202054422467300,7.83946728515625,0.4663911848247051,0.4788755129424855,0.0220844060361385,1.0342929363250732,0.535386323928833,-0.0209118574857711
1783202054432403200,7.8494033203125,-0.1564227338552475,0.979157751855254,0.2077659676015377,1.0880084037780762,0.5557750463485718,-0.1384613811969757
1783202054442340000,7.859340087890625,-0.586001606850326,1.3840643942780793,0.1866588821649551,0.9502920508384703,0.4871748983860016,-0.271554172039032
1783202054452277200,7.86927734375,-0.8234016652151942,0.3497537872605025,0.1763099221080541,0.8325901627540588,0.4261382222175598,-0.2546316385269165
1783202054462214100,7.879214111328125,-0.2036158621847629,-0.3543232871331274,0.3707639881938696,0.7913807034492493,0.38733971118927,-0.1836650520563125
1783202054472150300,7.889150390625,0.5915829141139983,0.4319771663084626,0.2432148821234702,0.8929666876792908,0.3935081958770752,-0.1581273674964904
1783202054482087200,7.899087158203125,0.6492986055016517,0.6163081900477408,-0.1665209340214729,1.017486572265625,0.4007453322410583,-0.1709494292736053
1783202054492024000,7.909024169921875,0.4540092576354742,1.2230224031243473,-0.6064724402099847,1.0771938562393188,0.3100482523441314,-0.269335925579071
1783202054501961200,7.918961181640625,-0.0896565977886319,1.8822724207326769,-0.875538387426734,1.0580319166183472,0.1949272453784942,-0.4010572135448456
