time,seconds_elapsed,ax,ay,az,gx,gy,gz
1783202018053951700,0.09795166015625,-0.3337766120582818,0.2512362760156393,0.0215068984091281,0.0342160463333129,0.1261082589626312,-0.1076084300875663
1783202018063889000,0.107888916015625,-0.3208011028900742,0.2619119838088751,0.0958756184339523,0.0095711853355169,0.1837742179632187,-0.1346030980348587
1783202018073825800,0.11782568359375,-0.3329041766053065,0.2665542566567659,0.2009983731627464,-0.024585984647274,0.2641521394252777,-0.1500981599092483
1783202018083763000,0.127762939453125,-0.3721381991565227,0.2710603359043598,0.2800654801368713,-0.0688149333000183,0.3290345966815948,-0.1554912030696869
1783202018093698800,0.13769873046875,-0.4018000547096133,0.2618868493676185,0.2299187626987695,-0.1165449023246765,0.3704369068145752,-0.1337526142597198
1783202018103635700,0.1476357421875,-0.3622986499264836,0.2349859829604625,0.0442161583453416,-0.1619254350662231,0.3420700430870056,-0.0974936410784721
1783202018113572900,0.15757275390625,-0.2122533421486616,0.1630477049529552,-0.3101800478935241,-0.1876254677772522,0.2259378433227539,-0.0746485143899917
1783202018123509800,0.167509765625,-0.0578209053277969,0.2084048500269651,-0.6915893487423658,-0.1932284832000732,0.0765984281897544,-0.0878533348441124
1783202018133445600,0.177445556640625,-0.0507873534291982,0.316504574739933,-0.905061419031024,-0.1712976247072219,-0.0678010955452919,-0.1250227987766266
1783202018143382800,0.1873828125,-0.0858773349782451,0.4285930768281221,-0.9865040229648352,-0.1359766870737075,-0.1828647553920745,-0.1550423204898834
1783202018153320000,0.19731982421875,-0.0918853432213887,0.4801572598487138,-0.9123381320357322,-0.1213066726922988,-0.272976279258728,-0.123293712735176
1783202018163256800,0.2072568359375,0.0950116950809955,0.4980377844542265,-0.657720396888256,-0.1575097888708114,-0.3608371913433075,-0.0194599665701389
1783202018173192700,0.217192626953125,0.2605278725067153,0.556198881521821,-0.2213099243074655,-0.2214179337024688,-0.4472306668758392,0.0381878837943077
1783202018183129900,0.2271298828125,-0.0766831344470381,0.721499918359518,0.0995090065002441,-0.2931083738803863,-0.4930817782878876,-0.0490199886262416
1783202018193066800,0.237066650390625,-0.7127975564658642,1.0523469067066906,0.3082826898396015,-0.3617776930332184,-0.4764852523803711,-0.250585675239563
1783202018203004000,0.24700390625,-1.287104049347341,1.3160504501074552,0.4027694842636585,-0.398238867521286,-0.415701299905777,-0.4914506673812866
1783202018212941000,0.256941162109375,-1.5617045420765876,1.2608774289399385,0.2874783867418766,-0.3801863491535187,-0.3390131890773773,-0.6967118978500366
1783202018222876700,0.266876708984375,-1.4917504236236214,1.0153525163084267,-0.0003758475750684,-0.2998113930225372,-0.291934609413147,-0.8349176049232483
1783202018232813800,0.276813720703125,-1.0603110174536703,0.8000070533633231,-0.3705208270877599,-0.1726992577314376,-0.2947607338428497,-0.9234296083450316
1783202018242751000,0.2867509765625,-0.561182222892344,0.6352718337148427,-0.7554033570051193,-0.0356926880776882,-0.3198045194149017,-0.9753665328025818
1783202018252688000,0.29668798828125,-0.1762199057370424,0.432015452492237,-0.9597925416499375,0.0952962264418602,-0.3255558907985687,-0.9883987307548524
1783202018262623700,0.306623779296875,0.1231689912900328,0.1477344004869461,-0.993820483458042,0.2054343670606613,-0.3175223767757416,-0.9655592441558838
1783202018272561000,0.316560791015625,0.3018745763629675,-0.1327519354104995,-0.9883400062203408,0.3006761968135834,-0.3347221314907074,-0.9227249622344972
1783202018282497800,0.326497802734375,0.4114478807598352,-0.3036398324698209,-0.976245079278946,0.3548499941825866,-0.3973051607608795,-0.8694409132003784
1783202018292435000,0.33643505859375,0.5345739096909761,-0.333194428256154,-0.870972686946392,0.3683556914329529,-0.4664014279842376,-0.8190757036209106
1783202018302371800,0.346371826171875,0.5233405680149793,-0.3179448366761207,-0.6842834096431731,0.3245401978492737,-0.496628850698471,-0.7674873471260071
1783202018312307700,0.3563076171875,0.4835852250033989,-0.3416758408755064,-0.3923410292297601,0.2370535135269165,-0.5154637694358826,-0.7116283774375916
1783202018322244900,0.366244873046875,0.4732286296293139,-0.3825882815003394,-0.1093178683310747,0.120445892214775,-0.545709490776062,-0.6473711133003235
1783202018332182000,0.37618212890625,0.4789294716194271,-0.3389046225965023,0.0793143597334623,0.0076168063096702,-0.5879895687103271,-0.585247278213501
1783202018342118700,0.38611865234375,0.4183411474049091,-0.2374374677658081,0.1599468163281679,-0.083402082324028,-0.6329162120819092,-0.5457859039306641
1783202018352054800,0.3960546875,0.2574246092617511,-0.0584977816760539,0.1739332561045884,-0.1420755237340927,-0.6777915358543396,-0.5338208079338074
1783202018361992000,0.405991943359375,0.0329737565800547,0.2083481514036655,0.1168657994925975,-0.1687249988317489,-0.728718638420105,-0.5828710794448853
1783202018371928800,0.4159287109375,-0.2291305349305272,0.4699924241870641,0.0324175840020179,-0.1660288125276565,-0.7594696283340454,-0.673597514629364
1783202018381865700,0.42586572265625,-0.4833741760686039,0.6998018812924623,0.07256722356081,-0.1584324091672897,-0.7345266938209534,-0.7762411832809448
1783202018391803000,0.435802978515625,-0.5648135651320219,0.7916419606000185,0.2470183660596609,-0.143033742904663,-0.6395461559295654,-0.8702417016029358
1783202018401739000,0.445739013671875,-0.5372717704728246,0.7065466793775558,0.4676303712308406,-0.1141382902860641,-0.4817903637886047,-0.9377809762954712
1783202018411676000,0.455676025390625,-0.4456041251227259,0.521216999989748,0.6596592559963464,-0.0515595860779285,-0.311186134815216,-0.9597874283790588
1783202018421612800,0.46561279296875,-0.1884323215782642,0.2929518497169017,0.6586036094635724,0.041433148086071,-0.194207489490509,-0.9493000507354736
1783202018431549700,0.4755498046875,0.0649313401211984,0.0932423473209142,0.5238035093516111,0.1424322128295898,-0.1360855996608734,-0.9111793041229248
1783202018441485800,0.48548583984375,0.2255465389639139,0.0026081366717815,0.4286427611887454,0.2288890331983566,-0.1027797982096672,-0.8840181231498718
1783202018451423000,0.495423095703125,0.2184267700865864,0.008843816190958,0.4409948777616024,0.2627410292625427,-0.076241135597229,-0.8743849396705627
1783202018461359600,0.505359619140625,0.2013879570022225,0.0288473242998123,0.5801870753526688,0.2388655394315719,-0.0521936230361461,-0.8858398199081421
1783202018471296800,0.515296875,0.2187462112993002,0.0499053098976612,0.8260720534682273,0.1608868539333343,-0.0214511565864086,-0.9125369787216188
1783202018481234000,0.52523388671875,0.2455161448031664,-0.0103512981444597,1.0752157411187886,0.0657801106572151,0.0135191641747951,-0.9301834106445312
1783202018491170000,0.535170166015625,0.288939691466093,-0.1714367631137371,1.264182900226116,-0.0298199094831943,0.0413806214928627,-0.9316028952598572
1783202018501106700,0.545106689453125,0.4385068603381514,-0.3277922769516706,1.2811083160638808,-0.0998263731598854,0.0796852931380271,-0.919338881969452
1783202018511043800,0.5550439453125,0.6779658970594405,-0.423065253317356,1.2043418872475624,-0.1239258497953414,0.142369195818901,-0.8680347204208374
1783202018520980700,0.564980712890625,1.131127890215814,-0.7032920614957809,1.0460060132473707,-0.0994668900966644,0.2034980803728103,-0.7861995100975037
1783202018530918000,0.57491796875,1.42851041585654,-1.149871461391449,0.8565478557527064,-0.0528397336602211,0.2400451749563217,-0.6500296592712402
1783202018540853800,0.584853759765625,1.7401973611816763,-1.4584668704420327,0.7154653143703937,-0.0039852038025856,0.2136116921901703,-0.4783636331558227
1783202018550791000,0.594791015625,1.8935820425152776,-1.625908426439762,0.5497697252571583,0.0106043918058276,0.1445489972829818,-0.3503438830375671
1783202018560727800,0.604727783203125,2.033929255360365,-1.556358504873514,0.482706359809637,-0.015097239986062,0.0372654199600219,-0.2649379670619964
1783202018570665000,0.6146650390625,2.0119038860350846,-1.439200444436073,0.3782166422873735,-0.074999988079071,-0.0017062141560018,-0.198148027062416
1783202018580601900,0.624601806640625,1.8559110680297013,-1.2865151435434818,0.4792851531893015,-0.1496506631374359,0.0227839238941669,-0.1498286873102188
1783202018590537700,0.634537841796875,1.5955080274790523,-1.2358622301489115,0.56563774099648,-0.2219898402690887,0.0467997752130031,-0.1009847149252891
1783202018600475000,0.644474853515625,1.383659174478054,-1.223880700454116,0.5499310532987117,-0.2754963338375091,0.062024287879467,-0.054604772478342
1783202018610411800,0.654411865234375,1.2726567140609024,-1.0873299572825432,0.5200935489177704,-0.3073855638504028,0.0542276203632354,-0.0039767492562532
1783202018620349000,0.664348876953125,1.2307912104949357,-0.9757570035010577,0.408341146916151,-0.3163425326347351,0.0330137982964515,0.048295509070158
1783202018630284800,0.674284912109375,1.2212819161325692,-0.8688818521469831,0.3182698308467865,-0.3074571490287781,0.0027813266497105,0.0986601486802101
1783202018640222000,0.684221923828125,1.154751926909387,-0.763788908034563,0.2723684958934784,-0.296310156583786,-0.0014551477506756,0.1547425389289856
1783202018650158800,0.694158935546875,1.0397475373744964,-0.6805027220606803,0.2159235550940036,-0.2720293402671814,-0.0129767805337905,0.2035319209098816
1783202018660096000,0.704095947265625,0.8561287535578012,-0.56740942684412,0.1435866331577301,-0.2486737817525863,-0.0406094454228878,0.2483803480863571
1783202018670032600,0.71403271484375,0.6931319020092487,-0.4644698613733053,0.0994318496108055,-0.2314814627170562,-0.0651328936219215,0.296905517578125
1783202018679968800,0.72396875,0.486154746697843,-0.4619979183018207,-0.0409457583725452,-0.2160387486219406,-0.0639623552560806,0.3582783639431
1783202018689906000,0.733906005859375,0.2831885805934667,-0.4291103787004947,-0.1573801807105541,-0.2074479311704635,-0.0371666885912418,0.4062400162220001
1783202018699842800,0.7438427734375,0.1470823663190007,-0.3819593359470367,-0.2964192335665225,-0.1795693933963775,-0.0282831359654665,0.4345426261425018
1783202018709779700,0.75377978515625,0.1350306939974427,-0.3236573691040277,-0.5019949976474046,-0.1424835473299026,-0.0731020122766494,0.4476824104785919
1783202018719716900,0.763716796875,0.2209925289213657,-0.2290466560393571,-0.6657657561779022,-0.1007683798670768,-0.1372437924146652,0.4579518735408783
1783202018729653000,0.773653076171875,0.2857984525646083,-0.1280383508920669,-0.7703887446910143,-0.075973279774189,-0.2081160992383957,0.4448733329772949
1783202018739590000,0.78358984375,0.3056599401205778,-0.0164934541612863,-0.7289993342041969,-0.06600371748209,-0.2634361982345581,0.4166731834411621
1783202018749526800,0.79352685546875,0.2369467616394162,0.0883306098818779,-0.5654132845908403,-0.0624830201268196,-0.2898691296577453,0.370398074388504
1783202018759463700,0.803463623046875,0.1393666773751378,0.1905050361990928,-0.4060200104922056,-0.0565380863845348,-0.2906628549098968,0.3163609504699707
1783202018769401600,0.813401611328125,0.0057116556450724,0.3186252201557159,-0.3333925811767578,-0.0279170908033847,-0.271187424659729,0.2646633982658386
1783202018779337500,0.82333740234375,-0.1772755522698164,0.4367167620509862,-0.3969873937308788,-0.0015000514686107,-0.2680921852588653,0.2439219802618026
1783202018789274400,0.8332744140625,-0.2601455586582422,0.4784568856716156,-0.5105395386308431,0.0044662281870841,-0.3118165135383606,0.2374052256345749
1783202018799211500,0.84321142578125,-0.2665504572644829,0.4699848254024982,-0.6758873372197151,-0.0005129855126142,-0.4142790138721466,0.231149673461914
1783202018809148700,0.853148681640625,-0.2631827343970537,0.4490776464521884,-0.7875655049413443,0.0031507248058915,-0.5945414900779724,0.206719696521759
1783202018819085300,0.863085205078125,-0.263827462041378,0.5374193622499704,-0.6279290697365999,0.0253478214144706,-0.6401940584182739,0.1965876370668411
1783202018829021400,0.873021484375,-0.5790989878550171,0.56541386911273,-0.0277782337635755,0.0347000434994697,-0.4135156273841858,0.1856766641139984
1783202018838958600,0.88295849609375,-0.9448509931057693,0.4375613961815834,0.2938496753394604,0.0511063188314437,-0.1958326995372772,0.1724901646375656
1783202018848895500,0.8928955078125,-0.9286302184060216,0.2999930004000664,0.380246686810255,0.0844200626015663,-0.0701690465211868,0.1684224605560302
1783202018858832400,0.902832275390625,-0.6812731219112873,0.2357055294066667,0.1315513274490833,0.126052975654602,-0.0222671963274478,0.1857835203409195
1783202018868769300,0.912769287109375,-0.3526633910968899,0.1842342853665352,-0.1940215198874473,0.1664238274097442,-0.0308146141469478,0.2199193835258484
1783202018878706400,0.92270654296875,-0.145061637613736,0.1197474924087524,-0.3454506832391023,0.2048310935497284,-0.0404990129172802,0.2527050971984863
1783202018888642600,0.932642578125,-0.0258013807326555,0.099818803101778,-0.3882973067969084,0.2188369333744049,-0.0051732449792325,0.2677407562732696
1783202018898579500,0.942579345703125,-0.0766235132142901,0.0810807848840951,-0.2170464216440916,0.2063715010881424,0.0731523856520652,0.277343213558197
1783202018908516400,0.952516357421875,-0.1551259720429778,-0.0074403791338205,0.0001847089171409,0.16220723092556,0.1599932760000229,0.2761977910995483
1783202018918453500,0.96245361328125,-0.1187847848564386,-0.0520551814079284,0.1618061804592609,0.1074584871530532,0.2442613095045089,0.2524592280387878
1783202018928390400,0.972390380859375,-0.1867962448090314,-0.2208312008798122,0.279724703875184,0.0460185632109642,0.3366887271404266,0.202086865901947
1783202018938326300,0.982326171875,-0.1414627728715539,-0.3687754447251558,0.3728483932524919,-0.007441553287208,0.3471426963806152,0.1398604810237884
1783202018948263400,0.992263427734375,0.1549859790503978,-0.5323819526046514,0.3767459852129221,-0.0452637672424316,0.4068824648857116,0.0875573232769966
1783202018958200600,1.00220068359375,0.5005459678828716,-0.6632885524094104,0.4497171133995056,-0.0430173352360725,0.5432153344154358,0.0750933662056922
1783202018968137500,1.012137451171875,0.8166095208570361,-0.7722744123071432,0.4779962824225425,0.0240660943090915,0.6641683578491211,0.105204127728939
1783202018978074600,1.02207470703125,1.1088836174428462,-0.8914742077052593,0.4541986427277326,0.1271580308675766,0.7226160764694214,0.193957045674324
1783202018988010500,1.032010498046875,1.339016315153241,-0.995551252773404,0.3523679152816534,0.2395886927843094,0.7018929719924927,0.331049382686615
1783202018997947400,1.041947509765625,1.5011401832595466,-0.9861264218240976,0.3101923228532076,0.3419274985790252,0.6153702139854431,0.492245078086853
1783202019007884500,1.051884521484375,1.569818290427327,-0.8933668895840644,0.3609095336556434,0.3968093991279602,0.5209110379219055,0.6287273168563843
1783202019017821400,1.061821533203125,1.5377578492999076,-0.7411527133345603,0.6422761595189571,0.403508186340332,0.5185638070106506,0.7315032482147217
1783202019027758300,1.07175830078125,1.4122192062690853,-0.623227175655961,1.1070791983693835,0.3550921976566314,0.618576169013977,0.8057151436805725
1783202019037695500,1.081695556640625,1.180155248235166,-0.5872551140427589,1.518651582291722,0.2778356075286865,0.7656995058059692,0.8718270063400269
1783202019047631600,1.091631591796875,0.9472568852037192,-0.5480313571572304,1.7341022591769697,0.1477444618940353,0.918213665485382,0.9400665163993835
1783202019057568500,1.101568603515625,0.7306167062729597,-0.5007014507055282,1.7707143722593783,-0.000423364341259,1.0293105840682983,0.9772359132766724
1783202019067505400,1.11150537109375,0.5444710343271494,-0.4102151240944862,1.629849273020029,-0.1381631195545196,1.0829322338104248,0.9912095069885254
1783202019077442300,1.1214423828125,0.4225356764853,-0.335659941586852,1.3346452604621648,-0.2436770051717758,1.09350848197937,1.0011627674102783
1783202019087379500,1.13137939453125,0.4221823330029845,-0.2934405100166797,0.975782137942314,-0.3353251814842224,1.0935732126235962,1.0190515518188477
1783202019097315600,1.141315673828125,0.4755918516293168,-0.2039244897425174,0.7182832944005727,-0.3978657722473144,1.0830610990524292,1.0282665491104126
1783202019107252500,1.15125244140625,0.5047822902783751,-0.1603764399170875,0.5124778132170439,-0.4448401927947998,1.0686566829681396,1.025524020195007
1783202019117189400,1.161189453125,0.4705091415375471,-0.1765565903455019,0.3314461232841014,-0.4766788184642792,1.0771712064743042,1.0003896951675415
1783202019127126500,1.17112646484375,0.4410787566527724,-0.2430313422501087,0.1250771629989147,-0.4866840541362762,1.0673073530197144,0.9737356305122375
1783202019137063400,1.1810634765625,0.5148834130540489,-0.2997451631188392,-0.1281809742331504,-0.470558762550354,1.0545703172683716,0.960843026638031
1783202019147000600,1.19100048828125,0.6157409115538001,-0.3171662535190582,-0.3115086661487817,-0.4325096607208252,1.0142256021499634,0.9686476588249208
1783202019156936400,1.2009365234375,0.7918041654244065,-0.3066939593434333,-0.4859200611591339,-0.3937069177627563,0.9317874312400818,0.9953848719596864
1783202019166873300,1.210873291015625,0.9533896888703108,-0.3028314386963844,-0.5303501545161009,-0.3744509220123291,0.8415542244911194,1.0421142578125
1783202019176810500,1.220810546875,1.0473261559352278,-0.3038286330401897,-0.4428302764952183,-0.387376457452774,0.7792134284973145,1.0815147161483765
1783202019186747600,1.23074755859375,1.0294938543856142,-0.3282733384668826,-0.2630909644603729,-0.4243744313716888,0.7524042129516602,1.1091614961624146
1783202019196684300,1.240684326171875,0.9408809204310178,-0.3675689915448427,-0.0718266343265771,-0.489796370267868,0.7804917097091675,1.1017274856567385
1783202019206620400,1.250620361328125,0.841306155218184,-0.3654693889170884,0.1723568005681038,-0.5363438725471497,0.8919460773468018,1.0503246784210205
1783202019216557600,1.2605576171875,0.725433166155219,-0.4147708877027034,0.3348421954631805,-0.5453283786773682,1.0442522764205933,0.989285409450531
1783202019226494500,1.270494384765625,0.7103513323575258,-0.5995470248609781,0.2361941897064447,-0.4855156242847442,1.2159712314605713,0.9581732749938964
1783202019236431400,1.280431396484375,0.8200248822584748,-0.7651040822863578,-0.1157446865081787,-0.3611746430397033,1.3836716413497925,0.9508680105209352
1783202019246368500,1.290368408203125,0.8950915214195847,-0.9291174174010752,-0.6091659170776605,-0.2003199905157089,1.451600432395935,0.9622889757156372
1783202019256305400,1.300305419921875,1.047666932196915,-1.009419619128108,-1.1098434023857116,-0.032742403447628,1.436479926109314,0.9855169653892516
1783202019266241500,1.310241455078125,1.2602525750398634,-1.0286351917296648,-1.5528946281552314,0.1182361841201782,1.3697965145111084,1.015827178955078
1783202019276178400,1.320178466796875,1.3975363086611032,-1.1146925959825515,-1.9091420152187344,0.2474751323461532,1.2697399854660034,1.0594117641448977
1783202019286115300,1.330115234375,1.4266066280618308,-1.1885036821246149,-2.173894190889597,0.3649812638759613,1.13801372051239,1.126175045967102
1783202019296052500,1.340052490234375,1.4325716739460823,-1.1501707365989684,-2.295431489324569,0.4639964997768402,0.9868407845497132,1.208398699760437
1783202019305989400,1.3499892578125,1.409700209185481,-0.975683353742957,-2.2269541654258966,0.5331646800041199,0.8238814473152161,1.295749306678772
1783202019315926500,1.359926513671875,1.3467726283684371,-0.6548474718004464,-1.9875819302052256,0.5623963475227356,0.6581763625144958,1.3700592517852783
1783202019325862400,1.3698623046875,1.224435996249318,-0.3036421705573797,-1.5790806242913007,0.5251302123069763,0.5301238894462585,1.4232652187347412
1783202019335799600,1.379799560546875,1.034749875217676,-0.0072200143814086,-0.9728174429178236,0.4255650043487549,0.4460467100143432,1.4549576044082642
1783202019345736400,1.389736328125,0.8533785780668258,0.2278413719028234,-0.3589870411604642,0.2765941619873047,0.3706353008747101,1.478654146194458
1783202019355673600,1.399673583984375,0.7760276273608208,0.4501940832614898,0.1023708256721496,0.099794216454029,0.288841038942337,1.514521598815918
1783202019365610200,1.4096103515625,0.7039160386130213,0.6153448979735374,0.4769008884012699,-0.0839215517044067,0.2376100718975067,1.5783092975616455
1783202019375547400,1.41954736328125,0.526783986467123,0.7341559863150119,0.7116133151173591,-0.2300218939781189,0.213150754570961,1.641373872756958
1783202019385483500,1.4294833984375,0.325092954865098,0.9189619340896604,0.7095481992810965,-0.3280054628849029,0.1748973727226257,1.6899046897888184
1783202019395420700,1.439420654296875,0.0810445445269346,1.2287848391085865,0.6425391943693161,-0.3777824938297272,0.1135897636413574,1.6926881074905396
1783202019405357300,1.449357421875,-0.2110316913992166,1.643780767738819,0.6256114404439925,-0.3964437842369079,0.0649588480591774,1.664845585823059
1783202019415294500,1.45929443359375,-0.5350298367649317,2.0102420903027056,0.7077525480359792,-0.3882036209106445,0.0648198053240776,1.5956435203552246
1783202019425231400,1.4692314453125,-0.9023094899743797,2.2697300618350504,0.8719318873673677,-0.3627927899360657,0.1318100243806839,1.4709875583648682
1783202019435168500,1.47916845703125,-1.3186775837406517,2.361250407668948,1.073788338664174,-0.3317278921604156,0.2818394601345062,1.3131799697875977
1783202019445104400,1.4891044921875,-1.6289648914009331,2.309680963951349,1.3235679861307144,-0.3085788786411285,0.5007380247116089,1.1628719568252563
1783202019455041500,1.49904150390625,-1.7488519384108483,2.2126368862599133,1.604945717909932,-0.3011575639247894,0.7419268488883972,1.040079116821289
1783202019464978400,1.508978515625,-1.675501747778803,2.12420515409112,1.8174848912626504,-0.3093020617961883,0.9520233869552612,0.9464255571365356
1783202019474915600,1.51891552734375,-1.460587661988288,2.0430945585906506,1.7878958086848258,-0.3193628489971161,1.0807347297668457,0.8937443494796753
1783202019484852500,1.5288525390625,-1.1653510623350738,1.9437854585766792,1.500675196096301,-0.3569493889808655,1.13570237159729,0.8600995540618896
1783202019494789400,1.538789306640625,-0.9170248285472392,1.8026280983924865,1.2476380081385374,-0.44415083527565,1.1749202013015747,0.8368293642997742
1783202019504725500,1.5487255859375,-0.7248800623171031,1.6257868458867073,1.1739116776704788,-0.5796330571174622,1.2273461818695068,0.8030514717102051
1783202019514662400,1.558662353515625,-0.5263270364798606,1.4151286639750005,1.241581192317605,-0.7402395009994507,1.2876139879226685,0.7639154195785522
1783202019524599600,1.568599609375,-0.3008854191951453,1.1382003128200768,1.2820394594341515,-0.9007018804550171,1.3405123949050903,0.7282010912895203
1783202019534536400,1.578536376953125,-0.1606215007193386,0.877998055538535,1.1339403172880411,-1.0158201456069946,1.380120038986206,0.7049446105957031
1783202019544473300,1.588473388671875,-0.0543612663932144,0.7211760932326317,0.800011145016551,-1.077525019645691,1.376707911491394,0.6952589154243469
1783202019554410500,1.598410400390625,0.0452870024472475,0.5437216772645712,0.2952104422986507,-1.1023571491241455,1.3009601831436155,0.7032470703125
1783202019564346600,1.6083466796875,0.1911298718328587,0.3258949188977479,-0.1304448275119066,-1.1192998886108398,1.2215687036514282,0.7346462607383728
1783202019574283300,1.618283203125,0.4755428979210555,0.0957990460664033,-0.2747743879914283,-1.171115517616272,1.1550401449203491,0.7878969311714172
1783202019584220400,1.628220458984375,0.8787005047194659,-0.1413850314602255,-0.1531815599769354,-1.2554006576538086,1.2182446718215942,0.8683211803436279
1783202019594157600,1.638157470703125,1.359905227794498,-0.4659975093320012,0.2378209141254424,-1.3208367824554443,1.4677321910858154,0.9822360873222352
1783202019604094500,1.648094482421875,1.9295691555671397,-0.8195113797783851,0.6414280182570219,-1.3220688104629517,1.8130106925964355,1.1321810483932495
1783202019614031600,1.658031494140625,2.5014088199436664,-1.1105597339615223,0.6725625767111778,-1.219433069229126,2.134115219116211,1.3065348863601685
1783202019623968300,1.66796826171875,2.967190348437428,-1.32162708119601,0.2778296839088201,-1.0044498443603516,2.3442652225494385,1.4855408668518066
1783202019633904400,1.677904296875,3.1612799651250243,-1.5144810186088085,-0.489211503919959,-0.7202507853507996,2.402588129043579,1.6758527755737305
1783202019643841500,1.687841552734375,3.261091461703181,-1.5209882085457442,-1.25908411578238,-0.4288346469402313,2.261924743652344,1.8640676736831665
1783202019653778400,1.6977783203125,3.2511475753158328,-1.3885393477350472,-1.7500614603310822,-0.183857724070549,1.9394850730896,2.0516510009765625
1783202019663715300,1.70771533203125,2.939782701551914,-1.32122580691874,-1.9915134244352577,-0.0345004685223102,1.5483654737472534,2.211454391479492
1783202019673652500,1.717652587890625,2.289489239794016,-1.1674126710399986,-1.9115543370574712,0.0026321457698941,1.2818554639816284,2.313363075256348
1783202019683589400,1.72758935546875,1.5458369647286831,-0.9192229231134056,-1.5005489393681286,-0.0416255965828895,1.1687296628952026,2.3485770225524902
1783202019693525500,1.737525390625,0.9389389195177704,-0.7892492202445864,-1.1424404346078634,-0.1051419898867607,1.1897486448287964,2.3083059787750244
1783202019703462400,1.74746240234375,0.1687033926270902,-0.764083507066965,-1.0459615895837544,-0.1324668079614639,1.2670319080352783,2.226261615753174
1783202019713399300,1.7573994140625,-0.5335889903068542,-0.5859753033652901,-1.1946049216091632,-0.1101807728409767,1.3111844062805176,2.123305559158325
1783202019723336400,1.76733642578125,-0.8320283315241336,-0.2939779778942465,-1.3855869276702404,-0.0487528294324874,1.313326358795166,2.0236759185791016
1783202019733273600,1.777273681640625,-0.8219692943245172,-0.0173778357803821,-1.620984998562932,0.0243083033710718,1.243106245994568,1.9275352954864504
1783202019743210500,1.78721044921875,-0.5810363856583833,0.1351525668114423,-1.7690145826041697,0.0752489864826202,1.128096342086792,1.8457022905349727
1783202019753147400,1.7971474609375,-0.2830091323733329,0.23591391146034,-1.7219161468207835,0.0892255008220672,1.0162359476089478,1.7928341627120972
1783202019763083500,1.80708349609375,-0.032493864108622,0.3678516078785062,-1.4720704483807086,0.0707655325531959,0.9523733854293824,1.7559983730316162
1783202019773021700,1.817021728515625,0.1013332993179559,0.4574278339073062,-1.1006056184411048,0.0440695323050022,0.919633448123932,1.7290619611740112
1783202019782958600,1.82695849609375,0.1427228559352457,0.4984034028962254,-0.8221937507301569,0.0409741401672363,0.8878835439682007,1.6887880563735962
1783202019792895500,1.8368955078125,0.0189601365357637,0.6395929117843508,-0.7578583489418029,0.0709674358367919,0.8307504653930664,1.6333019733428955
1783202019802832600,1.84683251953125,-0.1631957351215183,0.8350456335186958,-0.7642576945900916,0.1346193701028823,0.7848008275032043,1.5586817264556885
1783202019812769500,1.85676953125,-0.3319564108937978,1.06009737470299,-0.7232353638499974,0.1851211041212082,0.7919234037399292,1.489326238632202
1783202019822706700,1.866706787109375,-0.4049762005276978,1.2468991724699734,-0.3878150762379169,0.2186034321784973,0.8451278209686279,1.420543909072876
1783202019832642600,1.876642578125,-0.4313153413988649,1.377631292490661,-0.0131722007840871,0.2178378403186798,0.9457619190216064,1.3702014684677124
1783202019842579700,1.886579833984375,-0.3852718214958906,1.4652023161768912,0.3583335456877947,0.1871526390314102,1.0677688121795654,1.3355199098587036
1783202019852516600,1.8965166015625,-0.3568811549223959,1.4994713732644915,0.6305348683208227,0.1356953531503677,1.1747592687606812,1.317920446395874
1783202019862453800,1.906453857421875,-0.3526531619638204,1.4916694673418998,0.7487152575433254,0.0743664875626564,1.2380589246749878,1.3073474168777466
1783202019872390400,1.916390380859375,-0.2913071512497961,1.529830855692923,0.7579027726054192,-0.0035651251673698,1.248940348625183,1.308627724647522
1783202019882327600,1.92632763671875,-0.2242164594039321,1.6179332097768782,0.706279552873969,-0.1078425273299217,1.2347840070724487,1.3066918849945068
1783202019892264700,1.9362646484375,-0.2020217248611152,1.8199632640749213,0.766114720633626,-0.2379833608865738,1.2346539497375488,1.283962607383728
1783202019902200600,1.94620068359375,-0.2751768313124775,2.102994023758173,0.8790566246807575,-0.3769553601741791,1.278136134147644,1.2276619672775269
1783202019912137500,1.956137451171875,-0.297695829373598,2.3790759872168303,0.9989484939962624,-0.4980613589286804,1.341122031211853,1.1413707733154297
1783202019922074600,1.96607470703125,-0.3466995142564177,2.572215463572741,0.9641460606843232,-0.5859819054603577,1.3974167108535769,1.0305629968643188
1783202019932011500,1.976011474609375,-0.531401709395647,2.738363764889538,0.7841337769269943,-0.6439535021781921,1.4223507642745972,0.9129648804664612
1783202019941948700,1.98594873046875,-0.7936506700739264,2.91051948992759,0.5189981548964977,-0.7010818123817444,1.3621675968170166,0.7921494841575623
1783202019951885800,1.9958857421875,-1.0886242348767816,3.0382977285787462,0.1033171666115522,-0.7700433731079102,1.2460694313049316,0.6337836384773254
1783202019961821400,2.005821533203125,-1.4159192298308014,3.1938504016011957,-0.2849772175759077,-0.8599940538406372,1.1311657428741455,0.4425646960735321
1783202019971758600,2.015758544921875,-1.7165639721378685,3.314137992236018,-0.4705494735479354,-0.9476842284202576,1.0209330320358276,0.2028470933437347
1783202019981695700,2.02569580078125,-1.980004626818746,3.3515509003072976,-0.6242132640838622,-1.0171611309051514,0.9292006492614746,-0.0603387281298637
1783202019991632600,2.035632568359375,-2.161850263483077,3.272566795441508,-0.71769175824821,-1.08582603931427,0.892440676689148,-0.3245746195316314
1783202020001569500,2.045569580078125,-2.217835623946786,3.0224688758060334,-0.7167033317327499,-1.1257041692733765,0.8586385250091553,-0.5669994950294495
1783202020011506400,2.05550634765625,-2.0478543203383683,2.6868293924853206,-0.8695569749295711,-1.1290175914764404,0.7683667540550232,-0.7526007294654846
1783202020021443600,2.065443603515625,-1.6284759388402104,2.310386189611256,-1.3297960668653248,-1.077765941619873,0.5993201732635498,-0.8861547708511353
1783202020031380700,2.075380615234375,-1.1707494142472743,1.866157444494963,-1.9416963773429392,-0.9949504137039183,0.3883081078529358,-0.9811344146728516
1783202020041316600,2.085316650390625,-0.774231099332869,1.5027221917539837,-2.5054554649859666,-0.898841381072998,0.2276324331760406,-1.0531458854675293
1783202020051253500,2.09525341796875,-0.5185317064285277,1.2294707755461334,-2.9117759197294717,-0.7609515190124512,0.0529883913695812,-1.1126583814620972
1783202020061190700,2.105190673828125,-0.386253818270564,0.9351853391379116,-3.4007629672437902,-0.591056764125824,-0.1665879040956497,-1.1581156253814695
1783202020071127600,2.11512744140625,-0.1876812109500169,0.698909024105966,-3.81104589587748,-0.4038847684860229,-0.4036907255649566,-1.188050627708435
1783202020081064700,2.125064697265625,0.0276668823435902,0.5473430826321244,-3.984625516238809,-0.2238950282335281,-0.6306676864624023,-1.2096712589263916
1783202020091001600,2.135001708984375,0.2276855968192219,0.4702048978939652,-3.975639661228656,-0.0679554119706153,-0.8530886173248291,-1.2229747772216797
1783202020100938500,2.1449384765625,0.372747563226521,0.4293465255439281,-3.87206998116076,0.0699531883001327,-1.0442620515823364,-1.2305450439453125
1783202020110874600,2.15487451171875,0.3727440560951828,0.3874558875367045,-3.7268367498397823,0.200432002544403,-1.2046079635620115,-1.24384605884552
1783202020120811800,2.164811767578125,0.2551765380740166,0.377995693013072,-3.621400691378117,0.3337120413780212,-1.3701874017715454,-1.264162302017212
1783202020130748400,2.17474853515625,0.1265539575532078,0.4701981758922338,-3.5613317148625847,0.4647260308265686,-1.553146243095398,-1.3014792203903198
1783202020140685600,2.184685546875,0.0314361717492341,0.6724734371230006,-3.480069728192687,0.5929138660430908,-1.736096978187561,-1.3652400970458984
1783202020150622700,2.194622802734375,-0.0037099604338407,0.958898515419662,-3.2883594078570604,0.6960043907165527,-1.9043270349502563,-1.4518824815750122
1783202020160559600,2.2045595703125,0.0350625455528497,1.2419377506703138,-2.929461798545718,0.7724664211273193,-2.0441274642944336,-1.5594102144241333
1783202020170496800,2.214496826171875,0.1655985584795475,1.4275287113428117,-2.4163474409908057,0.8203275799751282,-2.123412132263184,-1.6529152393341064
1783202020180432600,2.2244326171875,0.4065373123645782,1.456032629032433,-1.775250846645236,0.868533730506897,-2.125478029251098,-1.7028924226760864
1783202020190369500,2.23436962890625,0.6493517969936132,1.3586349155977369,-1.1645727714389562,0.93682062625885,-2.083238124847412,-1.6994011402130127
1783202020200306700,2.244306640625,0.805254452497512,1.2516311694279312,-0.7411462835937738,1.0225696563720703,-2.041099071502685,-1.652530312538147
1783202020210243600,2.25424365234375,0.8543560447968542,1.21462245824337,-0.4731681316137313,1.11980938911438,-2.007765293121338,-1.599631428718567
1783202020220180500,2.264180419921875,0.8160932418979704,1.36593062556386,-0.2588350605815649,1.197365641593933,-1.996057391166687,-1.5802396535873413
1783202020230117600,2.27411767578125,0.684655896217376,1.6455623904585837,-0.0241302326500415,1.2297683954238892,-1.9869695901870728,-1.6099905967712402
1783202020240054500,2.284054443359375,0.5592936326667666,1.910290308471024,0.370895505619049,1.1912497282028198,-1.9257478713989256,-1.6693912744522097
1783202020249991700,2.29399169921875,0.5459156071122735,1.9734157499477265,0.9906845235198736,1.0670193433761597,-1.774301290512085,-1.7216508388519287
1783202020259927600,2.303927490234375,0.7568991485208273,1.766929008501768,1.7130851901113986,0.8941147923469543,-1.578373908996582,-1.7209336757659912
1783202020269864400,2.313864501953125,1.1508354110527783,1.3990578191399574,2.233331883764267,0.7326380014419556,-1.389912724494934,-1.6677594184875488
1783202020279801600,2.323801513671875,1.430308405189216,0.9834092718198896,2.448328971663117,0.5922249555587769,-1.2253674268722534,-1.5732300281524658
1783202020289738800,2.33373876953125,1.4906231731593609,0.6732964439436793,2.509313893979788,0.4728416502475738,-1.0469783544540403,-1.4675437211990356
1783202020299675600,2.343675537109375,1.321501262859255,0.5651958424478769,2.529437813597917,0.3869517743587494,-0.8694322109222412,-1.367630124092102
1783202020309612500,2.353612548828125,1.0383440272521227,0.6472264754027128,2.533957336848974,0.3245235979557037,-0.6932516098022461,-1.2938389778137207
1783202020319549400,2.363549560546875,0.7175022270254791,0.863029618987441,2.59940742188096,0.267036885023117,-0.4895395338535309,-1.245453119277954
1783202020329486600,2.373486572265625,0.4544989408485591,1.101121751269698,2.829141475662589,0.2010001093149185,-0.264350414276123,-1.2412012815475464
1783202020339422700,2.383422607421875,0.0826493493750691,1.2798890034019947,3.0263796195089814,0.1187989860773086,-0.0451514907181263,-1.292762041091919
1783202020349359600,2.393359619140625,-0.3329271556220948,1.3498328927218912,3.0868554232597347,-0.0044049890711903,0.1466738432645797,-1.3963730335235596
1783202020359296500,2.403296630859375,-0.7740585923101753,1.263720543411374,3.060606883281469,-0.1779807806015014,0.304144948720932,-1.5482759475708008
1783202020369233700,2.413233642578125,-1.0840081924486904,1.0671408634737134,2.86817467841208,-0.3885497748851776,0.3584082424640655,-1.6982780694961548
1783202020379170600,2.423170654296875,-1.1098214828148485,0.8399456805199385,2.492260467848181,-0.6305956840515137,0.2788836061954498,-1.8097654581069944
1783202020389107700,2.433107666015625,-0.8534915369220077,0.6402320864707232,2.06898244856298,-0.9008708000183104,0.1098862662911415,-1.86137330532074
1783202020399044600,2.443044677734375,-0.3770984519124031,0.3730921388804912,1.748970742484927,-1.207176685333252,-0.0764415338635444,-1.8579589128494265
1783202020408981500,2.4529814453125,0.1243129006281495,0.0644721799105405,1.6493635363072157,-1.5216023921966553,-0.2281507700681686,-1.822514295578003
1783202020418917600,2.462917724609375,0.5457148969084024,-0.200545953220129,1.59704181291759,-1.7932711839675903,-0.335584282875061,-1.742981195449829
1783202020428854800,2.472854736328125,0.9457529103815556,-0.4013508496373891,1.5665145727068186,-1.9998857975006104,-0.3773133158683777,-1.6274408102035522
1783202020438791400,2.48279150390625,1.22767293234393,-0.4826420624017715,1.398992937210202,-2.115561962127685,-0.3678708076477051,-1.4936063289642334
1783202020448728600,2.492728515625,1.3374744925387203,-0.4515121801227331,1.1784183414399625,-2.1312708854675293,-0.2782719135284424,-1.382303237915039
1783202020458665700,2.502665771484375,1.2311090442724526,-0.2858098690077662,0.9632435588866473,-2.0706899166107178,-0.092302568256855,-1.3161317110061646
1783202020468602600,2.5126025390625,0.973428560553491,-0.1428477974891662,0.7466261763095855,-1.98130464553833,0.1511328667402267,-1.2964006662368774
1783202020478539800,2.522539794921875,0.6295068404473364,-0.1174570433840155,0.4529360754460096,-1.8868322372436523,0.3819878995418548,-1.3044146299362185
1783202020488475600,2.5324755859375,0.3651768357113003,-0.1213888298749923,0.0153746792644262,-1.7814233303070068,0.586768627166748,-1.3074421882629397
1783202020498412500,2.54241259765625,0.2410899989239871,-0.2150470645204186,-0.64264382378757,-1.6455388069152832,0.6716614365577698,-1.2772022485733032
1783202020508349700,2.552349609375,0.2659923849903047,-0.3373687913313508,-1.5477110880374907,-1.4771432876586914,0.544119656085968,-1.227097511291504
1783202020518286600,2.56228662109375,0.4223590047441423,-0.4087668249823152,-2.4715181240707635,-1.3056554794311523,0.3194237053394317,-1.1728636026382446
1783202020528223500,2.572223388671875,0.5839049268320202,-0.402915906997025,-3.045383595186472,-1.1511528491973877,0.1142068058252334,-1.1197625398635864
1783202020538160600,2.58216064453125,0.7196025603055953,-0.2975939764343202,-3.232338829949498,-1.0064553022384644,-0.0921402424573898,-1.07805073261261
1783202020548097500,2.59209765625,0.697232615326345,-0.2628649006195366,-3.2312621406286954,-0.8516343832015991,-0.2287129759788513,-1.052316665649414
1783202020558034700,2.60203466796875,0.6609314678892493,-0.2264911263376474,-3.1291128487527367,-0.6965678334236145,-0.215212345123291,-1.0319234132766724
1783202020567971600,2.6119716796875,0.5916420969553291,-0.2269298100158572,-2.973307954534888,-0.5270360708236694,-0.1263634264469146,-1.0098527669906616
1783202020577907500,2.621907470703125,0.5140171516135335,-0.2456070379570126,-3.0001790103256702,-0.3236248791217804,-0.1096291840076446,-0.9701775312423706
1783202020587844600,2.6318447265625,0.5074637844473123,-0.3249433172613382,-3.221861859598756,-0.0943256393074989,-0.114990659058094,-0.9086295366287231
1783202020597781800,2.64178173828125,0.5593266581535339,-0.3319635712869465,-3.380647815454006,0.1511000990867614,-0.1360173821449279,-0.8468740582466125
1783202020607718700,2.65171875,0.590879588150233,-0.2382914542466402,-3.45324543415308,0.3968051671981811,-0.1903274357318878,-0.7935643792152405
1783202020617655600,2.661655517578125,0.523645103919506,-0.2053247849944978,-3.4488428152799604,0.6374057531356812,-0.2589917182922363,-0.7525466084480286
1783202020627592400,2.671592529296875,0.4824326574347913,-0.1540004751443862,-3.2944384355098006,0.8774973154067993,-0.3410569131374359,-0.7222972512245178
1783202020637529600,2.681529541015625,0.5090168591082096,-0.0384812679551541,-3.0250165144622323,1.092232346534729,-0.4182158708572387,-0.7040703296661377
1783202020647466800,2.691466796875,0.444583842164278,0.0669962915606796,-2.5833488520056007,1.2659777402877808,-0.4501045346260071,-0.6939405798912048
1783202020657402600,2.701402587890625,0.4286731563270092,0.1119255666114389,-1.9977239695131777,1.3938920497894287,-0.478167861700058,-0.6758580207824707
1783202020667339500,2.711339599609375,0.3954709978185594,0.1882362144842743,-1.402169229158759,1.4556483030319214,-0.4351897239685058,-0.6602678894996643
1783202020677276700,2.721276611328125,0.4539854383684694,0.2933797197401523,-0.7713958759069443,1.4623825550079346,-0.352879136800766,-0.6468093395233154
1783202020687213600,2.731213623046875,0.4857381287209689,0.385077175706625,-0.162913849440217,1.4318876266479492,-0.2802045941352844,-0.6198147535324097
1783202020697150700,2.741150634765625,0.4625716265365481,0.532203673428297,0.2409633038043975,1.3562350273132324,-0.1878669261932373,-0.5946491956710815
1783202020707087600,2.751087646484375,0.4184251724265515,0.6778386174179614,0.5447925213664769,1.2478203773498535,-0.1187032237648963,-0.5525175333023071
1783202020717024500,2.7610244140625,0.2926582735978066,0.7210081893198191,0.7156067686676979,1.1238874197006226,-0.1192411854863166,-0.4855233132839203
1783202020726961700,2.770961669921875,0.2052609990432858,0.7805676088780165,0.6334288361966609,0.9838390350341796,-0.1478741616010666,-0.4660929143428802
1783202020736898600,2.780898681640625,0.0848093038879335,0.950438730110228,0.5682429550588131,0.8559165000915527,-0.2536208629608154,-0.4993809461593628
1783202020746834400,2.79083447265625,-0.2308686107695102,1.1773398985534906,0.4685837264329194,0.7252071499824524,-0.4030944108963012,-0.6113333106040955
1783202020756771600,2.800771484375,-0.472002156574279,1.5613766252964734,0.4571434640079736,0.5712090730667114,-0.5338351726531982,-0.8192665576934814
1783202020766708700,2.810708740234375,-0.6283339972756803,1.9948373081609605,0.547375523597002,0.4157695770263672,-0.6945405602455139,-1.0800549983978271
1783202020776644000,2.82064404296875,-0.7557701444908976,2.183307039140165,0.6310387261897326,0.2853657603263855,-0.8175658583641052,-1.3092283010482788
1783202020786581000,2.8305810546875,-0.7768620323583483,2.101682648898661,0.7988707428097724,0.1639938354492187,-0.8294949531555176,-1.4766119718551636
1783202020796518100,2.84051806640625,-0.6650367112509906,1.9220964815989137,1.1565543001562355,0.0474714860320091,-0.773881733417511,-1.5829983949661257
1783202020806454800,2.850454833984375,-0.6303897607617079,1.7558540722578764,1.5381921490639447,-0.092070922255516,-0.6685987710952759,-1.6671600341796875
1783202020816392000,2.860391845703125,-0.5650926743343472,1.5126067491695283,1.861259151059389,-0.2173862308263778,-0.5530588626861572,-1.7120212316513062
1783202020826329000,2.8703291015625,-0.2915928363233804,1.0406788268752396,1.7704197732269762,-0.3361271619796753,-0.5206613540649414,-1.726810336112976
1783202020836265000,2.880264892578125,0.1005593923360109,0.6679683807887137,1.467338159161806,-0.4271915555000305,-0.5286855101585388,-1.7323532104492188
1783202020846201900,2.890201904296875,0.3074089757449925,0.4005582379549741,1.1586439659118652,-0.5032541751861572,-0.5281490087509155,-1.7407058477401731
1783202020856139000,2.900138916015625,0.4181755815796554,0.3161415866464376,0.9697679922193287,-0.5529298782348633,-0.509646475315094,-1.7494163513183594
1783202020866076000,2.910075927734375,0.5269420996382832,0.3827091314010322,0.8896054912239313,-0.5856579542160034,-0.46503746509552,-1.7401063442230225
1783202020876013000,2.920012939453125,0.5689172010585666,0.3559504499435424,0.7628565956205129,-0.5789086818695068,-0.3728393614292145,-1.7201498746871948
1783202020885950200,2.9299501953125,0.596523146995157,0.123900666565448,0.5164256740599871,-0.4918522834777832,-0.2474309355020523,-1.6903895139694214
1783202020895886800,2.939886962890625,0.641612434913218,-0.0881280730471014,0.011094809988141,-0.3481627702713012,-0.1149229779839515,-1.649377703666687
1783202020905824000,2.949823974609375,0.7536592898167669,-0.0558303160324692,-0.569445901107788,-0.1894066333770752,-0.0241145435720682,-1.6177153587341309
1783202020915761000,2.959760986328125,0.7718133706666529,0.0878916339427232,-1.077268581995368,-0.0371760986745357,0.0476342104375362,-1.5883140563964844
1783202020925697000,2.969697021484375,0.874465059106797,0.1785473257713019,-1.4419868602842092,0.1030063778162002,0.0894889160990715,-1.5536091327667236
1783202020935634000,2.979634033203125,0.9387332408778368,0.1978225196056068,-1.773926320043206,0.2556419968605041,0.103077694773674,-1.5031195878982544
1783202020945571000,2.989571044921875,0.9756494514733552,0.1993535285651683,-2.1296359469681976,0.4174136221408844,0.1027695536613464,-1.4318721294403076
1783202020955508000,2.999508056640625,1.2116009184651075,0.2383750408768653,-2.4133675483971837,0.5645202398300171,0.0354837253689765,-1.3204345703125
1783202020965445000,3.009445068359375,1.35488959158957,0.281744519264996,-2.59062381144464,0.6846721172332764,-0.0751673579216003,-1.2075461149215698
1783202020975382000,3.019382080078125,1.265244391977787,0.4090310288764536,-2.6822955484479665,0.7632662653923035,-0.2235658913850784,-1.115999698638916
1783202020985319000,3.02931884765625,0.9810875508740544,0.6012339550346135,-2.6218378648757934,0.8104289770126343,-0.389832854270935,-1.050190806388855
1783202020995256000,3.039256103515625,0.5333497747235,0.7905392600551248,-2.502514150837064,0.8175691962242126,-0.5149005055427551,-1.0315585136413574
1783202021005193000,3.04919287109375,0.1611547308132052,1.108051404402405,-2.3074136035412547,0.8155943155288696,-0.651025116443634,-1.060755491256714
1783202021015129000,3.059129150390625,-0.1025055579677224,1.4466051677346228,-2.063487358278036,0.8187988996505737,-0.795448899269104,-1.1193581819534302
1783202021025066000,3.06906591796875,-0.2832910180546343,1.6574674939163028,-1.7135621599733828,0.8248065710067749,-0.8751438856124878,-1.2200032472610474
1783202021035003000,3.0790029296875,-0.5396285627320409,1.7794141038045286,-1.2459335423082112,0.8253341317176819,-0.8803468942642212,-1.3349406719207764
1783202021044940000,3.08893994140625,-0.7272019293934107,1.8136251470945772,-0.7622323262423276,0.8226152062416077,-0.830477774143219,-1.4514471292495728
1783202021054877000,3.098876953125,-0.7521158597670495,1.7939038169279693,-0.314628259474039,0.8104698657989502,-0.7712642550468445,-1.5583312511444092
1783202021064814000,3.10881396484375,-0.6397400651700794,1.773036969988048,0.0981751275479793,0.7719318270683289,-0.7147409915924072,-1.6465377807617188
1783202021074751000,3.1187509765625,-0.425156088116765,1.7537328423202037,0.560152587583661,0.6878832578659058,-0.6869285702705383,-1.7186111211776731
1783202021084688000,3.12868798828125,-0.2023094557613134,1.6559893841877578,0.969527169200778,0.5704290270805359,-0.6938453316688538,-1.781219244003296
1783202021094625000,3.138625,0.015466449201107,1.4171557858884334,1.3229951546788217,0.4346286058425903,-0.7200157046318054,-1.842350959777832
1783202021104561200,3.14856103515625,0.1972773068130016,1.1419780777931212,1.6083236699104309,0.3071001470088959,-0.764892578125,-1.8895114660263064
1783202021114497800,3.158497802734375,0.4310639969862997,0.7948220519408583,1.8421020306468008,0.2039236724376678,-0.8011671900749207,-1.9323772192001345
1783202021124435000,3.16843505859375,0.7028270743325352,0.4703092350512742,2.1193290724873544,0.1223422735929489,-0.792509913444519,-1.9577564001083372
1783202021134372000,3.1783720703125,0.9592175182409584,0.2248442359134554,2.4551789836883544,0.053125649690628,-0.7181978225708008,-1.9757951498031616
1783202021144309000,3.18830908203125,1.1524530023172497,0.0360945189490914,2.80071617616713,-0.0029128165915608,-0.598932147026062,-1.9711724519729612
1783202021154246100,3.19824609375,1.3188719372689723,-0.1961890731848776,3.092791827571392,-0.0771809220314025,-0.450393795967102,-1.9301022291183472
1783202021164182800,3.208182861328125,1.4518956753581762,-0.5598180949322878,3.257967776724696,-0.16126549243927,-0.2735012769699096,-1.8422366380691528
1783202021174120000,3.218119873046875,1.5556857201784848,-1.0257818481251595,3.1941204507142302,-0.2436503618955612,-0.1306937783956527,-1.728936791419983
1783202021184057000,3.22805712890625,1.7217685550436377,-1.4177341702982782,2.9684020623147487,-0.3277722895145416,-0.0830941945314407,-1.613123059272766
1783202021193994000,3.237993896484375,1.8986063004180789,-1.6107167025268077,2.7336335214972496,-0.4199565351009369,-0.0824558436870575,-1.5056272745132446
1783202021203929900,3.247929931640625,1.9773576194413005,-1.745101207575202,2.5360633692175147,-0.5022000074386597,-0.0992777422070503,-1.4131475687026978
1783202021213867000,3.257866943359375,1.982270818185061,-1.80205745889768,2.399791442987323,-0.5787909030914307,-0.0887563899159431,-1.348287582397461
1783202021223804000,3.267803955078125,1.9678912874378265,-1.7938484334789215,2.383945639079809,-0.64936363697052,-0.0347802117466926,-1.3016884326934814
1783202021233741000,3.277740966796875,1.995414523527026,-1.7654368702478709,2.4332576592594384,-0.7164827585220337,0.0700077190995216,-1.2842988967895508
1783202021243678000,3.287677978515625,1.9728342967979609,-1.7967397710062565,2.415236849400401,-0.7904171347618103,0.2096705585718155,-1.2699214220046997
1783202021253614800,3.29761474609375,1.9698203558042644,-1.9343813781544563,2.259743505349755,-0.8432974219322205,0.3527674973011017,-1.2423702478408811
1783202021263552000,3.307552001953125,2.0108879869908094,-2.1458182893536986,1.890968645146489,-0.8643738031387329,0.464368462562561,-1.1924617290496826
1783202021273489000,3.317489013671875,2.127420462875813,-2.440625557678938,1.3216577685952189,-0.8397313356399536,0.5277796387672424,-1.10993492603302
1783202021283426000,3.327426025390625,2.3873323589086533,-2.68999136364758,0.714142541334033,-0.7838211059570312,0.547817587852478,-0.9710601568222046
1783202021293362000,3.33736181640625,2.670569747079909,-2.8665596444308754,0.1664893698394298,-0.6855653524398804,0.4967887103557586,-0.7981538772583008
1783202021303299000,3.347299072265625,2.919150832411647,-3.0913375371098515,-0.3301490692108869,-0.586510419845581,0.3916720747947693,-0.590168297290802
1783202021313236000,3.357236083984375,3.1452403922110794,-3.224236479775608,-0.6785241154640913,-0.5261048674583435,0.2843605279922485,-0.3869544267654419
1783202021323173000,3.367173095703125,3.2343802726492283,-3.1352807237327096,-0.7987602681726217,-0.4917137026786804,0.2186338007450103,-0.2105371057987213
1783202021333109800,3.37710986328125,3.1013714398682115,-3.029560295371711,-0.7472755801290273,-0.4738716185092926,0.2132041454315185,-0.0513557083904743
1783202021343047000,3.387046875,2.9356209056973457,-2.8259812580659984,-0.5735942529588938,-0.4630566835403442,0.2788220345973968,0.1091277971863746
1783202021352984000,3.396984130859375,2.8378531899064776,-2.5197972940713167,-0.3918991306811571,-0.4652311503887176,0.3651505410671234,0.2747175395488739
1783202021362921000,3.4069208984375,2.757614701065421,-2.250739822421968,-0.3911456819653511,-0.4467265009880066,0.442495584487915,0.4529949724674225
1783202021372858000,3.416858154296875,2.5234023328259587,-2.0488374861568213,-0.6474947709500789,-0.4029664993286133,0.4879054129123688,0.6280799508094788
1783202021382794800,3.426794677734375,2.190518724084645,-1.904505879850685,-1.0968991651386022,-0.3056862354278564,0.5095236301422119,0.8026759028434753
1783202021392732000,3.43673193359375,1.8581265521220864,-1.7764298272967338,-1.692688883292675,-0.1513558030128479,0.4794941544532776,0.959226369857788
1783202021402668000,3.44666796875,1.5526843464054163,-1.510357362807542,-2.2787059799730778,0.0369168780744075,0.4007902443408966,1.07218599319458
1783202021412605000,3.45660498046875,1.259160980410874,-1.074787140443176,-2.5675802049875256,0.2122295796871185,0.3270611763000488,1.130828022956848
1783202021422541800,3.466541748046875,0.9663412326410412,-0.5716207609288394,-2.4996885720223188,0.3533491790294647,0.2767346501350403,1.138786554336548
1783202021432479000,3.47647900390625,0.6417854533925652,-0.1815405893031507,-2.273196276640892,0.4619800448417663,0.237956091761589,1.1207287311553955
1783202021442415900,3.486415771484375,0.4306893184550106,0.0392977719698101,-2.021117704582214,0.5327972173690796,0.1936130076646804,1.1003905534744265
1783202021452353000,3.49635302734375,0.3755205350711941,0.1543592254541814,-1.6818343118011951,0.563316285610199,0.1346103996038437,1.0897365808486938
1783202021462290200,3.506290283203125,0.437487454162538,0.145758570369333,-1.3050783897161482,0.5488695502281189,0.0431265123188495,1.0975099802017212
1783202021472226800,3.516226806640625,0.6621766456447541,-0.0354565133064985,-0.9100105658710004,0.4797863662242889,-0.0704383924603462,1.1405596733093262
1783202021482164000,3.5261640625,0.9809525263175368,-0.3510902965612709,-0.5144792161673307,0.3983882963657379,-0.2067756503820419,1.2209806442260742
1783202021492100900,3.536100830078125,1.2213866916812957,-0.7187320610813797,-0.1731312920719385,0.3153927326202392,-0.3310518264770508,1.319394826889038
1783202021502037000,3.546037109375,1.3334322314105926,-1.006308062978834,0.1321954705715179,0.2591893076896667,-0.4208042323589325,1.4245915412902832
1783202021511974000,3.555973876953125,1.3416441794387994,-1.2187724175296724,0.3857172271758318,0.2365263402462005,-0.4636678099632263,1.5347002744674685
1783202021521910800,3.565910888671875,1.3182076281413435,-1.290072836025059,0.5250917955964803,0.2565129101276397,-0.4725644290447235,1.6218608617782593
1783202021531848000,3.575847900390625,1.3008360759712756,-1.173060175407678,0.6305699396342038,0.3087620139122009,-0.460653156042099,1.6714683771133425
1783202021541785000,3.58578515625,1.2560505933053792,-0.9927122299551964,0.7505331206202507,0.3730365931987762,-0.4035392105579376,1.6723071336746216
1783202021551722000,3.595721923828125,1.0957999717250466,-0.7617319755047559,0.9879507146418094,0.4416771829128265,-0.2829433083534241,1.6277072429656982
1783202021561659000,3.605658935546875,0.9457200310252606,-0.5407746640272438,1.2823001561969518,0.4989314973354339,-0.1134878098964691,1.563021898269653
1783202021571596000,3.615595947265625,0.8836804850891232,-0.5876053887851536,1.546619785669446,0.5557721257209778,0.1025600656867027,1.5284663438796997
1783202021581533000,3.625532958984375,1.010980584834516,-0.8305515369698405,1.6548837610334155,0.6193464994430542,0.2934406399726867,1.5501105785369873
1783202021591470000,3.635469970703125,1.3156585281804205,-0.9711705524936318,1.5931629256576298,0.6832833886146545,0.433217704296112,1.626125454902649
1783202021601407000,3.645406982421875,1.541904301454872,-1.0772767653018236,1.4376520459502935,0.7335262894630432,0.5634909272193909,1.7222747802734375
1783202021611342800,3.6553427734375,1.689730618008971,-1.114494881453365,1.291613927987218,0.7641036510467529,0.6780880689620972,1.8186074495315552
1783202021621280000,3.665280029296875,1.678826069895923,-0.985601521167159,1.155872747632861,0.7706959247589111,0.769325315952301,1.8863776922225952
1783202021631217000,3.675216796875,1.5249499517835676,-0.7699573675364255,1.009773839393258,0.780121922492981,0.8557275533676147,1.917309522628784
1783202021641154000,3.685154052734375,1.2066001875683663,-0.5218114587515592,0.8146013959050178,0.8253272771835327,0.9264879822731018,1.9211649894714355
1783202021651091000,3.695091064453125,0.8863290999017656,-0.2992775456070899,0.4490367299199104,0.9131731986999512,0.9787498712539672,1.9100518226623533
1783202021661027800,3.70502783203125,0.6653776336431503,-0.0711567722409963,0.0470183562844991,1.0215659141540527,1.051846623420715,1.8730969429016116
1783202021670965000,3.714965087890625,0.4260638506114482,0.1942261025488376,-0.193063488510251,1.1402175426483154,1.1494046449661257,1.802330017089844
1783202021680902000,3.72490185546875,0.239863087477535,0.4747124384462833,-0.3706003220647573,1.2359565496444702,1.2806040048599243,1.743634581565857
1783202021690839000,3.734839111328125,0.3402387938097119,0.764266462418437,-0.4141647385030985,1.2691723108291626,1.4297397136688232,1.7155842781066897
1783202021700776000,3.74477587890625,0.6438629903189838,0.8930202681034803,-0.4496288505941629,1.2086881399154663,1.5645594596862793,1.727734923362732
1783202021710712000,3.754712158203125,1.063108393087238,0.9368117712959648,-0.490207529219985,1.062265157699585,1.646008849143982,1.7806525230407717
1783202021720649000,3.76464892578125,1.3676568648345768,0.8465379183918237,-0.618590748026967,0.8484344482421875,1.6560696363449097,1.862655758857727
1783202021730586000,3.774586181640625,1.441058055001497,0.7781362900778651,-0.940582229745388,0.6024739742279053,1.5501956939697266,1.935831904411316
1783202021740522800,3.784522705078125,1.329882429974526,0.8278928391546011,-1.3865800303608178,0.3579921126365661,1.336861491203308,1.962046980857849
1783202021750460000,3.7944599609375,1.0020644340597094,0.9627569444134833,-1.8160265091478824,0.1546997129917144,1.044641375541687,1.9363332986831665
1783202021760397000,3.80439697265625,0.6439917312651873,1.1897782321050765,-2.232129522237181,0.0065689203329384,0.7239684462547302,1.8680567741394043
1783202021770334000,3.814333984375,0.3645519818112254,1.482924143089354,-2.5081957036048173,-0.0834845378994941,0.43012535572052,1.7683712244033811
1783202021780271400,3.824271240234375,0.2025926566168665,1.799253069001436,-2.539316233533621,-0.1434890627861023,0.1917986273765564,1.6521998643875122
1783202021790208300,3.834208251953125,-0.0160512633517384,1.9432664031386373,-2.3832564877718685,-0.1781280040740966,0.0229534152895212,1.537229061126709
1783202021800145400,3.8441455078125,-0.2735229266256094,1.8955857835531236,-2.0992215194821355,-0.1916199922561645,-0.0954910814762115,1.4265493154525757
1783202021810082600,3.85408251953125,-0.4514484672367572,1.7680977600201964,-1.7785978189855811,-0.177349716424942,-0.1870931684970855,1.338904857635498
1783202021820019200,3.864019287109375,-0.5379710047833621,1.5938818875819445,-1.545004167166352,-0.1317545175552368,-0.2549959123134613,1.286309003829956
1783202021829955300,3.873955322265625,-0.5379523000828922,1.3220102352946996,-1.4225772264152765,-0.0858243182301521,-0.3206963539123535,1.254345178604126
1783202021839892500,3.883892578125,-0.5242489150315522,1.0563844916597007,-1.3260147947609424,-0.0435623973608017,-0.4118500351905823,1.1978479623794556
1783202021849829400,3.893829345703125,-0.4692576801717281,0.8835293861806393,-1.2074842769265175,-0.0233407486230134,-0.5284743905067444,1.127050518989563
1783202021859766300,3.903766357421875,-0.3869467689707875,0.7247907765984535,-0.9993401236623524,-0.0143079748377203,-0.6289234757423401,1.0714495182037354
1783202021869703200,3.913703125,-0.2218672659292817,0.4963607911527156,-0.695458883652091,-0.0062087690457701,-0.6945387125015259,1.034040093421936
1783202021879640300,3.923640380859375,-0.0598918663829565,0.2590443194180727,-0.3523322594463825,0.025502324104309,-0.7169715762138367,1.0074987411499023
1783202021889577500,3.933577392578125,0.0886750394053757,0.0709749859333038,-0.1545546018958091,0.0957333445549011,-0.7188863754272461,0.9921568036079408
1783202021899514400,3.943514404296875,0.2214505018219351,-0.0166281864568591,-0.0228226571828126,0.1818245202302932,-0.6908374428749084,0.9686161279678344
1783202021909451300,3.953451171875,0.3338181131124496,-0.0844309720948338,0.1445148539185524,0.2827186584472656,-0.6168279647827148,0.9526097178459167
1783202021919388400,3.963388427734375,0.408513727004081,-0.2104053761944174,0.3183919959217309,0.3956014811992645,-0.5173330903053284,0.9364522695541382
1783202021929325300,3.9733251953125,0.534009992197901,-0.3046165685474872,0.4200461977571249,0.5037966370582581,-0.396041601896286,0.940500795841217
1783202021939261400,3.983261474609375,0.7064245143026113,-0.3485530331686139,0.5230436308950186,0.5937989950180054,-0.2457170933485031,0.9709973335266112
1783202021949198300,3.9931982421875,0.8744720733694732,-0.4076984650984406,0.605130962473154,0.6643077731132507,-0.0963233411312103,1.0440419912338257
1783202021959135200,4.00313525390625,1.053102547379583,-0.4972065943270921,0.5960083293408155,0.7054353952407837,0.0489567145705223,1.1191340684890747
1783202021969072400,4.013072265625,1.1220314875032753,-0.4749474162459373,0.5523270085245371,0.744491696357727,0.1564607918262481,1.1876317262649536
1783202021979009300,4.02300927734375,1.1161709979720411,-0.3805266727954149,0.4080927251130342,0.7993297576904297,0.2232224941253662,1.2473584413528442
1783202021988946400,4.032946533203125,1.0510717722043394,-0.2271323468506336,0.1841214726418256,0.8528273105621338,0.2809555828571319,1.2859703302383425
1783202021998883300,4.04288330078125,0.8677036021478474,-0.0173421799451112,0.0449146620035171,0.9149686098098756,0.3319491744041443,1.2911769151687622
1783202022008820200,4.0528203125,0.6043436114877462,0.1910042178928852,-0.0893067614376545,0.9832144975662231,0.3561053872108459,1.2612903118133545
1783202022018757400,4.06275732421875,0.333669936813414,0.4359294110655784,-0.2135404593497514,1.0539196729660034,0.3863309323787689,1.1950010061264038
1783202022028694300,4.0726943359375,0.0746177263498306,0.6374339801847935,-0.2392851414591074,1.1303155422210691,0.4310307502746582,1.105302810668945
1783202022038631400,4.08263134765625,-0.1560473246715962,0.7756307369977236,-0.1815384704113006,1.21150541305542,0.4821744859218597,1.007810115814209
1783202022048568300,4.092568359375,-0.3799335292078554,0.8563537944853306,-0.1484182910978794,1.3199716806411743,0.5414569973945618,0.9036498665809632
1783202022058504400,4.10250439453125,-0.4860103697910904,0.8814046491116285,-0.1896200700581073,1.4368349313735962,0.6072389483451843,0.8195390105247498
1783202022068441300,4.11244140625,-0.459281937341392,0.8583014214217662,-0.2316127071350812,1.5597996711730957,0.6530410051345825,0.7873648405075073
1783202022078378500,4.12237841796875,-0.3439462700255214,0.8105114962428808,-0.2879728922605514,1.665998935699463,0.6763555407524109,0.7837371826171875
1783202022088315100,4.132315185546875,-0.2531859487786889,0.7573170816719531,-0.3311865955650806,1.71889066696167,0.661024808883667,0.7887105941772461
1783202022098252300,4.142252197265625,-0.2427173078648745,0.7624363243818283,-0.3373024480968714,1.7159435749053955,0.5839830636978149,0.8089619874954224
1783202022108189400,4.152189453125,-0.1917690647855401,0.8312567626297473,-0.3707856155037879,1.643519639968872,0.4203158318996429,0.8246333599090576
1783202022118126300,4.162126220703125,-0.1141305293098092,1.0479442878335714,-0.4287216716438531,1.4918298721313477,0.2063104957342147,0.7886912226676941
1783202022128063500,4.1720634765625,-0.1782540419131517,1.439409703272581,-0.3210153301626444,1.2823424339294434,-0.0165292359888553,0.706662118434906
1783202022138000100,4.182000244140625,-0.3377303181201219,1.721105999481678,-0.0681201810240745,1.0181435346603394,-0.1999211311340332,0.6231128573417664
1783202022147937300,4.191937255859375,-0.4175006049275398,1.7391519437819718,0.3229647106647491,0.7062027454376221,-0.3005731403827667,0.5483201146125793
1783202022157874400,4.20187451171875,-0.4714443765610456,1.6093781473994253,0.7528630248725414,0.3841012716293335,-0.3309085667133331,0.500891923904419
1783202022167810600,4.211810546875,-0.4148030364066362,1.3096066807955502,0.9703507605433463,0.0949892923235893,-0.3051677942276001,0.5129616856575012
1783202022177747200,4.221747314453125,-0.1260658817753195,0.8594961841642856,0.9062608579486608,-0.1299901008605957,-0.2265525758266449,0.5985419154167175
1783202022187684400,4.231684326171875,0.3267822231262922,0.3948831149280071,0.6566793634027243,-0.2653748095035553,-0.1086810603737831,0.7297441363334656
1783202022197621200,4.241621337890625,0.8161500866517424,0.1704196950256824,0.3478594979465008,-0.3110300004482269,0.0271059013903141,0.8819489479064941
1783202022207558400,4.251558349609375,1.321746615922451,0.147038819438219,0.0408405444324016,-0.2856111824512481,0.170843094587326,1.00167715549469
1783202022217495600,4.26149560546875,1.489774447375536,0.0618722265452146,-0.3762245916873216,-0.2018685489892959,0.3014742434024811,1.130207657814026
1783202022227432200,4.27143212890625,1.2908373906567692,0.0662573097616434,-0.8302174827098846,-0.0716498270630836,0.4459019899368286,1.204914927482605
1783202022237369300,4.281369384765625,0.971953227303922,0.2373889524489641,-1.1637182004362343,0.1097123548388481,0.6186462044715881,1.2385141849517822
1783202022247306200,4.29130615234375,0.6674588238313793,0.2747399011999368,-1.4210159684479235,0.3292654752731323,0.8366685509681702,1.265455961227417
1783202022257243400,4.301243408203125,0.5525269150108099,0.2370797403693199,-1.565828928530216,0.5801697969436646,1.1544177532196045,1.3068965673446655
1783202022267180500,4.3111806640625,0.7027928798019886,0.0606084902197122,-1.527779476121068,0.8711547255516052,1.5216063261032104,1.3643885850906372
1783202022277117200,4.3211171875,0.966509282684326,-0.231283036789298,-1.600395214998722,1.2134088277816772,1.879724621772766,1.4536391496658323
1783202022287053300,4.33105322265625,1.140234741257131,-0.3936474356532096,-1.8558213439196347,1.5958733558654783,2.199507713317871,1.568590521812439
1783202022296990500,4.340990478515625,1.194222936554253,-0.4040256218045949,-2.1167600987821817,2.014833450317383,2.4026219844818115,1.682945966720581
1783202022306927400,4.35092724609375,1.0829609484180809,-0.3228869692534208,-2.5624124469608067,2.4280478954315186,2.436424493789673,1.7678371667861938
1783202022316864300,4.3608642578125,0.765997231733799,-0.098283848619461,-3.075978639936447,2.754680633544922,2.3237874507904053,1.8216525316238403
1783202022326801400,4.370801513671875,0.3942056540578603,0.1665378851562738,-3.3802386501312256,2.9170050621032715,2.0794923305511475,1.8317341804504397
1783202022336738300,4.38073828125,0.1021849477112293,0.47279754473567,-3.274161955678463,2.8465914726257324,1.7273180484771729,1.7904505729675293
1783202022346675500,4.390675537109375,-0.1714429005935788,0.8642202900767326,-2.6944588644504543,2.5377321243286133,1.299718737602234,1.65950608253479
1783202022356612400,4.4006123046875,-0.4419593388795852,1.316682902792096,-1.716441514801979,2.048875331878662,0.8406625986099243,1.4679017066955566
1783202022366549200,4.41054931640625,-0.5631552765309811,1.5051836134314536,-0.5096177476108074,1.4986878633499146,0.3955663740634918,1.2675741910934448
1783202022376486400,4.420486328125,-0.5870341647684574,1.368143625438213,0.5699836612462997,0.9673603177070618,0.1038242653012275,1.1180765628814695
1783202022386423300,4.43042333984375,-0.4622781965479254,1.0795505554527045,1.6316075148642062,0.5216270685195923,0.0351248309016227,1.044036865234375
1783202022396360400,4.4403603515625,-0.3051604661658406,0.690137980890274,2.4747201349824666,0.1915408372879028,0.1219826936721801,1.0150153636932373
1783202022406297300,4.45029736328125,-0.142999188658595,0.4285100747197866,2.8367589649289844,-0.0155383199453353,0.2481701970100402,1.0067627429962158
1783202022416233200,4.460233154296875,0.0121171387732028,0.404672687536478,2.8069080165445803,-0.1284016966819763,0.3837238848209381,0.9963988065719604
1783202022426170400,4.47017041015625,-0.0329315248735249,0.4971025494307279,2.5969997762173413,-0.1739153861999511,0.517218828201294,0.9816038608551024
1783202022436107500,4.480107421875,-0.1536046807598322,0.6074561905503273,2.261291903835535,-0.1636794060468673,0.5938478112220764,0.9452703595161438
1783202022446044400,4.49004443359375,-0.2707775734402239,0.8299591240346431,1.89742001324296,-0.1312852352857589,0.6171760559082031,0.8706037998199463
1783202022455981300,4.499981201171875,-0.5180633582644164,1.1670523132950066,1.574566946259141,-0.0791214406490325,0.6174802184104919,0.744823694229126
1783202022465918200,4.509918212890625,-0.8050969969134777,1.5253981339424847,1.400110543063283,-0.0328359678387641,0.6285166144371033,0.596657931804657
1783202022475855400,4.51985546875,-1.0055069757290185,1.826790479746461,1.3803776685893534,-0.0151140876114368,0.6708105206489563,0.4362277090549469
1783202022485792500,4.52979248046875,-1.2395077470444142,1.9456407310545445,1.4675707988739013,-0.0370723828673362,0.7415832281112671,0.2948847115039825
1783202022495729400,4.5397294921875,-1.3874066904433071,1.857906333500147,1.5454840596377848,-0.1160831078886985,0.8271023631095886,0.1779071390628814
1783202022505666300,4.549666259765625,-1.3154917933113872,1.656733188292384,1.5863228505045175,-0.239889994263649,0.8872389197349548,0.0939957275986671
1783202022515603200,4.559603271484375,-1.0201285716038198,1.4039064282149076,1.554120955079794,-0.3963306546211242,0.9191202521324158,0.0482437014579772
1783202022525540400,4.569540283203125,-0.6178831842795014,1.193105622962117,1.4618582664459945,-0.5877882242202759,0.9461792707443236,0.0447720028460025
1783202022535476500,4.5794765625,-0.1971175862066447,0.9592296470701694,1.524131475007534,-0.8034641742706299,0.9807198643684388,0.0810865834355354
1783202022545413400,4.589413330078125,0.2174516414441168,0.6875695917069912,1.6300772365570066,-1.0339326858520508,1.0154757499694824,0.151988998055458
1783202022555350300,4.599350341796875,0.5711503669381142,0.4732815288603305,1.7281249383330344,-1.2749996185302734,1.0404618978500366,0.2142690569162368
1783202022565287400,4.609287353515625,0.7425345230817795,0.4373182350754737,1.7462147217750548,-1.512715220451355,1.0551308393478394,0.251858502626419
1783202022575224300,4.619224365234375,0.7089164772488177,0.5191495460659266,1.7244751836538317,-1.7177579402923584,1.0721465349197388,0.2541545033454895
1783202022585161500,4.629161376953125,0.5307631192311644,0.6171966633200645,1.6538509108543396,-1.8872218132019043,1.1007717847824097,0.2331128716468811
1783202022595098400,4.639098388671875,0.2940929460434243,0.724082920590043,1.5285393545776604,-2.0005338191986084,1.2008111476898191,0.2224041223526001
1783202022605035300,4.64903515625,0.303021554441005,0.6986883670926094,1.4696411754071712,-2.041311025619507,1.3925914764404297,0.2351042032241821
1783202022614972400,4.658972412109375,0.6458028723403811,0.5203875634282827,1.6190940702497958,-2.001678705215454,1.6764373779296875,0.261809378862381
1783202022624909300,4.668909423828125,1.0444346722774207,0.3444675174206495,1.6886802321732044,-1.850624442100525,2.0452585220336914,0.3046655058860779
1783202022634846500,4.678846435546875,1.4261464632041752,0.1935650082916021,1.544256563669443,-1.598701000213623,2.4050192832946777,0.4174807965755462
1783202022644783400,4.688783447265625,1.6531394015841183,-0.1563017378240823,0.8952887975573539,-1.3148977756500244,2.647971868515014,0.6134026646614075
1783202022654720300,4.69872021484375,1.716900656746328,-0.6730319477885961,-0.1800759966433048,-1.0841829776763916,2.769566535949707,0.8063328266143799
1783202022664656400,4.708656494140625,1.6882397949293255,-0.7864420538693666,-1.031055696874857,-0.915742039680481,2.755246639251709,0.9672633409500122
1783202022674593500,4.718593505859375,1.7226766097992658,-0.6637123307794333,-1.5242343508601188,-0.8077338337898254,2.601231813430786,1.07348895072937
1783202022684530200,4.7285302734375,1.7840911557048558,-0.5334504586189985,-1.808466303026676,-0.728421151638031,2.4785051345825195,1.1169400215148926
1783202022694467300,4.73846728515625,1.7517445911124347,-0.3301052300691604,-1.8608418024301527,-0.6245510578155518,2.4987688064575195,1.116413712501526
1783202022704404500,4.748404541015625,1.7005393045321109,-0.2089747588694095,-1.8395061689347028,-0.4343126118183136,2.617143392562866,1.1494814157485962
1783202022714341400,4.75834130859375,1.7070776202596722,-0.4086018436789512,-2.1238900967925787,-0.1575139462947845,2.801945924758911,1.2601479291915894
1783202022724278500,4.768278564453125,1.7045875570096074,-0.6857546512395143,-2.676468449729681,0.12209053337574,2.918813705444336,1.428988337516785
1783202022734215200,4.778215087890625,1.5065988870568572,-0.7693991491317749,-3.422498998233676,0.3660406470298767,2.856282949447632,1.5666292905807495
1783202022744152300,4.78815234375,1.1329741026043891,-0.6969558442115783,-4.244024055922031,0.5283800363540649,2.641573667526245,1.611184000968933
1783202022754089500,4.79808935546875,0.8385441431589424,-0.3221130622714758,-4.74526560485363,0.6019312739372253,2.285705327987671,1.593651294708252
1783202022764026400,4.8080263671875,0.6675633071191609,0.0900882672041654,-4.9174768594712015,0.5939223766326904,1.894920825958252,1.530736207962036
1783202022773963800,4.8179638671875,0.5649059195905923,0.3300222279608249,-4.742055995157361,0.5345156788825989,1.5376019477844238,1.4669195413589478
1783202022783900700,4.827900634765625,0.5658613206192851,0.3295335676610469,-4.266913933122158,0.4699145853519439,1.2264676094055176,1.4280989170074463
1783202022793836800,4.8378369140625,0.5669402018971741,0.2104518456846475,-3.844243232080341,0.4328353404998779,0.9742955565452576,1.4099745750427246
1783202022803774000,4.84777392578125,0.5591857883781194,0.1905488753408193,-3.533488599169254,0.4754664003849029,0.8162204623222351,1.4160984754562378
1783202022813710600,4.857710693359375,0.6359592314571142,0.1166647239625453,-3.1579023053854702,0.6180379390716553,0.7832691669464111,1.4464023113250732
1783202022823647700,4.867647705078125,0.8114531610071659,0.0102472532480955,-2.7599229780077934,0.8533138632774353,0.8836669325828552,1.510581612586975
1783202022833585000,4.8775849609375,0.9018485944643616,-0.0186567696750164,-2.309458845633268,1.1311979293823242,1.068371057510376,1.589544415473938
1783202022843521800,4.887521728515625,0.92834409494102,0.0648591334015131,-1.9123124619483949,1.3959749937057495,1.251339077949524,1.6698919534683228
1783202022853459000,4.897458984375,0.8758313790239394,0.2605687525063753,-1.5898141997516155,1.5938150882720947,1.3644294738769531,1.71649432182312
1783202022863395600,4.9073955078125,0.6783405755907297,0.5754284826487303,-1.3116343872308731,1.691023826599121,1.423022747039795,1.726784348487854
1783202022873332700,4.917332763671875,0.461625797053799,0.8195750926643609,-0.912202522957325,1.6711994409561155,1.438040852546692,1.7280293703079224
1783202022883270000,4.927269775390625,0.2823657199032604,0.9796943429499864,-0.457976407700777,1.5474772453308103,1.471324443817139,1.7303553819656372
1783202022893206800,4.937206787109375,0.1265806263644248,1.0854279230535029,0.0479974304497241,1.3552334308624268,1.4781904220581057,1.728623390197754
1783202022903144000,4.94714404296875,-0.0430864236630499,1.1342980446845292,0.4232774347633123,1.1213090419769287,1.4484472274780271,1.7006007432937622
1783202022913080600,4.95708056640625,-0.0848033856038004,1.2623410717517136,0.73320847633183,0.8965259790420532,1.5408320426940918,1.6635533571243286
1783202022923017700,4.967017822265625,-0.0694486531488597,1.5172668499350548,1.0002730205982924,0.7775676250457764,1.6352953910827637,1.6413471698760986
1783202022932953900,4.976953857421875,0.0456472140617668,1.502839096131921,0.8892746518343686,0.7504109740257263,1.616513967514038,1.5599945783615112
1783202022942891000,4.98689111328125,-0.1679134112931788,1.182792318740487,0.6622586248397827,0.7335814237594604,1.6506463289260864,1.4730924367904663
1783202022952827600,4.99682763671875,-0.2025119195308536,1.2429513116270303,0.9419868358463048,0.6910388469696045,1.7935024499893188,1.4023916721343994
1783202022962764800,5.006764892578125,-0.1899831312168389,1.3021855908840894,1.3680758208990096,0.5972087383270264,1.958763599395752,1.3419408798217771
1783202022972701700,5.01670166015625,-0.155609517776221,1.2991934233307838,1.7082383346021175,0.4240584671497345,2.054321050643921,1.2676293849945068
1783202022982638800,5.026638916015625,-0.2244517294645309,1.342466747868061,1.7733406291097402,0.1897652596235275,1.990634560585022,1.201504468917847
1783202022992576000,5.036575927734375,-0.4288488782200962,1.3875275403439995,1.3647615817844867,-0.1135173887014389,1.7922824621200562,1.130190372467041
1783202023002512600,5.0465126953125,-0.607641191728413,1.4511556706458328,0.805911893492937,-0.4490916430950165,1.5013068914413452,1.0160741806030271
1783202023012449800,5.05644970703125,-0.8271789187315851,1.5837205590516328,0.4014116399139165,-0.7232552766799927,1.169326901435852,0.8557721972465515
1783202023022386700,5.06638671875,-1.0671982196841387,1.5966589510798452,0.0505325018852949,-0.8978686332702637,0.9389997720718384,0.7318223118782043
1783202023032323800,5.07632373046875,-1.191211187517643,1.5038853903144598,-0.2880804442882537,-0.9411247968673706,0.8827000260353088,0.7156519889831543
1783202023042260700,5.0862607421875,-1.059122099930048,0.9027700932234524,-0.5325251604676247,-0.8249004483222961,1.0791901350021362,0.6361387968063354
1783202023052197600,5.09619775390625,-0.7672874176748097,0.92976156052351,-0.5592459941327571,-0.7300032377243042,1.2513262033462524,0.5069726705551147
1783202023062134800,5.106134765625,-1.208536343262717,1.8694342742085452,-0.6823048030465841,-0.6221518516540527,1.278638482093811,0.3048997819423675
1783202023072071700,5.11607177734375,-1.3937611740365623,1.48989719697237,-1.105460072734952,-0.4315434992313385,1.3310004472732544,0.1854926347732544
1783202023082007600,5.126007568359375,-0.7854569883547723,1.0629892967522143,-1.3512614642202854,-0.2287051528692245,1.3457767963409424,0.1440170854330063
1783202023091944700,5.13594482421875,-0.3712738374121487,1.078435872209072,-1.306981592988968,-0.0839967727661132,1.2949162721633911,0.0894623845815658
1783202023101881900,5.1458818359375,-0.2474726856984198,0.8912842380911111,-1.349303315889835,-0.0275252386927604,1.1712881326675415,0.0237451568245887
1783202023111818800,5.15581884765625,-0.1295893797263503,0.7970908736556768,-1.2680571113109589,-0.0789138227701187,0.9404692649841307,9.91709530353e-05
1783202023121756000,5.165755859375,-0.0377394366119056,0.7710878328710794,-1.1091799700409173,-0.2270819842815399,0.7014130353927612,-0.0005351940635591
1783202023131692500,5.175692626953125,-0.0389351492024958,0.5644967542678118,-0.9763058695554732,-0.3988327383995056,0.4684154987335205,-0.047755803912878
1783202023141629700,5.185629638671875,-0.160202983046323,0.6239876386344433,-0.8813117101311683,-0.5966640710830688,0.2103259116411209,-0.1989264190196991
1783202023151566800,5.19556689453125,-0.5992404431298375,1.2058908702552318,-0.9334984089642764,-0.7241572737693787,-0.0978483632206916,-0.3891958892345428
1783202023161503700,5.205503662109375,-0.7799003771409392,1.1108896965682509,-1.2940712580114602,-0.7067438960075378,-0.3640246391296386,-0.4943239092826843
1783202023171441000,5.21544091796875,-0.4101452737286686,0.8193693409591912,-1.6807745736151931,-0.6407366394996643,-0.5331951975822449,-0.5483787059783936
1783202023181377500,5.22537744140625,-0.1605691860102117,0.7687883237570524,-1.7114742477834224,-0.5665590763092041,-0.641752302646637,-0.6091909408569336
1783202023191314700,5.235314697265625,-0.2028786339513957,0.6375087989866733,-1.6820441551595926,-0.4587301015853882,-0.720497190952301,-0.6649212837219238
1783202023201251800,5.245251953125,-0.1931761551044881,0.5180541520446539,-1.666981610584259,-0.3465838432312011,-0.8037286996841431,-0.7021480202674866
1783202023211188700,5.255188720703125,-0.0560490733496844,0.5328115761935711,-1.6348539494395256,-0.2602919638156891,-0.9064316153526306,-0.7204075455665588
1783202023221126000,5.2651259765625,0.0482611959524452,0.6312310338914394,-1.5639970369279383,-0.2191163003444671,-1.049132227897644,-0.7657287120819092
1783202023231061800,5.275061767578125,0.0514607226461172,0.7740507743299007,-1.4834522586166858,-0.2329127490520477,-1.2327780723571775,-0.8394983410835266
1783202023240998700,5.28499853515625,0.0421380368970334,0.8892161996454,-1.3213614159971474,-0.2752969563007355,-1.345125675201416,-0.9023502469062804
1783202023250935800,5.294935791015625,0.1151852990597486,0.9469336445987224,-0.9675269352942704,-0.3044713735580444,-1.354818344116211,-0.9468359351158142
1783202023260873000,5.304873046875,0.2008636408671736,0.8944266277700662,-0.5609235719561576,-0.3035376667976379,-1.2944062948226929,-0.9784303307533264
1783202023270809600,5.3148095703125,0.2697523220457136,0.788371560627222,-0.2360141569644212,-0.2849200665950775,-1.2189390659332275,-0.9945744276046752
1783202023280746800,5.324746826171875,0.2938404691196978,0.7440279765099287,-0.0950654710948467,-0.2568089067935943,-1.19123113155365,-1.016179442405701
1783202023290683600,5.33468359375,0.2670581145256757,0.8436609016507863,-0.1928723498523235,-0.2325105965137481,-1.274563550949097,-1.0686464309692385
1783202023300620800,5.344620849609375,0.124544955818355,1.0518395417064428,-0.5113941096335649,-0.229981392621994,-1.499732494354248,-1.1940375566482544
1783202023310558000,5.354557861328125,-0.3105523883372545,1.279284023246169,-1.0050842202723025,-0.26382976770401,-1.890519857406616,-1.3840302228927612
1783202023320494600,5.36449462890625,-0.7631181691661476,1.5312106196135282,-1.5804314543783664,-0.3725940585136413,-2.275689125061035,-1.6002589464187622
1783202023330431700,5.374431640625,-0.9385999698869884,1.7880524605512618,-1.6538497418105602,-0.5469017028808594,-2.47782039642334,-1.7907726764678955
1783202023340368600,5.38436865234375,-0.9053843673750758,1.756030013346672,-0.9204051186352968,-0.7184790968894958,-2.560105800628662,-1.953178882598877
1783202023350305800,5.394305908203125,-0.8762729853115976,1.1220423742234706,-0.2159048503935337,-0.8630773425102234,-2.555161952972412,-2.0880320072174072
1783202023360243000,5.404242919921875,-0.7032218458037823,0.7092810727775096,0.3406143491238355,-0.9828926920890808,-2.4636688232421875,-2.173403739929199
1783202023370178800,5.4141787109375,-0.4588468338597565,0.719875532028079,0.9429892908871174,-1.0648038387298584,-2.3165082931518555,-2.231085538864136
1783202023380115700,5.42411572265625,-0.3197013980198651,0.830140325820446,1.3828472735732793,-1.0935758352279663,-2.173560619354248,-2.295063734054565
1783202023390052900,5.434052978515625,-0.2850542283348738,1.0916688632696867,1.5704548347651957,-1.0754611492156982,-2.085784912109375,-2.3871564865112305
1783202023399989800,5.44398974609375,-0.4157572683915496,1.511492358186841,1.4954226823955774,-1.018612027168274,-2.039360523223877,-2.5318562984466557
1783202023409926700,5.4539267578125,-0.7436094588369131,1.9903134009957315,1.1856734271347522,-0.9449957013130188,-2.0446743965148926,-2.7360126972198486
1783202023419863800,5.46386376953125,-1.2111138656005265,2.2816887951761484,0.7754816839158535,-0.8759782910346985,-2.089928150177002,-2.9803290367126465
1783202023429800700,5.47380078125,-1.61495536300987,2.4094354696452616,0.431122303044796,-0.8623605370521545,-2.129796028137207,-3.206471920013428
1783202023439737900,5.48373779296875,-1.682703495851159,2.3653169264554976,0.4408955090403557,-0.9463433027267456,-2.066171884536743,-3.3539443016052246
1783202023449674800,5.4936748046875,-1.34952748003453,1.9627894342541692,0.964422539538145,-1.124669313430786,-1.9613287448883057,-3.4008946418762207
1783202023459611600,5.503611572265625,-0.7469431333042681,1.2916121744215487,1.4300614446908235,-1.3762855529785156,-1.8826371431350708,-3.3359198570251465
1783202023469548800,5.513548828125,0.0450353657737374,0.6351718804717064,1.7220973486065865,-1.6804169416427612,-1.8332611322402956,-3.194077730178833
1783202023479485700,5.523485595703125,0.7787883242458105,0.1545692149430513,1.8324825539082288,-2.0297300815582275,-1.791655659675598,-3.035215139389038
1783202023489422800,5.5334228515625,1.373101540106535,-0.0788929194509983,1.7768828317612408,-2.3589208126068115,-1.7201423645019531,-2.9368999004364014
1783202023499359700,5.54335986328125,1.6970394797176125,-0.0299117386609315,1.2768740394949911,-2.6253464221954346,-1.6608988046646118,-2.9204630851745605
1783202023509296600,5.553296630859375,1.6981052092529831,0.0707283176958561,0.2979834141433238,-2.7718465328216557,-1.6728837490081787,-2.990633249282837
1783202023519233800,5.56323388671875,1.5108881086833774,0.1555623176336288,-0.8215718194395303,-2.807302951812744,-1.791576266288757,-3.087456703186035
1783202023529170000,5.573169921875,1.260485653143376,0.3009451865583658,-2.0134201358169315,-2.794616460800171,-1.943582534790039,-3.2498066425323486
1783202023539106800,5.58310693359375,1.0518005248703062,0.7256929861351847,-2.994668137949705,-2.6846790313720703,-2.1635489463806152,-3.45871901512146
1783202023549043700,5.593043701171875,0.6328248789541423,0.7375187407463789,-3.7196184890240422,-2.520479679107666,-2.3468503952026367,-3.631127119064331
1783202023558980600,5.602980712890625,0.3150951463334262,0.6635837359637021,-3.9830554904431104,-2.344990491867065,-2.420206069946289,-3.707961082458496
1783202023568917800,5.612917724609375,0.1527745866112411,0.6159677060469985,-3.7846144005477433,-2.1669270992279053,-2.4075863361358643,-3.67680025100708
1783202023578855000,5.62285498046875,0.0831080529280006,0.4582885423898696,-3.609862813797593,-1.9896529912948608,-2.282583713531494,-3.575081825256348
1783202023588791800,5.632791748046875,0.1131665065832436,0.2891986346632242,-3.3760067116498944,-1.7953978776931765,-2.073570251464844,-3.4546761512756348
1783202023598728700,5.642728759765625,0.1688361521612852,0.2494856329560279,-3.099510322171449,-1.5654115676879885,-1.8465163707733157,-3.346172332763672
1783202023608665600,5.65266552734375,0.246641349440813,0.3656353931337595,-2.929329112076759,-1.308396816253662,-1.6123416423797607,-3.228752374649048
1783202023618602800,5.662602783203125,0.5390884645059705,0.6156051563449204,-2.7799872763931748,-1.0425560474395752,-1.414835810661316,-3.1146483421325684
1783202023628540000,5.672539794921875,0.8215018960084766,0.7852750559166073,-2.6387100892215964,-0.7710476517677307,-1.3004590272903442,-2.989518165588379
1783202023638476800,5.682476806640625,1.1590134568113832,0.857776959156245,-2.5349054313540456,-0.4840744733810425,-1.1792007684707642,-2.8398208618164062
1783202023648413700,5.69241357421875,1.477692672176659,0.979782605755329,-2.30132346997261,-0.177776962518692,-0.98031085729599,-2.651526689529419
1783202023658350600,5.7023505859375,1.7351451923586427,1.1759873149007558,-1.9222493340730664,0.1478200554847717,-0.8088128566741943,-2.44555139541626
1783202023668287700,5.712287841796875,1.836454380148649,1.2212437760792672,-1.5860674144387243,0.47425577044487,-0.7048945426940918,-2.233035087585449
1783202023678225000,5.722224853515625,1.6903411511227489,1.0833975862696763,-1.2988801195979118,0.7663142681121826,-0.6045764684677124,-2.0131731033325195
1783202023688160800,5.732160888671875,1.4879730970419942,0.9396117772780358,-1.0792132863223551,0.9793525338172911,-0.5462502837181091,-1.8223309516906736
1783202023698097700,5.74209765625,1.2076091454152018,0.8686723010495304,-0.8573416364789008,1.1139774322509766,-0.5381718277931213,-1.6658809185028076
1783202023708034800,5.752034912109375,0.9573193564694374,0.9416228248395024,-0.634525399261713,1.1471656560897827,-0.6027264595031738,-1.5545274019241333
1783202023717971700,5.7619716796875,0.8259531032636761,1.127469075447321,-0.3389864556610584,1.0758419036865234,-0.7303552627563477,-1.5022151470184326
1783202023727908900,5.771908935546875,0.6076640611473471,1.3386287771403789,0.087435122346878,0.93234521150589,-0.881284773349762,-1.499513864517212
1783202023737845800,5.781845703125,0.2966984888993203,1.4094333749428392,0.5260311222732067,0.7430139183998108,-0.9801669120788574,-1.5320340394973757
1783202023747782700,5.79178271484375,0.0333388635654002,1.27310913400352,1.0732108310371635,0.5218256115913391,-0.9809796810150146,-1.5784177780151367
1783202023757719800,5.8017197265625,-0.1244007981073111,0.9741825937911868,1.605199400410056,0.2864215970039367,-0.8803611993789673,-1.5948652029037476
1783202023767656700,5.81165673828125,-0.0839266758345067,0.5548857530966401,1.9659031823605295,0.0704040825366973,-0.6715683341026306,-1.593173265457153
1783202023777594000,5.821593994140625,0.1215814298376441,0.2256985146552324,2.213615375903249,-0.1078929528594017,-0.4170326888561249,-1.5435162782669067
1783202023787531000,5.831531005859375,0.3524420764964073,0.1601204193294048,2.280704460313916,-0.2418794184923172,-0.1771083325147628,-1.4460009336471558
1783202023797468000,5.841468017578125,0.6039492784079163,0.2362242925837636,1.9770880087196825,-0.3204256594181061,-0.0521442852914333,-1.3281152248382568
1783202023807405000,5.851405029296875,0.8284696161292493,0.3662544018149375,1.434383984065056,-0.3906008303165436,-0.0563018731772899,-1.2158844470977783
1783202023817342000,5.861342041015625,0.9584932225544004,0.4666948439463972,0.902957724750042,-0.4581585526466369,-0.1666278392076492,-1.1551183462142944
1783202023827279000,5.871279052734375,0.9806875917710364,0.6366022055357694,0.5786649803519248,-0.5335574746131897,-0.2841652631759643,-1.1550006866455078
1783202023837215000,5.881215087890625,0.7715588113836943,0.800480077702552,0.3573930499672889,-0.6066228747367859,-0.3226234316825866,-1.201482176780701
1783202023847151900,5.89115185546875,0.5185639281976968,0.8966472264289855,0.1178553950518369,-0.673736572265625,-0.3144049346446991,-1.290562868118286
1783202023857089000,5.901089111328125,0.2050423147913068,0.8328574758246541,-0.1609340737998485,-0.707663357257843,-0.2899733781814575,-1.424072504043579
1783202023867026200,5.911026123046875,-0.080509597400017,0.8432010290540755,-0.5350269141554832,-0.6946424841880798,-0.2659226059913635,-1.562137007713318
1783202023876962800,5.920962890625,-0.2094490618502721,0.8646773861944675,-0.9664765494585036,-0.6336425542831421,-0.267194002866745,-1.677040457725525
1783202023886900000,5.93089990234375,-0.1951585610933601,0.7258728727467357,-1.3836065675079825,-0.5378317832946777,-0.2854032814502716,-1.7568389177322388
1783202023896837000,5.940837158203125,-0.0635000834753736,0.4343756057523191,-1.6966770761460064,-0.4147074520587921,-0.2965483367443084,-1.8028647899627688
1783202023906774000,5.95077392578125,0.1337187346160411,0.0892342807233333,-1.893380382463336,-0.2692355811595917,-0.2731535732746124,-1.8028812408447263
1783202023916711200,5.960711181640625,0.3761326025549322,-0.160178725387901,-1.9983961696863173,-0.1367899179458618,-0.2038677185773849,-1.7413358688354492
1783202023926647800,5.970647705078125,0.6836206348855048,-0.2912418309286236,-1.93880474755466,-0.0608142875134944,-0.1343247145414352,-1.6148051023483276
1783202023936585000,5.9805849609375,0.9979371980618684,-0.3108779670298099,-1.7436738051205871,-0.0417868010699749,-0.0881015658378601,-1.465870976448059
1783202023946522000,5.990522216796875,1.1180037663571536,-0.2958537086382508,-1.5858359437704086,-0.0569980405271053,-0.114081397652626,-1.355237364768982
1783202023956459000,6.000458984375,1.090864268888533,-0.0310629545226693,-1.5474591591030358,-0.0657571703195571,-0.2322919219732284,-1.3193894624710083
1783202023966396000,6.01039599609375,0.9295091931976376,0.4753538050897419,-1.6629758820742369,-0.0578259862959384,-0.401403933763504,-1.346846342086792
1783202023976332800,6.020332763671875,0.6551454318337142,0.8792569695584476,-1.738661529916525,-0.046082779765129,-0.5700762867927551,-1.405259609222412
1783202023986270000,6.03027001953125,0.343452933550626,1.0381137986928224,-1.6984879249602556,-0.0489047728478908,-0.7042626142501831,-1.4573103189468384
1783202023996207000,6.04020703125,0.0905468611592426,0.9471101702094078,-1.6345763015419243,-0.0605017729103565,-0.7486010193824768,-1.5031161308288574
1783202024006143000,6.05014306640625,-0.0780026926130056,0.9272210822604596,-1.408243580636382,-0.0700595527887344,-0.718390941619873,-1.5401513576507568
1783202024016080000,6.060079833984375,-0.1531475846420973,0.9762067930951714,-1.1733996364951134,-0.0932194665074348,-0.6489977836608887,-1.5847514867782593
1783202024026017000,6.07001708984375,-0.191543439336121,1.0590598483487963,-0.9211246650815008,-0.1352435797452926,-0.6078678965568542,-1.618964672088623
1783202024035954000,6.079953857421875,-0.1291968002121895,1.1315019842252134,-0.7702718403130769,-0.1548231393098831,-0.6365117430686951,-1.632121443748474
1783202024045891000,6.08989111328125,-0.0740254595451056,1.0694675528556108,-0.8340636367440223,-0.1450012922286987,-0.7071248888969421,-1.6416537761688232
1783202024055828000,6.099827880859375,-0.0754185213387012,0.9932767319701612,-0.8650386207222938,-0.0919692367315292,-0.8009856343269348,-1.6424682140350342
1783202024065764900,6.109764892578125,-0.131033441054821,1.0183581278651952,-0.7458236277550458,0.0038672620430588,-0.9116942286491394,-1.5921189785003662
1783202024075702000,6.119701904296875,-0.2486790110145695,0.9506247542016208,-0.4067085772782564,0.086921140551567,-0.8815629482269287,-1.4611390829086304
1783202024085639000,6.129638916015625,-0.0298672419320791,0.9270026172041892,0.3499316280454397,0.1740994900465011,-0.6454249620437622,-1.3159500360488892
1783202024095576000,6.139576171875,0.1158705779101699,1.3128873099014162,1.1752169150501488,0.2451209276914596,-0.4512286484241485,-1.2291793823242188
1783202024105513000,6.149512939453125,-0.3180765002317726,1.451238526623696,1.5396563763976097,0.3119766414165497,-0.301520824432373,-1.2076245546340942
1783202024115449900,6.159449951171875,-0.6369158745948225,1.4742423855923117,1.9427590381383892,0.3151857554912567,-0.1889553964138031,-1.1816898584365845
1783202024125387000,6.169386962890625,-0.8331392884407192,1.4535323366492985,2.507206108045578,0.1678199470043182,0.0326901786029338,-1.2226125001907349
1783202024135324000,6.179323974609375,-0.8764265684381127,1.8158363934032615,3.176312406823039,-0.0204271990805864,0.375897616147995,-1.417888045310974
1783202024145261000,6.189260986328125,-0.8553126879345625,2.373208410357684,3.6765485781043767,-0.1018875762820243,0.6878314018249512,-1.6771756410598757
1783202024155198000,6.199197998046875,-0.7053318236950784,2.174114263381064,3.571072772154212,-0.1801099479198455,0.7773737907409668,-1.9838449954986568
1783202024165134000,6.209134033203125,-0.458314992005378,1.9966339823193848,2.830847695058584,-0.211525097489357,0.7704063653945923,-2.3342864513397217
1783202024175071000,6.219071044921875,-0.2561142207829281,2.40481365506351,2.2982091373443603,-0.1022963523864746,0.6365076899528503,-2.5929207801818848
1783202024185008000,6.229008056640625,0.2106912073984742,2.384882043147087,1.6568214510977268,0.0163510553538799,0.1636564433574676,-2.6544442176818848
1783202024194944800,6.23894482421875,0.8498883978635072,1.5324891151167452,0.4403904821276664,0.0792221575975418,-0.4077423214912414,-2.5426480770111084
1783202024204882000,6.2488818359375,1.1909900190476328,0.8313985091879963,-0.1948030256539583,0.0868136137723922,-0.6967011094093323,-2.3470613956451416
1783202024214819000,6.258819091796875,1.29669678420946,0.278224382314831,0.2227104387551546,0.0399190746247768,-0.7056198120117188,-2.0726561546325684
1783202024224756000,6.268755859375,1.4793164739862084,-0.4231587768197059,0.8968126461237669,-0.053017932921648,-0.434543639421463,-1.7860676050186155
1783202024234693000,6.278693115234375,1.5465556343920528,-0.9106588006466628,1.3060083640426396,-0.1450120359659195,-0.0848692581057548,-1.546060562133789
1783202024244629800,6.288629638671875,1.4910589342281222,-1.056113858024776,1.6389239753574132,-0.207319438457489,0.1896193474531173,-1.3483322858810425
1783202024254567000,6.29856689453125,1.3465433496572077,-1.0606129230096937,1.616525681066513,-0.2297014445066452,0.4371316730976105,-1.2092660665512085
1783202024264504000,6.308504150390625,1.3223238312885164,-0.7198736323319375,1.4081781141847372,-0.2088337242603302,0.7395967841148376,-1.356526255607605
1783202024274441000,6.31844091796875,1.068856289089471,0.9790934544473886,1.4443302085399627,-0.1815067678689956,1.0108872652053833,-1.6028414964675903
1783202024284378000,6.328378173828125,0.8730492009595036,1.7799257065884768,1.3210820145338773,-0.2432410418987274,1.1591662168502808,-1.867946028709412
1783202024294314800,6.338314697265625,1.067091909765452,1.5962313733175395,0.840589823642373,-0.4838147759437561,1.0800769329071045,-2.060133218765259
1783202024304252000,6.348251953125,1.0902513976871966,1.13675829731822,0.3047702978044748,-0.8606937527656555,1.0263352394104004,-2.180401563644409
1783202024314189000,6.35818896484375,0.954215326039493,0.0479541027646511,-0.3432055346608161,-1.24656343460083,0.9294654726982116,-2.3783557415008545
1783202024324126000,6.3681259765625,0.5655525469310582,-0.2386149140473455,-0.7887538379430771,-1.4548739194869995,0.7544811964035034,-2.4782145023345947
1783202024334061800,6.378061767578125,0.7260498367488384,-0.3262216666340827,-1.388416598138213,-1.4081083536148071,0.4704202115535736,-2.427396535873413
1783202024343999000,6.3879990234375,1.320374596916884,-0.968573375607282,-2.263845679971576,-1.183213710784912,0.2176873683929443,-2.216207504272461
1783202024353936000,6.397935791015625,1.5760643452100456,-1.6045903286010026,-2.8720938976824284,-0.8813827633857727,0.0561607852578163,-1.89671790599823
1783202024363873000,6.407873046875,1.4975323680259287,-1.960982677093148,-3.123863842183351,-0.5878086090087891,-0.1011711061000824,-1.5461336374282837
1783202024373810200,6.41781005859375,1.373767748930305,-1.980387927047908,-3.23330446011126,-0.3308777213096618,-0.4200367033481598,-1.240822672843933
1783202024383746800,6.427746826171875,1.1928520865924657,-1.776621258215606,-3.572594282633066,-0.1131168007850647,-0.8180987238883972,-1.018434762954712
1783202024393684000,6.43768408203125,1.1540791422143577,-1.3676768847092986,-3.739589848428965,0.0576016753911972,-1.160981297492981,-0.8089099526405334
1783202024403620900,6.447620849609375,1.1713711994074285,-0.8119260392159223,-3.4088106646209955,0.2054968923330307,-1.4664738178253174,-0.6552767753601074
1783202024413558000,6.45755810546875,0.8069808378987013,-0.3750545980598777,-2.7665339205801485,0.3110323846340179,-1.6776158809661863,-0.6109670996665955
1783202024423495200,6.4674951171875,-0.1448410901982337,-0.0818595872368663,-1.949628923907876,0.3533917665481567,-1.6238502264022827,-0.6285445094108582
1783202024433431800,6.477431884765625,-0.6743727679383009,0.0147307553377002,-0.8699789997339248,0.3507006466388702,-1.510252594947815,-0.6788473725318909
1783202024443369000,6.487368896484375,-1.0209032092381267,0.1006352705838158,-0.0279652807682752,0.3166340887546539,-1.4483413696289062,-0.6987486481666565
1783202024453305900,6.497305908203125,-1.4061859174542128,-0.0383220588054507,0.4633306282103061,0.2138280570507049,-1.2990168333053589,-0.6445551514625549
1783202024463243000,6.507242919921875,-1.6571686571002004,-0.3641321124313399,0.960584568810463,0.0106222294270992,-0.9387975335121156,-0.6468258500099182
1783202024473180200,6.51718017578125,-1.4794186191864311,-0.2820096730072051,1.6182365766376257,-0.1716610193252563,-0.6582567095756531,-0.786786675453186
1783202024483116800,6.52711669921875,-0.7729726237043738,0.2533622551936656,1.943015058726072,-0.250382512807846,-0.4779300987720489,-0.970081627368927
1783202024493054000,6.537053955078125,0.0401923096567392,0.4569613489067182,1.7949556640684603,-0.2359074205160141,-0.3300961852073669,-1.0742160081863403
1783202024502990800,6.546990966796875,0.6288554638665169,0.3460778021614998,1.7230460276335475,-0.1708476841449737,-0.1956068575382232,-1.0681723356246948
1783202024512928000,6.556927978515625,0.658687634485215,-0.0500102315768599,1.6517045464754103,-0.1047118008136749,-0.0186469834297895,-1.0189129114151
1783202024522863900,6.56686376953125,0.5594598560791463,-0.4620282769074663,1.7758990814208984,-0.0407860204577446,0.1458211243152618,-0.9720220565795898
1783202024532801000,6.576801025390625,0.6446811748340725,-0.7022792311914264,1.932075731560588,-0.0400078445672988,0.2979845702648163,-0.925308883190155
1783202024542738000,6.586738037109375,0.8510948510438203,-0.7203570319347083,1.8141963711112736,-0.0483014844357967,0.3462896943092346,-0.8332860469818115
1783202024552675000,6.596675048828125,1.1796417457550763,-0.5190714393284172,1.4406757776856425,-0.0416576974093914,0.2836819589138031,-0.7136209011077881
1783202024562612000,6.606612060546875,1.3523109732732177,-0.3435714818963781,0.9741618432641028,-0.0448918044567108,0.233141228556633,-0.597438633441925
1783202024572548900,6.616548828125,1.1574655697822571,-0.3084761665850877,0.7700766100019216,-0.0645736306905746,0.2231943160295486,-0.5131211280822754
1783202024582486000,6.626486083984375,0.7456263516172766,-0.3553627131834626,0.8195598950952291,-0.1077745109796524,0.2632485926151275,-0.4621382057666778
1783202024592423000,6.6364228515625,0.2841501921672373,-0.414992202303186,0.9528688798666,-0.1600912511348724,0.3464367091655731,-0.4345406591892242
1783202024602360000,6.646360107421875,-0.0963392173577099,-0.5160470134733245,1.159811840647459,-0.1899646967649459,0.5455038547515869,-0.4357889592647552
1783202024612297000,6.656296875,-0.2757454980459064,-0.6389498646404593,1.366442666739225,-0.1666974574327469,0.6405766010284424,-0.5020454525947571
1783202024622233900,6.66623388671875,-0.202735937545076,-0.5448523617949337,1.078939730077982,-0.0698861926794052,0.331629604101181,-0.7146797180175781
1783202024632171000,6.6761708984375,1.3887640964016317,-0.0552262309257872,-1.8101193309307095,0.3576792478561401,0.1742088347673416,-0.7199416160583496
1783202024642108000,6.68610791015625,1.378259945783019,-0.4362011406790465,-2.1447423306852578,0.9747258424758912,0.7578345537185669,-0.5439994931221008
1783202024652045000,6.696045166015625,1.3454106923654674,-0.7489592223670333,-1.1784943292856216,1.75872004032135,1.382837414741516,-0.2555506527423858
1783202024661982000,6.70598193359375,3.3103137577727435,-0.7421214853014797,-0.583422404012084,2.618798017501831,1.6829373836517334,-0.0870559737086296
1783202024671918800,6.7159189453125,2.4052283733442423,-0.6477614590622485,-0.6983774014472961,3.1209051609039307,1.782279133796692,-0.0071108033880591
1783202024681856000,6.72585595703125,1.2650276804871856,-0.3906689312990755,-0.0781388862133026,2.928942441940308,2.275937557220459,0.051655177026987
1783202024691792100,6.735792236328125,0.8690086933970451,0.0298988791793584,1.3932336430311203,2.534982919692993,3.121135950088501,0.2649184465408325
1783202024701729000,6.74572900390625,1.128166410061717,-0.5585208947286009,3.7368987096488473,2.169207811355591,3.666605710983277,0.872033417224884
1783202024711666000,6.755666015625,2.933063622429967,-1.6599501045122742,3.4532296520620585,1.9909303188323972,3.580894947052002,1.6064506769180298
1783202024721602800,6.765602783203125,3.3206425518244505,-2.627244692355394,1.876147508111596,1.9278594255447388,2.971635103225708,1.8909612894058228
1783202024731540000,6.7755400390625,1.1589023245871066,-0.8172891736842691,-0.1456254455089569,1.5703816413879397,3.187857389450073,1.8121311664581297
1783202024741477000,6.78547705078125,-0.8463999712258576,0.9277475903525948,-0.8408020050883293,0.4238567352294922,2.348475694656372,1.019063115119934
1783202024751414000,6.7954140625,-1.161411969320476,2.2185464025646446,-3.783815359124541,-0.6995099186897278,1.6698623895645142,0.1461106687784195
1783202024761351000,6.805350830078125,0.802644416129589,0.6382403281316161,-3.1078070258736608,-1.1743122339248655,1.3927831649780271,-0.0623140931129455
1783202024771287800,6.815287841796875,2.7027108522281047,-2.5649942801475523,-0.1450607973635196,-1.341504454612732,1.241566181182861,-0.1658647209405899
1783202024781224400,6.825224365234375,2.0510212599366904,-1.2213124574013057,-0.7503051570832729,-1.3998210430145264,0.8873172998428345,-0.1544732600450515
1783202024791161300,6.835161376953125,0.3691153442040085,0.4938409172862767,-1.5340876363545657,-1.4014297723770142,0.3718896210193634,0.0040157064795494
1783202024801098200,6.84509814453125,0.0049520694494247,-0.4990986916840076,-1.7846680788099765,-1.342739224433899,-0.1589778363704681,0.1398889422416687
1783202024811035400,6.855035400390625,0.6986284535989165,-1.0776659107498825,-1.759026272553205,-1.3393292427062988,-0.7741428017616272,0.2887074649333954
1783202024820972500,6.86497265625,1.4671101956248285,-0.5227234590299428,-1.7431746234267949,-1.2768033742904663,-1.180404543876648,0.4237164258956909
1783202024830909400,6.874909423828125,1.2062509357392788,-0.0955269511267542,-1.4477923316925765,-1.1647727489471436,-1.340722918510437,0.4639533162117004
1783202024840846300,6.884846435546875,0.411990901595354,-0.2801962669096887,-1.209411445596814,-1.034240484237671,-1.3388409614562988,0.3684062957763672
1783202024850783200,6.894783203125,0.0639054859384894,-0.3634023733846843,-0.8927133941113948,-0.9395267367362976,-1.1090631484985352,0.1742938309907913
1783202024860720400,6.904720458984375,0.2199552948281168,-0.1082376718789339,-0.2296387767136097,-0.9296368360519408,-0.7780579924583435,-0.06129951775074
1783202024870657500,6.914657470703125,0.8914975885808467,0.3342132499098778,0.3637047173321246,-1.0079736709594729,-0.635606050491333,-0.2723433077335357
1783202024880594400,6.924594482421875,1.5439818383812904,0.1010208723679184,0.0581231031447649,-1.0809540748596191,-0.6222946047782898,-0.4093200266361236
1783202024890530300,6.9345302734375,1.1897253328740596,-0.609382336307317,-0.7221165889531374,-1.1311780214309692,-0.445903867483139,-0.5410152077674866
1783202024900467500,6.944467529296875,0.2995481792420149,-0.3714003133360296,-0.9468108950018882,-1.2701900005340576,-0.1450274735689163,-0.6958853006362915
1783202024910404400,6.954404296875,-0.0937006124824285,-0.2171717285241931,-0.6693570586681366,-1.4881303310394287,0.1151572242379188,-0.8356676697731018
1783202024920341500,6.964341552734375,-0.0459676781877875,-0.4390971543814986,-0.2269926461189985,-1.70695161819458,0.2876492738723755,-0.9694892764091492
1783202024930278400,6.9742783203125,0.0864072406038641,-0.4075630386831239,0.0892138224571943,-1.8566702604293823,0.437559425830841,-1.0528730154037476
1783202024940215300,6.98421533203125,0.2718047245308757,-0.4064235497917979,0.2251151618093252,-1.93707275390625,0.6191524267196655,-1.1081724166870115
1783202024950152400,6.99415234375,0.0791977476164698,-0.6557113951534033,0.0607698182612657,-1.982030987739563,0.6285091638565063,-1.173824667930603
1783202024960089300,7.00408935546875,0.1283884795039892,-0.8595771404460072,-0.4844616790443659,-2.0927059650421143,0.3708293437957763,-1.220814824104309
1783202024970026500,7.014026611328125,0.4333347183972597,-1.4100430312737822,-0.827919142639637,-2.2991628646850586,-0.0853959694504737,-1.2294378280639648
1783202024979963400,7.02396337890625,0.9284642141893504,-1.383543146882951,-0.5675912131518125,-2.5275254249572754,-0.5749070644378662,-1.195320725440979
1783202024989900300,7.033900390625,1.4896823851779102,-1.3324180859319863,-0.2449392216980457,-2.702138900756836,-1.1170166730880735,-1.1499196290969849
1783202024999837400,7.04383740234375,1.8387100501209497,-1.3816121788203717,-0.2885065607458353,-2.7476911544799805,-1.8133171796798704,-1.1083635091781616
1783202025009774300,7.0537744140625,1.6820333415046334,-1.355146781221032,-0.5288818355292082,-2.7788610458374023,-1.6226977109909058,-1.1031737327575684
1783202025019711500,7.06371142578125,0.8786248091347515,-1.5493351821079848,-0.2453594929367303,-2.678703784942627,-2.1713967323303223,-1.009105920791626
1783202025029648400,7.0736484375,0.1849191988907754,-1.4436889880269763,-1.5203496183812617,-2.4660770893096924,-2.6504056453704834,-0.8800195455551147
1783202025039585300,7.083585205078125,-0.1314560503810644,-1.6249163466624914,-2.551212423032522,-1.9491902589797971,-0.7421417236328125,-0.807692289352417
1783202025049522400,7.0935224609375,1.2044707743242382,-1.4461325817868114,-5.403603841379285,-1.1388872861862185,-0.5198596119880676,-0.9146386981010436
1783202025059459300,7.103459228515625,-0.9673103699341415,-1.1744713573798538,-7.81810419319868,-0.403260201215744,0.180452823638916,-1.213850021362305
1783202025069396500,7.113396484375,-6.545158140802383,-2.17924081261456,-3.7566426900386807,0.452357530593872,1.4078738689422607,-1.0917131900787354
1783202025079332400,7.123332275390625,-3.795945357379317,-4.069758499123156,-3.99223248411119,1.033655881881714,1.997514009475708,-0.8284704685211182
1783202025089269500,7.13326953125,-2.385584346197545,-3.2650279243692752,-4.1992292209059,1.3788838386535645,2.178725004196167,-0.8022359013557434
1783202025099206400,7.143206298828125,-2.114045579126477,-2.4658850866198536,-3.8328473933190095,1.5546106100082395,2.292165994644165,-0.9593767523765564
1783202025109143600,7.1531435546875,-1.705098283010721,-2.3672546165198085,-2.2876006495684384,1.5607001781463623,2.194204568862915,-1.1796185970306396
1783202025119080200,7.163080078125,-1.58967508354187,-1.8511188653171065,-1.1020067174106836,1.4141929149627686,1.932639479637146,-1.2645015716552734
1783202025129017300,7.173017333984375,-1.367298991307616,-1.7720850760906934,-0.3131418203085661,1.163564682006836,1.5830150842666626,-1.3095085620880127
1783202025138954500,7.18295458984375,-0.8317448384076357,-1.3828659782737494,0.569238980358839,1.013934850692749,1.0479680299758911,-1.2502986192703247
1783202025148891400,7.192891357421875,-0.603512129099667,-1.237301030780375,1.1729776116907595,1.000800609588623,0.4315256178379059,-1.292510986328125
1783202025158828500,7.20282861328125,-0.4652674414917826,-0.8710460444435477,1.5554887363016603,1.0384689569473269,-0.2563675343990326,-1.3480420112609863
1783202025168765200,7.21276513671875,-0.5390191986620426,-0.6807232329435646,1.606430403509736,1.0851049423217771,-0.6918010115623474,-1.4480340480804443
1783202025178702300,7.222702392578125,-0.6923804991200566,-0.4006508846744894,2.1620243048757315,1.0774343013763428,-0.8931801319122314,-1.487247347831726
1783202025188639500,7.232639404296875,-0.6586953794002532,0.0215032451473176,2.7140245656639337,0.9642513394355774,-1.0079448223114014,-1.3771830797195437
1783202025198576400,7.242576416015625,-0.5519421008601785,0.7021992978230118,3.226429898166656,0.7138012647628784,-1.031878113746643,-1.2006709575653076
1783202025208513500,7.252513427734375,-0.2893096938222647,1.068792137812078,3.895076178216934,0.3295033276081085,-1.024992823600769,-1.002179741859436
1783202025218450400,7.262450439453125,0.0730514999464154,0.953383551390469,4.446355723515152,-0.0807435438036918,-1.19378399848938,-0.801795482635498
1783202025228387300,7.27238720703125,0.4301138566546141,0.9727188048489392,4.378551184311509,-0.4212310910224914,-1.714043378829956,-0.6174983978271484
1783202025238324500,7.282324462890625,0.7951338943690061,0.9600631752848624,4.059961619991064,-0.602778971195221,-2.4769155979156494,-0.4448997974395752
1783202025248261400,7.292261474609375,0.9876692673519252,0.6035663435049354,3.795506965962052,-0.5794126391410828,-3.230414867401123,-0.2402893751859665
1783202025258198500,7.302198486328125,2.0819164566770194,0.3152231566272676,3.755398827457428,-0.3188122510910034,-4.124917507171631,-0.048840008676052
1783202025268135400,7.312135498046875,3.0508479980722067,0.3732655957512557,3.385729648762941,0.2260350883007049,-4.90740442276001,0.1248178035020828
1783202025278072300,7.322072265625,4.03348453195393,0.5351650074519216,2.9260253943562504,0.800875723361969,-5.3258957862854,0.2004102915525436
1783202025288009500,7.332009521484375,4.525998584550619,1.5766342540524898,2.445061494299769,1.1075173616409302,-4.535071849822998,0.2018598616123199
1783202025297945600,7.341945556640625,4.612191013360024,3.018028847531974,2.1474708788663146,1.417479157447815,-4.066154479980469,0.0974154248833656
1783202025307882200,7.35188232421875,3.379970939105749,3.877366041742265,0.6474994471251965,1.6589585542678833,-3.380244016647339,-0.1512657552957534
1783202025317819400,7.3618193359375,1.0370325793273747,4.124206420886516,-0.8857885632842779,1.7544410228729248,-2.900944471359253,-0.3647279441356659
1783202025327756300,7.37175634765625,-1.1675291370265186,4.004281233823299,-1.9818612144708632,1.6629382371902466,-2.364098310470581,-0.343464732170105
1783202025337693400,7.381693359375,-2.03247832589969,2.8685373742446303,-2.804030999803543,1.7721948623657229,-1.431161880493164,0.0300383418798446
1783202025347630600,7.391630615234375,-0.8186224681146442,-0.5072929579250515,-2.467382047179341,1.9442492723464968,-0.4401900768280029,0.2674663364887237
1783202025357567200,7.401567138671875,-0.994661902718246,-1.1707491950515656,-2.029526051965356,1.985231637954712,0.167678490281105,0.271534264087677
1783202025367504400,7.41150439453125,-1.608526060614735,-1.2188491360276936,-1.4764549470752475,1.9615343809127808,0.15265853703022,0.1244982257485389
1783202025377441300,7.421441162109375,-1.7439925156809388,-1.616976931965351,-1.7742179964661595,2.0599324703216557,-0.2253530025482177,-0.0828950926661491
1783202025387378400,7.43137841796875,-1.540533305362612,-1.5846150236733256,-2.157298445397615,2.3804967403411865,-0.7653582096099854,-0.3018234372138977
1783202025397315600,7.441315673828125,-1.2913593687042593,-1.2630851681172848,-2.683403801950812,2.915862798690796,-1.2425140142440796,-0.6405559182167053
1783202025407252200,7.451252197265625,-1.112315637718141,-1.0677633792862296,-3.251328192579746,3.4916820526123047,-1.484872341156006,-1.1439104080200195
1783202025417189400,7.461189453125,-1.348167151466757,-0.9902133988767862,-3.275539673772454,3.9042563438415527,-1.4772599935531616,-1.6851035356521606
1783202025427126500,7.47112646484375,-1.9927071642644705,-0.8910656269043683,-2.561070384702086,4.179920673370361,-1.2154000997543335,-2.17434024810791
1783202025437063400,7.4810634765625,-2.704698811174929,-0.7686902702100574,-1.5030617989718913,4.326639175415039,-0.5960350632667542,-2.5609281063079834
1783202025447000600,7.49100048828125,-2.75033418866843,-0.4664100356556475,-0.0216162040024995,4.398808002471924,0.3646579086780548,-2.8265750408172607
1783202025456937200,7.500937255859375,-1.9101161209478972,-0.1773445258527994,1.470486394059658,4.519980430603027,1.5914384126663208,-2.811974048614502
1783202025466874400,7.510874267578125,-0.7729122718192637,-0.77122665681988,2.7478338962852957,4.64825963973999,2.715057134628296,-2.5379793643951416
1783202025476811500,7.5208115234375,-0.4805921441346407,-1.408521520794928,3.666682433128357,4.622650146484375,3.23978042602539,-2.235435962677002
1783202025486748400,7.53074853515625,-0.7636123824238776,-0.6468941747084259,3.3567695117384195,4.399601936340332,3.039501905441284,-1.9497562646865845
1783202025496684300,7.540684326171875,-0.8613545253820717,0.7888754184961319,2.382988192224502,3.807884931564331,1.509672999382019,-1.564502477645874
1783202025506621400,7.550621337890625,-0.8102213541898876,2.045723153528571,0.2470861705988645,3.11147141456604,-0.0949052423238754,-1.0847089290618896
1783202025516558300,7.560558349609375,-1.0009276851147413,2.8618635955691336,-0.2705588161230087,2.516003131866455,-0.6798149347305298,-0.6992396116256714
1783202025526495500,7.57049560546875,-0.7185162263736128,3.270706846788525,2.435788054519892,1.8774946928024288,-1.0869137048721311,-0.563126266002655
1783202025536432400,7.580432373046875,-0.6960770155504346,4.294245592162013,2.516683545964956,1.140552997589111,-1.3345688581466677,-0.6719247698783875
1783202025546369300,7.590369384765625,-0.7898228554140776,5.232630019602179,1.841885173025727,0.5199102163314819,-1.2439042329788208,-0.8850908279418945
1783202025556306400,7.600306396484375,-0.820415196750313,5.244369557234645,1.6522639339238403,0.1611188948154449,-0.5583859086036682,-1.0062646865844729
1783202025566243300,7.610243408203125,-0.1968332163073122,4.474210529646277,1.670221030896902,-0.0241934489458799,0.3752222061157226,-0.9052486419677734
1783202025576180500,7.620180419921875,0.8197817211523651,3.1740584904164075,1.814336071842909,-0.1665713787078857,0.8654963970184326,-0.7277082204818726
1783202025586117600,7.63011767578125,1.080703086488694,2.9208816017270087,0.9819669640570878,-0.266783207654953,1.0113787651062012,-0.4884604811668396
1783202025596054300,7.64005419921875,1.1959797901589422,2.797184494909644,0.5084773454040289,-0.2934107482433319,0.9875026345252992,-0.2005701959133148
1783202025605991400,7.649991455078125,1.4141979589961469,2.1750211490929123,0.5421732787787914,-0.2540833055973053,0.7332093715667725,0.0884829238057136
1783202025615928300,7.65992822265625,1.4419582187116144,1.53762282474339,0.2540022335976362,-0.158840611577034,0.184207409620285,0.3327341675758362
1783202025625865500,7.669865478515625,1.4867559763371945,0.9578700491547584,-0.4929296476602554,-0.0010097026824951,-0.5286489129066467,0.5351911187171936
1783202025635802600,7.679802734375,1.672668277918547,0.3008914105445146,-1.47055712120831,0.2115117013454437,-1.2061152458190918,0.653617262840271
1783202025645739300,7.6897392578125,1.9338884800709784,-0.2796609909892082,-2.4558202042013404,0.4392412602901459,-1.705462098121643,0.6555264592170715
1783202025655676400,7.699676513671875,2.1116830877788364,-0.9085679658472536,-3.2460160576462744,0.5350229144096375,-1.9834758043289185,0.5325697064399719
1783202025665613300,7.70961328125,1.963474786169827,-1.5371949547201391,-3.70807944239974,0.4893366694450378,-2.0171782970428467,0.3756402730941772
1783202025675550500,7.719550537109375,1.5957753001131116,-2.026192523628473,-3.8433343005418776,0.3665150701999664,-1.8153464794158936,0.2506885230541229
1783202025685487600,7.729487548828125,0.9676108141854404,-2.2371955734550952,-3.815456698057056,0.254608005285263,-1.4861127138137815,0.1789299100637436
1783202025695424300,7.73942431640625,0.1468853824421763,-2.244678038164973,-3.9039597418963914,0.2243726402521133,-1.0704689025878906,0.1363584399223327
1783202025705361400,7.749361328125,-0.6751919023014604,-2.167700012424588,-4.003680929842591,0.2907761335372925,-0.5689531564712524,0.0930602252483367
1783202025715297500,7.759297607421875,-1.293320147383213,-1.9826164167523384,-3.7363936827361584,0.4305749237537384,-0.1038075610995292,-0.000561469933018
1783202025725234400,7.769234375,-1.7069865809753535,-1.7386492549568413,-3.2777935901790856,0.5861101746559143,0.2576590478420257,-0.1563521325588226
1783202025735171300,7.77917138671875,-1.957611154833436,-1.5026625705212353,-2.719975583022833,0.7049999833106995,0.478786438703537,-0.3536701202392578
1783202025745108500,7.7891083984375,-2.0589960382081567,-1.283103873795271,-2.019381674569845,0.7700865864753723,0.5501911044120789,-0.573175311088562
1783202025755045400,7.79904541015625,-2.025528068370372,-1.037858947148919,-1.2756348530888555,0.7943927645683289,0.4934760630130768,-0.7878338694572449
1783202025764982500,7.808982421875,-1.8406060930006205,-0.7293243283748626,-0.6865402486592531,0.8034301996231079,0.3495916128158569,-0.9907054901123048
1783202025774919200,7.818919189453125,-1.551235462771356,-0.3553939851045608,-0.2538695471286774,0.7952343225479126,0.1916024088859558,-1.174267053604126
1783202025784856600,7.828856689453125,-1.2465873300418258,0.0872509979516267,0.1578629957914352,0.7413404583930969,0.0657699182629585,-1.317085027694702
1783202025794793700,7.838793701171875,-1.0452157396525144,0.5997434242159128,0.6097235509604215,0.6255846619606018,0.0182542707771062,-1.4045450687408447
1783202025804730600,7.848730712890625,-0.8557018333826214,1.028267527461052,1.0867512806117534,0.4648849666118622,0.0423944927752018,-1.4104589223861694
1783202025814667800,7.858667724609375,-0.603855535709858,1.241769408366084,1.559877911171317,0.2405441552400589,-0.0287991650402545,-1.366718053817749
1783202025824604400,7.8686044921875,-0.8167617157440632,1.6433955678135157,1.6652911732792854,0.0176610071212053,-0.1136485412716865,-1.2821825742721558
1783202025834541600,7.87854150390625,-0.5973069177839905,2.023626472532749,1.667802279317379,-0.1048712134361267,-0.1375440955162048,-1.150237202644348
1783202025844478700,7.888478759765625,-0.1585213866349309,2.0304034193217757,1.5030617989718913,-0.1298580467700958,-0.1217605844140052,-1.022354006767273
1783202025854415600,7.89841552734375,0.024948307567276,1.8513368919819595,1.2980150272011757,-0.0991412475705146,-0.1435944586992263,-0.920595645904541
1783202025864352800,7.908352783203125,0.1606472562151029,1.912282066810131,1.0309165806651115,-0.056786336004734,-0.1624935865402221,-0.8523508310317993
