time,seconds_elapsed,ax,ay,az,gx,gy,gz
1783201552251139000,0.08913916015625,1.6544178970873356,-1.1811644252777098,-0.0164355864942073,-0.0427572131156921,0.0028304627630859,0.4186767935752868
1783201552261076200,0.099076171875,1.6041598282292484,-1.095642443075776,0.2845598689466714,-0.0303527433425188,0.0323153845965862,0.4639862179756164
1783201552271013400,0.109013427734375,1.394537711367011,-1.041477137646079,0.5264952326536179,0.0079736076295375,0.1177200302481651,0.4988389909267425
1783201552280949000,0.118948974609375,1.147038283792138,-0.981022961205244,0.688692458257079,0.0720410048961639,0.2163177132606506,0.5107592940330505
1783201552290886100,0.12888623046875,0.9654229487523436,-0.8274082705080509,0.7485738032460212,0.15017631649971,0.308737576007843,0.5089959502220154
1783201552300823300,0.1388232421875,0.8124047626435756,-0.6554091973364353,0.7988929546415805,0.2255861163139343,0.3939267694950104,0.4932148158550262
1783201552310759700,0.148759765625,0.6734691701620816,-0.5072609553515911,0.8680337108850479,0.2807472646236419,0.4573881328105926,0.4718823730945587
1783201552320695800,0.15869580078125,0.5656403713449836,-0.356231020450592,0.9178115950107574,0.3238334655761719,0.4842405021190643,0.4363248944282532
1783201552330633000,0.168633056640625,0.5287044331356883,-0.177097273093462,1.0355600225567818,0.3449154198169708,0.4984317123889923,0.3875324428081512
1783201552340569900,0.17856982421875,0.4778273555964231,-0.010194061756134,1.179352991941571,0.3640459775924682,0.5239290595054626,0.3365683555603027
1783201552350506800,0.1885068359375,0.4445160376250743,0.0769815328717231,1.3851204792022704,0.3735789358615875,0.5947509407997131,0.3024815320968628
1783201552360443000,0.19844287109375,0.5588523186400532,0.0021861118674278,1.524853359541297,0.4011282622814178,0.6570625305175781,0.2978108823299408
1783201552370380000,0.208380126953125,0.7308513918116688,-0.1176116494238376,1.5505740762531757,0.4199864268302917,0.7267214059829712,0.3319518566131592
1783201552380316700,0.218316650390625,0.93172935346514,-0.1995271315664052,1.530489904123545,0.3923888802528381,0.8110330700874329,0.3985814750194549
1783201552390253800,0.22825390625,1.1079206176295875,-0.22980594997406,1.5334838252425194,0.3054547905921936,0.8615025877952576,0.4582205414772033
1783201552400190000,0.23818994140625,1.074044066990912,-0.2864426139533519,1.4768717111825942,0.1583689600229263,0.8673980236053467,0.5024913549423218
1783201552410126800,0.248126953125,0.9543287232860922,-0.3615753040879965,1.34435241548419,-0.0242670588195323,0.8406949043273926,0.534446120262146
1783201552420063700,0.258063720703125,0.8445347618758678,-0.3376432243585586,1.176841301381588,-0.213765874505043,0.7980539798736572,0.5540815591812134
1783201552430001000,0.2680009765625,0.6731734020859003,-0.2613210321784019,0.89717972587049,-0.3705121278762817,0.758298933506012,0.5527108907699585
1783201552439936800,0.277936767578125,0.5063236745014786,-0.2032803466200828,0.54266077003479,-0.4585959017276764,0.7252491116523743,0.5715941190719604
1783201552449874000,0.2878740234375,0.53638505076617,-0.3013385697901248,0.1020768111616373,-0.4590044915676117,0.6839681267738342,0.5955824255943298
1783201552459810800,0.297810791015625,0.54792935808748,-0.389793682834506,-0.4298766868978738,-0.3920856416225433,0.6410068273544312,0.6019705533981323
1783201552469747700,0.307747802734375,0.4730938973337412,-0.2680009483337402,-0.8418763563215732,-0.2691494822502136,0.6366086006164551,0.581246554851532
1783201552479683800,0.317683837890625,0.3696533966034651,-0.1198410159111022,-1.0137941809505224,-0.1239017620682716,0.7139193415641785,0.5468616485595703
1783201552489621000,0.32762109375,0.3947884223818779,-0.1064513729840517,-1.0122212325453757,-0.0149824786931276,0.8695188760757446,0.5582869648933411
1783201552499557600,0.3375576171875,0.7234697571277618,-0.319391528353095,-0.9665437694758175,0.0553942136466503,1.009825348854065,0.6123334169387817
1783201552509494800,0.347494873046875,1.0262097181484102,-0.6624912645518779,-1.129628299307823,0.0818068161606788,1.0595265626907349,0.6879374384880066
1783201552519431000,0.357430908203125,1.1781512149363755,-0.8612468272238969,-1.466834885814786,0.0731624588370323,1.0159926414489746,0.7546458840370178
1783201552529367800,0.367367919921875,1.2566922522097823,-0.9291378756672144,-1.8652210404276848,0.0425071455538272,0.8967474699020386,0.8107673525810242
1783201552539304700,0.3773046875,1.2720055566757915,-0.929895416036248,-2.214344859221577,0.0230807159096002,0.7412723898887634,0.8448411822319031
1783201552549241900,0.387241943359375,1.24612234287858,-0.8860019137740135,-2.393795417442917,0.0050377026200294,0.6049784421920776,0.8490918278694153
1783201552559178000,0.397177978515625,1.1471470048636196,-0.8956991319239139,-2.43847685521245,0.0016845166683197,0.5285369157791138,0.8389582633972168
1783201552569115000,0.407114990234375,1.0814917526483536,-0.9704869541436432,-2.499247842517495,0.0294982548803091,0.4893669784069061,0.8272804617881775
1783201552579051800,0.4170517578125,1.172877950708568,-1.047055230039358,-2.644008780151605,0.1003346145153045,0.4660238325595855,0.8315510749816895
1783201552588988700,0.42698876953125,1.3894663994520902,-1.1198778896659611,-2.957662057113647,0.2338960021734237,0.4407033026218414,0.8423082828521729
1783201552598925800,0.43692578125,1.65894151199162,-1.0923182670891285,-3.2868881662607192,0.4396925866603851,0.3359169661998749,0.8311789035797119
1783201552608862000,0.446862060546875,1.8674802175313236,-1.1378016688913106,-3.6648178083002567,0.6987335681915283,0.2134718000888824,0.8484153151512146
1783201552618798800,0.456798828125,2.065603035257757,-1.1552087307661771,-3.856140590623021,0.9685482382774352,0.0860203653573989,0.9282225370407104
1783201552628735700,0.46673583984375,2.240310490605235,-0.9733926124572754,-3.711477852666378,1.178627371788025,-0.0380647890269756,1.0789141654968262
1783201552638673000,0.4766728515625,2.227579603847861,-0.8377408639520406,-3.236595902872085,1.314142823219299,-0.1251727938652038,1.210754156112671
1783201552648609000,0.486609130859375,1.9606576829224824,-0.5797486839354038,-2.576017778465152,1.376167893409729,-0.1691629439592361,1.2980992794036863
1783201552658545700,0.496545654296875,1.627939347745478,-0.1163087501317262,-1.9041899457693097,1.3825842142105105,-0.1903462558984756,1.3446193933486938
1783201552668482800,0.50648291015625,1.3138842119842766,0.3577484392762184,-1.284011636289954,1.3411930799484253,-0.1799468845129013,1.3446955680847168
1783201552678419700,0.516419677734375,0.9635556935757398,0.6274982771039008,-0.6726794810891151,1.282379388809204,-0.1343501359224319,1.316476345062256
1783201552688355800,0.52635595703125,0.7021098659738898,0.8007949888706207,-0.1215636019200086,1.230443239212036,-0.0438563302159309,1.276655673980713
1783201552698292700,0.536292724609375,0.4717746314287185,0.9805950911819934,0.2639671627730131,1.1923764944076538,0.0739105194807052,1.241734266281128
1783201552708230000,0.54622998046875,0.3048813569635152,1.1393050591915843,0.5639724381327629,1.1540123224258425,0.2065122723579406,1.2190006971359253
1783201552718166800,0.556166748046875,0.2051566618859767,1.2990893784344195,0.7831593789368867,1.1064159870147705,0.3017727434635162,1.2032535076141355
1783201552728104000,0.56610400390625,0.1337555594950914,1.4430945292651651,0.9251040901064872,1.032928466796875,0.3575574457645416,1.170893669128418
1783201552738039800,0.576039794921875,0.0503936779364943,1.590306951704621,1.054387472623587,0.9353955388069152,0.3699723184108734,1.1132322549819946
1783201552747976700,0.585976806640625,-0.0373941303055733,1.7057091083854437,1.1032155086785551,0.8314156532287598,0.3330006599426269,1.0522758960723877
1783201552757913900,0.595913818359375,-0.0497670704707503,1.7346546323627232,1.088057687035203,0.7235012054443359,0.2625986635684967,1.012826681137085
1783201552767850800,0.605850830078125,0.0421855293005704,1.7080325828969478,1.0698667813062668,0.6331658363342285,0.1967914551496505,0.9736837148666382
1783201552777788000,0.615787841796875,0.126451081700623,1.738314323914051,1.1011474702328443,0.5666972994804382,0.1240682452917099,0.9325495958328248
1783201552787723800,0.625723876953125,0.2204746425271034,1.7935878828465937,1.1308487810134886,0.5177238583564758,0.0701331719756126,0.8931641578674316
1783201552797661000,0.635660888671875,0.2765270768776536,1.821678251299262,1.3256021223068235,0.4716394245624542,0.0642065703868866,0.8610531091690063
1783201552807597800,0.645597900390625,0.2790066187337041,1.8013228610128162,1.5664952834844588,0.4210351407527923,0.1036477237939834,0.8300027847290039
1783201552817535000,0.655534912109375,0.233282393912971,1.7442963209331035,1.7952607844948767,0.3706960678100586,0.1865812242031097,0.8023320436477661
1783201552827471600,0.6654716796875,0.1014018345095217,1.7163813090473412,1.9830378570348024,0.3130571842193603,0.3084207475185394,0.7631779313087463
1783201552837407700,0.67540771484375,-0.0803790663555264,1.722652644401789,2.056737299495935,0.2694697678089142,0.4435506165027618,0.7132676243782043
1783201552847345000,0.685344970703125,-0.2619119838088751,1.6662708319664,2.012293177613616,0.2581250965595245,0.579937219619751,0.6673964262008667
1783201552857282000,0.695281982421875,-0.39134354262501,1.6072259378015994,1.8585393707066773,0.2669723629951477,0.6976318955421448,0.6390108466148376
1783201552867218700,0.70521875,-0.4121443385913967,1.5282885946869849,1.648750957366824,0.2854362726211548,0.787641167640686,0.6298475861549377
1783201552877154800,0.71515478515625,-0.2324099949926137,1.4038544057667257,1.406070912772417,0.3204666972160339,0.8624224662780762,0.6358234286308289
1783201552887092000,0.725092041015625,-0.0120025724828243,1.302311263090372,1.1601473562121392,0.3569841384887695,0.9212244749069214,0.6444767713546753
1783201552897028900,0.73502880859375,0.0664250675439834,1.2752011378467083,0.9700187521100044,0.3571947813034057,1.0039039850234983,0.6610221862792969
1783201552906965800,0.7449658203125,0.0232779997348785,1.223954934734106,0.8494225339174271,0.3065687417984009,1.0976957082748413,0.6897600889205933
1783201552916902700,0.754902587890625,-0.0670474372260272,1.0553232921689748,0.6265308933764696,0.22298464179039,1.1453617811203003,0.7078179121017456
1783201552926838800,0.7648388671875,-0.2350442890189588,0.8252963929206132,0.2677174552172422,0.1330785900354385,1.1254174709320068,0.7062696814537048
1783201552936776000,0.77477587890625,-0.4325213561877608,0.7048328611969947,-0.1229179391384124,0.0610813573002815,1.0756573677062988,0.6771930456161499
1783201552946712800,0.784712890625,-0.6629851855486631,0.7093921319365502,-0.4598299266129731,0.0087259439751505,1.016196846961975,0.62290358543396
1783201552956649700,0.794649658203125,-0.8750321914702653,0.7682581624031066,-0.6934159796476363,-0.0171770267188549,0.9742664694786072,0.543913722038269
1783201552966587000,0.8045869140625,-1.0260840459421277,0.8022703221201897,-0.8900649254292249,-0.0248552076518535,0.976071298122406,0.4584880471229553
1783201552976523800,0.814523681640625,-1.0238495648883283,0.8156330770403146,-1.0513508814066648,-0.0068493094295263,1.006400465965271,0.3861933350563049
1783201552986459600,0.824459716796875,-0.9796392517618836,0.7919324679791927,-1.273170508801937,0.0409315004944801,1.0260523557662964,0.3144159317016601
1783201552996396800,0.834396728515625,-0.913229089526087,0.683056498196721,-1.605775738993287,0.128175601363182,1.0394424200057983,0.2692053020000458
1783201553006334000,0.844333984375,-0.7709659600570797,0.4340490041464567,-2.0429507662057875,0.2401493787765503,0.992351233959198,0.2659879624843597
1783201553016270800,0.854270751953125,-0.5350367048971355,0.2399935819894075,-2.4431454315453767,0.3538748919963836,0.8859856128692627,0.2919910848140716
1783201553026208000,0.8642080078125,-0.362426660220325,0.2021305920630693,-2.600850021904707,0.4240983426570892,0.7434754967689514,0.3170295357704162
1783201553036143900,0.874143798828125,-0.3228141232129186,0.2270709720522165,-2.4989129114747044,0.4592019915580749,0.6284059286117554,0.3255540430545807
1783201553046080800,0.884080810546875,-0.3805882667895406,0.2514595633774996,-2.24554196151793,0.4822871088981628,0.5190106630325317,0.3325900435447693
1783201553056018000,0.894017822265625,-0.4365753077536821,0.2513081722080707,-1.9946745188146828,0.4926697015762329,0.4251579046249389,0.3449577689170837
1783201553065954800,0.903954833984375,-0.50079840827398,0.2657622294962406,-1.8174357914239168,0.4921051561832428,0.3498046398162842,0.3517580330371856
1783201553075891700,0.9138916015625,-0.5064756501927972,0.3559644784688949,-1.6061907495349643,0.4923019409179687,0.3009715974330902,0.3475492000579834
1783201553085827800,0.923827880859375,-0.5599973970219493,0.4375742556631565,-1.3678466883182523,0.4921585619449615,0.2726925611495971,0.3379572927951813
1783201553095765000,0.933764892578125,-0.6786056562677025,0.4979460145175456,-1.1833528752326965,0.4986990094184875,0.2648407518863678,0.3182376325130462
1783201553105702000,0.943701904296875,-0.7944017807021737,0.5770914474248886,-0.9782090728282928,0.5149242877960205,0.2641476988792419,0.2905544936656952
1783201553115638800,0.953638671875,-0.8600622936144471,0.6774076786547899,-0.803524706095457,0.5306171774864197,0.2581952512264251,0.2646403312683105
1783201553125575700,0.96357568359375,-0.8853596703477203,0.8095856135696172,-0.6123749422520399,0.5373982787132263,0.2431544810533523,0.2332685887813568
1783201553135512800,0.973512939453125,-0.8800583490692079,0.9444897585779428,-0.405043858936429,0.5384369492530823,0.2110247761011123,0.1938215792179107
1783201553145449000,0.983448974609375,-0.8758589976832271,1.0674112048476934,-0.2560001294165849,0.5305363535881042,0.2011203616857528,0.149808332324028
1783201553155385900,0.9933857421875,-0.8299155771538614,1.1482441524505616,-0.0545358923077583,0.5140655040740967,0.208116739988327,0.1128657609224319
1783201553165322800,1.00332275390625,-0.8382659107394516,1.1751023487597705,0.1477113118723034,0.4905697405338287,0.2158693522214889,0.0867239460349083
1783201553175260000,1.013260009765625,-0.8973030599892139,1.2215525497674942,0.3443511975646018,0.4646971225738525,0.2543259263038635,0.0578653924167156
1783201553185196800,1.02319677734375,-0.9784595404580236,1.297734456694126,0.5704992095530033,0.4370221793651581,0.2867643237113952,0.0384838245809078
1783201553195134000,1.033134033203125,-0.9932143342584372,1.3727052342653274,0.7468482946276664,0.395820140838623,0.2811320126056671,0.0281709991395473
1783201553205069800,1.04306982421875,-0.946923123204708,1.4145640158295631,0.8975567424893379,0.3301910758018493,0.2309336811304092,0.0291301533579826
1783201553215006700,1.0530068359375,-0.876205911424756,1.4483201549589633,1.023438792130351,0.2292788475751876,0.1396269351243972,0.0334050580859184
1783201553224943900,1.06294384765625,-0.7535720499247313,1.464229087230563,1.1159382121294736,0.0984044522047042,0.0705512687563896,0.0589652135968208
1783201553234881000,1.072881103515625,-0.602414543121308,1.4358189853042362,1.2841802708551286,-0.056486327201128,0.0210838504135608,0.0995419397950172
1783201553244817700,1.082817626953125,-0.4966439920082688,1.3213146542459726,1.4587749134778976,-0.2327646911144256,-0.0075861425139009,0.1287464350461959
1783201553254754800,1.0927548828125,-0.3884957519784569,1.10115506901741,1.5748270585000514,-0.39412721991539,-0.0185197498649358,0.1516046077013015
1783201553264691000,1.10269091796875,-0.3296566095188259,0.8573778768360615,1.5350643724322317,-0.5209699273109436,-0.0135684050619602,0.1409244239330291
1783201553274627800,1.1126279296875,-0.4448328484892845,0.7174369067043066,1.4574977331489325,-0.5871366858482361,0.0209040846675634,0.0928027033805847
1783201553284564700,1.122564697265625,-0.5726284766666591,0.6504518671900034,1.346155373252928,-0.5857930183410645,0.1368146538734436,0.0335901230573654
1783201553294502000,1.132501953125,-0.6218015267670154,0.6174105983316898,1.202087386319041,-0.5321060419082642,0.3423118889331817,-0.0156195033341646
1783201553304438800,1.142438720703125,-0.4741282088175416,0.5126391412585973,0.8670341784536838,-0.4341611862182617,0.5338624119758606,-0.0427818074822425
1783201553314375700,1.152375732421875,-0.2498535894855856,0.278676656126976,0.257264450263977,-0.3576658964157104,0.6497789025306702,-0.0566590055823326
1783201553324311800,1.162311767578125,-0.0290218040838837,-0.021600421911478,-0.3742044840365648,-0.331613540649414,0.7121888399124146,-0.072461687028408
1783201553334248700,1.172248779296875,0.0662091597709804,-0.3776426417917013,-0.8785808238625525,-0.353016585111618,0.7467955350875854,-0.094222642481327
1783201553344185900,1.182185791015625,0.0920128055259585,-0.7941022132337093,-1.2826058611452578,-0.4075085520744324,0.7574360966682434,-0.1024979203939437
1783201553354122800,1.192122802734375,0.0855403946414589,-1.122866550087929,-1.7306348753273486,-0.4753155410289764,0.7326207756996155,-0.0999884232878685
1783201553364059600,1.2020595703125,0.0221481919873505,-1.3779454730063676,-2.2081384057968854,-0.5300134420394897,0.6659685969352722,-0.0769866630434989
1783201553373996800,1.211996826171875,-0.0558668486505746,-1.5592647477090358,-2.736270299741625,-0.5604555010795593,0.5510708093643188,-0.0378403253853321
1783201553383933000,1.221932861328125,0.0083043024867773,-1.6419161429107187,-3.2449487206757066,-0.5649873614311218,0.4198936522006988,0.0163402445614337
1783201553393869600,1.23186962890625,0.0760332191709429,-1.6443524301469326,-3.633108664828539,-0.5145958662033081,0.2638177573680877,0.0731265619397163
1783201553403806700,1.241806640625,0.0709103962644934,-1.6634253794074056,-4.064568821525573,-0.3930173218250274,0.0554408244788646,0.1505750119686126
1783201553413743600,1.25174365234375,0.220777424865961,-1.53046126255095,-4.39438295969367,-0.225385695695877,-0.1763644367456436,0.2304538637399673
1783201553423680800,1.2616806640625,0.2585932146497071,-1.219039105641842,-4.47329166123569,-0.0018723513931035,-0.4285203218460083,0.31955686211586
1783201553433618000,1.271617919921875,0.2652864286780357,-0.901670607548952,-4.369337950286269,0.2215775102376938,-0.6168124675750732,0.3862288296222687
1783201553443554600,1.281554443359375,0.1222170973926782,-0.5106599501401186,-3.85424030995965,0.4094935059547424,-0.711239755153656,0.4167988896369934
1783201553453490700,1.29149072265625,-0.1951823803603649,-0.1195014086931943,-3.0808903773754834,0.5482231974601746,-0.7850319147109985,0.4119111895561218
1783201553463427800,1.301427734375,-0.4640285473465919,0.341644861215353,-2.3011662335842846,0.6243559122085571,-0.8362758755683899,0.3867185413837433
1783201553473364700,1.31136474609375,-0.676799483628571,0.7798714433073997,-1.582817472732067,0.6453323364257812,-0.8518081903457642,0.3418256342411041
1783201553483301600,1.321301513671875,-0.8879974715054034,0.9797335059165954,-0.9689765495806932,0.6473494172096252,-0.8427013158798218,0.2944085597991943
1783201553493238800,1.33123876953125,-0.984236370293796,1.0557768811553716,-0.5267898316860199,0.6540858745574951,-0.9267317652702332,0.2419724911451339
1783201553503175700,1.34117578125,-1.132798307646066,1.3144102816849943,0.2326864738464355,0.553631067276001,-0.6385923027992249,0.1587054878473281
1783201553513111800,1.35111181640625,-1.600380894212425,1.4084943405270576,1.2046212887108323,0.4422986507415771,-0.3681413233280182,0.0414188094437122
1783201553523048700,1.361048583984375,-1.9955831580922003,1.3334651107668876,1.5202999340206385,0.3415538668632507,-0.2307319641113281,-0.0651327893137931
1783201553532985600,1.370985595703125,-1.8738754715263843,1.348839205509424,1.2656558953881265,0.2535054683685303,-0.1751683056354522,-0.1339810937643051
1783201553542922800,1.3809228515625,-1.559050958827883,1.4045266059398651,0.8120736309930682,0.1780346482992172,-0.2008284926414489,-0.1633410900831222
1783201553552860000,1.39085986328125,-1.2459798656679688,1.3315893800228833,0.3814899648696184,0.1291794925928115,-0.2718874812126159,-0.1665936112403869
1783201553562796800,1.400796875,-1.0082958757951854,1.1991793899178504,-0.0477338110774755,0.1018016561865806,-0.3707214891910553,-0.1701887995004654
1783201553572733700,1.410733642578125,-0.8697557123720645,1.1715618996739388,-0.3616483693242073,0.0819405987858772,-0.4599110186100006,-0.1873371601104736
1783201553582669800,1.420669921875,-0.7888552524909377,1.2274550518095493,-0.5006780698299408,0.0574546456336975,-0.5391250848770142,-0.1987616121768951
1783201553592606700,1.430606689453125,-0.7355905491627752,1.1691729587107895,-0.5622799550011753,0.0169431734830141,-0.6102274656295776,-0.1922656297683715
1783201553602543900,1.4405439453125,-0.6948708546310662,0.981474212104082,-0.6572492722451686,-0.0147033166140317,-0.6824900507926941,-0.1689743101596832
1783201553612480800,1.450480712890625,-0.7363122875660657,0.8592711432367562,-0.7247334934532642,-0.0403468944132328,-0.7388968467712402,-0.1252715587615966
1783201553622417700,1.460417724609375,-0.8188743970490991,0.8919108455568552,-0.7128159689053892,-0.0736895874142646,-0.7857381701469421,-0.092958353459835
1783201553632354800,1.470354736328125,-0.9975796898610888,1.0330728819161652,-0.648665860556066,-0.1378299593925476,-0.8338132500648499,-0.0675145089626312
1783201553642291700,1.480291748046875,-1.154212997727096,1.1922446222186087,-0.4934370126605034,-0.2528638839721679,-0.8467122316360474,-0.0515013039112091
1783201553652228900,1.490228759765625,-1.3684485997341571,1.2210726572960615,-0.3914797362253069,-0.3755099177360534,-0.8101566433906555,-0.0599358007311821
1783201553662164700,1.500164794921875,-1.8438585189253087,1.3025216909706592,-0.4439093039035797,-0.4578820168972015,-0.7385482788085938,-0.1594976931810379
1783201553672101600,1.5101015625,-2.432640988665819,1.3830594550192354,-0.6535375582456588,-0.4543072581291199,-0.6753474473953247,-0.3432880342006683
1783201553682038800,1.520038818359375,-2.884365934756398,1.4115513900101184,-1.0942395905405282,-0.3682178854942322,-0.6275320649147034,-0.551950216293335
1783201553691976000,1.529975830078125,-2.95374955984503,1.4181424588382243,-1.5667343529373403,-0.2151841074228286,-0.5772217512130737,-0.7419694066047668
1783201553701912600,1.53991259765625,-2.697885916289687,1.4262889404147865,-1.9149965864658356,-0.0178514532744884,-0.563288688659668,-0.8931753039360046
1783201553711849700,1.549849609375,-2.1928689404726027,1.3870879798829554,-2.221186687940359,0.1721799969673156,-0.5911922454833984,-0.97834450006485
1783201553721786600,1.55978662109375,-1.609777229719609,1.3537117799818514,-2.2817989775523544,0.325628250837326,-0.6274704933166504,-1.0033401250839231
1783201553731722800,1.56972265625,-1.0972323426157236,1.348392046263814,-2.052536048413813,0.4098110496997833,-0.6938902735710144,-0.9759604930877686
1783201553741659600,1.57965966796875,-0.6741603672966361,1.3734826483786104,-1.6342846251189709,0.4125174582004547,-0.8120514154434204,-0.923821747303009
1783201553751596800,1.5895966796875,-0.3492152964696288,1.417623403400183,-1.0754524724841117,0.3267751038074493,-0.922730267047882,-0.8823680877685547
1783201553761533700,1.59953369140625,-0.1961217070370912,1.3613608334302902,-0.3282803527295589,0.1855555772781372,-0.9777523279190063,-0.887325644493103
1783201553771470800,1.609470947265625,-0.2284010516121983,1.269520754122734,0.3733335464209318,0.0685229524970054,-0.9546329379081726,-0.972284734249115
1783201553781407700,1.61940771484375,-0.4094559762902557,1.227623394113779,0.8721151349797844,0.0047619799152016,-0.8327007293701172,-1.1207090616226196
1783201553791344600,1.6293447265625,-0.5733648281171918,1.2109230192035436,1.155404545599222,0.0289765056222677,-0.612291693687439,-1.2927995920181274
1783201553801281800,1.63928173828125,-0.6796539962768554,1.2054893037170171,1.197570785677433,0.1158828064799308,-0.3772678673267364,-1.4596136808395386
1783201553811218700,1.64921875,-0.5684346051733941,1.113161148631573,1.0301832979544996,0.2171124964952469,-0.1790155321359634,-1.5750311613082886
1783201553821154800,1.65915478515625,-0.2847729271754622,0.9594774843513963,0.8119979354083537,0.2764875888824463,-0.0516311340034008,-1.6479840278625488
1783201553831091700,1.669091796875,0.0807698923040181,0.8338257363349199,0.6451897088780999,0.2844608128070831,-0.0173623748123645,-1.7013883590698242
1783201553841028600,1.679028564453125,0.4696870114997029,0.7325514737278223,0.4951093297868967,0.2480697631835937,-0.0556466318666935,-1.7360916137695312
1783201553850965800,1.6889658203125,0.8752432038724421,0.6008703824192285,0.3606093816652894,0.171160876750946,-0.1244709640741348,-1.7259454727172852
1783201553860903000,1.69890283203125,1.3195987902387976,0.3739899645030498,0.2322276241630315,0.0821568667888641,-0.1843605637550354,-1.6652590036392212
1783201553870839800,1.70883984375,1.690185960561037,0.1582856051176786,0.1482537481859326,-0.0008903443813323,-0.2462660074234008,-1.555964469909668
1783201553880776700,1.718776611328125,2.0049328779786824,-0.0301759425550699,0.0893535231888294,-0.0738153532147407,-0.293421596288681,-1.4161254167556765
1783201553890713600,1.728713623046875,2.092510623666644,-0.2739543037801981,0.105163963522017,-0.1364281326532364,-0.3025692999362945,-1.285405516624451
1783201553900649700,1.738649658203125,1.9901658092185852,-0.4918196405917406,0.1555813145950436,-0.2008314579725265,-0.2604806125164032,-1.167440414428711
1783201553910587000,1.7485869140625,1.7892314412027597,-0.6954863561809063,0.1949383424714207,-0.2674847841262817,-0.2035893499851226,-1.070510983467102
1783201553920523500,1.7585234375,1.5415379523605108,-0.8890192157685756,0.2303857956886291,-0.3353970348834991,-0.1672547459602356,-0.9994778633117676
1783201553930460700,1.768460693359375,1.3024360585138202,-0.9777601600170136,0.2144610813260078,-0.4162801504135132,-0.157621830701828,-0.920461893081665
1783201553940397800,1.778397705078125,1.231847441549599,-1.0173521656930449,0.0387356811076402,-0.5129784345626831,-0.1708037108182907,-0.8118348121643066
1783201553950334700,1.788334716796875,1.2246829567477109,-0.9881471139967442,-0.2241208900749683,-0.6021796464920044,-0.2248467057943344,-0.6731368899345398
1783201553960272000,1.79827197265625,1.2075672790348528,-0.8547767544269561,-0.5327922869712114,-0.676522433757782,-0.3295560181140899,-0.5383673310279846
1783201553970208800,1.808208740234375,1.1168474359288811,-0.6283879194200038,-0.792901605272293,-0.7047836184501648,-0.4418868124485016,-0.4324917793273926
1783201553980145700,1.818145751953125,0.9706193483516572,-0.3899871595799922,-1.014769747984409,-0.6864259839057922,-0.5630201101303101,-0.3780644237995147
1783201553990081800,1.828081787109375,0.7633654219254851,-0.1792553279101848,-1.1285317362427711,-0.6226507425308228,-0.6148654818534851,-0.3720573782920837
1783201554000019000,1.83801904296875,0.439760952052474,-0.022393033593893,-1.1549182233870028,-0.5285964012145996,-0.6225430965423584,-0.3840668797492981
1783201554009955600,1.84795556640625,0.2128542306512594,0.0767722740352153,-1.1834271095126867,-0.415126234292984,-0.6455038189888,-0.3932428061962127
1783201554019892700,1.857892822265625,0.0205237325906753,0.1872200231790542,-1.2345897259950638,-0.3326442837715149,-0.6604810953140259,-0.3832665979862213
1783201554029829600,1.86782958984375,-0.0264227640340104,0.3422662079840898,-1.116888644722104,-0.2863018214702606,-0.7029222846031189,-0.3960340619087219
1783201554039766800,1.877766845703125,-0.089324625887908,0.5946896479576825,-0.9018968175202609,-0.2802869081497192,-0.7529059648513794,-0.4266647398471832
1783201554049704000,1.887703857421875,-0.2093199555778875,0.8216331942379475,-0.6708540192276239,-0.3211387395858764,-0.786628007888794,-0.4958392977714538
1783201554059640600,1.897640625,-0.3520397062405944,0.9923626858651636,-0.357736164316535,-0.388725996017456,-0.7671696543693542,-0.5980867147445679
1783201554069577700,1.90757763671875,-0.5429857642054557,0.997916228339076,-0.0269143104106187,-0.4550717175006866,-0.6878236532211304,-0.709479808807373
1783201554079514600,1.9175146484375,-0.61228141874969,0.8299532788157462,0.1548883638948202,-0.4657405614852905,-0.5824210047721863,-0.7789285182952881
1783201554089450800,1.92745068359375,-0.5076894098967314,0.5828530796915292,0.0276344413787126,-0.427523136138916,-0.5049208998680115,-0.7755633592605591
1783201554099387600,1.9373876953125,-0.2208040206119418,0.3755529760360717,-0.1913268739759921,-0.3613336384296417,-0.4549264907836914,-0.708832859992981
1783201554109324800,1.94732470703125,0.1031099536016583,0.2150654769599437,-0.4662555757462978,-0.2916515171527862,-0.4854377806186676,-0.613631010055542
1783201554119261700,1.95726171875,0.3419976201757788,0.2155634896099567,-0.7284954763352871,-0.2484579533338546,-0.58253014087677,-0.5244707465171814
1783201554129198800,1.96719873046875,0.4820587826211005,0.4344973324358463,-0.7536947995215654,-0.2407869845628738,-0.7042933702468872,-0.4867936670780182
1783201554139135700,1.9771357421875,0.4391907509490847,0.5965607025265693,-0.6425964775145053,-0.2546533048152923,-0.8146845698356628,-0.5201271176338196
1783201554149072600,1.98707275390625,0.2677069338232278,0.6071662676930427,-0.442841966933012,-0.2741705477237701,-0.8918797373771667,-0.608195960521698
1783201554159009800,1.997009765625,0.0957034767374396,0.6057470485448837,-0.2041559604108333,-0.276789128780365,-0.8904418349266052,-0.7126927375793457
1783201554168946700,2.00694677734375,0.0454857398897409,0.5671697728693484,0.0181084881424903,-0.2548390626907348,-0.796318531036377,-0.7976329326629639
1783201554178883800,2.0168837890625,0.0389490315973758,0.4721826277077198,0.1829880846977233,-0.2079863399267196,-0.6806989908218384,-0.8496527075767517
1783201554188819700,2.02681982421875,0.1186731411755084,0.4160486525535583,0.2136485958993434,-0.1725686937570572,-0.5992259979248047,-0.8527669906616211
1783201554198756600,2.036756591796875,0.3359530793145299,0.3318061887681484,0.2614478734284639,-0.2221409380435943,-0.6036005020141602,-0.773069441318512
1783201554208693800,2.04669384765625,0.6780410081222653,0.0494879612684249,0.3226876472890377,-0.3767480850219726,-0.6643336415290833,-0.6388991475105286
1783201554218631000,2.056630859375,1.008740989214182,-0.2683060687601566,0.4679162024348974,-0.6026189923286438,-0.7758685946464539,-0.4908537864685058
1783201554228567800,2.06656787109375,1.1808590125903486,-0.4152700693964958,0.5669172594130039,-0.8189614415168762,-0.8900161981582642,-0.3758081495761871
1783201554238504700,2.076504638671875,1.1957979307860136,-0.369798942553997,0.5083440744131803,-0.961292028427124,-0.9751296043395996,-0.3308389186859131
1783201554248441600,2.086441650390625,1.007176224115491,-0.2075239755392074,0.326797420695424,-0.984985888004303,-1.0103496313095093,-0.3628168404102325
1783201554258378800,2.096378662109375,0.7064113625600934,-0.0707575437903404,0.0596305850982665,-0.9132279753684998,-0.9585773348808287,-0.4243549108505249
1783201554268316000,2.10631591796875,0.5849198760282248,0.0642383711546659,-0.115557639503479,-0.7874183654785156,-0.8578334450721741,-0.4594907760620117
1783201554278252800,2.116252685546875,0.5932321426257491,0.0844371095746755,-0.3350269043803214,-0.6428906917572021,-0.7859794497489929,-0.4609921276569366
1783201554288188700,2.126188720703125,0.5922936927318573,-0.029476269853115,-0.6085843177974224,-0.5323154330253601,-0.7725432515144348,-0.44202321767807
1783201554298125800,2.136125732421875,0.6288561214536428,-0.0728875415563583,-0.7180266892910003,-0.4799263477325439,-0.8314213156700134,-0.4281755983829498
1783201554308062700,2.146062744140625,0.6943099328126758,-0.0001367781221866,-0.6302724179923535,-0.500847339630127,-0.9081693291664124,-0.4199879765510559
1783201554317999400,2.155999267578125,0.6743611505657434,0.126885673725605,-0.3763426651090383,-0.5574977397918701,-0.9540549516677856,-0.4410269856452942
1783201554327936500,2.1659365234375,0.5024611538544297,0.23817981056571,-0.0905114610522985,-0.596956729888916,-0.9611570835113524,-0.4950007200241089
1783201554337873400,2.175873291015625,0.3201984608218073,0.299189867323637,0.0125438397526741,-0.5727318525314331,-0.962086260318756,-0.5516624450683594
1783201554347810300,2.185810302734375,0.2200496951133012,0.3311620456457138,-0.1018248822271823,-0.4841199219226837,-0.9588646292686462,-0.5870723724365234
1783201554357747200,2.195747314453125,0.191651575885713,0.3303273483872413,-0.2436158641397953,-0.3529922068119049,-0.9535808563232422,-0.6191204786300659
1783201554367684400,2.205684326171875,0.1345692139655351,0.3366208955734968,-0.2692792977064848,-0.2156255841255188,-0.957176685333252,-0.6508448123931885
1783201554377621500,2.21562158203125,0.1260693889066577,0.4214180706322193,-0.1294470486462116,-0.0932965874671936,-0.961406409740448,-0.6888760328292847
1783201554387558400,2.225558349609375,0.0822948003163561,0.5411883593946695,0.1718494355678558,0.00517965760082,-0.939742147922516,-0.7385016679763794
1783201554397495300,2.235495361328125,0.0171776370331645,0.6898281842887402,0.6032371115505695,0.0791239663958549,-0.8879795670509338,-0.8064246773719788
1783201554407432200,2.24543212890625,-0.0589255786340683,0.8085293825149535,1.064860351321101,0.129224419593811,-0.7811907529830933,-0.8818951845169067
1783201554417368300,2.255368408203125,-0.1439414379447698,0.8592454242736101,1.5081412941932677,0.1790011525154113,-0.6121838092803955,-0.9736016988754272
1783201554427305500,2.265305419921875,-0.2630038706988096,0.836859989464283,1.915924222704768,0.2214841544628143,-0.3921473026275635,-1.0878448486328125
1783201554437242400,2.275242431640625,-0.36239166197218,0.704215021559596,2.204414416837692,0.2698278725147247,-0.1611810177564621,-1.196571946144104
1783201554447179300,2.28517919921875,-0.2708355872377753,0.5114204131186009,2.2990105168551205,0.3053459227085113,0.0665639862418174,-1.2673745155334473
1783201554457116400,2.295116455078125,0.0643424160510301,0.3447054178297519,2.2986674025058744,0.3162708878517151,0.2320589870214462,-1.3115038871765137
1783201554467053300,2.30505322265625,0.4084057365849614,0.2067968303084373,2.181269688093662,0.2797304689884186,0.3506951034069061,-1.3018584251403809
1783201554476990500,2.314990478515625,0.7420007815312594,0.0340992534786462,1.9915286220043895,0.1846134513616562,0.4186350703239441,-1.2290095090866089
1783201554486927400,2.32492724609375,1.1528553725730628,-0.3281675400048494,1.648368680050969,0.0300049632787704,0.4030584990978241,-1.1074897050857544
1783201554496864300,2.3348642578125,1.509271613397449,-0.7543009487211704,1.1784773781508209,-0.1855557560920715,0.3288880288600921,-0.973914384841919
1783201554506801400,2.344801513671875,1.714096997502446,-0.9506804299116134,0.7388473590016365,-0.4096677005290985,0.2155430912971496,-0.8628293871879578
1783201554516738300,2.35473828125,1.7889879878357051,-1.060613799792528,0.2077963627398014,-0.6072977781295776,0.0760817751288414,-0.7653253674507141
1783201554526675500,2.364675537109375,1.707109038311243,-1.1008137082338332,-0.3711170394152402,-0.734131932258606,-0.0395276471972465,-0.6994006633758545
1783201554536612400,2.3746123046875,1.5787848562151192,-1.0594833344578742,-0.8787041579812764,-0.7904998660087585,-0.1432329416275024,-0.6660689115524292
1783201554546548500,2.384548583984375,1.3548475060135126,-1.119089369636774,-1.4160457788199186,-0.7703990936279297,-0.2032273113727569,-0.644331693649292
1783201554556485400,2.3944853515625,1.1863272148683666,-1.2220353648483753,-1.8334066830158235,-0.6834565997123718,-0.250059425830841,-0.6314150094985962
1783201554566422500,2.404422607421875,1.132317100000381,-1.360602124017477,-2.1540245382934806,-0.5276837348937988,-0.2917296290397644,-0.6283523440361023
1783201554576359200,2.414359130859375,1.1445979049026966,-1.4875170238375663,-2.374365325307846,-0.3203673958778381,-0.3368960916996002,-0.6120721697807312
1783201554586296300,2.42429638671875,1.2359350031241774,-1.5910989788651466,-2.438627661859989,-0.0872667729854583,-0.3691275417804718,-0.5744313597679138
1783201554596233500,2.4342333984375,1.4293630871631204,-1.6375462572634218,-2.2603730354249474,0.1246046125888824,-0.3943222761154175,-0.5345397591590881
1783201554606170400,2.44417041015625,1.555260188242793,-1.6026175672233105,-1.864495064240694,0.3063816130161285,-0.3831892013549804,-0.4902356564998626
1783201554616107500,2.454107421875,1.6575183473207056,-1.5526894609719517,-1.3348831608712672,0.4368453025817871,-0.3366385996341705,-0.4393821358680725
1783201554626044200,2.464044189453125,1.7856028754420576,-1.595797950336337,-0.7086492046147584,0.5324674844741821,-0.2638498842716217,-0.3694009184837341
1783201554635981300,2.473981201171875,1.9358540810555216,-1.6362345901429651,-0.1146206509143114,0.5827014446258545,-0.1923837661743164,-0.2740842700004577
1783201554645918500,2.48391845703125,2.094780614425242,-1.6406524065852164,0.437394222921133,0.6180663704872131,-0.1405677050352096,-0.1581725776195526
1783201554655855400,2.49385546875,2.205065866483748,-1.5854560045421122,0.9309650910943746,0.6344869136810303,-0.1031953766942024,-0.0330096036195755
1783201554665792500,2.50379248046875,2.209630251789838,-1.4260095389515162,1.3400368903726338,0.6304815411567688,-0.0884252190589904,0.0836973041296005
1783201554675729200,2.513729248046875,2.0925344429336485,-1.1981862872272728,1.726170881655812,0.6012579798698425,-0.0805972889065742,0.1906730979681015
1783201554685665300,2.523665283203125,1.9129640577249227,-0.9787567698389292,2.0617717865318057,0.5383314490318298,-0.0749223530292511,0.2643843293190002
1783201554695602400,2.5336025390625,1.6937737559199333,-0.7651590273439883,2.3551006528675558,0.4361305832862854,-0.0635992363095283,0.3119020164012909
1783201554705539600,2.54353955078125,1.4905143059574066,-0.5590396579056978,2.5835546037107706,0.3148368895053863,-0.0569647699594497,0.3416266143321991
1783201554715476200,2.553476318359375,1.3150487257190049,-0.4018512003749608,2.7478502628982064,0.1930660903453827,-0.0512098632752895,0.3530917763710022
1783201554725413400,2.563413330078125,1.1882863861121236,-0.3135983319044113,2.8977713597744703,0.0771946161985397,-0.0257889255881309,0.3717176616191864
1783201554735350300,2.573350341796875,1.1140201035484671,-0.2761655500888824,3.0293805548906323,-0.0374503098428249,0.0349367558956146,0.3947453498840332
1783201554745287400,2.583287353515625,1.077896650765836,-0.2874211035966873,3.1027310377836224,-0.1582214683294296,0.122933454811573,0.4335728883743286
1783201554755224600,2.593224609375,1.0264537560373543,-0.2908656910926103,3.1480472663253543,-0.2923851609230041,0.229743018746376,0.4780216217041015
1783201554765161200,2.6031611328125,0.9522025249123572,-0.3054290539741516,3.101571930876374,-0.4387016296386719,0.3179272413253784,0.5183349251747131
1783201554775098400,2.613098388671875,0.8783812096372247,-0.3158510792672634,2.907465655314922,-0.5769777894020081,0.3691483438014984,0.5592682957649231
1783201554785035300,2.62303515625,0.8669500073015689,-0.2924503299355506,2.6462112586319444,-0.7113166451454163,0.378370076417923,0.6073423027992249
1783201554794972400,2.632972412109375,0.9128577719956636,-0.2425193010747432,2.375680499559641,-0.8380809426307678,0.3680022060871124,0.650377094745636
1783201554804909300,2.642909423828125,0.9556801378950476,-0.2079448312997817,2.121396526411176,-0.9431019425392152,0.3468439280986786,0.7008270025253296
1783201554814846200,2.65284619140625,1.0174693623319269,-0.1859574558973312,1.81677703525424,-1.0319565534591677,0.3213323652744293,0.7521366477012634
1783201554824783400,2.662783447265625,1.0887333943396806,-0.2129711350291967,1.5433610761344432,-1.099524736404419,0.3190702795982361,0.7944404482841492
1783201554834720300,2.67272021484375,1.0235952978663143,-0.2388748070925474,1.2387030065327882,-1.148227572441101,0.33942511677742,0.8313582539558411
1783201554844656000,2.68265625,0.946724531892687,-0.2754121013730764,0.9317360754668712,-1.17284893989563,0.3529031276702881,0.8434119820594788
1783201554854593300,2.69259326171875,0.8179228684779256,-0.3187128984391689,0.6318675782293081,-1.1646053791046145,0.3857768476009369,0.8369653224945068
1783201554864530400,2.702530517578125,0.6546352903544902,-0.3586673076868057,0.2728209158360958,-1.0920255184173584,0.4599006175994873,0.8219911456108093
1783201554874467300,2.71246728515625,0.5420525750085711,-0.3565560146212577,-0.0887000277161598,-0.9549927711486816,0.5491976737976074,0.7980327606201172
1783201554884404500,2.722404541015625,0.5974096475061029,-0.2998521306246519,-0.4567880746990442,-0.7669368386268616,0.6371349692344666,0.7876725196838379
1783201554894341000,2.732341064453125,0.7130301961779594,-0.3035381256610155,-0.827695270755887,-0.5480120182037354,0.7053581476211548,0.7868970632553101
1783201554904278300,2.7422783203125,0.8319380228921771,-0.3428852166652679,-1.1397750147908925,-0.3264913856983185,0.7540487051010132,0.7885327935218811
1783201554914215400,2.75221533203125,0.9242929929193108,-0.343877150312066,-1.2641378920406103,-0.1640863716602325,0.8119838237762451,0.7988009452819824
1783201554924152300,2.76215234375,1.0271759328320622,-0.3251502380102872,-1.2470599159896374,-0.0882363468408584,0.8863166570663452,0.8237496614456177
1783201554934089500,2.77208935546875,1.0551359529033302,-0.4001157548844814,-1.2089058341622352,-0.0833115428686142,0.9319610595703124,0.8331086039543152
1783201554944026000,2.782026123046875,0.96240586595349,-0.5405336948782206,-1.294023327216506,-0.1016817614436149,0.953150510787964,0.8447178602218628
1783201554953963300,2.79196337890625,0.925162542295456,-0.6280477276802062,-1.502456234294176,-0.1266713589429855,0.9159390926361084,0.8758301138877869
1783201554963900400,2.801900390625,0.962936100372672,-0.6590145283520221,-1.7593080121040343,-0.1432705670595169,0.8241223096847534,0.9135109186172484
1783201554973837300,2.81183740234375,1.0161015811100602,-0.6788730750322342,-2.012824508011341,-0.1635227799415588,0.6676896214485168,0.9566182494163512
1783201554983774500,2.8217744140625,1.0684288574576375,-0.6853349645227194,-2.234904247647524,-0.1843971610069275,0.4622789025306701,1.000089406967163
1783201554993711400,2.83171142578125,1.0554901731684805,-0.6416174033492803,-2.2993127146720886,-0.1945461928844452,0.2629713118076324,1.0283870697021484
1783201555003648300,2.841648193359375,0.981453753837943,-0.5275292518764734,-2.204830596423149,-0.1759245693683624,0.0936528667807579,1.0523669719696045
1783201555013585400,2.85158544921875,0.828722494911775,-0.3495154484599828,-1.9279454998880623,-0.127083346247673,-0.0157771371304988,1.0617884397506714
1783201555023521500,2.861521484375,0.6763242673322558,-0.1420879190325737,-1.5594856969833373,-0.0385015532374382,-0.0625739395618438,1.0529392957687378
1783201555033458200,2.871458251953125,0.5324707999318837,0.0720014063715934,-1.1964917582690715,0.0864054858684539,-0.0175608694553375,1.0232152938842771
1783201555043395300,2.881395263671875,0.3488596148997545,0.2344821250915527,-0.8715022637784481,0.2543686628341675,0.099355362355709,0.980583906173706
1783201555053332200,2.891332275390625,0.1464782629460096,0.3754547763586044,-0.5944225214540958,0.459774762392044,0.2378632128238678,0.9311804175376892
1783201555063269400,2.901269287109375,-0.0114466921657323,0.5178308646827936,-0.4352911131620406,0.6749526262283325,0.3589003980159759,0.8769052028656006
1783201555073206500,2.91120654296875,-0.0848623492494225,0.6870411839187145,-0.2817582555294036,0.8614097237586975,0.4503940343856811,0.8237553238868713
1783201555083143200,2.92114306640625,-0.1453144798636436,0.8957184211462735,-0.0625952801227569,0.9911706447601318,0.5130696892738342,0.7641159296035767
1783201555093080300,2.931080322265625,-0.2141738618824631,1.0819880117326974,0.1888444095104932,1.0516151189804075,0.5525781512260437,0.7001814246177673
1783201555103017200,2.941017333984375,-0.2669035084858536,1.2153028417229652,0.4921417121529579,1.0325669050216677,0.5755420327186584,0.6493741273880005
1783201555112954400,2.950954345703125,-0.2751061041638254,1.3012228833317756,0.886534413215518,0.944739580154419,0.583771824836731,0.5920748710632324
1783201555122891500,2.9608916015625,-0.3734603876709937,1.335465344673395,1.198880114710331,0.8074381947517395,0.5980860590934753,0.5272966623306274
1783201555132828200,2.970828125,-0.4659238595739006,1.2910124549627304,1.4594868611395355,0.6517012715339661,0.6246273517608643,0.4623728394508362
1783201555142765300,2.980765380859375,-0.4830949938010424,1.1462000794023277,1.6723294013530017,0.5089587569236755,0.6621686220169067,0.4101810157299042
1783201555152702200,2.9907021484375,-0.3857681536454707,1.0099608863979577,1.8151053026497364,0.396549642086029,0.7240829467773438,0.3800169825553894
1783201555162639400,3.000639404296875,-0.2238049559935927,0.8947931229948997,1.88143743121326,0.3201920390129089,0.812914252281189,0.3776406645774841
1783201555172576500,3.010576416015625,-0.0873228941440582,0.8050140678703784,1.9378338566958904,0.2571233212947845,0.9429914355278016,0.39017453789711
1783201555182513200,3.02051318359375,0.0475741635363548,0.8024836726099253,1.982792357841134,0.1780165135860443,1.092609405517578,0.4306034445762634
1783201555192450300,3.0304501953125,0.1314984282180666,0.8383622107207774,1.9754379034250973,0.0696028098464012,1.2127052545547483,0.4758192598819732
1783201555202387500,3.040387451171875,0.1158708701711147,0.8398334523171186,1.8749562525004144,-0.052352387458086,1.2764087915420532,0.5186038017272949
1783201555212324400,3.050324462890625,0.0379369319453835,0.8443816171407699,1.6139654751896857,-0.1693112403154373,1.2783292531967163,0.5489885807037354
1783201555222260200,3.06026025390625,-0.0824155406191945,0.9352011212289332,1.2414765628993512,-0.2636246979236603,1.2390700578689575,0.5660410523414612
1783201555232197400,3.070197265625,-0.2894903110861778,1.0812766485929488,0.8559592422097921,-0.3281246721744537,1.1856017112731934,0.5599571466445923
1783201555242134300,3.08013427734375,-0.5252870259076357,1.2329168243467807,0.5335749617815018,-0.3547746539115906,1.1375478506088257,0.5287321209907532
1783201555252071400,3.090071533203125,-0.765391082534194,1.3984236128896474,0.3477437626123428,-0.3523032367229461,1.106136441230774,0.4712951779365539
1783201555262008300,3.10000830078125,-1.0488950126871466,1.499132642829418,0.2436427521467208,-0.333776980638504,1.1059504747390747,0.3815775513648987
1783201555271945200,3.1099453125,-1.234172961887717,1.4698083486676214,0.1747246987432241,-0.2928998470306396,1.1322321891784668,0.2926825582981109
1783201555281882400,3.11988232421875,-1.2390861606314778,1.4042694163084029,0.0795960992842912,-0.2375297844409942,1.16545307636261,0.2196192890405655
1783201555291819300,3.1298193359375,-1.0712392387032508,1.2947265070497989,-0.0390296956181526,-0.1859855502843856,1.1958106756210327,0.1723062694072723
1783201555301756400,3.13975634765625,-0.8013716197147965,1.1438871262848376,-0.1636217054486274,-0.1576580256223678,1.2392724752426147,0.1242444664239883
1783201555311693600,3.149693603515625,-0.6183759362325072,0.9255436505675316,-0.2538157711148261,-0.1643916070461273,1.3122351169586182,0.0823681652545929
1783201555321630700,3.159630615234375,-0.4857974576927721,0.6203799695312976,-0.3988268841177225,-0.2016841173171997,1.3510823249816897,0.0594122521579265
1783201555331567600,3.169567626953125,-0.3029913054332137,0.2355892095506191,-0.7079296581685542,-0.2559255063533783,1.310248851776123,0.0553284995257854
1783201555341504500,3.17950439453125,-0.097701957078278,-0.111745387738943,-1.088954343613982,-0.3174125552177429,1.203022837638855,0.0579663626849651
1783201555351441700,3.189441650390625,0.1116962879002094,-0.3870587049126625,-1.4295517416030168,-0.3808039426803589,1.0634578466415403,0.0785408020019531
1783201555361378600,3.199378662109375,0.3504576977461576,-0.5975760170489549,-1.644817709571123,-0.4391548931598663,0.9246323704719543,0.1139797568321228
1783201555371315500,3.2093154296875,0.6033649757139384,-0.7694201919198036,-1.7778940546303987,-0.4885192513465881,0.8110647797584534,0.1557098925113678
1783201555381252600,3.219252685546875,0.7947522015750408,-0.9093161538660526,-1.853687254500389,-0.4979002475738525,0.736741840839386,0.1923126429319381
1783201555391189500,3.229189453125,0.8875728163525461,-1.0775719488561153,-1.998786630308628,-0.4682193696498871,0.7038049697875977,0.2247265875339508
1783201555401126700,3.239126708984375,0.99853319119364,-1.149555819571018,-2.1517869884997607,-0.4097081422805786,0.7057898640632629,0.2716118097305298
1783201555411063600,3.2490634765625,1.1408685091160238,-1.165700898686051,-2.2621318617910147,-0.3419170081615448,0.6731173396110535,0.3320260643959045
1783201555421000400,3.25900048828125,1.2313801162987947,-1.2658049484699965,-2.4388889431446787,-0.2735494077205658,0.5794693827629089,0.4020043611526489
1783201555430937600,3.2689375,1.3190886487595737,-1.32230775693655,-2.598766201367974,-0.206780657172203,0.4364193975925445,0.4745642244815826
1783201555440874500,3.27887451171875,1.378687961936742,-1.2528864301860332,-2.655192437466979,-0.1354907602071762,0.271258145570755,0.5380321145057678
1783201555450811600,3.288811767578125,1.3411787538841369,-1.0900684423357248,-2.552411277428269,-0.068458117544651,0.1291924715042114,0.5824159979820251
1783201555460748800,3.298748779296875,1.2581214082300662,-0.9544126021772622,-2.2727309972167014,0.0060384878888726,0.0583593174815177,0.6165254712104797
1783201555470685400,3.308685546875,1.12963414452672,-0.8646586814939975,-1.7887760986506938,0.0803161859512329,0.0652642622590065,0.6298826336860657
1783201555480622600,3.31862255859375,0.990778923805058,-0.7829337534874677,-1.2748925102889537,0.165447324514389,0.118030272424221,0.635319173336029
1783201555490558700,3.328558837890625,0.9085838940687476,-0.6590759031504392,-0.835198193731904,0.2442391961812973,0.1792815625667572,0.6479260921478271
1783201555500495600,3.33849560546875,0.9099109048888088,-0.5071393747985363,-0.488446949288249,0.3004942238330841,0.2247001826763153,0.6702620387077332
1783201555510432500,3.3484326171875,0.9808828220821916,-0.3882984758406877,-0.1975795046299696,0.3224342465400696,0.2434291541576385,0.7016630172729492
1783201555520369400,3.358369384765625,1.0199332682274282,-0.2577916890084743,0.0390478157967329,0.3104369938373565,0.2310763448476791,0.7282203435897827
1783201555530306600,3.368306640625,0.992576620876789,-0.1280313366293907,0.2380745966255664,0.2797033786773681,0.2132030725479126,0.7422052621841431
1783201555540243700,3.37824365234375,0.8734308937534689,-0.022176760494709,0.4099848224699497,0.2466924637556076,0.1934139281511306,0.751689612865448
1783201555550180600,3.3881806640625,0.749109517557919,0.1026630866169929,0.528425323933363,0.2226463854312896,0.1798262000083923,0.7543167471885681
1783201555560117500,3.398117431640625,0.6544153639934956,0.2449912441462278,0.6258166076272725,0.2064399868249893,0.1807324886322021,0.7429066896438599
1783201555570054700,3.4080546875,0.5639139859437943,0.3572667932391166,0.7731435963571072,0.190816581249237,0.1823842525482177,0.7254608273506165
1783201555579991600,3.417991455078125,0.5160412047870457,0.4229115240603685,0.869202754664421,0.1536404490470886,0.161427304148674,0.7236155271530151
1783201555589928700,3.4279287109375,0.5637903595641255,0.4732546408534049,0.9676777419418096,0.0804264172911644,0.1380037367343902,0.7421367168426514
1783201555599865600,3.437865478515625,0.6377747564464807,0.5238537782341242,1.0955039113879204,-0.0167840216308832,0.1106746420264244,0.7580277919769287
1783201555609802500,3.447802490234375,0.5882575690835714,0.5525988112032413,1.186606324070692,-0.110640600323677,0.1074025854468345,0.7665257453918457
1783201555619739600,3.45773974609375,0.4368006409421563,0.595171878516674,1.1760486896991729,-0.1753024160861969,0.1135510206222534,0.7663065195083618
1783201555629676500,3.467676513671875,0.2666857010167092,0.637559652391076,1.0644278051227332,-0.2072166204452514,0.1446344405412674,0.758949875831604
1783201555639613700,3.47761376953125,0.1038417019423097,0.6762842275828123,0.9316384603112936,-0.194565013051033,0.2079899758100509,0.7452159523963928
1783201555649550600,3.487550537109375,-0.0268009131640195,0.7022627184480428,0.7746306200444698,-0.1561588644981384,0.2759804725646972,0.7395994067192078
1783201555659487500,3.497487548828125,-0.0636892859045416,0.746985072749853,0.6301835706651211,-0.1107642203569412,0.3390148282051086,0.7393133640289307
1783201555669424600,3.507424560546875,-0.039767362242937,0.7956962044268846,0.6050958911597728,-0.0894254297018051,0.4007793366909027,0.7526292204856873
1783201555679361500,3.517361572265625,-0.0254118699584156,0.8106891908973455,0.6580564969748258,-0.0900709927082061,0.4460248351097107,0.7715712189674377
1783201555689298700,3.527298583984375,-0.0834846311554312,0.8518915543794632,0.7019675348937511,-0.1159512996673584,0.4910454154014587,0.7931793332099915
1783201555699235600,3.537235595703125,-0.2032467366114258,0.9508411734312772,0.7115478486657142,-0.1552611589431762,0.5225220918655396,0.8126592636108398
1783201555709172500,3.54717236328125,-0.351398777988553,1.0367430948615073,0.6962129168897867,-0.1971332132816314,0.541823148727417,0.8266853094100952
1783201555719109600,3.557109619140625,-0.5358370614945889,1.1698504195809365,0.681363138282299,-0.2359344065189361,0.547065019607544,0.8376814723014832
1783201555729046500,3.567046630859375,-0.7232669280320405,1.3213807052195072,0.6181769065290689,-0.2878726720809936,0.5127190351486206,0.8433641195297241
1783201555738983700,3.576983642578125,-0.9098463152199984,1.5173492675215006,0.5180617508292198,-0.3603242337703705,0.4517398476600647,0.8484776616096497
1783201555748920600,3.586920654296875,-1.097964456282556,1.723690755277872,0.463748561361432,-0.4686298966407776,0.4102357625961303,0.8519895672798157
1783201555758857500,3.596857421875,-1.2915402782291172,1.853849167063832,0.5062766204893588,-0.5901321172714233,0.3798059523105621,0.8125249743461609
1783201555768794600,3.606794677734375,-1.516309695340693,1.7937825286358593,0.5317559296607971,-0.6922938823699951,0.3687161803245544,0.7313879728317261
1783201555778731500,3.6167314453125,-1.6734379471167922,1.590357805109024,0.4063029190868139,-0.7570552825927734,0.3969219923019409,0.6239302158355713
1783201555788668700,3.626668701171875,-1.7486004478678103,1.360544256350398,0.2444365328729152,-0.7698952555656433,0.4764288663864136,0.4851225912570953
1783201555798605600,3.63660546875,-1.75566059551239,1.1326111145108937,0.0421814376473426,-0.7288175821304321,0.5723686814308167,0.356700986623764
1783201555808542500,3.64654248046875,-1.578278075736761,0.8803671227574348,-0.2497603582441806,-0.6537246704101562,0.6671146154403687,0.2429417818784713
1783201555818479600,3.656479736328125,-1.2658856124907731,0.6296516557455063,-0.5345873536944389,-0.5661393404006958,0.7351205348968506,0.1549970060586929
1783201555828416500,3.66641650390625,-0.8747169149760157,0.3231938432455062,-0.8130611807256937,-0.4868195354938507,0.8089671730995178,0.102393239736557
1783201555838353700,3.676353759765625,-0.3490753034770488,-0.0691360800683498,-0.9921464127659796,-0.4145243167877197,0.9002118706703186,0.0834275409579277
1783201555848289500,3.68628955078125,0.205284964440763,-0.5097662161707878,-1.1619055980563162,-0.3444986939430237,0.998317003250122,0.1214578449726104
1783201555858226400,3.696226318359375,0.7282428898137062,-0.8474410047113895,-1.4244284072399138,-0.2828710079193115,1.0404369831085205,0.2059197276830673
1783201555868163600,3.70616357421875,1.1781659741140902,-1.0567875195026395,-1.852171004718542,-0.2311864495277404,0.997115969657898,0.3122482597827911
1783201555878100700,3.716100830078125,1.473215965154022,-1.1389736352801323,-2.293052485233545,-0.2127001136541366,0.8990645408630371,0.4302987456321716
1783201555888037600,3.72603759765625,1.6263294283308087,-1.1491092448472977,-2.638418412798643,-0.2232346832752227,0.748302161693573,0.5628784894943237
1783201555897974500,3.735974609375,1.6502686684533954,-1.1350438946157693,-2.9149568878531453,-0.2579963803291321,0.5571934580802917,0.6947755813598633
1783201555907911400,3.745911376953125,1.5248815627224743,-1.0854524729728698,-3.160675277230143,-0.2963946759700775,0.3630688786506653,0.8043264746665955
1783201555917848600,3.7558486328125,1.2522086770549417,-0.9162959297508,-3.3192437909424304,-0.3208837509155273,0.1632162481546402,0.8890339136123657
1783201555927785700,3.76578564453125,0.9048870123121888,-0.6170242293626069,-3.418354153513908,-0.3028410673141479,-0.0425045304000377,0.9467036128044128
1783201555937722600,3.77572265625,0.5262529483303428,-0.1995586957484483,-3.4845617789149284,-0.2450752556324005,-0.2281164675951004,0.9822637438774108
1783201555947659500,3.785659423828125,0.1627233683694154,0.2751841378360986,-3.4524563296020028,-0.146111249923706,-0.3991757333278656,0.9941149353981018
1783201555957596400,3.795596435546875,-0.2856206300459802,0.7103823120176792,-3.351674818947911,-0.0305604338645935,-0.5477641224861145,0.9652209877967834
1783201555967533600,3.805533447265625,-0.7935092157766223,1.1134101549565791,-3.137418904805183,0.0870982408523559,-0.661137044429779,0.8957141041755676
1783201555977470700,3.815470703125,-1.245734512604773,1.5317191536575554,-2.8098399783432484,0.1951232403516769,-0.7383244633674622,0.8048925995826721
1783201555987407600,3.82540771484375,-1.668902057252824,1.891007808113098,-2.379368832683563,0.291578859090805,-0.7972755432128906,0.6976209282875061
1783201555997344500,3.835344482421875,-2.066476603221893,2.1941671635895967,-1.8922376421689984,0.3643132746219635,-0.8268494009971619,0.5704467296600342
1783201556007281700,3.84528173828125,-2.4250065482646224,2.4777251620173453,-1.3863555739551785,0.4139817953109741,-0.8126811385154724,0.4203625619411468
1783201556017218600,3.855218505859375,-2.696306245882809,2.6696763053715227,-0.8846703729093074,0.4336375296115875,-0.7776296734809875,0.2785801291465759
1783201556027155700,3.86515576171875,-2.903520132559538,2.7492975390970704,-0.4864239190280437,0.4306508004665375,-0.7211546897888184,0.1179113611578941
1783201556037092600,3.875092529296875,-2.996138502763212,2.838714190649986,-0.08379472001791,0.4128044247627258,-0.6509489417076111,-0.0552399195730686
1783201556047029500,3.885029541015625,-3.0468022298127413,2.875681108519435,0.2242459777593612,0.373215764760971,-0.5657148957252502,-0.2164301872253418
1783201556056966700,3.894966552734375,-2.979666383650899,2.7968811280488968,0.5119622649103402,0.3157449960708618,-0.4788247346878052,-0.366192489862442
1783201556066903600,3.904903564453125,-2.837337933860719,2.6895897971093654,0.7578267847597598,0.2468618303537368,-0.3986210227012634,-0.508823573589325
1783201556076840700,3.9148408203125,-2.6671917950794097,2.5988755069613454,0.919257702165842,0.1647533774375915,-0.3346902430057525,-0.6392865180969238
1783201556086777600,3.924777587890625,-2.412467092426121,2.5129507891774177,1.058154131680727,0.0727138295769691,-0.2751367688179016,-0.7551928758621216
1783201556096714500,3.934714599609375,-2.139224736307561,2.380071427994966,1.1470125648289915,-0.0199708323925733,-0.21563321352005,-0.848417341709137
1783201556106651600,3.944651611328125,-1.913994131425023,2.220560664996505,1.249115679475665,-0.0986247360706329,-0.1226200610399246,-0.9277864694595336
1783201556116588500,3.954588623046875,-1.7364309943854808,2.0509610541820527,1.2747311822474,-0.1430121660232544,-0.057532675564289,-0.9811689853668212
1783201556126525700,3.964525634765625,-1.4662272753104566,1.919597942781448,1.1348790594428777,-0.1649377346038818,-0.0230196565389633,-1.0002003908157349
1783201556136462600,3.974462646484375,-1.1817007241114974,1.7923370060026644,0.9508587090879678,-0.1612420678138733,-0.0339972078800201,-1.0105022192001345
1783201556146399500,3.9843994140625,-0.8922159659832716,1.6772212650477885,0.6655348700314759,-0.1542466133832931,-0.0427610278129577,-1.0265649557113647
1783201556156336600,3.994336669921875,-0.722009036925435,1.6054823090046644,0.4979465990394353,-0.1394990980625152,-0.0553074479103088,-1.0720016956329346
1783201556166273500,4.0042734375,-0.6816454623550177,1.54297529168725,0.3568552898287773,-0.1318049728870391,-0.060534868389368,-1.1226297616958618
1783201556176210700,4.014210693359375,-0.6043047407820821,1.392547998854518,0.1785585778176784,-0.1244573146104812,-0.0487490519881248,-1.1692289113998413
1783201556186147600,4.024147705078125,-0.4434666016373783,1.1752326971411704,0.0085685063809156,-0.1369997262954712,-0.0461517125368118,-1.193494200706482
1783201556196084500,4.03408447265625,-0.2587631643891334,0.9055056556671858,-0.2082838539958,-0.1912355422973632,-0.0492436438798904,-1.1865215301513672
1783201556206021600,4.044021728515625,-0.0392813322916626,0.5980301905572414,-0.416949985307455,-0.2796443104743957,-0.0775982439517974,-1.153956174850464
1783201556215958500,4.05395849609375,0.1668593721956014,0.3320458427429199,-0.6842249574542045,-0.3920533955097198,-0.1644793450832367,-1.0893348455429075
1783201556225895700,4.063895751953125,0.3321819632779806,0.114444125303626,-1.062484854361415,-0.52635657787323,-0.2793290913105011,-1.029430866241455
1783201556235832600,4.07383251953125,0.3865051626831293,-0.0223965407252311,-1.3449988966941833,-0.6749827861785889,-0.4013141095638275,-1.016277313232422
1783201556245769500,4.08376953125,0.3078802465185523,-0.1589829397320747,-1.60631116104424,-0.7803995609283447,-0.5257239937782288,-1.0290584564208984
1783201556255706600,4.09370654296875,0.2571352709263563,-0.3663496788829565,-1.9274112468808888,-0.8159573078155518,-0.6285794973373413,-1.0506571531295776
1783201556265643500,4.1036435546875,0.304150339275226,-0.5643307500511408,-2.297828613594174,-0.7767150402069092,-0.6871946454048157,-1.0572614669799805
1783201556275580700,4.11358056640625,0.4757017417445778,-0.6888461875140667,-2.569814247649908,-0.6801748871803284,-0.740734338760376,-1.0400848388671875
1783201556285517600,4.123517578125,0.6982822705097496,-0.8044868291258811,-2.806353889793157,-0.5348861813545227,-0.8001213073730469,-0.9811416268348694
1783201556295454500,4.133454345703125,0.9405273577529936,-0.866513369449973,-2.9235066895335917,-0.3780145347118377,-0.8865160942077637,-0.8879320621490479
1783201556305391600,4.1433916015625,1.149585922448337,-0.8253852402478457,-2.9060639718234538,-0.2494300603866577,-0.981988787651062,-0.7697650194168091
1783201556315329500,4.15332958984375,1.234462007962167,-0.6435825659424066,-2.745303501024842,-0.1594011038541793,-1.0603461265563965,-0.6689279079437256
1783201556325266700,4.1632666015625,1.070325338728726,-0.354166489136219,-2.418860300594568,-0.1181467622518539,-1.072264552116394,-0.645547091960907
1783201556335203600,4.17320361328125,0.688258158493042,-0.0537695841103792,-1.9312725984841583,-0.1135956794023513,-1.045496106147766,-0.6943931579589844
1783201556345140700,4.183140625,0.2568376762192696,0.107646135726571,-1.5806424667805432,-0.1027299165725708,-1.05763041973114,-0.7660402655601501
1783201556355077600,4.19307763671875,0.0140747025817632,0.0922615195900201,-1.4675830738335849,-0.0708153918385505,-1.0855363607406616,-0.8276141881942749
1783201556365014500,4.2030146484375,-0.0284165316671133,0.0424596700668334,-1.3846166213333606,-0.0180739983916282,-1.1338508129119873,-0.8702185153961182
1783201556374951700,4.21295166015625,0.0142640876740217,0.0363595996260643,-1.2340566420316696,0.0276434198021888,-1.1850343942642212,-0.9038696885108948
1783201556384888600,4.222888671875,0.1027352750703692,0.0943546924769878,-0.9881973828792572,0.0696940198540687,-1.2326985597610474,-0.933723509311676
1783201556394825700,4.23282568359375,0.1803030103322118,0.218293206834793,-0.6252332547813654,0.1056437566876411,-1.2465704679489136,-0.9675184488296508
1783201556404762600,4.2427626953125,0.2190823113858699,0.3839011176645756,-0.1713216123014688,0.157065138220787,-1.235898494720459,-0.9959428906440736
1783201556414699500,4.252699462890625,0.253493407292664,0.5566793585151434,0.2869458873003721,0.20815309882164,-1.1904138326644895,-1.009514570236206
1783201556424636700,4.26263671875,0.3212353295888751,0.7337626030832529,0.7675725182265043,0.2640722692012787,-1.1078413724899292,-1.0309456586837769
1783201556434573600,4.272573486328125,0.3066764236867427,0.9106272364646196,1.206143968233466,0.3174444139003753,-0.944524884223938,-1.0868606567382812
1783201556444510700,4.2825107421875,0.1646820281565189,1.0473626885533331,1.6524726082384584,0.3728643953800201,-0.7489444017410278,-1.1823487281799316
1783201556454447600,4.292447509765625,0.0315749226327985,1.0778981120705604,1.911901543059945,0.4178651571273803,-0.5499356985092163,-1.2604416608810425
1783201556464384500,4.302384521484375,0.0357858913913369,1.0189186843574047,2.072516467908025,0.4407877922058105,-0.3732343018054962,-1.3115490674972534
1783201556474321700,4.31232177734375,0.1355029876843094,0.9226771552205084,2.1366373501628635,0.4402641952037811,-0.2380626499652862,-1.3383569717407229
1783201556484258600,4.322258544921875,0.2696963540747761,0.8082090645194053,2.0843074434667823,0.4069548845291137,-0.1416887640953064,-1.334398865699768
1783201556494195700,4.33219580078125,0.419512529271841,0.6815934399068355,1.9766724136561156,0.3647682666778564,-0.0932128354907035,-1.306060791015625
1783201556504132600,4.342132568359375,0.6001937983319163,0.5805693526685237,1.8048036888659,0.3114553391933441,-0.0990891978144645,-1.247448205947876
1783201556514069500,4.352069580078125,0.8006506119638681,0.5352747514367103,1.591840152621269,0.2434608340263366,-0.1093160063028335,-1.1789370775222778
1783201556524006700,4.362006591796875,0.9557672316566108,0.5431622898161411,1.4354139116346836,0.1460294127464294,-0.0953167080879211,-1.114560604095459
1783201556533943600,4.371943603515625,1.0313199007689953,0.4706874207139015,1.2868377996265887,0.0239724833518266,-0.0894646793603897,-1.0856226682662964
1783201556543880700,4.381880615234375,0.9127724317997692,0.2206570133566856,0.9952291812121868,-0.0936497002840042,-0.1123447269201278,-1.0777078866958618
1783201556553817600,4.391817626953125,0.7458315188005566,-0.0949555809795856,0.6170271519720554,-0.1865239739418029,-0.1495536118745803,-1.0710978507995603
1783201556563754500,4.40175439453125,0.6759038499630987,-0.3243658096343279,0.2238619468778371,-0.2474763542413711,-0.2035581171512603,-1.0487316846847534
1783201556573691600,4.411691650390625,0.691193627423048,-0.4712660973846912,-0.1135989066511392,-0.2838695049285888,-0.2524518668651581,-1.0168826580047607
1783201556583628500,4.421628662109375,0.7571247739702462,-0.5883692127645015,-0.347806890976429,-0.3056499660015106,-0.3059568703174591,-0.9654021859169006
1783201556593565700,4.431565673828125,0.8512991414442658,-0.6623112318098545,-0.5188081852823495,-0.323630541563034,-0.3585758805274963,-0.882430911064148
1783201556603502600,4.441502685546875,0.9862355812869964,-0.6923159094512462,-0.6273182443618774,-0.3504985272884369,-0.4201207458972931,-0.7794116735458374
1783201556613439500,4.451439453125,1.0905680624209344,-0.7312298697352408,-0.7479629778712987,-0.379557341337204,-0.4958823323249817,-0.6673202514648438
1783201556623376600,4.461376708984375,1.1182027960605918,-0.7348392924040555,-0.9160632900387048,-0.387821763753891,-0.5403127670288086,-0.5853346586227417
1783201556633313500,4.4713134765625,1.0035825835376977,-0.6410907491266727,-0.9886264219462872,-0.3888223171234131,-0.5375417470932007,-0.5667828321456909
1783201556643250700,4.481250732421875,0.7284859778545797,-0.5475362671166658,-1.0682535008907317,-0.3557799756526947,-0.5119814872741699,-0.5915469527244568
1783201556653187600,4.4911875,0.5295784394912422,-0.5245435140639543,-1.2309639367133378,-0.2760262787342071,-0.487247109413147,-0.6210162043571472
1783201556663124500,4.50112451171875,0.4699364562161267,-0.5626286223083734,-1.4266115964978932,-0.1519601196050644,-0.4807994067668915,-0.6406051516532898
1783201556673061600,4.5110615234375,0.5000288121409714,-0.6088719025671482,-1.5524959842264652,-0.0058740219101309,-0.4884788990020752,-0.6340239644050598
1783201556682998800,4.520998779296875,0.6142712773926555,-0.6239759481966495,-1.5429706155121323,0.130234807729721,-0.4992666840553283,-0.5941213965415955
1783201556692935700,4.530935791015625,0.7961290428861976,-0.616358458930254,-1.382088564160466,0.2409171164035797,-0.5086894631385803,-0.5422161221504211
1783201556702872600,4.54087255859375,0.884529503133893,-0.574882539203763,-1.1052163271069526,0.3029322326183319,-0.4955260455608368,-0.4842532277107239
1783201556712809500,4.5508095703125,0.9722579093389212,-0.452646152588725,-0.7045996369630098,0.2921893000602722,-0.4764727354049682,-0.4104205369949341
1783201556722746600,4.56074658203125,1.0186175094537435,-0.3713526017367839,-0.3648381052762269,0.2351394891738891,-0.4854072630405426,-0.3465595245361328
1783201556732683800,4.570683837890625,0.8688920812800526,-0.4084603893816471,-0.2190238591969013,0.1689040064811706,-0.5035604238510132,-0.2996412813663482
1783201556742620700,4.58062060546875,0.6269533565722406,-0.3418301546543836,-0.137421096265316,0.1033570319414138,-0.503464937210083,-0.261570543050766
1783201556752557600,4.5905576171875,0.4151031883969903,-0.1354857442885637,-0.0660310997903347,0.0384235754609108,-0.5067893862724304,-0.2358305305242538
1783201556762494500,4.600494384765625,0.1664573672659695,0.0583925677359104,-0.1023451067090034,-0.019867654889822,-0.5200195908546448,-0.2380713522434234
1783201556772431600,4.610431640625,-0.1476831086911261,0.2541477795481681,-0.199822315120697,-0.0708663910627365,-0.5459587574005127,-0.2620866894721985
1783201556782368800,4.62036865234375,-0.4216477877348661,0.4860457333654165,-0.2805781058341264,-0.1085701286792755,-0.5871989727020264,-0.3099437057971954
1783201556792305700,4.6303056640625,-0.5972089373022318,0.6577963847339153,-0.374015683466196,-0.1164663955569267,-0.6400640606880188,-0.3558550179004669
1783201556802242600,4.64024267578125,-0.7062950427040458,0.7047294008225202,-0.4626075746327638,-0.0959361791610717,-0.702947735786438,-0.4186357855796814
1783201556812179500,4.650179443359375,-0.7802519670575857,0.7638298245668411,-0.432787605908513,-0.0576636269688606,-0.7513624429702759,-0.4632775485515594
1783201556822116600,4.66011669921875,-0.7716838990680873,0.8364555003166199,-0.2783411405622959,-0.0049936724826693,-0.787534236907959,-0.5000805854797363
1783201556832053800,4.6700537109375,-0.7533953781835735,0.8787707934767007,-0.0388297891318798,0.0586050115525722,-0.8045023083686829,-0.5405232906341553
1783201556841990700,4.67999072265625,-0.7742021654993295,0.960302829259634,0.2499731242120265,0.1208024248480796,-0.7904250621795654,-0.5934131145477295
1783201556851927600,4.689927490234375,-0.8465288583025335,1.1284206770837306,0.5909907934397459,0.1808244735002517,-0.7429771423339844,-0.6511105298995972
1783201556861864400,4.699864501953125,-0.9465034364879132,1.2420517324388027,0.9651239658057688,0.2092849612236023,-0.6515008211135864,-0.724636971950531
1783201556871801600,4.709801513671875,-1.0558592987418174,1.2746966954559087,1.4150626130014656,0.2067719995975494,-0.5257871150970459,-0.8290041089057922
1783201556881738800,4.71973876953125,-1.138871928471327,1.2694558721929787,1.7696213163256644,0.1759672611951828,-0.3740201294422149,-0.934175968170166
1783201556891675600,4.729675537109375,-1.1121095937520264,1.2167232299149036,1.997204914075136,0.1118266209959983,-0.2345709204673767,-1.0174676179885864
1783201556901612500,4.739612548828125,-0.9168551710687576,1.0792857670366764,2.036071528086066,0.0176958199590444,-0.1486175805330276,-1.0764223337173462
1783201556911549700,4.7495498046875,-0.6285451558083296,0.880609114819765,1.8643372433304783,-0.0882199630141258,-0.083733931183815,-1.116240620613098
1783201556921486600,4.759486572265625,-0.2999650894798338,0.6128542502015829,1.569124462944269,-0.1786360293626785,-0.0280549991875886,-1.1310681104660034
1783201556931423700,4.769423828125,0.0276622061684727,0.320253113618493,1.195294657438993,-0.2415111511945724,0.0084353694692254,-1.128207087516785
1783201556941360600,4.779360595703125,0.3094391663983464,0.0001145662903785,0.7357453013330698,-0.2557402849197387,0.0089589217677712,-1.105772852897644
1783201556951297500,4.789297607421875,0.5727208311252295,-0.2523217331647873,0.2112123086631298,-0.2442194521427154,-0.021457839757204,-1.0650906562805176
1783201556961234700,4.799234619140625,0.869702520880103,-0.4250508741766214,-0.2456657824069261,-0.2081999480724334,-0.0552102476358413,-1.0072674751281738
1783201556971171600,4.809171630859375,1.0979080499202012,-0.6395388435095548,-0.6115612877815961,-0.1558483242988586,-0.0991201773285865,-0.9334728717803956
1783201556981108700,4.819108642578125,1.29022013554126,-0.8754483710557222,-0.944907107207179,-0.112982265651226,-0.1571918576955795,-0.8323765397071838
1783201556991045600,4.829045654296875,1.461912480851263,-0.95887425776124,-1.1386217531025409,-0.0961771830916404,-0.2024826407432556,-0.7275803685188293
1783201557000982500,4.838982421875,1.523735023035854,-0.982184990721941,-1.2042881112337112,-0.1046551987528801,-0.2625877261161804,-0.6493659019470215
1783201557010919700,4.848919677734375,1.4083328663550316,-0.9943535674214362,-1.2799901256889104,-0.1147935763001442,-0.3215154707431793,-0.5884524583816528
1783201557020856600,4.858856689453125,1.2385031000465154,-0.9772492878854274,-1.3678408430993556,-0.1095015481114387,-0.3872562646865845,-0.519490122795105
1783201557030793700,4.868793701171875,1.1511496646337211,-0.9129472038447856,-1.4573539407640694,-0.0816496759653091,-0.4632999002933502,-0.4456044733524322
1783201557040730600,4.878730712890625,1.0515395358465611,-0.8410667935043573,-1.518762056928873,-0.044002715498209,-0.5344496369361877,-0.3777844905853271
1783201557050667500,4.88866748046875,0.8946920007079839,-0.7083768174141645,-1.4932032527804373,-0.0100807007402181,-0.564762532711029,-0.3252091705799103
1783201557060604700,4.898604736328125,0.7154476325832307,-0.5453770432561635,-1.3488684316039086,-0.0088857766240835,-0.5702424049377441,-0.2731868326663971
1783201557070541600,4.90854150390625,0.5469172584354877,-0.3580377776116132,-1.238854397702217,-0.0508191138505935,-0.5825986862182617,-0.2361851334571838
1783201557080478700,4.918478759765625,0.3884665258839726,-0.1524859789282083,-1.19815472304523,-0.106668122112751,-0.6384064555168152,-0.2263942658901214
1783201557090415600,4.92841552734375,0.1777533989146351,0.0549129089266061,-1.2709148388296363,-0.1368662416934967,-0.7165012359619141,-0.2480865120887756
1783201557100352500,4.9383525390625,-0.0301969853430986,0.2600590494185686,-1.3615461268693207,-0.1175441965460777,-0.7847368717193604,-0.2824770510196686
1783201557110289700,4.94828955078125,-0.201908327614516,0.4374024062275886,-1.3713678481817244,-0.052950020879507,-0.8324862718582153,-0.3196776807308197
1783201557120226600,4.9582265625,-0.3193902131788432,0.5695651435732841,-1.2863351108014582,0.0353410094976425,-0.8519511818885803,-0.3511510193347931
1783201557130163700,4.968163818359375,-0.374055869346112,0.7127525482803583,-1.049841645887494,0.1225302442908287,-0.853175699710846,-0.3842682242393493
1783201557140100400,4.978100341796875,-0.4292850046150386,0.8877028724730014,-0.7371312027335166,0.1941155940294265,-0.8491426706314087,-0.4104552567005157
1783201557150037500,4.98803759765625,-0.494064204648137,1.0673697037935257,-0.392787019431591,0.2379118204116821,-0.842847466468811,-0.4409942626953125
1783201557159974700,4.997974609375,-0.572465541189909,1.2330734762132167,-0.0222708685189485,0.2384098172187805,-0.8250858187675476,-0.4852758646011352
1783201557169911600,5.00791162109375,-0.616532792583853,1.4280097728580237,0.3965022405624389,0.2046622335910797,-0.803536593914032,-0.5467429161071777
1783201557179848700,5.0178486328125,-0.6456615641735494,1.5772662683457137,0.8103343861103057,0.1554327458143234,-0.783577561378479,-0.6046042442321777
1783201557189785600,5.02778564453125,-0.6506963434703648,1.639914739960432,1.1613088012069464,0.1052292212843895,-0.7467173337936401,-0.6542513966560364
1783201557199722500,5.037722412109375,-0.618964695905894,1.6704174302518366,1.4546855983376503,0.0446142517030239,-0.7012312412261963,-0.692238986492157
1783201557209659600,5.04765966796875,-0.5758436393208801,1.7074574133574962,1.7277146039664744,-0.0345479436218738,-0.674891471862793,-0.7205755710601807
1783201557219596500,5.057596435546875,-0.523682513320446,1.6758219196438788,1.9265221890866755,-0.1296808421611786,-0.6478145122528076,-0.7253836989402771
1783201557229533700,5.06753369140625,-0.3426825337000191,1.5756997496813534,2.092279737520218,-0.2373820096254348,-0.6178030371665955,-0.7108622789382935
1783201557239470600,5.077470703125,-0.1344363813661039,1.4761679468274116,2.2025673276662827,-0.3405846357345581,-0.5905284285545349,-0.705315887928009
1783201557249407500,5.087407470703125,-0.0741129916980862,1.4040040433704852,2.240140394735336,-0.4358054399490356,-0.562424898147583,-0.7329241037368774
1783201557259344600,5.0973447265625,-0.1692722054909914,1.3381500537127256,2.2257529729425904,-0.5194811224937439,-0.5127518177032471,-0.7965264320373535
1783201557269281500,5.107281494140625,-0.2346301552601158,1.2179594937115907,2.1704946115791794,-0.5822446346282959,-0.4435450136661529,-0.8748391270637512
1783201557279218700,5.11721875,-0.1899202951136976,1.004900095877051,2.0579326467603445,-0.6194408535957336,-0.3370527923107147,-0.9449986219406128
1783201557289155600,5.127155517578125,-0.0867138223350048,0.7066133148729801,1.874504417079687,-0.6398375034332275,-0.2218191474676132,-1.014108180999756
1783201557299092500,5.137092529296875,0.1369961488515138,0.4423497995018959,1.5927771412104368,-0.6408791542053223,-0.1390950679779052,-1.082188367843628
1783201557309029600,5.147029541015625,0.360641822630167,0.1730716708391904,1.2653846772313118,-0.6210878491401672,-0.0561961978673934,-1.1327966451644895
1783201557318965500,5.156965576171875,0.6058582538343965,-0.1646113010078668,0.9805027367234228,-0.5678907632827759,-0.0099259298294782,-1.154434084892273
1783201557328902400,5.16690234375,0.9071331107385456,-0.5692249518334865,0.6563987928956747,-0.508552074432373,0.0246602781116962,-1.1332440376281738
1783201557338839300,5.17683935546875,1.2824791660256682,-0.9258984553545712,0.4500467837452888,-0.4364014267921448,0.0532074384391307,-1.0812705755233765
1783201557348776400,5.1867763671875,1.636270830500126,-1.2828677269518374,0.2398696633487939,-0.3584837317466736,0.0645828694105148,-1.017398715019226
1783201557358713300,5.19671337890625,1.8798938550330695,-1.5809323896378278,0.095790278238058,-0.2797190845012665,0.0996594801545143,-0.9635648727416992
1783201557368650500,5.206650390625,2.0436678284339607,-1.7915768352851271,-0.0029594343274831,-0.2024868726730346,0.1326984018087387,-0.9117853045463562
1783201557378587400,5.21658740234375,2.175560516666621,-1.9893901486709715,-0.1151262623488903,-0.1422720551490783,0.1676077842712402,-0.8482078313827515
1783201557388524300,5.226524169921875,2.285603192140907,-2.2187553691402075,-0.172705175614357,-0.0998271331191062,0.2168818563222885,-0.7743032574653625
1783201557398461400,5.23646142578125,2.428539398565888,-2.4557196664363143,-0.1580138024389743,-0.0828362703323364,0.2839573621749878,-0.6724798083305359
1783201557408399400,5.2463994140625,2.617045954424143,-2.654931740704179,-0.1400678113818168,-0.0653057470917701,0.3644324839115143,-0.5611823201179504
1783201557418336500,5.25633642578125,2.7613714232504365,-2.8404423296168444,-0.2447323009490966,-0.0356667451560497,0.4464730024337768,-0.4580506980419159
1783201557428273400,5.2662734375,2.847380896708369,-2.970345013076067,-0.4990414085388183,0.0101619940251111,0.5149998664855957,-0.3441776633262634
1783201557438210600,5.27621044921875,2.9454660078853365,-3.0343358392104505,-0.8120131329774856,0.0640609264373779,0.556746780872345,-0.2120200395584106
1783201557448147200,5.286147216796875,3.0832050840586422,-3.031407092282176,-1.162021917912364,0.1345854252576828,0.529098629951477,-0.0650068894028663
1783201557458084400,5.29608447265625,3.210188372939825,-2.967109684416652,-1.5192577314913271,0.2011716365814209,0.4386056065559387,0.0887333452701568
1783201557468021500,5.306021484375,3.330324572405219,-2.822468866030872,-1.734610208699107,0.2517141699790954,0.3320405483245849,0.250108927488327
1783201557477958400,5.31595849609375,3.429412430883944,-2.5952207838460803,-1.7683266003400089,0.2970491647720337,0.2573045194149017,0.419721245765686
1783201557487895600,5.3258955078125,3.429045058876276,-2.4035142629027364,-1.6624410445451736,0.3422861397266388,0.21994648873806,0.578348696231842
1783201557497832200,5.335832275390625,3.275371331468224,-2.2003712789267302,-1.5514403376936912,0.3999445736408233,0.236945629119873,0.7086221575737
1783201557507769300,5.345769287109375,2.9807150159209965,-1.9367238496273755,-1.4743483301848173,0.4745471775531769,0.2868026793003082,0.7998039722442627
1783201557517706500,5.35570654296875,2.580307000091672,-1.6746096212446688,-1.4731599971830844,0.5817697048187256,0.3447304666042328,0.8468465209007263
1783201557527643400,5.365643310546875,2.2050525686107574,-1.3993611860007047,-1.5065712683975696,0.7158113718032837,0.4163583219051361,0.8506923913955688
1783201557537580500,5.37558056640625,1.915533177560568,-1.1121259603649378,-1.4778689055263996,0.8677650690078735,0.4755106270313263,0.822740375995636
1783201557547517200,5.38551708984375,1.737901651459932,-0.9163684104651212,-1.449475170212984,1.021649956703186,0.4753524363040924,0.8127855062484741
1783201557557454300,5.395454345703125,1.6864236854180692,-0.8445452832698822,-1.4188468077152967,1.1448888778686523,0.4312725663185119,0.8398261070251465
1783201557567391500,5.4053916015625,1.7202372538231312,-0.784643480014801,-1.2039718848913907,1.2153865098953247,0.3703365325927734,0.8890950679779053
1783201557577328400,5.415328369140625,1.7710392202995715,-0.6565747339844703,-0.8846995990037918,1.2264264822006226,0.3170837461948395,0.956541121006012
1783201557587265500,5.425265625,1.774500612799823,-0.5045359143018723,-0.454973718753457,1.1960076093673706,0.2634258270263672,1.0042338371276855
1783201557597202200,5.4352021484375,1.6345682643659412,-0.3009673983901739,0.020339608195424,1.1489078998565674,0.240044966340065,1.0320839881896973
1783201557607139300,5.445139404296875,1.421884421845525,-0.0634802462637424,0.4638631276518106,1.0933964252471924,0.2514198720455169,1.0315651893615725
1783201557617076500,5.455076416015625,1.2058889705590905,0.1457049404859542,0.8400152386248111,1.0543246269226074,0.3018637895584106,1.0105352401733398
1783201557627013400,5.465013427734375,1.0065263819046315,0.3527332414627075,1.1805033310204744,1.024167537689209,0.3908546268939972,0.9654388427734376
1783201557636950500,5.474950439453125,0.8370261398114264,0.4861848495751619,1.4464192897737025,1.0074310302734375,0.4766403138637543,0.9262710809707642
1783201557646887400,5.484887451171875,0.7212377602919936,0.5652560482025146,1.6382219645678997,0.989552080631256,0.5529159307479858,0.902527928352356
1783201557656824300,5.49482421875,0.6686579704880714,0.5922510226339102,1.7908628417968748,0.9600025415420532,0.6175848841667175,0.8938522338867188
1783201557666761500,5.504761474609375,0.6329527431175113,0.6565262186676264,1.9396049580216408,0.9101276397705078,0.6718018054962158,0.8813657164573669
1783201557676698400,5.514698486328125,0.5896802953630685,0.7701321395814419,2.0981600277304646,0.826499342918396,0.7167861461639404,0.8621106743812561
1783201557686635500,5.524635498046875,0.5295866227976977,0.8856424328118562,2.232600646880269,0.709640622138977,0.7767046093940735,0.8489421606063843
1783201557696572400,5.534572509765625,0.554951219548285,0.9399287342727184,2.39000596203208,0.562916100025177,0.8578906059265137,0.8352564573287964
1783201557706509300,5.54450927734375,0.605631751602143,0.894654591307044,2.4922885248988864,0.4128370583057403,0.9378014206886292,0.8481477499008179
1783201557716446500,5.554446533203125,0.6766621209844946,0.7431120307087897,2.451666007131338,0.2798246145248413,1.0128830671310425,0.8760403394699097
1783201557726383400,5.56438330078125,0.7440224235519767,0.6268856981635094,2.315563007727265,0.1822479963302612,1.0939533710479736,0.9212557673454284
1783201557736320500,5.574320556640625,0.7398974525764584,0.6436439407408238,2.084416164538264,0.1303735226392746,1.1900278329849243,0.9663734436035156
1783201557746257400,5.58425732421875,0.6661509561032056,0.7129203060626983,1.8571295039087528,0.1108216568827629,1.2938144207000732,0.9903181791305542
1783201557756194300,5.5941943359375,0.4929784552380442,0.7966600810229778,1.566367857712507,0.0916498303413391,1.3489536046981812,1.0155740976333618
1783201557766131500,5.60413134765625,0.332266645886749,0.8396575112283229,1.1690519626796243,0.0432732217013835,1.3063161373138428,1.0436387062072754
1783201557776068400,5.614068359375,0.3370310838095843,0.8137298737674951,0.7039590009719133,-0.0640636533498764,1.2131047248840332,1.0462677478790283
1783201557786005500,5.624005615234375,0.3018528029225766,0.8346300384551286,0.4186503594845533,-0.2196082323789596,1.1330740451812744,1.031404972076416
1783201557795942400,5.6339423828125,0.2326625084489584,0.8408569501459598,0.2386941898286342,-0.3818069398403168,1.0398072004318235,1.0099060535430908
1783201557805879300,5.64387939453125,0.090982293434441,0.7676859154731035,-0.0113929161518812,-0.5192159414291382,0.964097023010254,0.9820303916931152
1783201557815816400,5.65381640625,-0.1374723880611359,0.6422194608956575,-0.3051063978910446,-0.594262957572937,0.9402706027030944,0.9469215869903564
1783201557825753300,5.66375341796875,-0.3564880639515816,0.5156529361218214,-0.6413543684989214,-0.6096001267433167,0.9348186254501344,0.9150241017341614
1783201557835690500,5.6736904296875,-0.5121991424061357,0.4717272851556539,-1.0310212100833651,-0.5645588636398315,0.94333153963089,0.8812403678894043
1783201557845627400,5.68362744140625,-0.609608984670043,0.4383814803928136,-1.4212287344157697,-0.4852173924446106,0.9355708360671996,0.8329641819000244
1783201557855564300,5.693564208984375,-0.6349297422789036,0.3546352756917476,-1.781444440588355,-0.3987976610660553,0.8983892798423767,0.7724341750144958
1783201557865501400,5.70350146484375,-0.6708391139194368,0.2943488570332527,-2.028874310058355,-0.3209300339221954,0.8610714673995972,0.7118621468544006
1783201557875438300,5.713438232421875,-0.6260282045513391,0.2321183185696601,-2.089636529535055,-0.2609474956989288,0.8276553750038147,0.6575977206230164
1783201557885376500,5.72337646484375,-0.5193585126414895,0.1680173100590705,-2.0978923167049883,-0.2226672023534774,0.8119387030601501,0.6378130912780762
1783201557895312400,5.7333125,-0.3161258045554161,0.0014198036700487,-2.090108238700032,-0.140302836894989,0.746311604976654,0.5771598219871521
1783201557905250300,5.743250244140625,-0.0451603073276579,-0.1638794796019792,-2.2547096028357743,-0.0103288628160953,0.668009340763092,0.5631806254386902
1783201557915187500,5.7531875,0.2180430314660072,-0.3871370308458804,-2.448857963973284,0.138457641005516,0.5826713442802429,0.61456698179245
1783201557925124400,5.763124267578125,0.5639011264622211,-0.4325625649809837,-2.4810236190408466,0.2515658140182495,0.4969923794269562,0.7233331203460693
1783201557935061500,5.7730615234375,0.8340515079148113,-0.5688035115510225,-2.328371635895967,0.3197109699249267,0.3882337212562561,0.8409224152565002
1783201557944998400,5.782998291015625,0.9387472694031892,-0.6936024421304464,-2.0285066457897423,0.3453127443790436,0.236091062426567,0.9202532172203064
1783201557954935300,5.792935302734375,0.8745596055224537,-0.5500508802860975,-1.6992437117636203,0.344256728887558,0.1157151460647583,0.9666373133659364
1783201557964872400,5.80287255859375,0.7855728698194027,-0.2877402525484562,-1.3462450973629951,0.3168298900127411,0.0617302060127258,0.9721705317497252
1783201557974809300,5.812809326171875,0.6438109678708016,0.0315355404704809,-0.9548615149885415,0.3062772452831268,0.0277611427009105,0.9477432370185852
1783201557984746500,5.82274658203125,0.3403516065344214,0.2688508431613445,-0.655909548074007,0.3219765722751617,-0.0042921314015984,0.9005900621414185
1783201557994683400,5.832683349609375,0.097306528019905,0.4540414063394069,-0.4584487013876437,0.3590677976608276,0.007293744944036,0.8420618176460266
1783201558004620300,5.842620361328125,-0.0890834740757942,0.57619362180233,-0.2355447858870029,0.414705216884613,0.0680878534913063,0.7719743251800537
1783201558014557400,5.852557373046875,-0.1752132129125297,0.6445026033967733,0.0209399121761322,0.4676172137260437,0.1344649940729141,0.7017930150032043
1783201558024494300,5.862494384765625,-0.2127618761926889,0.6757482210099697,0.2830056252419948,0.4982108175754547,0.2066766023635864,0.6442996263504028
1783201558034431500,5.872431396484375,-0.2311801609367132,0.6560241143643856,0.5314116462677717,0.4998140335083008,0.2741832137107849,0.5995689034461975
1783201558044368400,5.882368408203125,-0.1504497969254851,0.6590028379142284,0.7579483653128146,0.4834180176258087,0.3257926106452942,0.5848040580749512
1783201558054305300,5.89230517578125,0.0269010125376284,0.7118254965633154,0.8915583788573741,0.4650817215442657,0.348858892917633,0.5875964164733887
1783201558064242400,5.902242431640625,0.1883781071729958,0.7567676310956478,0.9167050950735808,0.4509422183036804,0.355020135641098,0.6102961897850037
1783201558074179300,5.912179443359375,0.3039747635126114,0.7867886753499508,0.9448439788430928,0.4303154945373535,0.3826510608196258,0.6370306015014648
1783201558084116500,5.922116455078125,0.4654143026165664,0.8138304115325212,1.0687298862308263,0.3973029553890228,0.409988135099411,0.6501882076263428
1783201558094053600,5.9320537109375,0.5175923797518015,0.8251882563710212,1.128481467360258,0.3511492609977722,0.4427812695503235,0.6636159420013428
1783201558103990300,5.941990234375,0.437317650553584,0.7975181591570377,1.1391595132410526,0.3007625043392181,0.4494370520114898,0.6672863364219666
1783201558113927400,5.951927490234375,0.2902148259684443,0.7668313444703817,1.1183867743253708,0.2568817138671875,0.4347680509090423,0.6589360237121582
1783201558123864300,5.9618642578125,0.0779869105219841,0.7951596133321523,1.0726701482892036,0.2333404123783111,0.3843506872653961,0.6340873837471008
1783201558133801500,5.971801513671875,-0.1308893564090132,0.9104209002375602,0.9931780939012764,0.2359733432531356,0.3390020728111267,0.588951826095581
1783201558143738600,5.981738525390625,-0.3164245683062821,1.040652961781621,0.9669202015727758,0.2575979232788086,0.3264287412166595,0.5144064426422119
1783201558153675300,5.99167529296875,-0.4935992174848914,1.1675129165440796,1.0762661269545557,0.2920125722885132,0.3554627895355224,0.4094349443912506
1783201558163612400,6.0016123046875,-0.5962585047096014,1.1918518235087394,1.3488140710681675,0.328260600566864,0.4368774890899658,0.3025700151920318
1783201558173549300,6.01154931640625,-0.6446493183910846,1.1509084032237529,1.6017980675339698,0.3648348748683929,0.5600712895393372,0.2100841104984283
1783201558183486500,6.021486572265625,-0.5706088074073196,1.1398925036907197,1.8716279848605395,0.3748219907283783,0.7381131649017334,0.1590494215488433
1783201558193423400,6.03142333984375,-0.2413943886980414,1.076160913014412,2.1204700592160224,0.3379877209663391,0.9342835545539856,0.182419553399086
1783201558203360300,6.0413603515625,0.2309220945224165,0.8116448841869831,2.2464286812245846,0.234175831079483,1.1095246076583862,0.260584145784378
1783201558213297400,6.05129736328125,0.6485371196098625,0.405838224184513,2.2816811963915824,0.0738788023591041,1.2280791997909546,0.3653065264225006
1783201558223234300,6.061234375,0.8432952832087874,-0.0015653496205806,2.0287036296665666,-0.1119448617100715,1.2620502710342407,0.4737736284732818
1783201558233171500,6.07117138671875,0.93726828289181,-0.2475368369758128,1.5597802960157394,-0.2833724617958069,1.1867858171463013,0.5606949329376221
1783201558243108400,6.0811083984375,0.9736322664320468,-0.2514683312058449,0.9688666594654322,-0.4131672084331512,1.046720027923584,0.6171336770057678
1783201558253045200,6.091045166015625,0.8434142334133387,-0.1767833848387003,0.4298170656651258,-0.5024398565292358,0.9273267388343812,0.6409135460853577
1783201558262982400,6.100982421875,0.6490729800522327,-0.0873766701579093,0.0630804332911968,-0.5404255986213684,0.8666415810585022,0.626308798789978
1783201558272919300,6.110919189453125,0.4979325705140829,0.0163175130724906,-0.1733300295144319,-0.5389176607131958,0.8664759993553162,0.5836215019226074
1783201558282856400,6.1208564453125,0.4118069233305752,0.0699228465318679,-0.3260837194681167,-0.5174709558486938,0.9375882744789124,0.5261397957801819
1783201558292793300,6.13079345703125,0.4586902550585567,0.0090478143304586,-0.4216045331150293,-0.4902271330356598,1.0595566034317017,0.4801673591136932
1783201558302730200,6.140730224609375,0.6033541620589792,-0.1246048693120479,-0.6015624563366174,-0.4522933661937713,1.152950406074524,0.4762104451656341
1783201558312667400,6.15066748046875,0.7547495692715048,-0.3342056511253118,-0.9320616541594268,-0.4024437367916107,1.1942434310913086,0.5025984048843384
1783201558322604500,6.1606044921875,0.8998957068309187,-0.4832803603053092,-1.3066875784784555,-0.3581870496273041,1.1714401245117188,0.5543409585952759
1783201558332541700,6.170541748046875,1.0251847590148448,-0.5359674098759889,-1.6288970868617296,-0.3250966966152191,1.1066137552261353,0.6227600574493408
1783201558342478800,6.180478759765625,1.1317363775029778,-0.5454699822366237,-1.904723029732704,-0.3092785775661468,0.9848350882530212,0.691400945186615
1783201558352415700,6.190415771484375,1.2110785020262005,-0.5868143845379352,-2.11137372956872,-0.3019156754016876,0.7954890727996826,0.765572726726532
1783201558362352600,6.2003525390625,1.2398932392306623,-0.5722375776529312,-2.2178134121149777,-0.3107137084007263,0.6062896251678467,0.8159807920455933
1783201558372289500,6.21028955078125,1.262910249941796,-0.4605231695741414,-2.092986424484849,-0.3210036158561706,0.4501499831676483,0.8600703477859497
1783201558382227700,6.220227783203125,1.1881361639864745,-0.3470242161661386,-1.7974194238334893,-0.329454094171524,0.3470640778541565,0.9031149744987488
1783201558392164600,6.23016455078125,1.0385232562765478,-0.3230325152039527,-1.3782453327357769,-0.3253179490566253,0.2912921011447906,0.9435339570045472
1783201558402101800,6.240101806640625,0.8833478921338915,-0.3004898440062999,-0.9494131864547728,-0.3163851499557495,0.2721026837825775,0.9841298460960388
1783201558412039000,6.250038818359375,0.8551910343162715,-0.2105693345844745,-0.5733090062767267,-0.3313935399055481,0.2895028591156006,1.0406445264816284
1783201558421975600,6.2599755859375,0.8626027718774973,-0.0571463670670986,-0.1796662467986345,-0.3692357242107391,0.3176625967025757,1.0903111696243286
1783201558431911700,6.26991162109375,0.7606430112242698,0.1101063883602619,0.1815782178997993,-0.4240453541278839,0.3689234256744385,1.1330236196517944
1783201558441848800,6.279848876953125,0.629139322309196,0.2382686578929424,0.4402098648637533,-0.4767767488956451,0.4354044497013092,1.155390977859497
1783201558451786800,6.289786865234375,0.5019092190600931,0.3739437872737646,0.5981710603326559,-0.5165820121765137,0.4958294630050659,1.1557129621505735
1783201558461722600,6.29972265625,0.4005132297694683,0.4667945049285888,0.6960065806627274,-0.5586308836936951,0.5696237683296204,1.147413730621338
1783201558471660500,6.30966064453125,0.3778831725493073,0.4989321029454469,0.8063233969032764,-0.5784496068954468,0.654549777507782,1.1488783359527588
1783201558481596700,6.3195966796875,0.3634950201041996,0.4182067073702812,0.7900088064402342,-0.5767672657966614,0.7511882185935974,1.1733027696609497
1783201558491534600,6.32953466796875,0.3789566469997167,0.3845411691337824,0.6736041947185992,-0.5481142997741699,0.8271654844284058,1.206868052482605
1783201558501471700,6.3394716796875,0.4476087429434061,0.4559247358679771,0.4971089791715145,-0.5119938850402832,0.8399619460105896,1.2498184442520142
1783201558511407600,6.34940771484375,0.5044213480114936,0.521580572605133,0.2665156782120466,-0.4726603031158447,0.7996823787689209,1.2918914556503296
1783201558521344800,6.3593447265625,0.5285767151027918,0.609122077935934,0.1274146660357713,-0.4356064200401306,0.7149608135223389,1.319360375404358
1783201558531281700,6.36928173828125,0.5363815436348319,0.7200403672009706,0.0630751725941896,-0.388305515050888,0.6336202025413513,1.3215774297714231
1783201558541218800,6.37921875,0.4251358490463346,0.8506763333708047,0.089382164761424,-0.3298259377479553,0.5921329259872437,1.299916386604309
1783201558551155700,6.38915576171875,0.3567766716346144,0.9788251589000224,0.1763905861288309,-0.2781808376312256,0.5898613929748535,1.2716329097747805
1783201558561092600,6.399092529296875,0.2872884171277284,1.050291143220663,0.3379015830338001,-0.2386528849601745,0.6214733719825745,1.241916298866272
1783201558571029800,6.40902978515625,0.1550020534023642,1.0974427704960108,0.5213707292467356,-0.210625410079956,0.6606796383857727,1.2084486484527588
1783201558580966700,6.418966552734375,0.0159004567041993,1.1524322517901655,0.683701810362935,-0.193723663687706,0.7156853675842285,1.172939419746399
1783201558590903800,6.42890380859375,-0.0736488813176751,1.246674716064334,0.8377659983932971,-0.1865955144166946,0.7906183004379272,1.1428121328353882
1783201558600840700,6.4388408203125,-0.1446399416029453,1.3242320029973984,1.0317477707922458,-0.2098025679588318,0.9103497266769408,1.100337028503418
1783201558610777600,6.448777587890625,-0.221241827507317,1.313135439443588,1.2135843473672867,-0.240442544221878,1.0565487146377563,1.0724866390228271
1783201558620714800,6.45871484375,-0.2792851434141397,1.294403850966692,1.2215151403665545,-0.2704353332519531,1.2031445503234863,1.0578185319900513
1783201558630651600,6.468651611328125,-0.2847670819565653,1.2976754199832676,1.0626175408303735,-0.3326989114284515,1.3056331872940063,1.0487738847732544
1783201558640588800,6.4785888671875,-0.2559656426250934,1.3143161736607551,0.7655722843199968,-0.4363485872745514,1.319036602973938,1.049230694770813
1783201558650525700,6.488525634765625,-0.2745888022914529,1.2723434103280304,0.3777057701557874,-0.5647187232971191,1.233694553375244,1.046428084373474
1783201558660462600,6.498462646484375,-0.3260480636328459,1.2350211031496523,0.00895195274055,-0.711026668548584,1.1003204584121704,1.0519477128982544
1783201558670399700,6.508399658203125,-0.4010013055473566,1.2236205882132052,-0.2902618799805641,-0.860037624835968,0.9485753774642944,1.0443488359451294
1783201558680336600,6.518336669921875,-0.5226297893971205,1.157687688100338,-0.5496855541050434,-1.016034722328186,0.8090592622756958,1.025551199913025
1783201558690273800,6.528273681640625,-0.6433727225840091,1.084831126204133,-0.7699632127553224,-1.15705406665802,0.6951340436935425,0.9936760663986206
1783201558700210700,6.538210693359375,-0.7031639050714671,1.0247656568199397,-1.027713400709629,-1.2663003206253052,0.5977084040641785,0.9509968161582948
1783201558710147600,6.548147705078125,-0.6960168097957968,0.975582815977931,-1.3360989664018152,-1.3516016006469729,0.5559312105178833,0.9143243432044984
1783201558720084700,6.558084716796875,-0.6855857244133949,0.9007423867881298,-1.6098054329007865,-1.4057040214538574,0.5590103268623352,0.8756952285766602
1783201558730021600,6.568021728515625,-0.7229097851574421,0.7537772171080112,-1.9636714777857065,-1.405790090560913,0.5649557113647461,0.8475439548492432
1783201558739958800,6.577958740234375,-0.7280318043462932,0.5598661718577146,-2.494300449243188,-1.3621225357055664,0.552026629447937,0.8286658525466919
1783201558749896000,6.58789599609375,-0.6352633581474423,0.4101560873836278,-3.123908850368857,-1.2701914310455322,0.503674328327179,0.8305991291999817
1783201558759832600,6.59783251953125,-0.5033860136143863,0.3168196320384741,-3.765900347727537,-1.1437032222747805,0.3978240191936493,0.8435208201408386
1783201558769769700,6.607769775390625,-0.400889515735954,0.265256033539772,-4.369724903777241,-1.013264298439026,0.2550782263278961,0.8570984601974487
1783201558779706600,6.61770654296875,-0.3675223759241402,0.2919955719053745,-4.792295067054033,-0.884152889251709,0.0605034120380878,0.8710517883300781
1783201558789643800,6.627643798828125,-0.4378203393787145,0.3653156596601009,-5.074931858983636,-0.7579815983772278,-0.1812106370925903,0.8697885870933533
1783201558799581000,6.637580810546875,-0.6025130350597202,0.4889642511606216,-5.181792397290468,-0.6218205690383911,-0.4473879933357239,0.84059739112854
1783201558809517600,6.647517578125,-0.8116489758402109,0.7181605448037386,-5.078327931162715,-0.4760276973247528,-0.6937934160232544,0.8072749376296997
1783201558819454700,6.657454833984375,-1.0046090039759874,1.05128483043313,-4.723040329042076,-0.3293511867523193,-0.8969982266426086,0.7582826614379883
1783201558829391600,6.6673916015625,-1.1956320726998149,1.4476204822570085,-4.130244532006979,-0.201163187623024,-1.038150668144226,0.6881453990936279
1783201558839328800,6.677328857421875,-1.410617908552289,1.8109966982871293,-3.4019688359022138,-0.0954692363739013,-1.1268889904022217,0.5937693119049072
1783201558849266000,6.687265869140625,-1.6118208643764256,2.05297940826714,-2.617010298588872,-0.0080170566216111,-1.1399840116500854,0.4889070391654968
1783201558859202600,6.69720263671875,-1.766058070886135,2.24069276792109,-1.823009792163968,0.0598400235176086,-1.0688984394073486,0.3973762989044189
1783201558869139700,6.7071396484375,-1.9241957919657229,2.3740906000196933,-1.0825269409149885,0.1226650029420852,-0.948589324951172,0.288004606962204
1783201558879076600,6.71707666015625,-2.112036431261152,2.4365572853267192,-0.511427427381277,0.1952819526195526,-0.8151830434799194,0.1850278675556183
1783201558889013800,6.727013671875,-2.2529032840661705,2.4472563739955424,-0.1353197400718927,0.2701343595981598,-0.7006099820137024,0.0819747298955917
1783201558898951000,6.736950927734375,-2.2688858660958706,2.5325562378793958,0.0962742623627185,0.3382777273654938,-0.6139240860939026,-0.0170139018446207
1783201558908887600,6.746887451171875,-2.2502320190303027,2.647704127538204,0.3166138803333044,0.3667834401130676,-0.5698725581169128,-0.1089228317141532
1783201558918823700,6.75682373046875,-2.2083159543208777,2.6904864536881443,0.5760258640199899,0.3368878662586212,-0.5561553835868835,-0.1935871094465255
1783201558928760800,6.7667607421875,-2.1440569787696004,2.7098721221596,0.89537063062191,0.253594309091568,-0.5581191182136536,-0.2786026895046234
1783201558938697700,6.77669775390625,-2.043829887127876,2.753396206587553,1.2375380544066428,0.1449437439441681,-0.5849398374557495,-0.3588344156742096
1783201558948634600,6.786634521484375,-1.9452089155085384,2.8304852914869785,1.505666428512335,0.0216080788522958,-0.6340169310569763,-0.4221152365207672
1783201558958571800,6.79657177734375,-1.847403936447203,2.9075597633391617,1.7134493472486734,-0.1214188411831855,-0.684851884841919,-0.4654126465320587
1783201558968508700,6.8065087890625,-1.7161947004340588,3.016656682395935,1.9830881259173156,-0.2925083935260772,-0.746619701385498,-0.4984650611877441
1783201558978445800,6.81644580078125,-1.610469742028415,3.102204383561015,2.226361460229754,-0.4859140813350677,-0.8256609439849854,-0.5154533386230469
1783201558988382700,6.8263828125,-1.4963095482327042,3.2183763555705545,2.4663386756062504,-0.7065556049346924,-0.8914691209793091,-0.4644242823123932
1783201558998319600,6.836319580078125,-1.4279744092836977,3.376130630290508,2.833043159276247,-0.9266075491905212,-0.8925111889839172,-0.4412263035774231
1783201559008256800,6.8462568359375,-1.438042506572604,3.5306828940987587,3.2687562972426414,-1.104404330253601,-0.8350290060043335,-0.4677345156669616
1783201559018193700,6.856193603515625,-1.5526599426165222,3.516837908619642,3.418894836261868,-1.2295124530792236,-0.673901379108429,-0.545647144317627
1783201559028130800,6.866130859375,-1.719989416541904,3.3319384373426435,3.3738393044829365,-1.2909986972808838,-0.436162531375885,-0.676834225654602
1783201559038067700,6.876067626953125,-1.9571007210932672,3.001197247457504,3.11886851811409,-1.2791577577590942,-0.1813049614429474,-0.857736349105835
1783201559048004600,6.886004638671875,-2.03884756867066,2.7614164314359426,2.581291919475793,-1.2077199220657349,0.0914953052997589,-1.0605814456939695
1783201559057941800,6.895941650390625,-1.879229107514024,2.620283036649227,1.955963972148299,-1.1060585975646973,0.3444886803627014,-1.251824140548706
1783201559067878700,6.905878662109375,-1.590486399924755,2.4366052161216736,1.3868757984369993,-1.0304635763168335,0.5331866145133972,-1.419934630393982
1783201559077815800,6.91581591796875,-1.2423203202471136,2.238746310028433,0.8409469665169715,-1.0212323665618896,0.6505425572395325,-1.579596757888794
1783201559087752700,6.925752685546875,-0.8524320909969508,1.9788012423783536,0.3465525070011616,-1.0935665369033811,0.7206030488014221,-1.7658379077911377
1783201559097689600,6.935689697265625,-0.5771989994525909,1.5198919377416371,-0.1589098744958639,-1.2199169397354126,0.7344169020652771,-1.9642213582992556
1783201559107625700,6.945625732421875,-0.2540241531684994,0.8872592203587293,-0.8170522961884736,-1.3415327072143557,0.6577182412147522,-2.1324074268341064
1783201559117563000,6.95556298828125,0.2984514700464904,0.2858990085959434,-1.7590134130716324,-1.4116548299789429,0.4991019666194916,-2.2125792503356934
1783201559127499800,6.965499755859375,1.0107581742554903,-0.3306950126558542,-2.8537936863601208,-1.4005956649780271,0.2855487763881683,-2.2015299797058105
1783201559137436700,6.975436767578125,1.7367087884135544,-0.902461465665698,-3.8755268436163663,-1.3192603588104248,0.0452192686498165,-2.109074592590332
1783201559147373600,6.98537353515625,2.418417817524076,-1.3209317924082278,-4.626908690020442,-1.1977311372756958,-0.2100293189287185,-1.962730050086975
1783201559157310700,6.995310791015625,2.9950661973565813,-1.5908780295908451,-4.981362763926387,-1.0700559616088867,-0.4223075211048126,-1.810034990310669
1783201559167248000,7.005247802734375,3.343575099122524,-1.7948790917009114,-4.900317050355673,-0.962148666381836,-0.5638485550880432,-1.6779667139053345
1783201559177184800,7.015184814453125,3.4555925818011164,-2.059607886496186,-4.585698143231869,-0.8594340085983276,-0.6483194828033447,-1.5480953454971311
1783201559187121700,7.02512158203125,3.453272906681895,-2.3665572819054126,-4.308271779426932,-0.7299954891204834,-0.7145054340362549,-1.3982219696044922
1783201559197058600,7.03505859375,3.4219378572195764,-2.5785382368534804,-4.135801581612229,-0.5675700902938843,-0.7502703070640564,-1.2300667762756348
1783201559206995700,7.04499560546875,3.3103254482105373,-2.5808187490060925,-3.972683734032512,-0.3789016604423523,-0.7753769755363464,-1.0681828260421753
1783201559216932900,7.054932861328125,2.9971985332101583,-2.413780220851302,-3.739667589840293,-0.1764071732759475,-0.8025984764099121,-0.9367984533309937
1783201559226869800,7.064869873046875,2.561580964572728,-2.110112331330776,-3.472441133010387,0.0137527966871857,-0.8429610133171082,-0.8491105437278748
1783201559236806700,7.074806640625,2.128945480486005,-1.6842559859901665,-3.082093907946348,0.1852561086416244,-0.9028751850128174,-0.796851634979248
1783201559246743600,7.08474365234375,1.780448123027384,-1.3161854746639727,-2.638269359716773,0.3151751160621643,-0.954034984111786,-0.7659100294113159
1783201559256679700,7.0946796875,1.519736308788508,-1.082125082115829,-2.1123007812857626,0.4141877293586731,-0.9859673380851746,-0.7410517930984497
1783201559266616800,7.104616943359375,1.3670482314169403,-0.8230348777294159,-1.516712138661742,0.4879743456840515,-1.0074564218521118,-0.7084019184112549
1783201559276553700,7.1145537109375,1.2489290708623826,-0.5061901112496853,-0.9341407985210418,0.55206298828125,-1.022333025932312,-0.6913681030273438
1783201559286490600,7.12449072265625,1.0558721582233903,-0.2312520571291446,-0.3710831371456384,0.6016057133674622,-1.0120245218276978,-0.6893940567970276
1783201559296427800,7.134427734375,0.8124713981389999,0.011549860279262,0.1974789668649434,0.6493591666221619,-0.9705049991607666,-0.6927821040153503
1783201559306364700,7.14436474609375,0.6020085926689207,0.2231511682599782,0.709457598388195,0.6968775987625122,-0.9044097661972046,-0.7016005516052246
1783201559316301800,7.1543017578125,0.414140334714204,0.4212751550301909,1.1653776580810546,0.7346529364585876,-0.8111287951469421,-0.7191473245620728
1783201559326239000,7.164239013671875,0.235745130764693,0.6403022290974855,1.617019602063298,0.7400668859481812,-0.7077181935310364,-0.7522738575935364
1783201559336175600,7.174175537109375,0.0472149017699062,0.773736886075139,2.05734403321743,0.6957209706306458,-0.6024287343025208,-0.7871591448783875
1783201559346112800,7.18411279296875,-0.0948180722050368,0.7650786555841564,2.5136802724957463,0.6054304838180542,-0.5145837068557739,-0.8208318948745728
1783201559356049700,7.194049560546875,-0.1362760178834199,0.6790837951734662,2.8723347207009797,0.4762615859508514,-0.4335807263851166,-0.8601526618003845
1783201559365986800,7.20398681640625,-0.0776275756902992,0.6342050812661647,3.168400903046131,0.3040593564510345,-0.3406067192554474,-0.8836960196495056
1783201559375922700,7.213922607421875,0.0471582031466066,0.5708341405957937,3.414243795585632,0.1130816712975502,-0.2365167886018753,-0.8852803707122803
1783201559385859800,7.22385986328125,0.1956013729574158,0.4122653346225619,3.4372733735173937,-0.04596459120512,-0.1746212840080261,-0.8610430359840393
1783201559395796700,7.233796630859375,0.3321703459054231,0.2286976964712142,3.1425673736095425,-0.1576839238405227,-0.1395969986915588,-0.8247324228286743
1783201559405734000,7.24373388671875,0.4709336505599319,0.1451484756469726,2.7281629811316725,-0.2142755091190338,-0.0783552378416061,-0.7934510707855225
1783201559415670800,7.2536708984375,0.4505206848673522,0.1522618147835135,2.404205167776346,-0.2327514588832855,0.0323182828724384,-0.7820128202438354
1783201559425607700,7.263607666015625,0.3975736691862344,0.2011351512849331,2.1492916645526883,-0.2508539259433746,0.1688872724771499,-0.7981203198432922
1783201559435544800,7.273544921875,0.3350117068111896,0.3043661009177565,1.867136518660188,-0.2875283062458038,0.2805637121200561,-0.8365185856819153
1783201559445481700,7.283481689453125,0.2920034629508853,0.3778685595020651,1.4182821595698594,-0.3349886834621429,0.3564629554748535,-0.8766323924064636
1783201559455419000,7.2934189453125,0.3415088137455284,0.2867716997772455,0.843866653355956,-0.3921025693416595,0.3677765727043152,-0.8816947937011719
1783201559465355800,7.303355712890625,0.4109245875380933,0.1054202763706445,0.1588537603944539,-0.4405918717384338,0.3225641846656799,-0.8681202530860901
1783201559475292700,7.313292724609375,0.4142351733908057,-0.0432692328840494,-0.5164198288410902,-0.4669339954853058,0.2222948223352432,-0.8418473601341248
1783201559485228800,7.323228759765625,0.4170495001591742,-0.1476791631683707,-1.1510644705682993,-0.4626443982124328,0.0987619012594223,-0.8084329962730408
1783201559495166000,7.333166015625,0.4630702237084507,-0.1820101795762777,-1.662128909856081,-0.4392370879650116,-0.0281571634113788,-0.7764260768890381
1783201559505102800,7.343102783203125,0.5012881645523012,-0.1565253174468875,-1.9962936444491144,-0.400004506111145,-0.145363837480545,-0.756912887096405
1783201559515039700,7.353039794921875,0.4777518061421811,-0.1592094419643283,-2.224184700712561,-0.3408964574337005,-0.2294867038726806,-0.7389810085296631
1783201559524976600,7.3629765625,0.4299056207314133,-0.2954296380072831,-2.3432021252810955,-0.2655918896198272,-0.2796396017074585,-0.6948051452636719
1783201559534913800,7.372913818359375,0.4500431304834782,-0.4022898840531707,-2.386620411247015,-0.1822783350944519,-0.3168807327747345,-0.6371772885322571
1783201559544851000,7.382850830078125,0.4500971987582743,-0.4098144343391061,-2.3660206908106804,-0.0910564735531807,-0.360603779554367,-0.5821613073348999
1783201559554787800,7.392787841796875,0.3460001338154077,-0.3868623055577277,-2.3249714720636603,0.0188716202974319,-0.4068095982074737,-0.5499505996704102
1783201559564724700,7.402724853515625,0.147183342475444,-0.3203448835551739,-2.226062185022234,0.1400685161352157,-0.434917539358139,-0.5439325571060181
1783201559574661600,7.41266162109375,-0.0563444030344486,-0.1551841319710016,-2.0247429093420504,0.2662213742733001,-0.4471041560173034,-0.5571482181549072
1783201559584597800,7.42259765625,-0.1724818882524967,0.0365256038427352,-1.7749276060402392,0.3829811215400696,-0.4542942941188812,-0.5749639868736267
1783201559594535000,7.432534912109375,-0.1991105135895311,0.2162982336252927,-1.5108429543673991,0.4812285900115967,-0.4622595310211181,-0.5904385447502136
1783201559604471800,7.442471923828125,-0.2290582003466784,0.375477864973247,-1.1759171722739934,0.5671112537384033,-0.4755473732948303,-0.616222083568573
1783201559614408700,7.45240869140625,-0.3306042656324803,0.479679413203895,-0.8444155194103717,0.6282944679260254,-0.494620144367218,-0.6477512121200562
1783201559624345900,7.462345947265625,-0.3821675718702376,0.5933651213556528,-0.4586737423151731,0.6372470855712891,-0.520579993724823,-0.6790387034416199
1783201559634282800,7.47228271484375,-0.358705886131525,0.7276283381119371,-0.0039577977150678,0.5755938291549683,-0.5586117506027222,-0.718043863773346
1783201559644220000,7.482219970703125,-0.3390343864560127,0.8061696676462888,0.4273158964991569,0.4596770405769348,-0.5868923664093018,-0.762985348701477
1783201559654156800,7.49215673828125,-0.2778456121303141,0.7895218997061252,0.8386760989755392,0.3192767798900604,-0.6082628965377808,-0.8006946444511414
1783201559664093700,7.50209375,-0.1685553624585271,0.6239870541125535,1.1327788722932337,0.1972049623727798,-0.6123199462890625,-0.8202217221260071
1783201559674029800,7.51202978515625,-0.0646741367900045,0.4061757855758071,1.2391799763947724,0.1349343955516815,-0.6006747484207153,-0.8329500555992126
1783201559683967000,7.521967041015625,0.0172884039312601,0.2892342904984951,1.257683601334691,0.1297433078289032,-0.5628569722175598,-0.8368836045265198
1783201559693903600,7.531903564453125,0.1021450540922582,0.2945101850748062,1.2470084780633448,0.1837450265884399,-0.5168730020523071,-0.8395707607269287
1783201559703840800,7.5418408203125,0.2221776470527052,0.289126153948903,1.26714058098793,0.2635295987129211,-0.439593106508255,-0.8294743895530701
1783201559713777700,7.551777587890625,0.2698191036716103,0.2176601696282625,1.397980545297265,0.3343361020088196,-0.3126378059387207,-0.8129643797874451
1783201559723714800,7.56171484375,0.298565013423562,0.2107689488098025,1.604251890426874,0.3796526491641998,-0.1609262377023697,-0.8092344999313354
1783201559733652000,7.57165185546875,0.3325092224709689,0.2891758383095264,1.7889491171300411,0.3644276261329651,-0.0277652479708194,-0.8347936272621155
1783201559743588600,7.581588623046875,0.3531010518617928,0.2910352024406195,1.815165508404374,0.3001508712768554,0.0586671158671379,-0.8563909530639648
1783201559753525800,7.59152587890625,0.4498322642117738,0.1363537592947483,1.6228244889497756,0.2064571231603622,0.094529241323471,-0.8551038503646851
1783201559763462000,7.6014619140625,0.6390843777403235,-0.07120587207973,1.2963947325229643,0.0851350426673889,0.0751690566539764,-0.8184840083122253
1783201559773398800,7.611398681640625,0.8312922723345458,-0.2874146738559007,0.906527399930358,-0.0567043796181678,0.0182626321911811,-0.7584816813468933
1783201559783335700,7.621335693359375,0.9740795718081297,-0.423123120984435,0.5047083482593298,-0.2038193941116333,-0.0768706798553466,-0.6814350485801697
1783201559793272800,7.63127294921875,1.0093187891021371,-0.5050608149588107,0.0317278481721878,-0.3324652314186096,-0.1881055980920791,-0.6108493208885193
1783201559803209700,7.641209716796875,0.9635548167929052,-0.5239592844352126,-0.4152589634805917,-0.4483765363693237,-0.2776012420654297,-0.5576720237731934
1783201559813147000,7.65114697265625,0.8693291575230657,-0.4434375947386026,-0.7546545844644308,-0.5261192321777344,-0.3381394147872925,-0.5248927474021912
1783201559823083800,7.661083740234375,0.729090519618988,-0.4185924918174743,-1.0609580831855534,-0.5555430054664612,-0.3867993056774139,-0.4959898591041565
1783201559833020700,7.671020751953125,0.6118626088157296,-0.4880833766728639,-1.3995160843014716,-0.5352537631988525,-0.4355580508708954,-0.4616444110870361
1783201559842956800,7.680956787109375,0.5762343922041356,-0.5473796152502298,-1.7457453506976366,-0.4634288549423218,-0.4873429238796234,-0.4205096960067749
1783201559852894000,7.69089404296875,0.5287447651460766,-0.5566527627691626,-1.9568419240266084,-0.3628862500190735,-0.5440986156463623,-0.3827947974205017
1783201559862830800,7.700830810546875,0.4531060251854359,-0.5180348628222942,-2.0349077450037,-0.2460083365440368,-0.5860881805419922,-0.3482022583484649
1783201559872767700,7.710767822265625,0.4074791232593357,-0.3499208143904805,-1.9687369444817304,-0.1366991698741912,-0.624351441860199,-0.3231158256530761
1783201559882704600,7.72070458984375,0.32458558986485,-0.1077975268959999,-1.7702327262222766,-0.0399404913187027,-0.6416178941726685,-0.32615727186203
1783201559892641800,7.730641845703125,0.1213483517341315,0.1144511395663022,-1.5448697271317242,0.0409247986972332,-0.647179901599884,-0.3405007719993591
1783201559902579000,7.740578857421875,-0.0356182797394692,0.3156675393939018,-1.3136778757572174,0.1195403560996055,-0.647904098033905,-0.3657454550266266
1783201559912515800,7.750515869140625,-0.1462700270228087,0.4807946809694171,-1.075123971182108,0.1983424872159958,-0.6467024683952332,-0.4083507061004638
1783201559922451700,7.76045166015625,-0.2966735005885362,0.5440343964755535,-0.8453998542726039,0.2660552561283111,-0.63541179895401,-0.4499445259571075
1783201559932388900,7.770388916015625,-0.402073757084459,0.5481508918836713,-0.5594862326294183,0.3011612892150879,-0.6228007078170776,-0.4860956072807312
1783201559942325800,7.78032568359375,-0.3890091083280741,0.5558303404703736,-0.2161141092300414,0.2857931852340698,-0.612255334854126,-0.5198989510536194
1783201559952263000,7.790262939453125,-0.3247830121330917,0.5588765762984752,0.1072334632724523,0.236036792397499,-0.6235034465789795,-0.5568774938583374
1783201559962199800,7.80019970703125,-0.2625136029638349,0.5057347686976195,0.3374538392663002,0.1859664320945739,-0.6433855295181274,-0.5919944643974304
1783201559972136700,7.81013671875,-0.2153602221228182,0.4598498003572225,0.4469499867737293,0.1788632571697235,-0.6659177541732788,-0.6250085830688477
1783201559982073900,7.820073974609375,-0.1625759957879781,0.4343690298810601,0.4967898302197456,0.1997086703777313,-0.654688835144043,-0.6624110341072083
1783201559992010000,7.830010009765625,-0.1449697580792009,0.4186088584303856,0.621194208523631,0.2618348896503448,-0.5940840840339661,-0.687986433506012
1783201560001946600,7.839946533203125,-0.0948550249482505,0.3885957052215933,0.8234756072342395,0.3397160470485687,-0.5012525916099548,-0.7052119374275208
1783201560011883800,7.8498837890625,0.0080732702098786,0.379998557268083,1.0528338134407995,0.4220141172409057,-0.3988809585571289,-0.7291960716247559
1783201560021820700,7.859820556640625,0.0559216475777328,0.3948816536232828,1.26975222479105,0.4794495105743408,-0.2912374138832092,-0.7472713589668274
1783201560031757800,7.8697578125,0.059460927619785,0.3755558986455202,1.4564830031484364,0.5026533603668213,-0.1956072747707367,-0.7660589218139648
1783201560041695000,7.879695068359375,0.0849213859602808,0.3615747195661067,1.566834306180477,0.4800721704959869,-0.1307127922773361,-0.7745339870452881
1783201560051631600,7.889631591796875,0.1660987630866467,0.4307873720020055,1.6207202101469038,0.4100222587585449,-0.1226026713848114,-0.7734593749046326
