time,seconds_elapsed,ax,ay,az,gx,gy,gz
1783201538463798000,0.093798095703125,-0.1603881303548812,0.1797451572537422,0.0378676661014556,-0.0817038044333458,-0.3734380304813385,-0.2606316804885864
1783201538473735200,0.103735107421875,-0.1822135931938886,0.3127724024742842,0.3589467091500758,-0.0647794231772422,-0.3778042793273926,-0.2696984112262726
1783201538483671800,0.113671875,-0.2236748998731374,0.3726911568641662,0.7116214984238147,-0.0613514855504035,-0.3187459409236908,-0.2755277156829834
1783201538493609000,0.12360888671875,-0.1457841432020068,0.4431026636958122,1.1118336994200944,-0.0666647627949714,-0.2166057527065277,-0.2995505034923553
1783201538503546000,0.133546142578125,-0.0264060686275362,0.4004629608869552,1.265598612242937,-0.07155142724514,-0.1436708122491836,-0.3046597242355346
1783201538513483000,0.14348291015625,0.1147577212974429,0.3103472211539745,1.3323176942974329,-0.0833516269922256,-0.1002769991755485,-0.3035385310649872
1783201538523420200,0.153420166015625,0.3315186039984226,0.3202835087567567,1.387349845689535,-0.1111913844943046,-0.1208077445626258,-0.2955949902534485
1783201538533356800,0.163356689453125,0.4398062159663066,0.3309498641997576,1.502272109898925,-0.149097204208374,-0.1872914284467697,-0.2957981824874878
1783201538543293000,0.17329296875,0.4912731126248836,0.3392056513696909,1.6795856560915707,-0.2305297255516052,-0.2413335591554641,-0.2896907925605774
1783201538553230000,0.18322998046875,0.5049874574616551,0.333546894955635,1.9539058705747123,-0.3505586385726928,-0.2729907929897308,-0.2906777560710907
1783201538563167000,0.1931669921875,0.4358993081882595,0.2576426359266042,2.1829028422534464,-0.4955719113349914,-0.2808728218078613,-0.2970735430717468
1783201538573103900,0.203103759765625,0.32271132042557,0.1571662456989288,2.354723051726818,-0.6521817445755005,-0.2947891652584076,-0.2935698926448822
1783201538583041000,0.213041015625,0.2334568736970424,0.162277889624238,2.4293653279960155,-0.7990608811378479,-0.2978374361991882,-0.2907253503799438
1783201538592978000,0.22297802734375,0.1382736214414238,0.2358335397005081,2.3944915830135343,-0.928459107875824,-0.2701576054096222,-0.3091064691543579
1783201538602915000,0.2329150390625,-0.0084624521905556,0.3211281428873538,2.2174171062737704,-1.0259578227996826,-0.1869879513978958,-0.3778537213802337
1783201538612852200,0.242852294921875,-0.1049105732828378,0.3113601975888013,1.9218156188309192,-1.088520050048828,-0.0459259003400802,-0.4872736930847168
1783201538622788900,0.252788818359375,-0.1491959974721074,0.1405488728970289,1.3910755882143973,-1.0791279077529907,0.0945957452058792,-0.6149556636810303
1783201538632726000,0.26272607421875,-0.0622083266317844,-0.0801268451601266,0.7202221535086631,-0.9916843771934508,0.2386559844017028,-0.7190485000610352
1783201538642663000,0.272662841796875,0.1666576756110414,-0.3079816610664129,0.0152414082735776,-0.8413417935371399,0.3987143933773041,-0.7999276518821716
1783201538652600000,0.28260009765625,0.500379379144311,-0.6242313842624425,-0.6308586934477091,-0.6644282341003418,0.550494372844696,-0.8637005090713501
1783201538662537200,0.292537109375,0.9089290542446076,-0.9926935252547264,-1.1911188330590723,-0.4849792420864105,0.6851739287376404,-0.8932838439941406
1783201538672473900,0.302473876953125,1.4238357020437715,-1.4522341135323047,-1.675230383491516,-0.3310906291007995,0.7733607888221741,-0.8646047711372375
1783201538682411000,0.312410888671875,1.9797480217091736,-1.987660840660333,-2.149546516096592,-0.2163395136594772,0.7899709343910217,-0.7658864855766296
1783201538692348000,0.322347900390625,2.4755574625894425,-2.414947511065006,-2.5136732582330703,-0.140438362956047,0.7126215100288391,-0.6160975098609924
1783201538702285000,0.33228515625,2.885729039803147,-2.714736513325572,-2.7106898682832714,-0.0856322273612022,0.5540592670440674,-0.4490125179290771
1783201538712222200,0.34222216796875,3.1527582204952838,-2.790488796663284,-2.778348277014494,-0.0461463369429111,0.3551360666751861,-0.2861301004886627
1783201538722158800,0.352158935546875,3.257690128827095,-2.683420168563724,-2.671822085228562,0.0002366490662097,0.1428433954715728,-0.1434644013643264
1783201538732096000,0.362095947265625,3.220477711763978,-2.521633277326822,-2.4768489637047053,0.0608778893947601,-0.0530984103679657,-0.0109178144484758
1783201538742033000,0.372032958984375,3.091883188293874,-2.4067682962626216,-2.1993641477108,0.1412772089242935,-0.2165199667215347,0.1291484385728836
1783201538751970000,0.381969970703125,2.9033956293970347,-2.2946271872043607,-1.764823560655117,0.2302334457635879,-0.3309320211410522,0.2739793956279754
1783201538761907200,0.3919072265625,2.665547535003721,-2.081415229156613,-1.1860919448077678,0.3093939423561096,-0.392533004283905,0.4005744457244873
1783201538771843800,0.40184375,2.392333674327284,-1.74370595382452,-0.5452759209692478,0.3640047311782837,-0.4237375259399414,0.5036656856536865
1783201538781781000,0.411781005859375,2.106442410646379,-1.3676169712156057,0.0607429302543401,0.3996064066886902,-0.4467241764068603,0.5840981602668762
1783201538791718000,0.4217177734375,1.821435674715042,-1.038185694885254,0.592305383169651,0.4159579575061798,-0.4665665924549103,0.6478419899940491
1783201538801655000,0.431655029296875,1.541018166270107,-0.7539128261864185,1.0549474445939064,0.4141051471233368,-0.4733013212680816,0.7000938057899475
1783201538811592200,0.44159228515625,1.2648647450104356,-0.4622188675761222,1.5207149445623158,0.395112007856369,-0.4640079438686371,0.7477505803108215
1783201538821528800,0.45152880859375,0.9899518253311514,-0.1507943725794553,1.985815505054593,0.3556927442550659,-0.4470355808734894,0.7755082845687866
1783201538831466000,0.461466064453125,0.7106392093881965,0.1228974808722734,2.4611872841924427,0.2939199209213257,-0.4124587178230285,0.782356858253479
1783201538841403000,0.47140283203125,0.4270285674577578,0.3577098608314991,2.915774633976817,0.2340876460075378,-0.3553685545921325,0.7563608288764954
1783201538851340000,0.481340087890625,0.1391717393249273,0.4886006785452365,3.2874323561400174,0.1419156342744827,-0.2284015566110611,0.7380968928337097
1783201538861277200,0.491277099609375,-0.1340265219235792,0.6040373220175504,3.7288901752382513,0.0477654933929443,-0.0649114325642585,0.6907885074615479
1783201538871213800,0.5012138671875,-0.4107803567618131,0.6665922701299191,4.020363184574246,-0.0443388670682907,0.11173577606678,0.6207113862037659
1783201538881151000,0.51115087890625,-0.5832072999566793,0.6288403393626213,4.191743833586574,-0.1202301755547523,0.3258507847785949,0.5293185114860535
1783201538891087000,0.521087158203125,-0.475775976024568,0.5403600918769836,4.186806377184391,-0.1577141731977462,0.5058413147926331,0.4791879653930664
1783201538901024000,0.53102392578125,-0.0535123944789171,0.4168675677210092,4.0646284427583215,-0.1659428179264068,0.685753583908081,0.4867710471153259
1783201538910961000,0.5409609375,0.3355000748500227,0.3546557339578867,3.982999376341701,-0.180729478597641,0.8620375394821167,0.5051133036613464
1783201538920898000,0.55089794921875,0.6144035254701972,0.2116542072117328,3.826811620286106,-0.2325721681118011,1.0347133874893188,0.5177103877067566
1783201538930835000,0.5608349609375,0.8596940448239445,-0.0296592252045869,3.549955165323615,-0.3373254537582397,1.1986136436462402,0.5363258719444275
1783201538940772000,0.570772216796875,1.1478940238386393,-0.2682750891000032,3.1716578590154647,-0.4863531589508056,1.3310121297836304,0.5789541602134705
1783201538950709000,0.580708984375,1.3543398487523195,-0.5042413152694701,2.604389886468649,-0.6660813689231873,1.4379841089248655,0.6422417759895325
1783201538960646000,0.59064599609375,1.505639832766354,-0.7006769105613231,1.8591800066977735,-0.8636085391044617,1.4699114561080933,0.6845934987068176
1783201538970583000,0.6005830078125,1.5672680214226244,-0.8213292428553104,0.9916828869074582,-1.0769387483596802,1.4246227741241455,0.680311381816864
1783201538980520000,0.61052001953125,1.5656373514808712,-1.0079653286665675,0.1122130052506923,-1.2891395092010498,1.3480675220489502,0.6407799124717712
1783201538990457000,0.62045703125,1.660776326203346,-1.3773334785878657,-0.864900089034438,-1.4558038711547852,1.2810077667236328,0.6071298122406006
1783201539000394000,0.63039404296875,1.9183536418087777,-1.7728396938502788,-1.9406968449115751,-1.5268303155899048,1.2243225574493408,0.5992552042007446
1783201539010331000,0.640330810546875,2.337268643578887,-1.9733394698411224,-2.9776532902628183,-1.470785140991211,1.1194331645965576,0.6072023510932922
1783201539020268000,0.65026806640625,2.787213428254425,-2.032177443256974,-3.83519892488122,-1.326703429222107,1.0049411058425903,0.6512830853462219
1783201539030205000,0.660204833984375,3.237241799560189,-1.8734832573384048,-4.345365538546443,-1.1261928081512451,0.920077919960022,0.7600015997886658
1783201539040142000,0.67014208984375,3.528372863590717,-1.6351169842898845,-4.599658864045143,-0.8615229725837708,0.8158122897148132,0.9400062561035156
1783201539050079200,0.680079345703125,3.536730357569456,-1.47122873685956,-4.829129298454522,-0.5299785733222961,0.6643101572990417,1.1395102739334106
1783201539060015900,0.690015869140625,3.3073169140443204,-1.2190233235508203,-4.9713311992555855,-0.1682358533143997,0.4859822690486908,1.3359105587005615
1783201539069953000,0.699953125,2.9283418546050783,-0.8579051155805587,-4.918663438907266,0.1889566332101822,0.3240208029747009,1.5068538188934326
1783201539079890000,0.709889892578125,2.417103520055115,-0.3533072419583797,-4.598166579660773,0.5113711357116699,0.198673129081726,1.6332809925079346
1783201539089827000,0.7198271484375,1.9223918112836775,0.1905471217751503,-4.090164450553059,0.7922875285148621,0.0706629678606987,1.7124065160751345
1783201539099764200,0.72976416015625,1.3830518562346696,0.6073819562703371,-3.517730473545193,1.00501549243927,-0.0549690648913383,1.7411727905273438
1783201539109700900,0.739700927734375,0.8505296183764934,0.9128858290463684,-2.8381016117095945,1.157280445098877,-0.1697387993335724,1.7099066972732544
1783201539119638000,0.749637939453125,0.353005482532829,1.119440082770586,-2.109164821347594,1.214391589164734,-0.1527336835861206,1.6778193712234497
1783201539129575000,0.759574951171875,-0.1114151328712701,1.2955273020386695,-1.1439081690728663,1.1991610527038574,-0.068497359752655,1.6223353147506714
1783201539139512000,0.769511962890625,-0.5110720746049657,1.4437597151756285,-0.2678624166458845,1.1410807371139526,0.0159023813903331,1.5326305627822876
1783201539149449200,0.77944921875,-0.8268740175008773,1.6013403868943452,0.4214455431610345,1.0644477605819702,0.0930075570940971,1.4177111387252808
1783201539159385900,0.7893857421875,-1.002390158882737,1.8112129713863132,1.0374930364459751,0.9869953393936156,0.1572889983654022,1.2693215608596802
1783201539169323000,0.799322998046875,-1.1478554453939198,1.9684066896140573,1.5298305634319782,0.8991299271583557,0.2236057072877884,1.1459556818008425
1783201539179260000,0.809260009765625,-1.2073536362841724,1.9585422982037064,1.989517866703868,0.7947976589202881,0.2886996269226074,1.0244075059890747
1783201539189197000,0.819197021484375,-1.1466273649036884,1.8669892191439863,2.4358985291570425,0.6678761839866638,0.3809139728546142,0.9215636253356934
1783201539199134200,0.82913427734375,-1.016557215923071,1.776654868224263,2.8309488173455,0.5195774435997009,0.4692997932434082,0.8446525931358337
1783201539209070800,0.83907080078125,-0.7477204012870788,1.7607623025655743,3.13410583473444,0.3588806986808777,0.5548775792121887,0.8013485670089722
1783201539219008000,0.849008056640625,-0.4256123074516654,1.7507868519961831,3.3846342547416683,0.1872147172689438,0.6325702667236328,0.7962732315063477
1783201539228945000,0.85894482421875,-0.2051891028508543,1.7086416547060013,3.531618713644147,-0.0092948768287897,0.7042015790939331,0.8189969062805176
1783201539238882000,0.868882080078125,-0.0311500482842326,1.649379318398237,3.486268582832813,-0.2171582281589508,0.7498539686203003,0.8616247773170471
1783201539248819200,0.878819091796875,-0.017005221342016,1.625643638023734,3.31370603055954,-0.4141772985458374,0.7459689378738403,0.896312952041626
1783201539258755800,0.888755859375,-0.1430544259771704,1.5972814668923616,3.063513126116991,-0.5800645351409912,0.7306988835334778,0.9263662695884703
1783201539268693000,0.89869287109375,-0.2867117862835526,1.5106570764064788,2.7462966037154195,-0.7087730169296265,0.7090718746185303,0.953077793121338
1783201539278630100,0.908630126953125,-0.430594479778409,1.4843682044178246,2.531126497337222,-0.8127276301383972,0.7020988464355469,0.9442673921585084
1783201539288567000,0.918567138671875,-0.5959539688050747,1.507312442153692,2.4231939458847043,-0.8988803625106812,0.7512195110321045,0.9029750823974608
1783201539298503200,0.928503173828125,-0.6995867772370576,1.4066776464939117,2.2040467525690794,-0.9503846764564514,0.8416751623153687,0.8534471392631531
1783201539308440000,0.938440185546875,-0.6075988138914108,1.2496113540381193,1.841886926591396,-0.952789545059204,0.9380834698677064,0.8135412335395813
1783201539318377000,0.948376953125,-0.4177148322001099,1.0894330670416357,1.3145149111032486,-0.915687084197998,1.0184675455093384,0.7830613851547241
1783201539328314000,0.958314208984375,-0.2815595546195283,0.9851806654065848,0.7601338926583528,-0.8548122644424438,1.0745893716812134,0.7445334792137146
1783201539338251000,0.9682509765625,-0.1381581783682108,0.91812372969985,0.3172866650283336,-0.8143758773803711,1.112261176109314,0.7089049220085144
1783201539348188200,0.978188232421875,0.1122796042134985,0.7676110966712236,0.0125701432377099,-0.8157415390014648,1.1557530164718628,0.691531777381897
1783201539358125000,0.988125,0.2929768380276858,0.5378530774921179,-0.2595984461694955,-0.8640853762626648,1.2065178155899048,0.6737536191940308
1783201539368062000,0.99806201171875,0.3335344738654792,0.2283715332567691,-0.7092483395516872,-0.9331363439559937,1.283821702003479,0.6486093997955322
1783201539377999000,1.0079990234375,0.5488543639779091,-0.0523790065348148,-1.3579787897765636,-1.0033940076828003,1.325939655303955,0.643440842628479
1783201539387936000,1.01793603515625,0.8597650642335415,-0.2475812606394291,-2.138258813884854,-1.0589931011199951,1.3138271570205688,0.6533171534538269
1783201539397873200,1.027873046875,1.0756527442965655,-0.506751836785674,-2.9304519786268477,-1.0789469480514526,1.2483431100845337,0.6792235970497131
1783201539407810000,1.03781005859375,1.2756070882990955,-0.7307493927419185,-3.672443480873108,-1.0632002353668213,1.1237952709197998,0.7272219657897949
1783201539417747000,1.047746826171875,1.511924904385209,-0.8263853572010994,-4.326251672753691,-1.0058691501617432,0.9179900884628296,0.7864413857460022
1783201539427684000,1.05768408203125,1.695861375848949,-0.8846803097814321,-4.872818218055367,-0.9151511192321776,0.6529214382171631,0.863330066204071
1783201539437621000,1.06762109375,1.8403364822790025,-0.7726672110170125,-5.164558353894948,-0.7897875308990479,0.3918634951114654,0.9358922839164734
1783201539447558100,1.07755810546875,1.8763120510235427,-0.6026522973999381,-5.334766451996565,-0.6296721696853638,0.1221081763505935,1.0029077529907229
1783201539457495000,1.0874951171875,1.7284119385808705,-0.4429553641796112,-5.292244238087535,-0.4277819693088531,-0.0982537269592285,1.062409520149231
1783201539467432000,1.097431884765625,1.4431528353236616,-0.2995972790807485,-4.946546302089095,-0.2038777619600296,-0.2296125590801239,1.103035807609558
1783201539477369000,1.107369140625,1.1577874952130018,-0.1835021716997027,-4.42537898645997,0.0229830387979745,-0.3066917955875397,1.1270527839660645
1783201539487306200,1.11730615234375,0.9633074909683316,-0.0237663677737116,-3.842250012436509,0.2460741847753524,-0.3646285831928253,1.1401596069335938
1783201539497243100,1.1272431640625,0.8165889164604246,0.1829647038221359,-3.1237165426671503,0.4343131482601166,-0.3696457147598266,1.1509166955947876
1783201539507180000,1.137179931640625,0.6724341280259192,0.372064841659367,-2.3316455430001017,0.5842393040657043,-0.3189434111118316,1.1534321308135986
1783201539517117000,1.147116943359375,0.4721367427393794,0.4919333300992846,-1.5655822602927685,0.6913752555847168,-0.2546076774597168,1.156116962432861
1783201539527054000,1.15705419921875,0.2952320696085691,0.583950227278471,-0.8195464510917663,0.7401478290557861,-0.1994688063859939,1.1550575494766235
1783201539536991200,1.1669912109375,0.1395466918508522,0.6792559368699789,-0.1159720655232667,0.7350502014160156,-0.1536559015512466,1.152104377746582
1783201539546928000,1.17692822265625,-0.0078032210968434,0.8435562722325325,0.4891057054579257,0.6852048635482788,-0.1224649623036384,1.1287802457809448
1783201539556865000,1.186864990234375,-0.1694473428621888,0.9833084417939184,1.0202747751414776,0.6062344312667847,-0.0892015025019645,1.095553278923035
1783201539566802000,1.196802001953125,-0.3487120231226086,1.058870170995593,1.4634978503465652,0.5151327252388,-0.0370687954127788,1.0444754362106323
1783201539576739000,1.206739013671875,-0.5121183322548866,1.0945990715026854,1.8157739956915375,0.4163496792316437,0.0268076062202453,0.9908409118652344
1783201539586676200,1.21667626953125,-0.6366117040164768,1.1399825200617313,2.079992502877116,0.3342891633510589,0.0964785665273666,0.937286376953125
1783201539596613000,1.226613037109375,-0.7289642628908157,1.1932763033539056,2.2681892621338364,0.2610267102718353,0.1650440543889999,0.8850054144859314
1783201539606550000,1.236550048828125,-0.810920515435189,1.2299720030665398,2.431705169120431,0.2022574096918106,0.2401316165924072,0.8307570815086365
1783201539616487000,1.24648681640625,-0.8818586764894425,1.2456570634543895,2.5945506294995546,0.1507334560155868,0.321042388677597,0.7853773236274719
1783201539626424000,1.256424072265625,-0.9141944274269044,1.2266507496893406,2.669147897583246,0.1095460802316665,0.3778795599937439,0.7320395112037659
1783201539636361200,1.266361328125,-0.919774419516325,1.1887906823724508,2.660441444036364,0.0819580256938934,0.4075829088687897,0.6735328435897827
1783201539646298000,1.276298095703125,-0.9014820992395282,1.1668138283640146,2.629495101630688,0.0566577278077602,0.4253701865673065,0.6061764359474182
1783201539656235000,1.286235107421875,-0.8198514253877103,1.1394874300211668,2.715228096234798,0.0290925838053226,0.4727632105350494,0.5514349341392517
1783201539666172000,1.296171875,-0.6380417368195951,1.0481576383233069,2.826877037861943,0.0009498968720436,0.5709850788116455,0.5203230977058411
1783201539676109000,1.306109130859375,-0.3364933236710727,0.9543483047693968,2.8372943869799374,-0.0472238287329673,0.6944620013237,0.5227371454238892
1783201539686046200,1.316046142578125,-0.0801180773317813,0.902287862664461,2.789816011968255,-0.1218085885047912,0.8301582932472229,0.543746829032898
1783201539695983000,1.325983154296875,0.005017682031542,0.8275041320979595,2.577367439508438,-0.2254657298326492,0.947407364845276,0.5644667148590088
1783201539705920000,1.335919921875,0.0226404324837028,0.7200164018034935,2.1539327683568,-0.3385094702243805,1.0240297317504885,0.5763955116271973
1783201539715857200,1.345857177734375,-0.046889030816406,0.5993558862030506,1.630021122455597,-0.4504173994064331,1.0777775049209597,0.5800522565841675
1783201539725794000,1.3557939453125,-0.1200330313518643,0.4668915355622768,1.0611591587156055,-0.5479644536972046,1.1248010396957395,0.5717799663543701
1783201539735731200,1.365731201171875,-0.0729136989109218,0.3532441135942936,0.400681572073698,-0.6079038381576538,1.1421133279800415,0.5523837804794312
1783201539745668000,1.375668212890625,0.077060151065886,0.3462807043224573,-0.2788449984312057,-0.6308048963546753,1.1383163928985596,0.5392131209373474
1783201539755605000,1.38560498046875,0.3292264014080167,0.2735451384574174,-0.9063608111917972,-0.6503320336341858,1.110658884048462,0.5478360056877136
1783201539765542100,1.395542236328125,0.6274111833423376,0.114276367521286,-1.5154174226760864,-0.6776952147483826,1.073738932609558,0.5887810587882996
1783201539775479000,1.40547900390625,0.8841216529853642,-0.0855903712630271,-2.1300527110755443,-0.7349618077278137,0.9899196028709412,0.6557183265686035
1783201539785416200,1.415416259765625,1.05363943073526,-0.2880573556736111,-2.7704320970624683,-0.8075236678123474,0.8233755826950073,0.725455105304718
1783201539795353000,1.42535302734375,1.150335864032805,-0.4245692281395196,-3.379045056432485,-0.8845217823982239,0.6131799817085266,0.7902267575263977
1783201539805290000,1.4352900390625,1.1333366523064672,-0.5015069218695164,-3.894930047744512,-0.920447587966919,0.3957014679908752,0.8421927690505981
1783201539815227100,1.44522705078125,1.064510661100596,-0.5280713959291577,-4.322139561259746,-0.8899328708648682,0.2022584229707718,0.8868207931518555
1783201539825164000,1.4551640625,0.9867292100228368,-0.4663815402135253,-4.641431136369705,-0.7796945571899414,0.0375541448593139,0.932134747505188
1783201539835101200,1.46510107421875,0.8635058581970632,-0.355775970159471,-4.845177931457758,-0.6026415228843689,-0.1124274283647537,0.9722808003425598
1783201539845038000,1.4750380859375,0.6401815253272652,-0.2329617836564779,-4.855983987632394,-0.3909739851951599,-0.2528194189071655,0.9906747341156006
1783201539854975000,1.48497509765625,0.4019650360129773,-0.1018865492865443,-4.607575628519058,-0.1746784299612045,-0.3512088060379028,0.9834766387939452
1783201539864912100,1.494912109375,0.2169574281863868,0.0294289235800504,-4.141182690128684,0.0366266258060932,-0.4109916985034942,0.9590187072753906
1783201539874849000,1.50484912109375,0.1011852691493928,0.196454007731378,-3.5399972504109143,0.2505207061767578,-0.412200003862381,0.923355996608734
1783201539884786200,1.5147861328125,0.0053508595086634,0.368209919796884,-2.913237224453688,0.4766742289066314,-0.3713396787643432,0.8795991539955139
1783201539894723000,1.52472314453125,-0.0660853141956031,0.5370861847728491,-2.290221061199903,0.7072176337242126,-0.299416571855545,0.8460693955421448
1783201539904660000,1.534659912109375,-0.1590856694541871,0.6883747706100344,-1.6203315030902623,0.9364023208618164,-0.1945527493953704,0.8171839714050293
1783201539914597000,1.54459716796875,-0.2432538989596068,0.7967904294043779,-0.8836176489859819,1.1147427558898926,-0.0878148078918457,0.8079339265823364
1783201539924534000,1.554533935546875,-0.3117269850745797,0.9141846366852522,-0.132305360686779,1.2111119031906128,0.0037246937863528,0.8080852031707764
1783201539934471200,1.56447119140625,-0.4071206652104854,1.0800205110520125,0.586818476191163,1.2072980403900146,0.0643182918429374,0.7992463707923889
1783201539944408000,1.574407958984375,-0.5435571343526244,1.2381547250002622,1.234399171859026,1.1193381547927856,0.0961643755435943,0.7783501148223877
1783201539954345000,1.584344970703125,-0.6904740809768438,1.3691747220516204,1.7189485291868447,0.969271957874298,0.1021289378404617,0.752701461315155
1783201539964282000,1.5942822265625,-0.8724345761924982,1.4755547833651304,2.07108906545341,0.7916247248649597,0.0886117964982986,0.7307556867599487
1783201539974219000,1.604218994140625,-1.0428004952043295,1.6022399660825728,2.317824522918462,0.614585280418396,0.0758954435586929,0.7081459164619446
1783201539984156200,1.61415625,-1.1735162486121058,1.7795511741876602,2.5210534316122533,0.4442766308784485,0.0545467436313629,0.6987904906272888
1783201539994093000,1.624093017578125,-1.3336051037594676,1.977424693328142,2.6380460723549124,0.2811204493045807,0.0307706017047166,0.6901054978370667
1783201540004030000,1.634030029296875,-1.5232916631825268,2.153127297192812,2.796825013947487,0.1141444891691207,0.0202364698052406,0.6731869578361511
1783201540013967000,1.643967041015625,-1.7475689128629863,2.2818670743525025,2.939253709241748,-0.0660731643438339,0.008682464249432,0.6372672319412231
1783201540023904000,1.653904052734375,-1.984439832787216,2.385266658550501,3.043695495969057,-0.2688419818878174,0.0083586238324642,0.6025944352149963
1783201540033841200,1.663841064453125,-2.186181279402226,2.46081961992383,3.131203099030256,-0.4752646386623382,0.0182091258466243,0.5535430908203125
1783201540043778000,1.673778076171875,-2.2976393746323884,2.5753490854233503,3.066688249021768,-0.6562682390213013,0.0174306835979223,0.4918669760227203
1783201540053715000,1.68371484375,-2.3745142322592434,2.756930225932598,2.8594331535518167,-0.7948697209358215,0.0095366593450307,0.4149297475814819
1783201540063652000,1.693652099609375,-2.454605567714572,2.930487634462118,2.557412446716428,-0.8794645071029663,0.0212969128042459,0.3171081244945526
1783201540073589000,1.703589111328125,-2.619125683307648,3.0028824240654703,2.156010159152746,-0.9307653903961182,0.0322169661521911,0.1903510391712188
1783201540083526100,1.713526123046875,-2.900888615012169,2.946235823214054,1.8054957627832888,-0.964184045791626,0.0523834861814975,0.0464676283299922
1783201540093463000,1.723463134765625,-3.142500153592229,2.796971144419909,1.4471744920551777,-0.9684627652168274,0.0817635431885719,-0.1165759488940239
1783201540103400000,1.73339990234375,-3.3067236243262883,2.6792764928877357,1.077887590676546,-0.9372292160987854,0.1102135553956031,-0.2873364984989166
1783201540113337000,1.743337158203125,-3.4017776972442864,2.7056635645538565,0.7259919690817594,-0.8579835295677185,0.1495468020439148,-0.491976797580719
1783201540123274000,1.75327392578125,-3.3876872125715014,2.8254145640939474,0.3819920691728591,-0.7143025398254395,0.1945616751909256,-0.7107349634170532
1783201540133211100,1.763211181640625,-3.262347599244117,2.897638088783621,0.011680500921607,-0.5209718942642212,0.2390104979276657,-0.9227030873298644
1783201540143148000,1.77314794921875,-2.985273994399607,2.8499358418881893,-0.258681915846467,-0.3373042941093445,0.338377296924591,-1.1046956777572632
1783201540153085000,1.7830849609375,-2.4793209067761897,2.756510831476748,-0.4254728989809751,-0.2232858091592788,0.4469034671783447,-1.2595144510269165
1783201540163022000,1.79302197265625,-1.8594031479291615,2.5912644474357367,-0.6035854865968227,-0.216919258236885,0.5332188606262207,-1.355327844619751
1783201540172959000,1.802958984375,-1.3180929157204926,2.2333827371686694,-0.8007423819005489,-0.3235573172569275,0.5976942777633667,-1.4003640413284302
1783201540182896000,1.812896240234375,-0.8434973816521465,1.7569746007204057,-1.0769611234813927,-0.5322514176368713,0.6103666424751282,-1.391363263130188
1783201540192833000,1.8228330078125,-0.3388635599337518,1.4025547213450074,-1.595206414183974,-0.797631561756134,0.5415265560150146,-1.3417402505874634
1783201540202770000,1.83277001953125,0.1513544906802475,1.2067717447429895,-2.3934604864001274,-1.0726951360702517,0.3758936822414398,-1.2784100770950315
1783201540212707000,1.84270703125,0.5180477223038673,1.1662006649017334,-3.597121990168094,-1.2998887300491333,0.0069465562701225,-1.2418416738510132
1783201540222644000,1.85264404296875,0.7845341744214296,1.1866542548656462,-5.035577753716707,-1.4331482648849487,-0.5065236687660217,-1.2641228437423706
1783201540232581000,1.8625810546875,0.8616054314032197,1.0806111704215406,-6.038655894863605,-1.4885681867599487,-0.9745070338249208,-1.279301643371582
1783201540242518000,1.87251806640625,0.7590348453752697,0.7089271447733044,-6.378683384010196,-1.4390661716461182,-1.3016338348388672,-1.2889668941497805
1783201540252455000,1.882454833984375,0.5335897209592163,0.2018064746752381,-6.423955773410201,-1.2783761024475098,-1.503684401512146,-1.2905724048614502
1783201540262392000,1.89239208984375,0.4103576013050973,-0.0775850517228245,-6.20991145619154,-1.0332162380218506,-1.5885002613067627,-1.302837371826172
1783201540272329200,1.9023291015625,0.4459124604195356,0.0132066875755786,-5.765682418814301,-0.7274949550628662,-1.5788068771362305,-1.3232156038284302
1783201540282266000,1.91226611328125,0.4899748895078897,0.1718704783558845,-5.109523279893398,-0.3836688697338104,-1.4826496839523315,-1.343926191329956
1783201540292203000,1.922203125,0.4562926923975348,0.1571262059494853,-4.379177791777253,-0.0163529589772224,-1.29671049118042,-1.3630168437957764
1783201540302140400,1.932140380859375,0.4739319555930793,0.1654635339230299,-3.650571256282925,0.3511214554309845,-1.0957260131835938,-1.3527204990386963
1783201540312077300,1.942077392578125,0.5704844503752887,0.2083399680972099,-2.94083484095335,0.6952632665634155,-0.9244736433029176,-1.3028647899627686
1783201540322014200,1.95201416015625,0.6230559107422828,0.3061468468546867,-2.1197908447802067,0.9652297496795654,-0.7673839330673218,-1.238561987876892
1783201540331951400,1.961951416015625,0.6049516603834927,0.4373670426532626,-1.2632330521553754,1.1426138877868652,-0.6490389108657837,-1.1990444660186768
1783201540341888500,1.971888427734375,0.5213013172723353,0.547877335639298,-0.4376286161988973,1.1907728910446167,-0.5813720226287842,-1.1962330341339111
1783201540351825400,1.981825439453125,0.4565928443878889,0.6307260069787501,0.4107897091120481,1.113032341003418,-0.5529797673225403,-1.223040223121643
1783201540361763600,1.991763671875,0.5134228389821947,0.6289625044375657,1.191300619366765,0.9584794640541076,-0.5412264466285706,-1.241426706314087
1783201540371700200,2.0017001953125,0.6839540315583348,0.5765469652846456,1.780977992120385,0.7729054689407349,-0.5541318655014038,-1.2395362854003906
1783201540381636400,2.01163623046875,0.8816016329884528,0.5197019192516803,2.174824749737978,0.6218869686126709,-0.5619061589241028,-1.215242624282837
1783201540391574300,2.02157421875,1.0476116948783396,0.5565311822161079,2.4170149649888275,0.5130170583724976,-0.546977162361145,-1.1781163215637207
1783201540401511400,2.031511474609375,1.1143163100160658,0.6158282975763082,2.5771067427456376,0.4512746036052704,-0.5030906200408936,-1.141629934310913
1783201540411448600,2.041448486328125,1.0995043792009354,0.6363210505068302,2.707147665631771,0.4203758537769317,-0.4216292202472687,-1.1090567111968994
1783201540421385200,2.05138525390625,1.081792781421542,0.6447896036446095,2.8682781387865544,0.3940787315368652,-0.2842996120452881,-1.0909597873687744
1783201540431322400,2.061322265625,1.0067055378638208,0.6136088679611682,3.036619858494401,0.3358236253261566,-0.1218055859208107,-1.084804892539978
1783201540441259300,2.07125927734375,0.8654474937841296,0.5050812732249498,3.0879923183351754,0.2481254637241363,0.0391217730939388,-1.0880483388900757
1783201540451196400,2.081196533203125,0.7423442612066865,0.395420290544629,2.9566543413758275,0.145205944776535,0.1439591497182846,-1.0985196828842163
1783201540461133600,2.091133544921875,0.6749260909721255,0.3441828552603721,2.6705940047383305,0.0353183224797248,0.2084401398897171,-1.10801100730896
1783201540471070200,2.1010703125,0.6476574141658842,0.2868883118942379,2.403321955201029,-0.0805097073316574,0.2706933915615082,-1.117456078529358
1783201540481007400,2.11100732421875,0.6658366294570267,0.1721872892200946,2.1505963174104687,-0.1922729760408401,0.3078820407390594,-1.1327662467956543
1783201540490944500,2.120944580078125,0.7084361463859676,0.0169441205382347,1.8833382963985204,-0.2950011491775512,0.3400187492370605,-1.130926489830017
1783201540500881400,2.13088134765625,0.7626618037007749,-0.1665139197587966,1.5606056409239768,-0.3847693800926208,0.3641949295997619,-1.1119003295898438
1783201540510818600,2.140818603515625,0.8964655862517654,-0.2617757902085781,1.1722294236719608,-0.4519609808921814,0.3756786584854126,-1.0693455934524536
1783201540520755200,2.150755126953125,0.9982748325183988,-0.2714507965266704,0.7725099746286869,-0.4864704608917236,0.3703078627586365,-1.0154128074645996
1783201540530692400,2.1606923828125,1.073232458347082,-0.2159817150220274,0.3510959956496954,-0.4992836117744446,0.3688472807407379,-0.9736506342887878
1783201540540629500,2.17062939453125,1.1698131563104688,-0.1993967831850051,-0.0790285285294055,-0.5111863613128662,0.3626269400119781,-0.9421440958976746
1783201540550566400,2.18056640625,1.1798719012491403,-0.3271241684317588,-0.5681693053007125,-0.5305630564689636,0.333890438079834,-0.9044095873832704
1783201540560503600,2.190503662109375,1.1383378215946256,-0.5542056618779897,-1.144130871912837,-0.5420969128608704,0.2993252575397491,-0.8678377270698547
1783201540570440200,2.200440185546875,1.0726901681639254,-0.8137190601125359,-1.8023931205928323,-0.5280917286872864,0.2175180464982986,-0.8248385190963745
1783201540580377300,2.21037744140625,0.9830788708217442,-1.0193158669814466,-2.442911038267612,-0.4792022407054901,0.0861469879746437,-0.7866876721382141
1783201540590314500,2.220314453125,0.9313331937544048,-1.0803522272244095,-2.939761658763885,-0.3960051834583282,-0.0629497617483139,-0.7443377375602722
1783201540600251400,2.23025146484375,0.9183818691793828,-1.01165424631238,-3.1960487884283064,-0.2801526188850403,-0.2119134068489074,-0.7034851312637329
1783201540610188500,2.2401884765625,0.8999499212361871,-0.8339040622681378,-3.1995921601235864,-0.1618579924106598,-0.3236092627048492,-0.6571103930473328
1783201540620125200,2.250125244140625,0.8355996872048824,-0.6060641516700387,-2.9506290897369385,-0.0588932558894157,-0.3647324740886688,-0.6137692928314209
1783201540630062300,2.260062255859375,0.7105747658498585,-0.3919061449438333,-2.602206697210669,0.0103677036240696,-0.3592018485069275,-0.5985825657844543
1783201540639999500,2.26999951171875,0.5297134640477598,-0.2721744346261024,-2.344717206019163,0.0624077320098876,-0.3412292599678039,-0.5999096035957336
1783201540649936400,2.279936279296875,0.4106158138498663,-0.2669488089323044,-2.2212866411834957,0.1118117496371269,-0.3279902338981628,-0.6044278144836426
1783201540659873500,2.28987353515625,0.413450306623429,-0.2676443899810314,-2.150416869190335,0.1601095050573349,-0.3469085395336151,-0.5890182256698608
1783201540669810200,2.29981005859375,0.5094252937786281,-0.2139277051016688,-2.069792595902085,0.2012347877025604,-0.3850850462913513,-0.5608967542648315
1783201540679747300,2.309747314453125,0.5596946146830916,-0.1212163959175348,-1.9403800340473647,0.2424975484609604,-0.4396029114723205,-0.5195221900939941
1783201540689684500,2.3196845703125,0.5476454265795648,-0.0103521749272942,-1.7414654814213513,0.2753980755805969,-0.4949422478675842,-0.4786548912525177
1783201540699621400,2.329621337890625,0.4430993026949465,0.123903443044424,-1.435260182377696,0.3100812435150146,-0.5505940318107605,-0.4441778659820556
1783201540709558500,2.33955859375,0.2718792510718107,0.3132809365183114,-1.0550947441101073,0.3551814258098602,-0.5856219530105591,-0.4303038418292999
1783201540719495400,2.349495361328125,0.1099732269672676,0.5902469893351197,-0.6418582263678312,0.3935980796813965,-0.5962620973587036,-0.4269450604915619
1783201540729432300,2.359432373046875,-0.0336826355017721,0.8833835479691624,-0.2139279973626136,0.4165384471416473,-0.5798743367195129,-0.4341287612915039
1783201540739369500,2.369369384765625,-0.2445392625950276,1.107966502597928,0.1904939302831888,0.4162611961364746,-0.5531004667282104,-0.462618738412857
1783201540749306400,2.379306396484375,-0.512837622972764,1.2610083618432282,0.5530670132368802,0.407515674829483,-0.5181220173835754,-0.5114644169807434
1783201540759243500,2.389243408203125,-0.7660077531278133,1.3441785202220082,0.9070470398902892,0.3989134132862091,-0.4558368027210235,-0.5720921158790588
1783201540769180400,2.399180419921875,-0.9546642388507725,1.385607385936379,1.2626157970398664,0.3946986496448517,-0.3951740860939026,-0.6356450319290161
1783201540779117300,2.409117431640625,-1.0726694176368414,1.424946585895121,1.5647849724352358,0.3874346017837524,-0.3553467988967895,-0.6978788375854492
1783201540789054500,2.419054443359375,-1.125696366686374,1.480005333033204,1.849636517804861,0.3761240541934967,-0.3189897835254669,-0.7607465386390686
1783201540798991400,2.428991455078125,-1.1979290975958108,1.542333486652374,2.10068691585958,0.3594380021095276,-0.3042766153812408,-0.835727870464325
1783201540808928500,2.438928466796875,-1.2647555855475363,1.556433323675394,2.2601251981437205,0.3320150971412658,-0.318315327167511,-0.9170160293579102
1783201540818866400,2.448866455078125,-1.2891313173912464,1.5787953776091337,2.3752257415294644,0.2996236085891723,-0.335946261882782,-1.019325852394104
1783201540828803300,2.45880322265625,-1.1953459492348133,1.5311673649936914,2.4597253949463367,0.2605660855770111,-0.3435038924217224,-1.1223407983779907
1783201540838740200,2.468740234375,-1.0990903915725647,1.4326070375204083,2.5777356882989406,0.2260262370109558,-0.3014914691448211,-1.2182486057281494
1783201540848677400,2.478677490234375,-1.0092996460102497,1.3412968273058532,2.798465182369948,0.1947627514600753,-0.1958719789981842,-1.3023022413253784
1783201540858614500,2.488614501953125,-0.8068259395979345,1.3340867497965692,2.9576655642449854,0.1443400532007217,-0.049609038978815,-1.3555450439453125
1783201540868551400,2.498551513671875,-0.5038730664789677,1.379531573154032,2.994191168087721,0.0723626017570495,0.1037394702434539,-1.3764657974243164
1783201540878488300,2.50848828125,-0.2459399231731891,1.3239148998722434,2.848883702486753,-0.024562083184719,0.2543497681617737,-1.3874998092651367
1783201540888425500,2.518425537109375,-0.0535128328703343,1.221459610787034,2.567939101427793,-0.1424320638179779,0.4069582223892212,-1.390856385231018
1783201540898362400,2.5283623046875,0.1262034636151045,1.1047294203728435,2.0549936706990004,-0.2554001808166504,0.4946603775024414,-1.3987960815429688
1783201540908299500,2.538299560546875,0.2174566098801791,0.9792688110142944,1.283146543893218,-0.3636977076530456,0.4893419742584228,-1.4362916946411133
1783201540918236400,2.548236328125,0.2424384909234941,0.8262526707321405,0.4701075749993324,-0.470626562833786,0.4071075618267059,-1.493910789489746
1783201540928173300,2.55817333984375,0.2483851243682205,0.5312430117025971,-0.2864011128991842,-0.5664825439453125,0.28792604804039,-1.5574086904525757
1783201540938110500,2.5681103515625,0.3197276284396648,0.1674339572131633,-0.986157401484251,-0.6292782425880432,0.1404241919517517,-1.5935534238815308
1783201540948047400,2.57804736328125,0.5143647960074246,-0.1334878484696149,-1.573594886356592,-0.6684525609016418,0.0106864348053932,-1.5869652032852173
1783201540957984500,2.587984619140625,0.8451262980282306,-0.3788347741857171,-1.996112442663312,-0.6774636507034302,-0.1136570945382118,-1.5682642459869385
1783201540967921400,2.59792138671875,1.2171595755055546,-0.5526175159037113,-2.3162720327794557,-0.6833627223968506,-0.215147003531456,-1.5253750085830688
1783201540977858300,2.6078583984375,1.6061194378644228,-0.6627624827086925,-2.526394792640209,-0.686318039894104,-0.2973504960536957,-1.462073802947998
1783201540987795500,2.61779541015625,1.9298554251626128,-0.8350017943769693,-2.716871771788597,-0.6719328165054321,-0.3852017521858215,-1.3763805627822876
1783201540997732400,2.627732421875,2.127333807505667,-1.005467082110047,-2.8943635971575974,-0.6180448532104492,-0.4618400633335113,-1.2689858675003052
1783201541007669500,2.63766943359375,2.2311881497338413,-1.1213093837738035,-3.0310043567001816,-0.5149908661842346,-0.532293975353241,-1.1421401500701904
1783201541017606400,2.6476064453125,2.2125436550185085,-1.180961011660099,-3.0581039605498312,-0.3783957362174988,-0.5833507776260376,-0.9968188405036926
1783201541027543300,2.657543212890625,2.05936311795488,-1.1907193123474715,-2.983304447892308,-0.2169642448425293,-0.629930317401886,-0.8636171221733093
1783201541037480400,2.66748046875,1.8600240563064807,-1.0653837906733157,-2.8347745131134987,-0.0601783692836761,-0.6871027946472168,-0.7478777766227722
1783201541047417300,2.677417236328125,1.611725002786517,-0.7578069110155106,-2.537357500681281,0.0755249857902526,-0.7222212553024292,-0.6605210900306702
1783201541057354500,2.6873544921875,1.3837123659700157,-0.337403862644732,-2.093940364208817,0.1476007848978042,-0.7387557625770569,-0.5976479053497314
1783201541067291400,2.69729150390625,1.1676903189375996,-0.0208826290309429,-1.6717758591234684,0.1608565300703048,-0.7573939561843872,-0.5598962306976318
1783201541077228300,2.707228271484375,0.8440273968756198,0.1131800967171788,-1.3481126448005436,0.1515114903450012,-0.789310097694397,-0.5525490641593933
1783201541087165400,2.71716552734375,0.5186060868389905,0.1815720804199576,-1.065688618838787,0.1470919698476791,-0.8113811612129211,-0.5705752968788147
1783201541097102300,2.727102294921875,0.2488099987167865,0.2502753220289945,-0.79324296605587,0.174421340227127,-0.8037210702896118,-0.5911679267883301
1783201541107039500,2.73703955078125,0.069929787729308,0.3499617309227585,-0.5065022459387779,0.2235572636127472,-0.7713313698768616,-0.6114761233329773
1783201541116976400,2.746976318359375,-0.0395865257833153,0.5125003173097967,-0.1788309650182724,0.2678687870502472,-0.7244690656661987,-0.6300879120826721
1783201541126913300,2.756913330078125,-0.1323196814730763,0.6502578059226274,0.1740536676138639,0.2914856076240539,-0.6555864214897156,-0.6457729935646057
1783201541136850400,2.766850341796875,-0.2579318281315267,0.6966100995138287,0.5352449408203364,0.2861558496952057,-0.5790780782699585,-0.6750941276550293
1783201541146787300,2.776787353515625,-0.385532956650108,0.6686521252691745,0.8120055341929197,0.2524187564849853,-0.5325788259506226,-0.7124117016792297
1783201541156724500,2.786724365234375,-0.4916591893330216,0.6205120714783668,1.0242097765028475,0.2095559686422348,-0.5163806676864624,-0.7631316184997559
1783201541166661400,2.796661376953125,-0.5537349756263196,0.6017004035025835,1.1594716489076613,0.1742677986621856,-0.5146881937980652,-0.8301954865455627
1783201541176599600,2.806599609375,-0.5677729994595051,0.6140472593784332,1.316056295326352,0.1650961339473724,-0.5029087662696838,-0.8970168232917786
1783201541186536200,2.8165361328125,-0.5299132244035601,0.5643383488357067,1.496956467834115,0.1805046498775482,-0.4749423265457153,-0.9498499631881714
1783201541196473300,2.826473388671875,-0.4632059789173304,0.4783408580765128,1.763536443454027,0.2003465443849563,-0.4281654953956604,-0.989032745361328
1783201541206410500,2.836410400390625,-0.387645272628963,0.4106073382824659,2.1121710174262525,0.2115658074617386,-0.3485258519649505,-1.0176188945770264
1783201541216347400,2.846347412109375,-0.311993965447694,0.3709843529462814,2.4994763905763624,0.1989163160324096,-0.2382228076457977,-1.0474998950958252
1783201541226284500,2.856284423828125,-0.1834616204936057,0.3984393461048602,2.780162632960081,0.1611639112234115,-0.1205113530158996,-1.0697365999221802
1783201541236221400,2.866221435546875,-0.0339930166251957,0.4686147060930729,2.846496515089273,0.0965470969676971,-0.0161039941012859,-1.084376335144043
1783201541246158300,2.876158447265625,0.0227284760933369,0.4624769339904189,2.7522458675086496,0.0292648002505302,0.0841895043849945,-1.104870319366455
1783201541256095500,2.886095458984375,0.1117195226453244,0.3848860370486974,2.562848500290513,-0.049278475344181,0.1978604048490524,-1.1323992013931274
1783201541266032400,2.896032470703125,0.1760777207873761,0.25655016451478,2.204860407039523,-0.1255218684673309,0.3038949966430664,-1.1673327684402466
1783201541275969500,2.905969482421875,0.2723070480298251,0.1096019459694623,1.7698077788084745,-0.1783763021230697,0.4054208397865295,-1.202388048171997
1783201541285906400,2.915906494140625,0.5587409672200679,0.0763531718403101,1.2192542096972463,-0.1937360018491745,0.4250464141368866,-1.217885136604309
1783201541295842300,2.92584228515625,0.7856947426334023,0.0329062443017959,0.5656891789227724,-0.1730059534311294,0.3485710620880127,-1.2416484355926514
1783201541305779500,2.935779541015625,0.9808176478914916,-0.1950789199858904,0.0380389310151338,-0.1546050012111663,0.252982884645462,-1.2493860721588137
1783201541315716600,2.945716552734375,1.281027652043104,-0.4217439415857195,-0.2994464724332094,-0.1607600897550583,0.1556555181741714,-1.23415207862854
1783201541325653200,2.9556533203125,1.6566741515815258,-0.6393985582560301,-0.5542348879724741,-0.1908783614635467,0.0630972385406494,-1.1893664598464966
1783201541335590400,2.96559033203125,1.9452818346142768,-0.867518747100234,-0.7558125223278999,-0.259034514427185,-0.015312616713345,-1.121813178062439
1783201541345527300,2.97552734375,2.131050782202184,-1.1234744528532028,-0.9112813164591788,-0.3677199482917785,-0.0590921752154827,-1.0482842922210691
1783201541355464400,2.98546435546875,2.252987016826868,-1.4491361475169655,-1.127597670263052,-0.4956291615962982,-0.0901385098695755,-0.9603076577186584
1783201541365401600,2.995401611328125,2.4038909872606395,-1.7484350281730294,-1.4824451274007555,-0.6091874241828918,-0.1346849650144577,-0.853486955165863
1783201541375338200,3.005338134765625,2.6112013200491666,-1.8801558669701215,-1.9277157827854157,-0.6844083666801453,-0.2096673250198364,-0.7355145215988159
1783201541385275400,3.015275390625,2.791367625324428,-1.915149146679044,-2.4184236627429723,-0.7062225937843323,-0.3007181584835052,-0.6054984331130981
1783201541395212300,3.02521240234375,2.9157158895269037,-1.9799004357919097,-2.94372588621974,-0.653411328792572,-0.4064195454120636,-0.4567201733589172
1783201541405149400,3.0351494140625,2.934222729337215,-2.09598560630083,-3.4890748724251983,-0.5254401564598083,-0.5589236617088318,-0.288858950138092
1783201541415086600,3.045086669921875,2.7961151121124623,-2.159598539033532,-3.825335117992759,-0.3262948393821716,-0.7076063752174377,-0.1325713396072387
1783201541425023200,3.055023193359375,2.5586606932118534,-2.042860749834776,-3.794758193421364,-0.0692748576402664,-0.8345369100570679,-0.0249725747853517
1783201541434960400,3.06496044921875,2.261316453754901,-1.833399668753147,-3.4936066706359385,0.2035790532827377,-0.8699604272842407,0.060617696493864
1783201541444897500,3.0748974609375,2.0268600476264957,-1.5307488473206758,-2.912283284729719,0.4641129970550537,-0.8360020518302917,0.1050685867667198
1783201541454834400,3.08483447265625,1.8216177532836797,-1.280770462411642,-2.277660854834318,0.7029639482498169,-0.7583373188972473,0.129096433520317
1783201541464771600,3.094771484375,1.6403884949520229,-1.218024083380401,-1.5996739149868486,0.892956554889679,-0.6496633291244507,0.1495172381401062
1783201541474708200,3.104708251953125,1.5517355212479829,-1.2169739898055791,-0.9112357237517832,1.0117313861846924,-0.5254353880882263,0.1827444285154342
1783201541484646400,3.114646484375,1.5556278525114058,-1.2275006445169447,-0.227799286326766,1.0675932168960571,-0.4154299795627594,0.234688714146614
1783201541494583300,3.124583251953125,1.5685937170684336,-1.221916706904769,0.3266360926538705,1.0720605850219729,-0.3535458445549011,0.2932707965373993
1783201541504520400,3.1345205078125,1.5942150650590656,-1.1948106733143329,0.7343769355893135,1.0336121320724487,-0.3483730852603912,0.35643270611763
1783201541514457300,3.144457275390625,1.619968222735822,-1.1583765471473335,1.077495961010456,0.9804655909538268,-0.3860898315906524,0.4168883264064789
1783201541524394500,3.15439453125,1.6188225598320365,-1.1035869723394514,1.404866213157773,0.926992893218994,-0.4383968114852905,0.473853200674057
1783201541534331400,3.164331298828125,1.5717165252640843,-1.0426143249824642,1.7933078968614338,0.8821231722831726,-0.4724623560905456,0.5193660855293274
1783201541544268300,3.174268310546875,1.5043252430364489,-1.0190265286460518,2.201401206496358,0.8570689558982849,-0.4632531702518463,0.56378573179245
1783201541554205400,3.184205322265625,1.4679216581381858,-0.9388806865245104,2.6365134559601544,0.8479045033454895,-0.4021013975143432,0.6004955768585205
1783201541564142600,3.194142578125,1.459241800337285,-0.8400821663811803,3.1397271817475554,0.8413732051849365,-0.281148761510849,0.645416796207428
1783201541574079500,3.20407958984375,1.4397064942620694,-0.7810650370061397,3.6437247513890254,0.819076418876648,-0.0841177403926849,0.6861911416053772
1783201541584016400,3.214016357421875,1.433434135994315,-0.7210670799002051,4.087918717452883,0.7601462602615356,0.1555104404687881,0.7354332804679871
1783201541593953300,3.223953369140625,1.4833993593856691,-0.6803320416688918,4.373354200190305,0.6431048512458801,0.3959118723869324,0.7970276474952698
1783201541603890400,3.233890380859375,1.5430084633044898,-0.7009077967077493,4.42552862406373,0.4677787125110626,0.59337317943573,0.8768258690834045
1783201541613827600,3.24382763671875,1.6001077763594689,-0.7716209168344735,4.280488284966349,0.2452036887407302,0.7392504811286926,0.9736773371696472
1783201541623764200,3.25376416015625,1.5252897051319478,-0.7688187188953161,3.9256408278286457,0.019552769139409,0.846973180770874,1.070035696029663
1783201541633701400,3.263701416015625,1.4507446056269109,-0.6893892083495855,3.318938670516014,-0.1810559630393982,0.8919731974601746,1.1409481763839722
1783201541643638300,3.27363818359375,1.3810840632930397,-0.5745528688579797,2.5951626239180565,-0.3299513161182403,0.8951576948165894,1.196807026863098
1783201541653575400,3.283575439453125,1.236123365303129,-0.5185334599941969,1.802219517591596,-0.4151343703269958,0.845780074596405,1.2296395301818848
1783201541663512600,3.2935126953125,1.122182513346523,-0.5190770653516054,1.1241969219088557,-0.446081280708313,0.7621521949768066,1.2332401275634766
1783201541673449200,3.30344921875,0.9917052448697388,-0.5049556010186672,0.6372393343955278,-0.4235328137874603,0.6815313696861267,1.2231038808822632
1783201541683386400,3.313386474609375,0.923761735586822,-0.4642249467015266,0.2394341945409774,-0.3621037006378174,0.6333936452865601,1.2116843461990356
1783201541693323300,3.3233232421875,0.9969400767832994,-0.3702341191008687,0.0841968710780143,-0.3045075237751007,0.6470077633857727,1.2096132040023804
1783201541703260400,3.333260498046875,1.0675159803964196,-0.2726893984109163,0.0501584078758955,-0.2715083658695221,0.6921939253807068,1.20879328250885
1783201541713197600,3.343197509765625,1.0217201516442,-0.2983557545870542,-0.0470312157660722,-0.2590461075305938,0.7422762513160706,1.1959834098815918
1783201541723134200,3.35313427734375,0.9926879722967744,-0.3601397183269262,-0.2343278113126754,-0.2547461688518524,0.8024474382400513,1.1932339668273926
1783201541733072400,3.363072265625,1.0526147638626395,-0.358627560198307,-0.5339484712690115,-0.2317615002393722,0.8428124785423279,1.2150399684906006
1783201541743009300,3.37300927734375,1.1777945104531944,-0.2857528781235218,-0.9369535178542135,-0.1981398463249206,0.8472082018852234,1.2474915981292725
1783201541752946400,3.382946533203125,1.2056458094529807,-0.2353635841012001,-1.286669457322359,-0.1589599549770355,0.8140164613723755,1.2673619985580444
1783201541762883300,3.39288330078125,1.0672583523735404,-0.2510518593594432,-1.5355951183080672,-0.1254967004060745,0.7400717735290527,1.2566156387329102
1783201541772820500,3.402820556640625,0.9184653827443718,-0.2704191153913736,-1.7560908036231997,-0.0972096696496009,0.6394546031951904,1.2327125072479248
1783201541782757400,3.41275732421875,0.866512638797611,-0.2922121372655034,-1.8499322858810423,-0.0522180423140525,0.5113229155540466,1.19778573513031
1783201541792694300,3.4226943359375,0.905914674859494,-0.3556020748972892,-1.8604004884034395,-0.0024976227432489,0.4012432396411896,1.166865348815918
1783201541802631400,3.43263134765625,1.072938882227987,-0.4095584137514233,-1.6537527111768722,0.0434933379292488,0.349619597196579,1.155184626579285
1783201541812568300,3.442568359375,1.4827629611782729,-0.375541285598278,-1.3062737369805573,0.0502441860735416,0.3610245883464813,1.194978952407837
1783201541822505500,3.45250537109375,1.9659771243795752,-0.3031330519914627,-1.0035200396955013,0.0300496350973844,0.3757777214050293,1.2807554006576538
1783201541832442400,3.4624423828125,2.2547537342384456,-0.3349655295819044,-0.8214367948830127,-0.0218833368271589,0.3944597840309143,1.3812005519866943
1783201541842379300,3.472379150390625,2.275779717262834,-0.3910837226450443,-0.7572235581696033,-0.0826721563935279,0.4232755005359649,1.4797580242156982
1783201541852316400,3.48231640625,2.069829566911608,-0.3692196813613176,-0.8596195182830095,-0.1063335463404655,0.4401540756225586,1.550068736076355
1783201541862253300,3.49225341796875,1.7882514902547,-0.2745364875823259,-1.094831126692891,-0.0616211369633674,0.4433648586273193,1.5868688821792605
1783201541872190500,3.5021904296875,1.5812411633260548,-0.1390706170380115,-1.2919991279125214,0.043843500316143,0.439088374376297,1.605034589767456
1783201541882127400,3.51212744140625,1.443469792318344,-0.0090372929364442,-1.3345114049494269,0.1765779107809066,0.4640208482742309,1.6113684177398682
1783201541892064300,3.522064208984375,1.4356632102206348,0.1493807063892483,-1.2102052263230083,0.3038871586322784,0.5066500902175903,1.6233127117156982
1783201541902001400,3.53200146484375,1.4351736731380222,0.2550178403809666,-1.003700072437525,0.4033142328262329,0.5462546944618225,1.6349549293518066
1783201541911938300,3.541938232421875,1.3406976923689244,0.2604775670915842,-0.7594979328423738,0.4732211530208587,0.5977165699005127,1.6385289430618286
1783201541921875500,3.55187548828125,1.314916039250046,0.238325356516242,-0.6152694946497679,0.5208372473716736,0.630547285079956,1.6522315740585327
1783201541931812400,3.561812255859375,1.3689058419823643,0.2365805586755275,-0.4624181895405054,0.5414578318595886,0.6595749258995056,1.695760726928711
1783201541941749200,3.571749267578125,1.38830597737059,0.2966547958880662,-0.2689578106671572,0.5281862020492554,0.689683735370636,1.7365423440933228
1783201541951686400,3.581686279296875,1.4431202482283114,0.4152425968676805,-0.058881812557578,0.4747714400291443,0.7070826888084412,1.7780660390853882
1783201541961623600,3.59162353515625,1.433647924875468,0.5759551368713378,0.0245990192055702,0.4099924564361572,0.7093715667724609,1.810307621955872
1783201541971561500,3.6015615234375,1.31467974627614,0.743165806722641,0.0501058009058237,0.3516708314418793,0.7173509001731873,1.826398253440857
1783201541981498400,3.611498291015625,1.1591332107335328,0.9146867409884928,0.0672936670720577,0.3098173141479492,0.7399988770484924,1.82026469707489
1783201541991435300,3.621435302734375,0.98039153143391,1.028631100076437,0.021042788028717,0.29571133852005,0.7582215666770935,1.808160901069641
1783201542001372400,3.631372314453125,0.8340262273430824,1.0493617534160613,-0.1196890402197837,0.3176386952400207,0.7664571404457092,1.7825369834899902
1783201542011309300,3.641309326171875,0.6873071413785219,1.0555269980475306,-0.2701286080121994,0.385354608297348,0.7697054147720337,1.7535032033920288
1783201542021246500,3.65124658203125,0.5407720336787403,1.0910384564116598,-0.3831786486089229,0.4943382441997528,0.790858805179596,1.7260686159133911
1783201542031183400,3.661183349609375,0.3871609597107395,1.1598252846509218,-0.3281248699069023,0.6299570798873901,0.843390941619873,1.6794536113739014
1783201542041120300,3.671120361328125,0.231063987211138,1.2115063720494508,-0.0977402432620525,0.7698430418968201,0.9422261714935304,1.6186366081237793
1783201542051057400,3.681057373046875,0.1001375136621296,1.2198641582891343,0.2123006884217262,0.8924667239189148,1.0637729167938232,1.551430106163025
1783201542060994300,3.690994384765625,0.084722173593752,1.219758652088046,0.5272065957933664,0.9854658842086792,1.2013568878173828,1.4999445676803589
1783201542070931500,3.700931396484375,0.2667547476649284,1.3124462881356478,0.7860176909774541,1.0087034702301023,1.3240516185760498,1.4836329221725464
1783201542080868600,3.71086865234375,0.5486287019958719,1.5059452454537152,0.9688619832903146,0.9380452036857604,1.3870056867599487,1.4902138710021973
1783201542090805200,3.72080517578125,0.582027442522347,1.514304492998123,1.046701009774208,0.7948659658432007,1.3827078342437744,1.507798671722412
1783201542100742400,3.730742431640625,0.4286877693742513,1.3747773643642662,1.0900275258034466,0.5870211124420166,1.3473581075668335,1.5248738527297974
1783201542110679300,3.74067919921875,0.2714687705747783,1.2731383600980042,1.107582471716404,0.3640623390674591,1.271182656288147,1.531015157699585
1783201542120616400,3.750616455078125,0.1003422424539923,1.2413409538209437,1.0046738859057427,0.1758855879306793,1.1658626794815063,1.5203526020050049
1783201542130553600,3.7605537109375,-0.0512011949270963,1.2752712804734707,0.8203992685288191,0.0401762202382087,1.0603115558624268,1.4937227964401243
1783201542140490200,3.770490234375,-0.1939846950083971,1.3142378477275372,0.6634802755892276,-0.0326778329908847,0.980301558971405,1.450469732284546
1783201542150427400,3.780427490234375,-0.2731170492384582,1.4330647181600331,0.5576356363266706,-0.0830978602170944,0.9321529269218444,1.4142976999282837
1783201542160364300,3.7903642578125,-0.1625030766822397,1.6285054571956394,0.4870990418106317,-0.1336133182048797,0.8927334547042847,1.3942772150039673
1783201542170301400,3.800301513671875,-0.093114044766128,1.7825830892294643,0.4359177206277847,-0.2094947695732116,0.842262864112854,1.3757134675979614
1783201542180239400,3.8102392578125,-0.1794794920548796,1.8564573037356136,0.4337549896359443,-0.3248364329338074,0.7980499267578125,1.3433113098144531
1783201542190176500,3.820176513671875,-0.3828283738665282,1.8430980559468269,0.4237485594063997,-0.4504247009754181,0.7423807978630066,1.2830783128738403
1783201542200113400,3.830113525390625,-0.5652259453251958,1.7592057207733391,0.3069944035947323,-0.5637968182563782,0.677587628364563,1.2110590934753418
1783201542210050300,3.84005029296875,-0.7043781762320548,1.5651795247107745,0.1797819821327924,-0.6514886021614075,0.6359983682632446,1.1332762241363523
1783201542219987500,3.849987548828125,-0.7323352006286382,1.357261581417918,0.0471679938882589,-0.6835333704948425,0.6132547855377197,1.0793123245239258
1783201542229924400,3.85992431640625,-0.6809963507965207,1.1977075637996195,-0.1484118613570928,-0.6665154695510864,0.6109455823898315,1.042457938194275
1783201542239861500,3.869861572265625,-0.5313268905937671,1.1157131712019444,-0.354733475369215,-0.6033214926719666,0.6095609664916992,1.0202959775924685
1783201542249798400,3.87979833984375,-0.2943652236461639,1.129380462026596,-0.5350362665057182,-0.5214362144470215,0.5964906811714172,1.0242350101470947
1783201542259735300,3.8897353515625,-0.1553952905036509,1.1128431687235831,-0.6005401275515556,-0.4489859044551849,0.5884882807731628,1.029735445976257
1783201542269672400,3.89967236328125,-0.1994250594314187,0.9961971494615076,-0.5097346519887447,-0.4012625813484192,0.602151095867157,1.0229454040527344
1783201542279609300,3.909609375,-0.308079422352463,0.9307166692912578,-0.3050467766582965,-0.3584756553173065,0.6392955780029297,1.0020623207092283
1783201542289546500,3.91954638671875,-0.3840401608090847,0.8812690400332212,-0.0954196913599967,-0.318279504776001,0.7020500302314758,0.9792020320892334
1783201542299484000,3.92948388671875,-0.3995036143355071,0.8411316754341125,0.0685077190369367,-0.26703542470932,0.7828705906867981,0.9573892951011658
1783201542309420500,3.939420654296875,-0.3258545868873596,0.8441583297789096,0.2387362754046917,-0.2189835011959076,0.8446193933486938,0.9449741840362548
1783201542319357700,3.949357666015625,-0.114290249916166,0.7962211050838232,0.3457616488844156,-0.1997048705816269,0.8732383251190186,0.967032253742218
1783201542329294600,3.959294677734375,0.1958374832682311,0.6671171707868576,0.4531353974103927,-0.2311554700136184,0.8538758158683777,1.0260560512542725
1783201542339231700,3.969231689453125,0.4241137394569814,0.5837199256539345,0.6037964989989996,-0.3078269362449646,0.7617374062538147,1.112404704093933
1783201542349169000,3.9791689453125,0.5108788535878062,0.5726315454065799,0.7289286070555449,-0.4306018352508545,0.6105766296386719,1.2053489685058594
1783201542359105500,3.98910546875,0.4567990344844758,0.7037558796152472,0.9246148452848196,-0.5872321724891663,0.445962518453598,1.2883849143981934
1783201542369042700,3.999042724609375,0.3069534870624542,0.9706465286195276,1.2210545371174812,-0.7509638667106628,0.3023017644882202,1.331979751586914
1783201542378980600,4.008980712890625,0.000798164640367,1.1449039021119474,1.4873025043040513,-0.9014335870742798,0.2260590940713882,1.3397369384765625
1783201542388917800,4.018917724609375,-0.3552633444622158,1.250052083542943,1.6828502108454704,-1.018893122673035,0.234989732503891,1.3020340204238892
1783201542398854700,4.028854736328125,-0.6465833551935851,1.3827631024211644,1.6610492979258298,-1.0825926065444946,0.2860332727432251,1.229522466659546
1783201542408791800,4.038791748046875,-0.8071927270837128,1.4583745159834622,1.593618852731585,-1.1001673936843872,0.3886691033840179,1.1483304500579834
1783201542418728700,4.048728759765625,-0.8478705552350729,1.518731954051554,1.488366918665171,-1.0783084630966189,0.5091619491577148,1.0739004611968994
1783201542428665600,4.05866552734375,-0.8002286602247506,1.5679957511752842,1.3183388533055782,-1.0355827808380127,0.6405074596405029,1.0170451402664185
1783201542438602800,4.068602783203125,-0.7436574626971035,1.6189643063902854,1.112463229495287,-0.9856030344963074,0.7524842619895935,0.9686245322227478
1783201542448539600,4.07853955078125,-0.6739565152876079,1.571597575059533,0.7910533470571041,-0.9343858957290648,0.8433271050453186,0.9410781264305116
1783201542458476800,4.088476806640625,-0.5923987605415284,1.4145730759188533,0.4327303227633237,-0.8733431100845337,0.9256083965301514,0.9321203231811525
1783201542468413700,4.09841357421875,-0.5662226282123476,1.308076110227406,0.1045253733575344,-0.8191336989402771,0.9857255220413208,0.9145506620407104
1783201542478350600,4.1083505859375,-0.6211266962453723,1.3241145140975712,-0.1066986257433891,-0.7982304096221924,1.0448086261749268,0.8861430287361145
1783201542488287700,4.118287841796875,-0.66768152667135,1.4078142493084072,-0.1810422113269567,-0.8265398144721985,1.1150269508361816,0.8527310490608215
1783201542498224600,4.128224609375,-0.6987532490223646,1.5151184397295117,-0.252851894518733,-0.9080551266670228,1.1724188327789309,0.8033382296562195
1783201542508161800,4.138161865234375,-0.7168961508911103,1.5883669235527516,-0.3939782750427723,-1.0393199920654297,1.189003586769104,0.7539533972740173
1783201542518098700,4.1480986328125,-0.6659745766229928,1.6935004919365046,-0.6382546489179134,-1.1996604204177856,1.1715638637542725,0.7097752690315247
1783201542528035600,4.15803564453125,-0.5703523484282195,1.8303136854365467,-0.9346493325650692,-1.3563629388809204,1.1241930723190308,0.6662051677703857
1783201542537972700,4.16797265625,-0.5275741139315069,1.9560642176523804,-1.3637860147505998,-1.4861623048782349,1.0409635305404663,0.6328407526016235
1783201542547909600,4.17790966796875,-0.5124968101784586,2.0793699870646,-1.8352391591399908,-1.5765010118484497,0.9431259036064148,0.6041353344917297
1783201542557846800,4.1878466796875,-0.5073702609449625,2.0714465005889533,-2.339011687853932,-1.6289061307907104,0.8556607961654663,0.5899043679237366
1783201542567784700,4.19778466796875,-0.5291808184757828,2.029211871449649,-2.853112133836746,-1.6296504735946655,0.7417185306549072,0.5751233100891113
1783201542577721600,4.2077216796875,-0.6022006081096828,2.107612623469532,-3.296476663339138,-1.5978944301605225,0.61143958568573,0.5396081805229187
1783201542587658800,4.21765869140625,-0.6983981519743799,2.232758467790484,-3.5812861231327053,-1.5735257863998413,0.4901427030563354,0.4786040186882019
1783201542597595600,4.227595703125,-0.7500999898999929,2.408629413959384,-3.7279952722251415,-1.5730475187301636,0.3401086628437042,0.3963333070278168
1783201542607532800,4.23753271484375,-0.8156943057082593,2.4537369681864973,-3.8377883568525313,-1.6028683185577393,0.1344425529241562,0.2850568294525146
1783201542617469700,4.2474697265625,-0.9243662773512304,2.2806107906810937,-3.968343074479699,-1.649241328239441,-0.0988534241914749,0.1637790352106094
1783201542627406600,4.257406494140625,-1.0817032034419476,2.012270965781808,-4.095819699835777,-1.6633199453353882,-0.3639793694019317,0.0421471484005451
1783201542637343700,4.26734375,-1.2497168602392077,1.7854704812340438,-4.319456021264196,-1.6066265106201172,-0.6554051041603088,-0.0745922476053237
1783201542647280600,4.27728076171875,-1.3546554905727506,1.592391795154661,-4.515620982921123,-1.460155010223389,-0.9227308034896852,-0.1922387182712555
1783201542657217800,4.2872177734375,-1.4277492222256958,1.4654213657550512,-4.486127761933207,-1.2351499795913696,-1.1131709814071655,-0.3143926560878753
1783201542667154700,4.29715478515625,-1.5114049721643328,1.4215287402756511,-4.167408433753252,-0.9450854063034058,-1.195258378982544,-0.445729911327362
1783201542677091600,4.307091552734375,-1.5576624270789323,1.4009754893295463,-3.6298844420850274,-0.6137422323226929,-1.1659568548202517,-0.5832661390304565
1783201542687028700,4.31702880859375,-1.481292450234294,1.366842771972716,-2.982864887431264,-0.2680737972259521,-1.0258055925369265,-0.7064165472984314
1783201542696965600,4.326965576171875,-1.31708622289598,1.254875265915692,-2.299337264591456,0.0730267316102981,-0.7893110513687134,-0.7948047518730164
1783201542706902800,4.33690283203125,-1.117978631915897,1.1256525275446474,-1.7454618575811385,0.4107483327388763,-0.5095648765563965,-0.8430542945861816
1783201542716839700,4.346839599609375,-0.9240377029839902,1.0771893792793157,-1.3872615828841923,0.725848913192749,-0.2278985530138015,-0.8606925010681152
1783201542726776600,4.356776611328125,-0.7286312315441668,1.1591833334855737,-1.1332347993671894,1.0064642429351809,0.0108762076124548,-0.8606208562850952
1783201542736713700,4.366713623046875,-0.6026813042987138,1.2704162416577338,-0.908728124845028,1.2321544885635376,0.200995534658432,-0.8564542531967163
1783201542746651600,4.376651611328125,-0.5729259983085095,1.389309309194237,-0.7272264793127775,1.3965256214141846,0.3265052437782287,-0.8456399440765381
1783201542756588800,4.3865888671875,-0.6210173175867647,1.4831898082882164,-0.54152329043746,1.4825788736343384,0.3944473266601562,-0.8363440632820129
1783201542766525700,4.396525634765625,-0.7758432107046246,1.5787364870287477,-0.3243237240582704,1.5123900175094604,0.4158583283424377,-0.8560543656349182
1783201542776462800,4.406462890625,-0.9303641295265406,1.74605149403736,-0.1584907723009586,1.4889955520629885,0.4186788499355316,-0.874048113822937
1783201542786399500,4.4163994140625,-1.076082587081194,1.9355916307270529,0.0100385789334774,1.4402928352355957,0.4140758514404297,-0.908198356628418
1783201542796336600,4.426336669921875,-1.2315493353858589,2.095878931055963,0.1336842478245496,1.3655914068222046,0.4059214890003204,-0.9669674634933472
1783201542806273800,4.436273681640625,-1.348975399109721,2.2729504851862785,0.1857528732359409,1.26267671585083,0.3756804764270782,-1.0474027395248413
1783201542816210700,4.446210693359375,-1.3904749919727444,2.445483519104123,0.1877548607081174,1.132091999053955,0.3182095289230346,-1.1387966871261597
1783201542826147800,4.45614794921875,-1.363565357737243,2.443233986611664,0.0851823749840259,0.9790056943893432,0.2021857351064682,-1.2337820529937744
1783201542836084500,4.46608447265625,-1.2107120068013668,2.288032318983972,-0.1388788938581943,0.818658173084259,0.0336089506745338,-1.3152751922607422
1783201542846021600,4.476021728515625,-0.9481114562064408,2.135148280648887,-0.3658803078055381,0.6492561101913452,-0.1575572788715362,-1.3750410079956057
1783201542855958800,4.485958740234375,-0.7173821077771484,2.0110238883301617,-0.5317383940041065,0.4872060716152191,-0.3631477653980255,-1.4324394464492798
1783201542865895700,4.495895751953125,-0.5865666933871805,1.8787804869636893,-0.6956997066706418,0.3550911843776703,-0.5399268269538879,-1.4822754859924316
1783201542875832800,4.505832763671875,-0.4926717273764312,1.7516373313456772,-0.9045721742093562,0.265970766544342,-0.7129764556884766,-1.519012212753296
1783201542885769700,4.515769775390625,-0.396536581223458,1.7627642900377511,-1.053340593919158,0.2118412405252456,-0.8750878572463989,-1.5499721765518188
1783201542895706600,4.52570654296875,-0.3795573893718421,1.8466235997244715,-1.1024719968348742,0.1904366612434387,-0.99452006816864,-1.592993974685669
1783201542905643800,4.535643798828125,-0.3970711264915764,1.934662240922451,-0.9903595293492078,0.1748672872781753,-1.0397183895111084,-1.6453417539596558
1783201542915581700,4.545581787109375,-0.4281687139362096,1.97404352645725,-0.783645701149106,0.1542103290557861,-1.0386122465133667,-1.7218815088272097
1783201542925518800,4.555518798828125,-0.4402148332998156,1.959921477602422,-0.6225450386106968,0.1350147873163223,-1.0292537212371826,-1.8076715469360352
1783201542935455700,4.565455810546875,-0.3663953446555882,1.8962869175598025,-0.57361997192204,0.1225085705518722,-1.0283457040786743,-1.8801509141922
1783201542945392600,4.575392578125,-0.2687253901507705,1.7660481340140104,-0.5447001669079065,0.128219723701477,-1.0142309665679932,-1.936556935310364
1783201542955329500,4.58532958984375,-0.1859087944500148,1.637212495264411,-0.4654810842424631,0.1608418673276901,-0.9749735593795776,-1.972193479537964
1783201542965266700,4.5952666015625,-0.1036531205676496,1.5725383630409837,-0.3818009305149316,0.226675733923912,-0.9120188355445862,-1.9964487552642824
1783201542975203800,4.605203857421875,-0.0528377100877463,1.5144699126929044,-0.2549994279414415,0.3123007714748382,-0.8176131248474121,-2.003712654113769
1783201542985140700,4.615140625,0.0489464017376303,1.5354311599180102,-0.1013496659308672,0.3973035514354706,-0.7078983187675476,-1.998478651046753
1783201542995077600,4.62507763671875,0.1224109394643455,1.6316279731303454,0.0455588051259517,0.4562774002552032,-0.6131730079650879,-1.992546319961548
1783201543005014800,4.635014892578125,0.1073649806976318,1.7172347110062836,0.2392027238726616,0.4653774201869964,-0.5301167368888855,-2.0124588012695312
1783201543014951700,4.64495166015625,0.0119189127873629,1.6769371874094008,0.3845037597328424,0.4309948086738586,-0.4904280006885528,-2.066455602645874
1783201543024888800,4.654888916015625,-0.0081665014512836,1.558225467789173,0.3989367742329835,0.375082790851593,-0.5088991522789001,-2.1251001358032227
1783201543034825700,4.66482568359375,0.1272846099153161,1.4200570602878928,0.3631675417155027,0.3110958337783813,-0.5758011937141418,-2.163764953613281
1783201543044762600,4.6747626953125,0.353974473695457,1.1909963757231832,0.3252496067315339,0.2397902011871338,-0.6644210815429688,-2.180190086364746
1783201543054699800,4.68469970703125,0.5999916998885572,0.9211296335175632,0.3649064943373203,0.1626153886318206,-0.7510280013084412,-2.16568922996521
1783201543064636700,4.69463671875,0.9837496096901596,0.6736617701247334,0.4762006311774253,0.0893699377775192,-0.8257507085800171,-2.125086784362793
1783201543074573800,4.70457373046875,1.407091926383227,0.4611065224200487,0.6128530811578035,0.0372827909886837,-0.844500720500946,-2.068243741989136
1783201543084510700,4.7145107421875,1.7391151189029217,0.3002580810770392,0.7736825255393982,0.0049813091754913,-0.7950276732444763,-2.0120623111724854
1783201543094449000,4.724448974609375,1.9518457231745123,0.1458592542648315,0.8606418470680713,-0.0099053308367729,-0.6720508337020874,-1.9601200819015503
1783201543104385500,4.734385498046875,2.103843334063888,-0.1057996310770511,0.8566109841167926,0.0042104870080947,-0.5068098902702332,-1.9181281328201292
1783201543114322700,4.74432275390625,2.259142032325268,-0.353502472269535,0.7111807689189911,0.044304721057415,-0.3282458484172821,-1.8499311208724976
1783201543124259600,4.754259521484375,2.491034725445509,-0.5335013120234012,0.5154623819857835,0.1111460700631141,-0.1592203378677368,-1.7441649436950684
1783201543134196700,4.76419677734375,2.622785959380865,-0.689574794049561,0.2515378893107176,0.2014844715595245,-0.0206579025834798,-1.613887071609497
1783201543144133600,4.774133544921875,2.636115396553278,-0.7946364662408828,-0.0313221899807453,0.3050401508808136,0.0977353230118751,-1.4832080602645874
1783201543154070500,4.784070556640625,2.631680044454336,-0.6825526403278112,-0.2711304785311222,0.3703902065753937,0.2087307423353195,-1.358561635017395
1783201543164007700,4.794007568359375,2.6558997089535,-0.3592074059128761,-0.48518122549057,0.3638324439525604,0.2562921345233917,-1.2724754810333252
1783201543173944800,4.80394482421875,2.5266937755867835,-0.1174587969496846,-0.8166893080949783,0.2873394787311554,0.2101137936115265,-1.2435983419418335
1783201543183881700,4.8138818359375,2.297187393081188,-0.2180614439055323,-1.155275366261601,0.1884195357561111,0.1037876307964325,-1.210776925086975
1783201543193818600,4.823818603515625,2.1845247443668545,-0.3875003112003207,-1.475292333036661,0.1013812199234962,-0.0398228950798511,-1.1456018686294556
1783201543203755500,4.833755615234375,2.180142145368457,-0.483687479801476,-1.727342263522744,0.0273706428706645,-0.1825326383113861,-1.0345619916915894
1783201543213692700,4.843692626953125,2.1111317375063896,-0.4304050946861505,-1.906118868005276,-0.0221399534493684,-0.3492397367954254,-0.9212067127227784
1783201543223629800,4.8536298828125,1.8609575377643108,-0.3088444153755903,-2.019710175871849,-0.05125043541193,-0.5015917420387268,-0.8321428894996643
1783201543233566700,4.863566650390625,1.5250120572343469,-0.0433475588172674,-1.9603426256239411,-0.0639605894684791,-0.5937739014625549,-0.7732799053192139
1783201543243503600,4.873503662109375,1.223904958112538,0.3239715496197343,-1.813932751739025,-0.052614726126194,-0.649047315120697,-0.7259550094604492
1783201543253441500,4.883441650390625,0.958967489002645,0.6881120280206203,-1.7384984483093022,-0.0216870121657848,-0.6967710256576538,-0.7084597945213318
1783201543263378700,4.893378662109375,0.6896938903845846,1.00680505271554,-1.7135060458719729,0.0228266604244709,-0.7551131248474121,-0.7035803198814392
1783201543273315600,4.903315673828125,0.3014629268221557,1.1422796910881996,-1.641283690226078,0.0764286145567894,-0.8246292471885681,-0.7354846596717834
1783201543283252700,4.913252685546875,-0.1554190367054194,1.1868366256952283,-1.48484342071414,0.1388776153326034,-0.8752806782722473,-0.7971813082695007
1783201543293190000,4.92318994140625,-0.5347307807531207,1.2690034522503613,-1.244412031829357,0.1975197345018386,-0.906210720539093,-0.8964518904685974
1783201543303126000,4.9331259765625,-0.7512424379333853,1.4721429290950296,-0.911394713705778,0.250333696603775,-0.9044035077095032,-1.0123523473739624
1783201543313063200,4.943063232421875,-0.7958328364185988,1.7242787842988967,-0.5622299783796072,0.271653950214386,-0.8898105621337891,-1.1279340982437134
1783201543323000300,4.953000244140625,-0.7824738808907568,1.8106567988082765,-0.2251250986814498,0.2656520009040832,-0.8765257000923157,-1.2361849546432495
1783201543332937200,4.962937255859375,-0.6691232499122619,1.7608762843340635,0.0446299998432397,0.2364604622125625,-0.8737688660621643,-1.3085644245147705
1783201543342874400,4.972874267578125,-0.4295718587324023,1.689106056369841,0.2602683082550764,0.1726644337177276,-0.8879297375679016,-1.3418887853622437
1783201543352811000,4.98281103515625,-0.0968134838059544,1.6386469119817018,0.4625169737398624,0.0843815580010414,-0.9242370128631592,-1.357633352279663
1783201543362748200,4.992748046875,0.1781593493670225,1.5819380595490335,0.6455471440136432,-0.0129010481759905,-0.9661877155303956,-1.3811460733413696
1783201543372685300,5.002685302734375,0.2893397966995835,1.4882172810614107,0.7462023979395628,-0.0897805541753768,-1.0025066137313845,-1.4101014137268066
1783201543382622200,5.012622314453125,0.3238531108718365,1.3415446645870803,0.7497989611268043,-0.1298219710588455,-1.0312082767486572,-1.4374781847000122
1783201543392559400,5.022559326171875,0.1762497894186526,1.0506021088659765,0.7596399716615676,-0.1191192269325256,-1.0358048677444458,-1.4785562753677368
1783201543402496000,5.03249609375,0.053587213280797,0.8056085266321897,0.754434219712019,-0.0692323669791221,-1.0001920461654663,-1.52338445186615
1783201543412433200,5.04243310546875,0.1453279238671064,0.795561179870367,0.8587859900683165,-0.0024536876007914,-0.9186984896659852,-1.5648193359375
1783201543422371000,5.05237109375,0.3510622029779479,0.9290911139160394,1.0130670357197522,0.0682833343744278,-0.8203346133232117,-1.604627251625061
1783201543432308200,5.06230810546875,0.3976929847169667,0.9546867429435252,1.129123272395134,0.1320897787809372,-0.7149825096130371,-1.6620361804962158
1783201543442245000,5.0722451171875,0.4403856232894584,0.8286419039562344,1.18726274215281,0.1613893359899521,-0.6175987124443054,-1.7251629829406738
1783201543452182300,5.082182373046875,0.6346677303418516,0.6791749805882573,1.1813520568042992,0.1750261634588241,-0.550399661064148,-1.7597874402999878
1783201543462119200,5.092119140625,0.941450390882045,0.4669499877512454,1.107233512148261,0.1866261065006256,-0.5266138911247253,-1.7576638460159302
1783201543472056000,5.10205615234375,1.147181053263694,0.2055763486027717,1.0404822813898325,0.1887775063514709,-0.5163619518280029,-1.7356163263320925
1783201543481993200,5.1119931640625,1.3191975159615277,0.0203469147190451,1.1212000781804323,0.1729213148355484,-0.4660034477710724,-1.6931636333465576
1783201543491930400,5.121930419921875,1.5050588180080056,0.021824293795228,1.236323417919874,0.14980448782444,-0.4223046898841858,-1.6490731239318848
1783201543501867300,5.1318671875,1.5651637426197529,0.0795145584806799,1.258445233356953,0.1388692706823349,-0.3857858180999756,-1.6350315809249878
1783201543511804200,5.14180419921875,1.480973301282525,0.0292933145016431,1.276197747668624,0.1390480548143386,-0.3130048215389251,-1.645545482635498
1783201543521741000,5.151740966796875,1.3997452168822289,-0.1245312195539474,1.2584259441345929,0.1449711918830871,-0.2557934522628784,-1.6609148979187012
1783201543531678200,5.16167822265625,1.367432408428937,-0.345167774644494,1.1835504436314106,0.148061141371727,-0.2086954116821289,-1.6599293947219849
1783201543541615400,5.171615478515625,1.4717092138528822,-0.5349643703132867,1.138515370118618,0.1282144635915756,-0.1612911522388458,-1.6275826692581177
1783201543551552300,5.18155224609375,1.5892634340010583,-0.6176449916094541,1.0921873341858386,0.0952577292919159,-0.1389985531568527,-1.5715734958648682
1783201543561489200,5.1914892578125,1.6696546291857957,-0.674947426021099,0.9726198745191096,0.0589050538837909,-0.1443147510290146,-1.4987269639968872
1783201543571426000,5.201426025390625,1.7800637998849151,-0.6954016005069017,0.8517308108597993,0.0045524360612034,-0.158471018075943,-1.4248323440551758
1783201543581364200,5.2113642578125,1.7957674188427626,-0.6882651727557182,0.7682961563259363,-0.0596206933259964,-0.1766548156738281,-1.361173152923584
1783201543591301000,5.221301025390625,1.753029077965021,-0.7761179359927773,0.6436468633502721,-0.1133936122059822,-0.2117749899625778,-1.3125388622283936
1783201543601238300,5.23123828125,1.7475667209058998,-0.9466849305346609,0.473129553169012,-0.1694507598876953,-0.2671884596347809,-1.2597228288650513
1783201543611175400,5.241175537109375,1.729617514978349,-1.1476581692561507,0.3344832990229129,-0.2078573405742645,-0.314650297164917,-1.1964629888534546
1783201543621112000,5.251112060546875,1.6874439683765172,-1.2695777450069785,0.2672726340591907,-0.2157967686653137,-0.3160849511623382,-1.125846266746521
1783201543631049200,5.26104931640625,1.5958753994867203,-1.2380474652335047,0.2232061133176088,-0.193979874253273,-0.2849463820457458,-1.0613276958465576
1783201543640986000,5.270986083984375,1.5187065273493527,-1.0543620459213852,0.173158180078864,-0.1550417989492416,-0.2285720556974411,-0.9988176822662354
1783201543650923300,5.28092333984375,1.4419652329742907,-0.782763365356624,0.0854039087802171,-0.1149549484252929,-0.1728895604610443,-0.9382480382919312
1783201543660860400,5.2908603515625,1.3321975750491022,-0.577167143009603,0.0259843360841274,-0.0858732312917709,-0.1198132932186126,-0.900672197341919
1783201543670797000,5.300797119140625,1.0974734578952192,-0.4858183543503284,-0.0311795666396617,-0.0652252361178398,-0.0327566862106323,-0.8861053586006165
1783201543680734200,5.310734130859375,0.8971233195081353,-0.4841489598333835,-0.1620236226022243,-0.0401968471705913,0.0714549347758293,-0.9007397294044496
1783201543690671000,5.320671142578125,0.8005687058340758,-0.4646504786372184,-0.4447878403037786,0.0032972078770399,0.1581017822027206,-0.933207094669342
1783201543700608300,5.330608154296875,0.8398962884202599,-0.4787567454010248,-0.8336497952461243,0.0639190077781677,0.205654114484787,-0.9860876202583312
1783201543710545400,5.34054541015625,0.9050408146344124,-0.5983429097682237,-1.254895431920886,0.1283047497272491,0.198038250207901,-1.0371789932250977
1783201543720482000,5.35048193359375,1.0355044199120254,-0.8865583786129951,-1.575010598373413,0.1870056092739105,0.1627130210399627,-1.0411628484725952
1783201543730419200,5.360419189453125,1.377906456170231,-1.2591469518855214,-1.788510725712776,0.2418445348739624,0.104492075741291,-1.00553297996521
1783201543740357000,5.370357177734375,1.7263190579548475,-1.549725058208406,-1.9733137508779763,0.2894115149974823,0.0273373704403638,-0.9605857133865356
1783201543750294300,5.380294189453125,1.9883653356678783,-1.7111892933622002,-2.064856308543682,0.3451124131679535,-0.0349398739635944,-0.9170903563499452
1783201543760231200,5.390231201171875,2.252505078528821,-1.8562845775172117,-2.1013573624670503,0.4221981465816498,-0.0761751979589462,-0.8710855841636658
1783201543770168300,5.400168212890625,2.47490075224638,-2.086855958905816,-2.177343454560637,0.5553246140480042,-0.1168677881360054,-0.8034961819648743
1783201543780105200,5.410105224609375,2.694376739124954,-2.2875351831167934,-2.1715338914990423,0.7330679297447205,-0.1358973979949951,-0.7018872499465942
1783201543790042000,5.4200419921875,2.928465773245692,-2.350306404328346,-1.9950018510729075,0.9429094791412354,-0.1249186545610427,-0.5713528990745544
1783201543799979300,5.429979248046875,3.0689389505580067,-2.348391510617733,-1.683935083472729,1.1596200466156006,-0.082871600985527,-0.4306325018405914
1783201543809916200,5.439916259765625,3.1661995936095715,-2.3279621783122417,-1.3256523911893368,1.3576353788375854,-0.0291871465742588,-0.2737876772880554
1783201543819853000,5.44985302734375,3.184163997106254,-2.2729484393596646,-0.933968949085474,1.5130926370620728,0.0259980782866477,-0.128213956952095
1783201543829790200,5.459790283203125,3.1080662613317367,-2.195580829779804,-0.5677256531864404,1.6171385049819946,0.0602107942104339,0.0129860676825046
1783201543839727000,5.46972705078125,3.012645108667016,-2.134208369450271,-0.2199275300383567,1.6855452060699463,0.0770779252052307,0.1551615893840789
1783201543849664300,5.479664306640625,2.9405148152187466,-1.9766952100098127,0.1042465564161539,1.7270601987838743,0.0608643181622028,0.301846832036972
1783201543859601200,5.48960107421875,2.8684792143166065,-1.7426123133689164,0.4380839587509632,1.7042680978775024,0.0306936297565698,0.452103704214096
1783201543869538000,5.4995380859375,2.704263050106168,-1.5105021781057115,0.8432073126643895,1.624799370765686,0.0389339849352836,0.5827310085296631
1783201543879475200,5.50947509765625,2.3916180734038357,-1.2795169552192092,1.1774123792678115,1.5104961395263672,0.0753276720643043,0.6905251145362854
1783201543889412000,5.519412109375,1.9885504829764364,-1.0483528686344623,1.3198995267510414,1.3912110328674316,0.1118791848421096,0.7557121515274048
1783201543899350300,5.529350341796875,1.5749501003578303,-0.8169520506843924,1.306313484469056,1.3072035312652588,0.1456488668918609,0.7857438325881958
1783201543909287200,5.539287109375,1.260662324884534,-0.5904863510489463,1.1599854436486958,1.274450182914734,0.1793752908706665,0.7875158786773682
1783201543919224300,5.549224365234375,1.0321794402077793,-0.390265391999483,0.9875421338409184,1.29443621635437,0.212812066078186,0.7642504572868347
1783201543929161000,5.559160888671875,0.8579929399944841,-0.22801555942595,0.905111687913537,1.3379850387573242,0.2774952054023742,0.7289986610412598
1783201543939098000,5.56909814453125,0.7588406379774212,-0.1203454583019018,0.857188491743803,1.3703190088272097,0.3481422066688537,0.6959884762763977
1783201543949035300,5.57903515625,0.7613413687519729,-0.0854775585383176,0.8483645492970943,1.365796446800232,0.3929510414600372,0.6908271908760071
1783201543958972200,5.58897216796875,0.8365538461245596,-0.1204974339932203,0.8723299467742442,1.3074588775634766,0.4225486218929291,0.7204732298851013
1783201543968909300,5.598909423828125,0.9100571814917028,-0.1594394513279199,0.8965519493609666,1.2063287496566772,0.4083901941776275,0.7676385641098022
1783201543978846000,5.608845947265625,0.9590795710749924,-0.1542436362504959,0.9055962565600872,1.0810054540634155,0.360237568616867,0.8189007043838501
1783201543988783000,5.618783203125,0.9611961979027835,-0.1337187346160411,0.919291019913554,0.9442800879478456,0.3039289116859436,0.8710956573486328
1783201543998720300,5.62872021484375,0.9048904463782906,-0.1481897430390119,0.937264483499527,0.829684317111969,0.2612594664096832,0.9149686098098756
1783201544008657200,5.6386572265625,0.7556824662074446,-0.121204705479741,0.926495836725831,0.7558730244636536,0.2507226467132568,0.934538960456848
1783201544018594300,5.64859423828125,0.5717147958878427,-0.0569902997225523,0.9763391873031854,0.7352204918861389,0.2802112996578216,0.9292195439338684
1783201544028531200,5.65853125,0.4407918294701725,0.030354806253314,1.081631453379989,0.7657939195632935,0.3649287819862366,0.9025583863258362
1783201544038468000,5.668468017578125,0.3518322009697556,0.0625403350651264,1.206865852767229,0.8224004507064819,0.4731630980968475,0.8546419739723206
1783201544048406000,5.678406005859375,0.3563165067769587,-0.0024818799436092,1.3254630060970782,0.8779100775718689,0.5882061123847961,0.8271663188934326
1783201544058343200,5.68834326171875,0.5351334432698786,-0.0998106197953224,1.4834265396535395,0.8859202861785889,0.6836730241775513,0.8313677310943604
1783201544068280300,5.6982802734375,0.8108104791894555,-0.1406640237092971,1.7033377030789851,0.8269397020339966,0.7537750005722046,0.8406359553337097
1783201544078217200,5.70821728515625,1.0442983325466513,-0.2017389623969793,1.865625529575348,0.7092658281326294,0.7710533142089844,0.8454080820083618
1783201544088154000,5.718154052734375,1.2490940521657463,-0.3591495382457971,1.9621751017481088,0.5635803937911987,0.7870557308197021,0.8646747469902039
1783201544098091000,5.728091064453125,1.4411960021674632,-0.4382674986243248,1.9727835895240309,0.4278973937034607,0.8069444894790649,0.9035550355911256
1783201544108028200,5.738028076171875,1.5194623141527177,-0.4337970752120018,1.8703899674981832,0.3333208262920379,0.8237038850784302,0.9440951347351074
1783201544117965300,5.74796533203125,1.4826073322251438,-0.4063035036087036,1.705536674427986,0.2855924665927887,0.8579531908035278,0.969667911529541
1783201544127902200,5.757902099609375,1.393584648425877,-0.3356780617654323,1.5762503693014382,0.258855789899826,0.9149826765060424,0.9685874581336976
1783201544137839000,5.767839111328125,1.3981149853318928,-0.1427501823335886,1.4845517442911862,0.2268477827310562,0.9567490220069884,0.9591670632362366
1783201544147776000,5.77777587890625,1.4519213943213225,0.0101607440084218,1.4234586854249238,0.1674982458353042,0.9941815733909608,0.9494500756263732
1783201544157713200,5.787713134765625,1.482110780879855,0.0451636683285236,1.4260405186116694,0.078626699745655,1.0444495677947998,0.9466047286987304
1783201544167650300,5.797650390625,1.6090665972322225,0.0206488202750682,1.4547878896683453,-0.0318929851055145,1.1353040933609009,0.9697226285934448
1783201544177587200,5.807587158203125,1.7792954458609225,0.0065104048073291,1.422035374623537,-0.1443627923727035,1.246501088142395,1.0297789573669434
1783201544187524000,5.817524169921875,1.8325182097434995,-0.0215273566752672,1.3237147011250257,-0.2510551810264587,1.3686742782592771,1.0931029319763184
1783201544197462000,5.8274619140625,1.7197694901809095,-0.0682253949642181,1.0696084226310252,-0.3456178903579712,1.492899775505066,1.1501121520996094
1783201544207399200,5.837399169921875,1.5133064218714831,-0.0960118120342493,0.653798255008459,-0.4022841155529022,1.5619381666183472,1.17309308052063
1783201544217336000,5.847336181640625,1.302180622448027,-0.0670534285753965,0.1416705704033374,-0.4227201342582702,1.5620111227035522,1.1717545986175537
1783201544227273200,5.857273193359375,1.1852987486034632,-0.0436556018531322,-0.3957072907924652,-0.4027414619922638,1.5173763036727903,1.1532164812088013
1783201544237210400,5.86721044921875,1.2348895857244728,0.0092553196012973,-0.8567641288518905,-0.3441769480705261,1.4435057640075684,1.1492373943328855
1783201544247147000,5.87714697265625,1.446977800439298,0.1306681148737669,-1.170965102824569,-0.2672915756702423,1.347424030303955,1.176646113395691
1783201544257084200,5.887084228515625,1.5357836266174911,0.2773959686666727,-1.389782041272521,-0.1889850497245788,1.2379297018051147,1.2096858024597168
1783201544267021000,5.89702099609375,1.4296134086623786,0.3634866906672716,-1.483013282677531,-0.1194321736693382,1.1600133180618286,1.206262230873108
1783201544276958200,5.906958251953125,1.3040221586614846,0.4624883321672677,-1.452996330076456,-0.056541621685028,1.1010839939117432,1.1959376335144043
1783201544286895400,5.916895263671875,1.19816378313452,0.74518182272017,-1.3872650900155306,-0.0011125924065709,1.0745714902877808,1.171324372291565
1783201544296832000,5.92683203125,1.0171667261235415,0.943782487091422,-1.3391197755277156,0.0789934247732162,1.061234712600708,1.125701665878296
1783201544306770700,5.936770751953125,0.7756481265239417,1.0272522129386663,-1.318240069106221,0.1846035420894622,1.0535796880722046,1.058117389678955
1783201544316707600,5.94670751953125,0.56150663254112,1.0956512109041214,-1.2852385477364063,0.3071630001068115,1.0526233911514282,0.9992014169692992
1783201544326644500,5.95664453125,0.5057632641397416,1.1246055027097464,-1.1650772138297558,0.423054575920105,1.044389724731445,0.9640284180641174
1783201544336582400,5.96658251953125,0.6582590338096023,1.1531617351084946,-0.9642729019343852,0.4865603148937225,1.003265619277954,0.9736469388008118
1783201544346519600,5.97651953125,0.9371388112932444,1.1372457885742189,-0.7073422136694193,0.4701411128044128,0.9424041509628296,1.02617084980011
1783201544356456400,5.98645654296875,1.2679238403201103,1.016431543716788,-0.4891852004349231,0.3801209628582001,0.8636142611503601,1.1005125045776367
1783201544366393600,5.9963935546875,1.4657944368511435,0.8759972371101379,-0.3491752567201852,0.2276461571455001,0.831531286239624,1.186967372894287
1783201544376330500,6.00633056640625,1.4727362188130615,0.7750999911218881,-0.2607522923797369,0.0377944633364677,0.8348828554153442,1.2721130847930908
1783201544386267400,6.016267333984375,1.2377797542080282,0.6505576656520367,-0.3134884417891502,-0.1153008714318275,0.8034336566925049,1.33798086643219
1783201544396204500,6.02620458984375,0.9067974490433932,0.5345265634179115,-0.490697943085432,-0.1917730122804641,0.7749495506286621,1.38110089302063
1783201544406141400,6.036141357421875,0.5897846325203776,0.596816723114252,-0.7015361577391624,-0.1692433953285217,0.7828119993209839,1.398036241531372
1783201544416078600,6.04607861328125,0.2763764894258231,0.7731032643467187,-0.8780231899797916,-0.0601254403591156,0.8054931163787842,1.3866841793060305
1783201544426015500,6.056015380859375,0.0149380414128303,0.9853039995253086,-0.96368604195714,0.1033663228154182,0.8327828645706177,1.3427850008010864
1783201544435952400,6.065952392578125,-0.2342304884180426,1.210230360764265,-0.9452513906002044,0.287367045879364,0.8910552263259888,1.2744497060775757
1783201544445889500,6.0758896484375,-0.3094400431811809,1.5004799657851458,-0.8356506136745214,0.4463078677654266,0.961587369441986,1.198648452758789
1783201544455826400,6.085826416015625,-0.2402659691900014,1.7578952226966618,-0.6527735881358385,0.5385518074035645,1.060065746307373,1.1471096277236938
1783201544465763600,6.095763671875,-0.1330032798230647,1.8286656259685756,-0.5463046794950962,0.5588593482971191,1.1410017013549805,1.1047759056091309
1783201544475700700,6.10570068359375,-0.0857008459001779,1.6632710656285286,-0.6765466779112815,0.5267466902732849,1.129960298538208,1.0734055042266846
1783201544485637400,6.115637451171875,-0.1631932509034871,1.3923586137622594,-0.910874489223957,0.46413254737854,1.023806929588318,1.0482871532440186
1783201544495575600,6.125575439453125,-0.2326757332567125,1.1462485947191714,-1.2328314841508865,0.3852593004703522,0.8598042130470276,1.0537045001983645
1783201544505512400,6.135512451171875,-0.3043383361279964,1.0064660300195216,-1.4058733443737028,0.3133331835269928,0.6599586009979248,1.0538853406906128
1783201544515449600,6.14544970703125,-0.4332765584692358,1.0127776973843574,-1.5116513481408356,0.2681851685047149,0.4379345774650574,1.0153474807739258
1783201544525386500,6.155386474609375,-0.5970806347474455,1.1186918947517872,-1.5642372754245994,0.2583684921264648,0.2721109092235565,0.9401239156723022
1783201544535323600,6.16532373046875,-0.7371712424829602,1.3090917170107363,-1.450922446411848,0.2622204720973968,0.1901273429393768,0.83231520652771
1783201544545260500,6.175260498046875,-0.7918103029042481,1.478410172796249,-1.298810561493039,0.2805527746677398,0.1597794741392135,0.7116932272911072
1783201544555197400,6.185197509765625,-0.7871964524332433,1.4855547838538885,-1.219622458487749,0.3006303608417511,0.1520392596721649,0.6100518107414246
1783201544565134600,6.195134521484375,-0.6402108244869857,1.2866314633995293,-1.1739677917718887,0.2985223829746246,0.1366721838712692,0.5489809513092041
1783201544575071500,6.205071533203125,-0.4434662363111972,0.9960673856019974,-1.1423007338762283,0.2708143293857574,0.1134480908513069,0.5150655508041382
1783201544585008600,6.215008544921875,-0.2717942031368613,0.7661778489977121,-1.0734212589174508,0.211454764008522,0.1003143638372421,0.4971948564052582
1783201544594945500,6.224945556640625,-0.193910168467462,0.4828858080297708,-1.0834300272345545,0.127620056271553,0.0849726945161819,0.4842311143875122
1783201544604882400,6.23488232421875,-0.1787275046437978,0.2150391734749078,-1.242267421016097,0.0498581156134605,0.1142359226942062,0.4701209664344787
1783201544614819600,6.244819580078125,-0.2721077991306782,0.0785135647445917,-1.587694723379612,0.0225910767912864,0.1777749359607696,0.44701087474823
1783201544624756500,6.254756591796875,-0.2529533821318298,0.1805482903301715,-2.12177880372703,0.0599140673875808,0.1962231397628784,0.4255664646625519
1783201544634693600,6.264693603515625,-0.1571282517760992,0.3835398831367492,-2.589825939065218,0.1710477769374847,0.1593415588140487,0.4210159480571747
1783201544644630500,6.274630615234375,-0.0674272303238511,0.4985878195524215,-2.9597616597414014,0.3404855728149414,0.0545263141393661,0.4313759505748749
1783201544654567400,6.2845673828125,-0.0315531126597896,0.504207997521758,-3.097018505355716,0.5368484258651733,-0.1041855663061142,0.4453754127025604
1783201544664504600,6.294504638671875,-0.0420268681401386,0.5711451062411069,-2.948876108589768,0.7083474397659302,-0.237480342388153,0.4642188549041748
1783201544674441500,6.30444140625,-0.0968964859142899,0.6666688424974679,-2.540709733718633,0.8443708419799805,-0.3138638138771057,0.4759863018989563
1783201544684379600,6.314379638671875,-0.2694222133085131,0.7689818005025386,-2.077326498538256,0.94917094707489,-0.3501492738723755,0.4727173447608948
1783201544694316500,6.324316650390625,-0.4637514839708805,0.8877572330087423,-1.673701274228096,1.0254732370376587,-0.3634275197982788,0.4686416387557983
1783201544704253400,6.33425341796875,-0.6106035486653447,0.963657984906435,-1.3142168049395084,1.069913387298584,-0.3703463971614837,0.4705828428268432
1783201544714190600,6.344190673828125,-0.747481331834197,0.9839981776237487,-0.988906407931447,1.079714059829712,-0.3609885573387146,0.4830072820186615
1783201544724127500,6.35412744140625,-0.9221753431782126,0.9795838683128356,-0.6357061334788799,1.04876446723938,-0.3468862771987915,0.4761908948421478
1783201544734064600,6.364064697265625,-1.1131892056822776,1.0566986721754072,-0.2371685876965522,0.9737815856933594,-0.3341422379016876,0.4477970898151397
1783201544744001500,6.37400146484375,-1.2797247527509927,1.118212586802244,0.140130939745903,0.8700293302536011,-0.3025348782539367,0.3996492028236389
1783201544753938400,6.3839384765625,-1.391650757753849,1.1522124715596436,0.4880138185679912,0.7502648234367371,-0.2574768662452698,0.3486744165420532
1783201544763875600,6.39387548828125,-1.485453369306028,1.1371078414082527,0.7146949145197868,0.6455481648445129,-0.1918928474187851,0.2968611121177673
1783201544773812500,6.4038125,-1.4973723551586269,1.0723217732429504,0.7357090609759092,0.5702816247940063,-0.1537667661905288,0.2639420330524444
1783201544783749600,6.41374951171875,-1.404951845614612,1.0360720637321472,0.6421282754808664,0.5287829637527466,-0.1511978060007095,0.2402802854776382
1783201544793686500,6.4236865234375,-1.3204706046372652,1.06185941593945,0.5502805973887444,0.5246734023094177,-0.1547635197639465,0.2335720509290695
1783201544803623400,6.43362353515625,-1.2123501293972134,1.108136013945937,0.4802478607416152,0.5413364768028259,-0.165504902601242,0.2283446788787841
1783201544813560600,6.443560546875,-1.1492325789660214,1.1733131272554398,0.5426946723043918,0.5588957667350769,-0.1801123321056366,0.2288831621408462
1783201544823497500,6.45349755859375,-1.1475234369605778,1.2593220161914824,0.6933376537144184,0.5519822835922241,-0.1685754358768463,0.2230805307626724
1783201544833434600,6.4634345703125,-1.1291226878732443,1.284360595858097,0.9149041831314564,0.5131006240844727,-0.1497612744569778,0.2174359560012817
1783201544843371500,6.47337158203125,-1.102212761376798,1.1390472850382327,1.0996084240972994,0.4413807392120361,-0.1345662474632263,0.2420422434806823
1783201544853308400,6.483308349609375,-1.0537550199389456,0.8330044830799103,1.2543296147316694,0.3406613171100616,-0.1192405521869659,0.2955084145069122
1783201544863245600,6.49324560546875,-0.9640487377896904,0.4816349311858415,1.32538526468575,0.2161239236593246,-0.0884204730391502,0.3700218498706817
1783201544873182500,6.503182373046875,-1.0118044684380292,0.2338034951776266,1.2853852627307176,0.0823408290743827,-0.048421923071146,0.4318418204784393
1783201544883119600,6.51311962890625,-1.0801689796119929,0.2306014842659234,1.2041571783304217,-0.057209376245737,-0.0391988605260849,0.4738341271877289
1783201544893056500,6.523056396484375,-1.2044780808478592,0.3553215043902397,1.1202350325405597,-0.20013989508152,-0.0460833981633186,0.4784299433231354
1783201544902993400,6.532993408203125,-1.3354425483196972,0.485024573624134,1.0190420184761284,-0.3366379141807556,-0.0520309805870056,0.4577987790107727
1783201544912930600,6.5429306640625,-1.4222300204128029,0.6420312448471784,0.8985539368331432,-0.4547666907310486,-0.0424401387572288,0.4166974425315857
1783201544922867500,6.552867431640625,-1.511738734163344,0.780906047052145,0.7317278823852539,-0.5497799515724182,-0.0140210427343845,0.36221444606781
1783201544932804600,6.5628046875,-1.604580683989823,0.821807381761074,0.4688239649295806,-0.6010727286338806,0.0610761083662509,0.3073565363883972
1783201544942741800,6.57274169921875,-1.668954371961951,0.793086314189434,0.1245908407866954,-0.6072810292243958,0.1503881067037582,0.240675464272499
1783201544952678400,6.582678466796875,-1.7389625586897133,0.7544622767627239,-0.3416021911174058,-0.5527008771896362,0.2167482227087021,0.1680435985326767
1783201544962615600,6.592615478515625,-1.6928148477599023,0.6937900736570358,-0.9077671708583832,-0.4551956057548523,0.2488487362861633,0.1186072453856468
1783201544972552400,6.602552490234375,-1.558048357656598,0.6237450620502233,-1.405977389270067,-0.3155245184898376,0.2706283330917358,0.0825270041823387
1783201544982489600,6.612489501953125,-1.5448060142457485,0.6113011755406856,-1.7313935847401618,-0.1672376245260238,0.2777235805988312,0.0249156840145587
1783201544992426800,6.6224267578125,-1.6748633037447929,0.6647901891440152,-1.9509780004292725,-0.0317724719643592,0.2844049334526062,-0.0717706382274627
1783201545002363400,6.63236328125,-1.7842472230494022,0.7147860999345779,-2.138781376454234,0.0984063744544982,0.2753709852695465,-0.1859766095876693
1783201545012300500,6.642300537109375,-1.7478475836738945,0.6739221746265888,-2.267341120871901,0.1995154321193695,0.2477923482656479,-0.2848619222640991
1783201545022237400,6.652237548828125,-1.6253475776866078,0.5733516763746738,-2.331277878731489,0.2721593081951141,0.1803821474313736,-0.3590734302997589
1783201545032174600,6.662174560546875,-1.486535903845727,0.4454553643018007,-2.341809794139862,0.3030155003070831,0.0685506835579872,-0.4241440594196319
1783201545042111700,6.67211181640625,-1.3288435884460803,0.3753051387548446,-2.2778701136708257,0.3097263276576996,-0.0779693722724914,-0.4782841503620147
1783201545052048400,6.68204833984375,-1.1155541812479497,0.3536638003110885,-2.16046070882082,0.3092451095581054,-0.2333339154720306,-0.5069264769554138
1783201545061986600,6.691986572265625,-0.858678730301559,0.3347562707453966,-1.9485943201631304,0.3111085295677185,-0.3839538097381592,-0.502978503704071
1783201545071922400,6.70192236328125,-0.6847983734279871,0.27210429199934,-1.6511451590269803,0.324339359998703,-0.5013734102249146,-0.4657240509986877
1783201545081859600,6.711859619140625,-0.6378846465617418,0.2594727739632129,-1.275563541418314,0.3258828818798065,-0.5578060150146484,-0.4188103079795837
1783201545091797500,6.721797607421875,-0.6988742450535297,0.3098533001571893,-0.8582739488929509,0.3088663518428802,-0.5652671456336975,-0.3922519385814667
1783201545101734700,6.731734619140625,-0.858083687017858,0.3394038042902946,-0.5397486819803714,0.2821753919124603,-0.5452492833137512,-0.4024766385555267
1783201545111671600,6.741671630859375,-0.9859627556949854,0.3806389009982347,-0.3833773860514163,0.2621788084506988,-0.5089793801307678,-0.4336577355861664
1783201545121608400,6.7516083984375,-0.9848279064461588,0.4551245254009962,-0.33254911608994,0.2527520060539245,-0.4709300994873047,-0.4799299836158752
1783201545131545600,6.761545654296875,-0.936744259017706,0.5396154109895229,-0.329337752828002,0.252494752407074,-0.44554403424263,-0.5221304297447205
1783201545141482500,6.771482421875,-0.8629504162713885,0.5796528223454952,-0.2829243766993284,0.2470224797725677,-0.4123760163784027,-0.5451082587242126
1783201545151419400,6.78141943359375,-0.7868009503096342,0.5909931315273046,-0.2446709261506795,0.2384457737207412,-0.3930880725383758,-0.5434709787368774
1783201545161356500,6.7913564453125,-0.7233879240632056,0.5867372276484966,-0.2690209390312433,0.2233240753412246,-0.4139060080051422,-0.5112203359603882
1783201545171293400,6.80129345703125,-0.6871832227379083,0.6197054312705993,-0.2855518025934696,0.1891490668058395,-0.4493689239025116,-0.4805881679058075
1783201545181230600,6.811230712890625,-0.7103487020090222,0.7528156785994767,-0.1832335838913917,0.1270102858543396,-0.4871409833431244,-0.484218955039978
1783201545191167500,6.82116748046875,-0.8409957740947603,0.9008481852501632,-0.0574076483517885,0.0480526201426982,-0.5246779918670654,-0.5354139804840088
1783201545201104400,6.8311044921875,-0.9191180014342069,0.9210510153234004,0.0100116909265518,-0.014234822243452,-0.549842894077301,-0.6031225323677063
1783201545211041500,6.84104150390625,-0.8473959965258836,0.8487970954954623,0.0542448004066944,-0.06147051602602,-0.5396549701690674,-0.6450662612915039
1783201545220978400,6.850978515625,-0.6342953898981213,0.7067915940493344,0.1061678798675537,-0.0944534242153167,-0.5255443453788757,-0.639944314956665
1783201545230915600,6.86091552734375,-0.3765361418545246,0.5224924267530441,0.0906909092724323,-0.1349513083696365,-0.5330805778503418,-0.583095371723175
1783201545240852500,6.8708525390625,-0.1597401878401637,0.3610129940301179,0.1540986748218536,-0.2082254737615585,-0.5572605729103088,-0.4986893832683563
1783201545250789400,6.880789306640625,-0.1017418801188468,0.2578244222342968,0.1854740562945604,-0.2870829999446869,-0.5815070271492004,-0.403064876794815
1783201545260725500,6.8907255859375,-0.1944347768634557,0.312563728159666,0.1226829613387584,-0.3558062314987182,-0.6079409122467041,-0.3328519463539123
1783201545270662700,6.90066259765625,-0.2622501297220587,0.4631915120005607,-0.0489694903522729,-0.4121267795562744,-0.65202796459198,-0.3152295351028442
1783201545280599600,6.910599609375,-0.3262783652573823,0.4874035777151584,-0.2005190652132034,-0.4658429026603699,-0.6787517070770264,-0.3545874655246734
1783201545290536400,6.920536376953125,-0.2671703427284956,0.4550117126762866,-0.3272638691633939,-0.496197909116745,-0.6982671022415161,-0.4378346800804138
1783201545300473000,6.93047314453125,-0.0785264242261648,0.4446300193935632,-0.4274772245407104,-0.4568675756454468,-0.6597746014595032,-0.5130550861358643
1783201545310410200,6.94041015625,0.1661082615673542,0.2829822443664074,-0.5286474422514438,-0.3530889749526977,-0.5715555548667908,-0.5393532514572144
1783201545320347100,6.95034716796875,0.3689823654741048,0.1245528468638658,-0.6726502549946308,-0.2191727459430694,-0.4737730026245117,-0.5374196767807007
1783201545330284000,6.960283935546875,0.4672589075699448,0.0899450593411922,-1.022342229065299,-0.0628758072853088,-0.4364597201347351,-0.5072383284568787
1783201545340221200,6.97022119140625,0.5344067364305257,0.0183253457635641,-1.2930734791457652,0.0844627544283866,-0.4059237837791443,-0.4636170268058777
1783201545350158300,6.980158447265625,0.5571119047135115,-0.0108405429661273,-1.4200912548184397,0.2147848010063171,-0.4011189043521881,-0.4685145914554596
1783201545360095200,6.99009521484375,0.4960092012360692,-0.0524608395993709,-1.584982541811466,0.321082592010498,-0.4443910717964172,-0.5100805163383484
1783201545370032000,7.0000322265625,0.5818403955176472,-0.0305260711669921,-1.674630079510808,0.4116398990154266,-0.5468007922172546,-0.5679944157600403
1783201545379969000,7.009968994140625,0.7345973003417253,0.0980009400248527,-1.6506769569933413,0.4784412086009979,-0.6796621084213257,-0.6202042102813721
1783201545389906200,7.01990625,0.8539394268199801,0.0906973390132188,-1.615134518969059,0.5201992988586426,-0.8185667395591736,-0.6335150003433228
1783201545399843300,7.02984326171875,0.9869017901107668,0.0086941785871982,-1.495285319751501,0.5488419532775879,-0.976107120513916,-0.6227940320968628
1783201545409780000,7.039780029296875,1.1242258557423948,0.031596915268898,-1.3001175524383783,0.5485460758209229,-1.1052409410476685,-0.5947434902191162
1783201545419717000,7.049717041015625,1.1386430881515144,-0.0020978490620851,-1.086748358002305,0.5280917882919312,-1.172744631767273,-0.5813193321228027
1783201545429654000,7.059654052734375,1.0337108875587582,-0.0853425339818,-0.9045406100273132,0.5097143650054932,-1.1952629089355469,-0.5899136066436768
1783201545439591200,7.069591064453125,0.9403627417758108,-0.1091746604681015,-0.7394441558510064,0.501396119594574,-1.196324110031128,-0.6166043281555176
1783201545449528300,7.0795283203125,0.8752861662313342,-0.0742635060846805,-0.4832961423963308,0.4886485934257507,-1.1705223321914673,-0.6358882784843445
1783201545459465000,7.08946484375,0.711932464069128,-0.1485246740818023,0.0163543379515409,0.4390128850936889,-0.9341312646865844,-0.6549091935157776
1783201545469402000,7.099402099609375,0.427625400839746,-0.288449277600646,0.2123106252938509,0.4090698957443237,-0.7441371083259583,-0.6592024564743042
1783201545479339000,7.109339111328125,0.3867737504914402,-0.3081850746840238,0.1589332553714513,0.3834656774997711,-0.5995557308197021,-0.6342353224754333
1783201545489276200,7.119276123046875,0.5088935249894857,-0.2777577877163887,0.0512391888499259,0.3411003649234772,-0.5017713904380798,-0.569333553314209
1783201545499213300,7.12921337890625,0.6232417887032031,-0.2983610152840614,-0.0876087253481149,0.2806290984153747,-0.4809378385543823,-0.4876070022583008
1783201545509150000,7.13914990234375,0.599256225220859,-0.3008569237530231,-0.2016097830593586,0.2071745693683624,-0.5149051547050476,-0.4094426929950714
1783201545519087000,7.149087158203125,0.470020481237769,-0.1733235997736454,-0.2061415812700986,0.1258525252342224,-0.5844610333442688,-0.3343641757965088
1783201545529024000,7.15902392578125,0.3430395304441452,0.0453062916696071,-0.1365098266392946,0.0401277765631675,-0.6460857391357422,-0.2839481234550476
1783201545538961200,7.168961181640625,0.1085994909286499,0.2361035888135433,-0.0078267481029033,-0.0600785762071609,-0.676872730255127,-0.2634323537349701
1783201545548898300,7.178898193359375,-0.1814808950051665,0.323002120065689,0.0693330639451742,-0.1506068706512451,-0.692115306854248,-0.2686777114868164
1783201545558835000,7.1888349609375,-0.3085042236357927,0.3434370053291321,0.0043032501518726,-0.2183177769184112,-0.6983268857002258,-0.2788555026054382
1783201545568772000,7.198772216796875,-0.3462538163155317,0.3306523425579071,-0.1081587614238262,-0.2646011412143707,-0.7072404623031616,-0.2928352355957031
1783201545578709200,7.208709228515625,-0.3141588883966207,0.3880892170041799,-0.1252870063573122,-0.2955963313579559,-0.7073344588279724,-0.3050990402698517
1783201545588646100,7.218646240234375,-0.2654284674972295,0.4694698616176843,-0.0468593663305044,-0.3098828494548797,-0.6822077631950378,-0.3117702603340149
1783201545598583300,7.228583251953125,-0.2067716958671808,0.5385106646180152,0.0377156904101371,-0.3035590648651123,-0.6390267014503479,-0.3056251406669616
1783201545608520000,7.23852001953125,-0.1751172051921486,0.6031231297820806,0.1248152971923351,-0.2764643132686615,-0.5921148657798767,-0.2815384566783905
1783201545618457000,7.24845703125,-0.0512733833804726,0.6397825891375541,0.0354869084447622,-0.2045550942420959,-0.5778324007987976,-0.2430383414030075
1783201545628393200,7.258393310546875,0.0578960163906216,0.7088543717980385,-0.2177162837296724,-0.1125820353627204,-0.6396563053131104,-0.2041034698486328
1783201545638330000,7.268330078125,0.0250762813284993,0.8181494437754153,-0.2674637727171182,-0.0382448248565197,-0.7035459280014038,-0.1763619631528854
1783201545648267000,7.27826708984375,-0.0720057902857661,0.9051122724354268,-0.0267746096789836,-0.0090845422819256,-0.7111114859580994,-0.1827700585126876
1783201545658204200,7.2882041015625,-0.2012093855649232,0.9555588496029376,0.3001186726063489,-0.0242419242858886,-0.7023518085479736,-0.2375672608613968
1783201545668141000,7.29814111328125,-0.2816460273265838,0.8945897093772888,0.5132482130676508,-0.0636540502309799,-0.6921920776367188,-0.3159142732620239
1783201545678078200,7.308078125,-0.254888368782401,0.894136120390892,0.691165570372343,-0.1196554452180862,-0.6625266671180725,-0.3889768719673157
1783201545688015000,7.31801513671875,-0.1620724301800131,0.8732213426560163,0.8531634740114211,-0.1848147362470626,-0.6127002835273743,-0.4303333461284637
1783201545697952000,7.327951904296875,-0.054243631362915,0.7596908250659704,0.9487152673184872,-0.2474425882101059,-0.5383029580116272,-0.4386877715587616
1783201545707889200,7.33788916015625,0.0739917034059762,0.5945201366096735,0.9905389775693416,-0.3081147372722626,-0.4507936239242553,-0.4392731189727783
1783201545717826000,7.347825927734375,0.1374438926190137,0.4505944807559252,0.8620768483072518,-0.3566605150699615,-0.3733000159263611,-0.4422981739044189
1783201545727763200,7.35776318359375,0.2218400856614112,0.3406646180063485,0.7455559167295694,-0.3976614773273468,-0.2993277907371521,-0.4489328861236572
1783201545737700000,7.3677001953125,0.3648147244006395,0.2565121705919504,0.5711030206650495,-0.4129324555397033,-0.2387634962797165,-0.4623076617717743
1783201545747637000,7.377636962890625,0.5776765538364649,0.1234153672665357,0.2443535307645797,-0.3806639909744262,-0.2227073013782501,-0.4624996781349182
1783201545757574100,7.38757421875,0.8160001567870379,-0.0105646486341953,-0.0886310541331768,-0.3050595223903656,-0.2354074716567993,-0.4324424862861633
1783201545767511000,7.397510986328125,1.0203355654180049,-0.0195440739035606,-0.41455344555974,-0.2061356008052826,-0.2995278835296631,-0.386330634355545
1783201545777448200,7.4074482421875,1.1157543799951672,0.0177723880559206,-0.5838771620422601,-0.111903540790081,-0.4018549025058746,-0.3485010862350464
1783201545787385300,7.41738525390625,1.1471090109407902,0.0484673860490322,-0.5712351226121187,-0.0533656626939773,-0.5210534930229187,-0.32021564245224
1783201545797322000,7.427322021484375,1.090862515322864,0.115999538052082,-0.3358195160627364,-0.0587368458509445,-0.6018769145011902,-0.2959154844284057
1783201545807259100,7.437259033203125,0.9127245010048152,0.2091758343994617,0.0353700040668249,-0.1147327274084091,-0.6674360036849976,-0.2851685583591461
1783201545817196000,7.447196044921875,0.6351219038501381,0.2485550741076469,0.321426249051094,-0.1986985802650451,-0.7058841586112976,-0.291140079498291
1783201545827132200,7.457132080078125,0.4294216366067528,0.2688438288986682,0.6227028595209121,-0.3068647086620331,-0.6743478178977966,-0.3193762600421905
1783201545837069000,7.467069091796875,0.2666200153693556,0.1872773063242435,0.8176362335562706,-0.4211662709712982,-0.5967751741409302,-0.3649889826774597
1783201545847006200,7.477006103515625,0.1334577455922961,0.0107458504199981,0.7797720745861529,-0.4946380853652954,-0.5106309652328491,-0.4191393256187439
1783201545856943000,7.486943115234375,0.191567696994543,-0.1288707100629806,0.5092471607327461,-0.4990467727184295,-0.4644929766654968,-0.4565847218036651
1783201545866880300,7.49688037109375,0.5552420191884041,-0.2151093161016702,-0.0187906251877546,-0.4469550848007202,-0.5359171032905579,-0.4425655603408813
1783201545876817200,7.506817138671875,1.0268751963198184,-0.3160118227869272,-0.4346089761167764,-0.362560361623764,-0.6822147965431213,-0.4013847112655639
1783201545886754000,7.516754150390625,1.1971201193004846,-0.4044184205144643,-0.5097796601742506,-0.2764369547367096,-0.7904803156852722,-0.3473736643791199
1783201545896691200,7.526691162109375,1.1594716489076613,-0.3677028470575809,-0.2176508172780275,-0.2165146023035049,-0.8025556206703186,-0.2824092209339142
1783201545906628000,7.536628173828125,0.9812100082099438,-0.2194265947788953,0.2194073055565357,-0.1965094655752182,-0.7738052010536194,-0.2543003559112549
1783201545916565200,7.546565185546875,0.6975994028121233,-0.0118991121083498,0.5386626403093338,-0.2104530483484268,-0.7265745401382446,-0.2685860097408294
1783201545926502100,7.556502197265625,0.4285366704657674,0.1517354528218507,0.7805489041775464,-0.2400413006544113,-0.6635340452194214,-0.3166477978229522
1783201545936439000,7.56643896484375,0.2618403798773884,0.2270481756985187,0.9214438140332698,-0.2611931264400482,-0.5710374712944031,-0.3753711283206939
1783201545946376200,7.576376220703125,0.1950333272784948,0.2239712524712085,1.016333344039321,-0.2881326079368591,-0.4750523269176483,-0.4242372214794159
1783201545956313000,7.58631298828125,0.2182642730012536,0.1666875227600336,1.0402461345463991,-0.3059054911136627,-0.3932465612888336,-0.4625798463821411
1783201545966250200,7.596250244140625,0.2335384145006537,-0.0022048165678977,0.9049971216231584,-0.3133026957511902,-0.3457650542259216,-0.4716657400131225
1783201545976187100,7.606187255859375,0.2464052025973796,-0.1646627389341592,0.6673194153606892,-0.3127536177635193,-0.3338398933410644,-0.4508549273014068
1783201545986123000,7.616123046875,0.2431318800151348,-0.2212929731726646,0.4369926563829183,-0.3216480314731598,-0.3392373323440552,-0.416695088148117
1783201545996060200,7.62606005859375,0.2138581469967961,-0.1335655898809433,0.27208558729887,-0.3357149064540863,-0.3881635665893554,-0.3766852915287018
1783201546005997000,7.6359970703125,0.2076326966106891,0.1145575225502252,0.2196376071810722,-0.3589190244674682,-0.4859045147895813,-0.323501706123352
1783201546015934200,7.645934326171875,0.1281233988270163,0.3712392044901847,0.2931225301086902,-0.408303827047348,-0.5892192125320435,-0.2591462135314941
1783201546025871000,7.65587109375,-0.0081450202718377,0.5805009636074304,0.526354947400093,-0.4937199056148529,-0.6611059308052063,-0.1906491667032241
1783201546035808000,7.66580810546875,-0.1949091163769364,0.7363701552331448,0.7967553580909967,-0.6027539372444153,-0.6785171031951904,-0.1576244682073593
1783201546045745200,7.6757451171875,-0.4806494272798299,0.8794985232293605,0.9978086763113736,-0.7104052901268005,-0.6696538329124451,-0.1963108777999878
1783201546055682300,7.685682373046875,-0.8069292538419366,0.9455880752086638,0.954409095045924,-0.7700955271720886,-0.6446609497070312,-0.2795543670654297
1783201546065619200,7.695619140625,-0.989551720097661,0.9707190093338488,0.7621300349116324,-0.7515135407447815,-0.62152498960495,-0.3596377372741699
1783201546075556000,7.70555615234375,-1.0130889552906155,1.0311416215926408,0.6007809505701065,-0.6813353300094604,-0.6095706820487976,-0.4430562555789947
1783201546085493000,7.715492919921875,-0.967990461152792,1.1981412790417671,0.642341625970602,-0.5906395316123962,-0.5981811285018921,-0.5372269749641418
1783201546095430100,7.72543017578125,-0.977656407381594,1.3475614406585692,0.8462766371071339,-0.5169932246208191,-0.5535625219345093,-0.6285743713378906
1783201546105367300,7.7353671875,-0.943948783569038,1.5167022017896177,1.2111129888176917,-0.4702712595462799,-0.4554229080677032,-0.7134733200073242
1783201546115303000,7.745302978515625,-0.8022975023880601,1.582034213399887,1.533344124510884,-0.461380273103714,-0.3316928446292877,-0.8129909634590149
1783201546125240000,7.755239990234375,-0.6915607071697711,1.3687380842000243,1.69133629963994,-0.4797883033752441,-0.203514888882637,-0.9465897679328918
1783201546135177200,7.76517724609375,-0.5446197951480746,0.970989058446884,1.5696026018500326,-0.4905704259872436,-0.0878495052456855,-1.0741400718688965
1783201546145114000,7.775114013671875,-0.194066820333898,0.5806815808713436,1.2960311599075791,-0.4863397181034088,0.0046497983857989,-1.1572445631027222
1783201546155051300,7.78505126953125,0.1480450738713145,0.2863911760270595,0.9883499430924654,-0.4712986946105957,0.1020205616950988,-1.1885219812393188
1783201546164988200,7.79498828125,0.5644853560909628,-0.0169967275083065,0.8075392024338245,-0.478936105966568,0.2181556820869445,-1.1696940660476685
1783201546174925000,7.804925048828125,1.1054460442095997,-0.5382663344681262,0.5375017798364162,-0.5070000886917114,0.2977563440799713,-1.1096816062927246
1783201546184862200,7.8148623046875,1.7090294849798082,-1.2224971371412277,0.1279237846016883,-0.5752809047698975,0.3699943125247955,-0.9612793922424316
1783201546194799000,7.824799072265625,2.6206644371822474,-1.9022458259642123,-0.2399865677267313,-0.652736246585846,0.4308576285839081,-0.7468419075012207
1783201546204736300,7.834736328125,3.60814344265908,-2.706094357186556,-0.7396598444283008,-0.7116504311561584,0.4399224817752838,-0.4689796268939972
1783201546214673200,7.844673095703125,4.175619212737679,-3.4367519799917936,-1.2692723323196171,-0.7035961151123047,0.3848963677883148,-0.1968352943658828
1783201546224609000,7.854609130859375,4.303112789228559,-3.743759827589989,-1.8015858958631752,-0.6344794034957886,0.2439411282539367,0.0694456472992897
1783201546234546200,7.864546142578125,4.193275280937552,-3.71165963897407,-2.1175077022790907,-0.5502110719680786,0.0682384073734283,0.3112514913082123
1783201546244483300,7.8744833984375,3.90917280036956,-3.4375369928896427,-2.1975340096741918,-0.4862757921218872,-0.0375721827149391,0.4821217656135559
1783201546254420000,7.884419921875,3.509878006479144,-3.153271722975373,-2.149189373221993,-0.4535755217075348,-0.0873598083853721,0.5775287747383118
1783201546264357000,7.894357177734375,3.1485400182783603,-3.0598399905622005,-2.159458838301897,-0.4337437450885772,-0.1494913548231125,0.6075026988983154
