time,seconds_elapsed,ax,ay,az,gx,gy,gz
1783202310785345500,0.088345458984375,-0.0913107947364449,0.5683394011706113,1.0961538997292517,0.0264107007533311,-0.1447552591562271,-0.3153364360332489
1783202310795282400,0.098282470703125,-0.030801892433688,0.7917553578466177,1.2739859168380498,-0.0542549639940261,-0.1382468938827514,-0.3241112828254699
1783202310805219300,0.10821923828125,0.0047219870205968,0.9485729362383484,1.4715215823262928,-0.1609947234392166,-0.1161980479955673,-0.3250133097171783
1783202310815156500,0.118156494140625,-0.0175287885583937,1.036403195382655,1.7347423106461763,-0.2886135876178741,-0.0943213403224945,-0.3214944005012512
1783202310825092600,0.128092529296875,-0.1224579204112291,1.0823919163584708,1.993016814735532,-0.428838849067688,-0.0772614032030105,-0.327113926410675
1783202310835029200,0.138029296875,-0.2687585617680102,1.085636889629066,2.226793421906233,-0.5894048810005188,-0.0711913034319877,-0.3424654901027679
1783202310844966400,0.14796630859375,-0.4393338126815855,1.0272703331172466,2.4289064783126117,-0.7759861946105957,-0.093355193734169,-0.3675910830497741
1783202310854903600,0.157903564453125,-0.6154305304303765,0.9218456728324294,2.568044899889826,-0.9973815679550172,-0.1631620675325393,-0.3866251707077026
1783202310864839700,0.167839599609375,-0.8131446212254464,0.7590937359556555,2.629860427811741,-1.2459242343902588,-0.2344133406877517,-0.4250394105911255
1783202310874776300,0.1777763671875,-1.0453634775601326,0.5114557766929269,2.684195244589448,-1.5104957818984983,-0.3121069669723511,-0.4829084277153015
1783202310884713500,0.18771337890625,-1.2391175786830484,0.16605068616122,2.645355518585444,-1.7852191925048828,-0.3999215066432953,-0.5761664509773254
1783202310894650400,0.197650390625,-1.2401090739384293,-0.2283070897184312,2.38015793723464,-2.032254695892334,-0.5409157276153564,-0.691852331161499
1783202310904587500,0.20758740234375,-0.8904396770257502,-0.6959216788582503,1.7192308532595633,-2.204206943511963,-0.7414882183074951,-0.7890238761901855
1783202310914523400,0.2175234375,-0.2711074629817158,-1.2423938238747416,0.5047901813238859,-2.2678630352020264,-0.8603367209434509,-0.8112879991531372
1783202310924460300,0.227460205078125,0.0491820371244102,-1.7001425602994855,-0.5810130047827958,-2.185030698776245,-0.8833837509155273,-0.7767359018325806
1783202310934397400,0.2373974609375,0.1056210596397519,-1.8374695485405623,-1.5391232924342155,-1.9879624843597408,-0.8530071973800659,-0.7056798338890076
1783202310944334600,0.24733447265625,-0.117783352728933,-1.8345042689941824,-2.5478812327831983,-1.674283742904663,-0.7564734816551208,-0.624057948589325
1783202310954270500,0.2572705078125,-0.4165642008602619,-1.881536361543089,-3.410212348112464,-1.275234937667847,-0.6133015155792236,-0.5633281469345093
1783202310964207400,0.267207275390625,-0.6935005891911685,-1.9478664442799984,-4.020279597944021,-0.8309805393218994,-0.4658468067646026,-0.5523380637168884
1783202310974144500,0.27714453125,-0.929023455507308,-1.9944383719712493,-4.445516934603452,-0.3818775713443756,-0.2918450534343719,-0.5978082418441772
1783202310984081400,0.287081298828125,-1.0856550098076465,-1.9242634503744545,-4.515677681544423,0.0270739905536174,-0.1270169466733932,-0.692347526550293
1783202310994017300,0.297017333984375,-1.142373068460077,-1.755169158733636,-4.291071053779125,0.3913823962211609,-0.0094052925705909,-0.8086378574371338
1783202311003954400,0.306954345703125,-1.1121315133228895,-1.4619377614229916,-4.013302160146832,0.6909542083740234,0.068132109940052,-0.9043660163879396
1783202311013891600,0.3168916015625,-0.9789185362718998,-1.190844838423282,-3.579175999110937,0.9258875250816344,0.1170317232608795,-0.950536847114563
1783202311023828500,0.326828369140625,-0.7670362193927168,-0.992904829917848,-3.0439708057790997,1.0945963859558103,0.1464500725269317,-0.9604735970497132
1783202311033765600,0.336765625,-0.5490640612058341,-0.7919510265491903,-2.5364269418329,1.2065422534942627,0.1236299723386764,-0.941881000995636
1783202311043701500,0.346701416015625,-0.3017746961850673,-0.5173454192534089,-2.139111631321907,1.2865196466445925,0.0801765024662017,-0.8977034091949463
1783202311053638400,0.356638427734375,-0.0556223723702132,-0.2453254445366561,-1.79018187379539,1.3493092060089111,0.0463832877576351,-0.8402093648910522
1783202311063575600,0.366575439453125,0.0891289937179535,0.014664485168457,-1.3389485106140375,1.388972520828247,0.0491737462580204,-0.7845886945724487
1783202311073512700,0.3765126953125,0.1376343736898154,0.318724004355073,-0.8487140933871269,1.4046783447265625,0.0711715891957283,-0.746411919593811
1783202311083449600,0.38644970703125,0.1031851377297192,0.6766219351045787,-0.3502566222161054,1.3837751150131226,0.1004024446010589,-0.7133005857467651
1783202311093385700,0.3963857421875,0.0623380904912948,1.0198488048143683,0.1133317801475524,1.3276008367538452,0.1343337744474411,-0.6945886611938477
1783202311103322600,0.406322509765625,0.0263804227296262,1.2813647750429809,0.5955144083440304,1.2302314043045044,0.1583110243082046,-0.6828731298446655
1783202311113259800,0.416259765625,0.0404313060443848,1.501676774354279,1.0341752902001142,1.1055457592010498,0.1726434379816055,-0.6754709482192993
1783202311123196700,0.42619677734375,0.0893717894978821,1.6769167291432618,1.421667710354924,0.96498304605484,0.1629346311092376,-0.6683528423309326
1783202311133132800,0.4361328125,0.1573355378512293,1.8335525212273,1.7795114266991614,0.798855185508728,0.1321224272251129,-0.6602646112442017
1783202311143069700,0.446069580078125,0.2314332589149475,2.010530844116211,2.063475667840242,0.6116876602172852,0.0807196944952011,-0.6596425175666809
1783202311153006800,0.4560068359375,0.29303441343382,2.133461934997141,2.290704460802674,0.3952155709266662,0.0137706808745861,-0.6606772541999817
1783202311162943500,0.465943603515625,0.3313074454657733,2.1888658423110843,2.4696271957576275,0.1825693547725677,-0.0922289937734603,-0.6609494090080261
1783202311172880600,0.475880615234375,0.3666900898184627,2.226214745235443,2.4702520496577023,-0.022428773343563,-0.1714412122964859,-0.6644559502601624
1783202311182816800,0.485816650390625,0.453755867396295,2.2092305849477647,2.373665652605891,-0.2152179330587387,-0.2099460065364837,-0.6466098427772522
1783202311192753700,0.495753662109375,0.7835255819007754,2.0942013532325623,2.266568382933736,-0.3987154066562652,-0.2470760643482208,-0.5845487117767334
1783202311202690600,0.505690673828125,1.1509678052607923,1.854034752763808,1.9084516948670147,-0.5654207468032837,-0.2959685027599334,-0.4750925004482269
1783202311212627700,0.515627685546875,1.4641513458192348,1.4747525270715356,1.5149708479523658,-0.7122931480407715,-0.3703666627407074,-0.3277105391025543
1783202311222564600,0.525564697265625,1.5715578275710342,1.012423769380152,1.022976435315609,-0.8237014412879944,-0.4595530033111572,-0.1774741858243942
1783202311232500700,0.535500732421875,1.330828917044401,0.5833993153974414,0.5391688362658024,-0.9031614661216736,-0.5283838510513306,-0.0672689229249954
1783202311242437600,0.545437744140625,0.9108837685089558,0.1761354423239827,0.0728939712971448,-0.9388136863708496,-0.569290280342102,-0.0121848918497562
1783202311252374500,0.55537451171875,0.4124354304924607,-0.2419850480675697,-0.4567909973084926,-0.9176255464553832,-0.6008234024047852,-0.017485499382019
1783202311262311700,0.565311767578125,0.0038778643466532,-0.6582298077151179,-1.1248889958262442,-0.8365634679794312,-0.5816636085510254,-0.07150799036026
1783202311272248800,0.575248779296875,-0.388778587507829,-1.0194742724135517,-1.7269459576815365,-0.7127622961997986,-0.4879573881626129,-0.1523488312959671
1783202311282184700,0.585184814453125,-0.6907172420829534,-1.2997262150332332,-2.140046866345405,-0.5568656325340271,-0.3494269251823425,-0.2447980642318725
1783202311292121600,0.59512158203125,-0.9134542035188524,-1.5195689893975852,-2.4616443803101777,-0.37465700507164,-0.1834185421466827,-0.3382337987422943
1783202311302058800,0.605058837890625,-1.0383384012289345,-1.6299423581309616,-2.6460195354521274,-0.1740554720163345,-0.0224999710917472,-0.4297157824039459
1783202311311995600,0.61499560546875,-1.094601117329299,-1.5938472546599805,-2.691548529961705,0.0274663269519805,0.1178540140390396,-0.5098652839660645
1783202311321932800,0.624932861328125,-1.0774586977399885,-1.458503403060138,-2.622901694715023,0.2294292896986007,0.2004839181900024,-0.5730442404747009
1783202311331869700,0.63486962890625,-0.9516592118158936,-1.2688608289092778,-2.440406946492195,0.4271659255027771,0.2219161689281463,-0.60808926820755
1783202311341805800,0.644805908203125,-0.777556444363296,-1.025238535028696,-2.2138065145611763,0.6137275099754333,0.2161621451377868,-0.6179776191711426
1783202311351742700,0.65474267578125,-0.6095287590406835,-0.8035793588921427,-1.9262556471049783,0.7811653017997742,0.1816370636224746,-0.6113215088844299
1783202311361680000,0.664679931640625,-0.5269643845353276,-0.5892334283784032,-1.6164409253925085,0.9267690777778624,0.1231940016150474,-0.5974288582801819
1783202311371616500,0.674616455078125,-0.4781636018134653,-0.3934302857711911,-1.360920688447356,1.0461561679840088,0.0680240988731384,-0.583347737789154
1783202311381553700,0.6845537109375,-0.5001902132477611,-0.2862643347769975,-1.0661819553136824,1.1352535486221311,0.042648434638977,-0.5951982736587524
1783202311391489800,0.69448974609375,-0.5819939055789262,-0.1730705017954111,-0.7398860543996095,1.178151249885559,0.0349058508872985,-0.6213178634643555
1783202311401426700,0.7044267578125,-0.6524363920707256,-0.0336637846708297,-0.4273743486881255,1.1796594858169556,0.044033832848072,-0.6541860699653625
1783202311411363600,0.714363525390625,-0.6733683401361107,0.1143923951163888,-0.126005383759737,1.1425793170928955,0.0621401146054267,-0.6856482028961182
1783202311421300700,0.72430078125,-0.6565748801149428,0.2572805246159434,0.1800596300303936,1.067657709121704,0.0672653689980506,-0.7018516063690186
1783202311431237600,0.734237548828125,-0.5930472145128994,0.331081381624937,0.4568529566287994,0.965108036994934,0.0292632617056369,-0.7026807069778442
1783202311441174800,0.7441748046875,-0.5960170971691608,0.272734698857367,0.5745312415480613,0.8499031662940979,-0.0175284780561923,-0.7036280035972595
1783202311451110700,0.754110595703125,-0.7006667544934898,0.1627729796648025,0.6788894416451454,0.7341188192367554,-0.0396027788519859,-0.732933759689331
1783202311461047600,0.764047607421875,-0.8540313428871333,0.1120540152966976,0.8073954100489615,0.6383054852485657,-0.0492412932217121,-0.7928647398948669
1783202311470984700,0.773984619140625,-0.9862653188381344,0.18972703756392,0.9111679192125796,0.552970290184021,-0.0485767647624015,-0.8711951375007629
1783202311480921900,0.783921875,-1.0223114686008543,0.3349608534067869,1.0146300472527745,0.4661283195018768,-0.0469080284237861,-0.9546809196472168
1783202311490858800,0.793858642578125,-0.9555821574132888,0.4261021367952227,1.0954589032024145,0.3664515912532806,-0.0391830988228321,-1.026360034942627
1783202311500795600,0.803795654296875,-0.8342991260003298,0.4697027935907244,1.1726216378599406,0.256441205739975,-0.0242318473756313,-1.0866305828094482
1783202311510731800,0.813731689453125,-0.661588105167076,0.4971010881260037,1.2507535098105669,0.1317722201347351,-0.0084978574886918,-1.1233617067337036
1783202311520668700,0.823668701171875,-0.4775883226761594,0.5273270073026418,1.29638421112895,0.0155835645273327,-0.0112414462491869,-1.1354875564575195
1783202311530605800,0.833605712890625,-0.2960013369480148,0.5564104784458875,1.310735392564535,-0.0872189179062843,-0.0485155768692493,-1.129053235054016
1783202311540542700,0.843542724609375,-0.133010988205485,0.6453752945780754,1.253217269575596,-0.1727420836687088,-0.0800284892320633,-1.1063854694366455
1783202311550479600,0.853479736328125,-0.0138691700723022,0.7731035566076636,1.2552601735800504,-0.2290203273296356,-0.0910168215632438,-1.0786627531051636
1783202311560415700,0.863415771484375,0.112766036023572,0.959855085492134,1.3074328438878058,-0.2683940827846527,-0.0970725864171981,-1.0474591255187988
1783202311570353000,0.873352783203125,0.2071680017083883,1.179990997584164,1.2978957847356796,-0.2965241074562073,-0.112308993935585,-1.0182353258132937
1783202311580289500,0.88328955078125,0.3625835312824696,1.3952815154716371,1.326550801333785,-0.3205801844596863,-0.1369751989841461,-0.979263722896576
1783202311590226700,0.893226806640625,0.5643513909803703,1.588602485874295,1.2688012076765298,-0.3574336171150207,-0.1505960375070572,-0.924658477306366
1783202311600163600,0.90316357421875,0.7683586271028965,1.7583043880194424,1.336399995175004,-0.4017035961151123,-0.155948981642723,-0.8648340106010437
1783202311610100700,0.913100830078125,0.932048940808326,1.9620202034473415,1.435897895759344,-0.4783736169338226,-0.1857716590166092,-0.8144152760505676
1783202311620038000,0.923037841796875,0.9979268227983266,2.204074517358839,1.502826821172237,-0.5855717062950134,-0.2244961559772491,-0.7714696526527405
1783202311629973800,0.932973876953125,1.0233007718991487,2.378942716225981,1.5973539476066827,-0.7380654215812683,-0.2777549624443054,-0.7250805497169495
1783202311639910700,0.94291064453125,1.0763998363368212,2.3880893147557973,1.6656430554568766,-0.9217385649681092,-0.342260479927063,-0.6678417921066284
1783202311649847800,0.952847900390625,1.2027001844551413,2.188378058794141,1.5793483353167772,-1.1430745124816897,-0.4119257926940918,-0.6025575399398804
1783202311659784700,0.96278466796875,1.2818728706955909,1.8902607891380785,1.4044360050469635,-1.3728210926055908,-0.502249002456665,-0.527936577796936
1783202311669721600,0.9727216796875,1.3474452669329942,1.5513932836815714,0.9612322190642356,-1.584209680557251,-0.553002119064331,-0.4393130242824554
1783202311679658800,0.98265869140625,1.2997256305113434,1.1274150071725249,0.4107452854484319,-1.7410036325454712,-0.5410724878311157,-0.3538202345371246
1783202311689594600,0.9925947265625,1.0953598998073488,0.7143833643525839,-0.1398907012492418,-1.824128031730652,-0.5125519037246704,-0.2829504609107971
1783202311699531800,1.00253173828125,0.7991548204481601,0.3575660684466362,-0.8436533028662204,-1.8123416900634768,-0.4624514877796173,-0.2409116625785827
1783202311709468700,1.01246875,0.4931915865320712,0.074280311089009,-1.4753320805251595,-1.7152414321899414,-0.3752368986606598,-0.2101710736751556
1783202311719405600,1.022405517578125,0.2210644981790334,-0.2425780455246567,-2.0291981351852417,-1.556878924369812,-0.2499274462461471,-0.1952869296073913
1783202311729342700,1.0323427734375,-0.0048050621941685,-0.6102462596602738,-2.458403790953755,-1.3550293445587158,-0.1079544574022293,-0.1912231296300888
1783202311739280000,1.04227978515625,-0.1835015141125768,-0.9785473648719488,-2.756542687919736,-1.1270984411239624,-0.0019465330988168,-0.2008302211761474
1783202311749216800,1.052216796875,-0.3823823836646974,-1.31102896868363,-3.017204379406571,-0.8848715424537659,0.0598056837916374,-0.2251590341329574
1783202311759153700,1.062153564453125,-0.5585915488120168,-1.572011708818376,-3.214353091403842,-0.6300948858261108,0.1023499444127082,-0.2703600525856018
1783202311769089800,1.07208984375,-0.6925520562946796,-1.7410590925775469,-3.307413067895174,-0.3584739565849304,0.1163943260908126,-0.3272268176078796
1783202311779026700,1.082026611328125,-0.7702391070872545,-1.734436897958815,-3.3146728297650814,-0.063325397670269,0.1002284064888954,-0.3800210356712341
1783202311788963800,1.0919638671875,-0.7563357424844056,-1.617767790082097,-3.283571589058637,0.2447369694709777,0.0647161155939102,-0.4073873162269592
1783202311798900500,1.101900390625,-0.6351962842606008,-1.4579090904287992,-3.20704598326087,0.5451673269271851,0.0482186339795589,-0.392529547214508
1783202311808837600,1.111837646484375,-0.4708963872894644,-1.3285972124695775,-2.952200284576416,0.8318416476249695,0.0101802377030253,-0.3421524167060852
1783202311818774800,1.12177490234375,-0.4326497318077832,-1.1627910025887191,-2.69385329977274,1.1064660549163818,-0.0365401282906532,-0.2854436039924621
1783202311828711700,1.131711669921875,-0.4564533993845805,-1.0447232799604536,-2.5029262387692928,1.3572607040405271,-0.0456470474600791,-0.2459048330783844
1783202311838647600,1.1416474609375,-0.5638211200285702,-0.9903181744255124,-2.0949825667381283,1.5682215690612793,-0.0701766237616539,-0.2460478395223617
1783202311848584700,1.151584716796875,-0.7808730946306138,-0.9363524832211434,-1.728034337440133,1.7408673763275146,-0.1244573965668678,-0.2950963079929352
1783202311858521600,1.161521484375,-1.042588606019318,-0.8076870864719152,-1.3856974023073911,1.8765416145324707,-0.158591940999031,-0.3847332298755646
1783202311868458800,1.171458740234375,-1.2209873171001673,-0.6379954134598373,-0.9471464105665685,1.9711060523986816,-0.1596477776765823,-0.4904194176197052
1783202311878396000,1.18139599609375,-1.2720786219120024,-0.3918450624063611,-0.5002712425947189,2.015819787979126,-0.1489623785018921,-0.592094898223877
1783202311888332500,1.19133251953125,-1.2324885159321128,-0.1140644783362746,-0.0676537325561046,2.008553981781006,-0.1306233257055282,-0.6808364987373352
1783202311898269700,1.201269775390625,-1.119327416176349,0.1588786025747656,0.3786684777081012,1.9415689706802368,-0.1347357779741287,-0.7473084926605225
1783202311908206600,1.21120654296875,-0.9635480217259376,0.3889773980155587,0.8424298985511064,1.821029543876648,-0.1665866523981094,-0.7927095293998718
1783202311918142700,1.221142822265625,-0.7912884709872305,0.498249381378293,1.2761486478298902,1.6401281356811523,-0.2114427983760833,-0.8267529606819153
1783202311928079600,1.23107958984375,-0.6477411469265818,0.5454299424871802,1.6841513565719126,1.420189380645752,-0.2638684511184692,-0.8551204204559326
1783202311938016800,1.241016845703125,-0.5690338862407952,0.6290855462953447,2.008534701862931,1.163749933242798,-0.3089930415153503,-0.9002047777175903
1783202311947953700,1.25095361328125,-0.5765873703602701,0.7548392933815717,2.295194173437357,0.8830028772354126,-0.3282060623168945,-0.9532885551452636
1783202311957890800,1.260890869140625,-0.630192192362994,0.8845438239201903,2.5201556059896943,0.6054514050483704,-0.316137433052063,-1.0079885721206665
1783202311967827700,1.27082763671875,-0.6592464374117553,0.9967480613425374,2.67408360041976,0.336197018623352,-0.3033697009086609,-1.06756591796875
1783202311977764600,1.2807646484375,-0.6973080917153507,1.0790361761897802,2.7592075232148168,0.0769742578268051,-0.3054953813552856,-1.131696701049805
1783202311987701800,1.29070166015625,-0.7266335549209266,1.1571066733419897,2.7604905487626787,-0.1618609577417373,-0.3373750448226928,-1.1917847394943235
1783202311997637600,1.3006376953125,-0.658009442962706,1.2283324191659688,2.7057939129352566,-0.3721849024295807,-0.3749695420265198,-1.239647626876831
1783202312007574800,1.31057470703125,-0.4501976634580641,1.2930302245259284,2.6149264780521397,-0.5564426183700562,-0.408338725566864,-1.2616020441055298
1783202312017511700,1.32051171875,-0.1033208564059808,1.329213883063197,2.45733236232996,-0.7120181322097778,-0.4858518838882446,-1.259411096572876
1783202312027448600,1.330448486328125,0.3055690834993496,1.3765826602205633,2.1197651258170604,-0.8392015695571899,-0.5788044929504395,-1.2133654356002808
1783202312037385700,1.3403857421875,0.6665721041247248,1.4444050273418425,1.7134844185620546,-0.9352617263793944,-0.6529370546340942,-1.1265242099761963
1783202312047322600,1.350322509765625,0.9958592227440328,1.5025938891991972,1.2989081766486168,-0.992672860622406,-0.6858417987823486,-1.0105875730514526
1783202312057259800,1.360259765625,1.2397136448800563,1.5422501922830938,0.879212107503414,-1.017837405204773,-0.6934744119644165,-0.87949538230896
1783202312067196700,1.37019677734375,1.369430742639303,1.58125475345999,0.4058937537640333,-1.0260040760040283,-0.6670916676521301,-0.7521539926528931
1783202312077135400,1.38013525390625,1.3591207994185388,1.6337959648191929,-0.0365741191595792,-0.9977907538414,-0.5945884585380554,-0.6352676153182983
1783202312087071500,1.390071533203125,1.2265214242212474,1.6590034713119268,-0.4201806377917528,-0.953105092048645,-0.5296379327774048,-0.5387722849845886
1783202312097008000,1.400008056640625,1.0404133808720857,1.6492343569695949,-0.8491852180302143,-0.8932873010635376,-0.4886670708656311,-0.476506233215332
1783202312106945300,1.4099453125,0.9673941026948392,1.5771408884003757,-1.2914596142083403,-0.810222327709198,-0.4445253610610962,-0.4408307671546936
1783202312116882400,1.41988232421875,1.0555269249822945,1.5292249987542628,-1.6379437321484087,-0.6915369629859924,-0.4121026992797851,-0.3943958878517151
1783202312126819300,1.4298193359375,1.1977543255507943,1.5601935529917477,-1.983950880226493,-0.5582884550094604,-0.3785960376262665,-0.3191920518875122
1783202312136756500,1.439756591796875,1.3698437073543668,1.6374091868802905,-2.2580478073477743,-0.4182399809360504,-0.3252193629741668,-0.2099763602018356
1783202312146693000,1.449693115234375,1.5477332998692988,1.737883531281352,-2.371823239609599,-0.2719780206680298,-0.2493966072797775,-0.0833144262433052
1783202312156630300,1.45963037109375,1.7057646379649638,1.838959056445956,-2.389368833172321,-0.1154536679387092,-0.1774230748414993,0.0618278570473194
1783202312166567400,1.4695673828125,1.841704263500869,1.8681185154348607,-2.4514134936749934,0.0419861897826194,-0.1367954015731811,0.2171496748924255
1783202312176503300,1.47950341796875,1.9635814614146947,1.787345189064741,-2.554782682734728,0.1986194849014282,-0.1384481489658355,0.3712886273860931
1783202312186440200,1.489440185546875,2.0149401849910618,1.671373708063364,-2.648809458431601,0.3492271900177002,-0.1281370222568512,0.5255154371261597
1783202312196377300,1.49937744140625,1.9354896316573025,1.5540136953130363,-2.674545372712612,0.4871565699577331,-0.0872346013784408,0.6560380458831787
1783202312206314200,1.509314208984375,1.685272615686804,1.4824588636651634,-2.601243405136466,0.5908175110816956,-0.0040338258258998,0.7507805228233337
1783202312216251400,1.51925146484375,1.3210790919244288,1.510500132279098,-2.433804771748185,0.6638568043708801,0.1046641618013382,0.8073833584785461
1783202312226188500,1.5291884765625,0.9779386583890766,1.5753522514179348,-2.2091659952789544,0.7084856033325195,0.2410488724708557,0.8471421003341675
1783202312236125200,1.539125244140625,0.7492319748938083,1.5781313607424496,-1.9182529579132797,0.7355995178222656,0.381914883852005,0.875332772731781
1783202312246062300,1.549062255859375,0.6641971916869283,1.5577856150671838,-1.6142068827301264,0.7567198872566223,0.4983776211738586,0.9232466220855712
1783202312255999200,1.558999267578125,0.6746799341913312,1.545105289453268,-1.3376689921975136,0.7679592370986938,0.5793625116348267,0.983409583568573
1783202312265936400,1.568936279296875,0.7191697218462825,1.5291700536966324,-1.019421373182535,0.773867666721344,0.6346652507781982,1.050093412399292
1783202312275873500,1.57887353515625,0.7556511212211102,1.536910292559862,-0.6663309888452291,0.7814393043518066,0.6652702689170837,1.1197081804275513
1783202312285809200,1.58880908203125,0.7282743809305131,1.5711831490397452,-0.3351753729403018,0.7606098055839539,0.6866920590400696,1.177055597305298
1783202312295746300,1.598746337890625,0.6100893885981291,1.628164973194897,0.0375087696611881,0.7106097936630249,0.6898345947265625,1.224769115447998
1783202312305683500,1.608683349609375,0.4670479682330042,1.6579788044393062,0.4404407510101795,0.6443037986755371,0.6849403381347656,1.265722393989563
1783202312315620400,1.618620361328125,0.3207951115407049,1.651107165104151,0.7494289587706326,0.5692772269248962,0.6540867686271667,1.289724349975586
1783202312325557200,1.62855712890625,0.1562512497458607,1.6566583694905042,0.9861159004300832,0.4890302717685699,0.61545729637146,1.289803981781006
1783202312335494400,1.638494384765625,-0.0432464365303516,1.636201272395253,1.2188333539366722,0.4052221775054931,0.5699385404586792,1.2763696908950806
1783202312345431300,1.648431396484375,-0.2436787733081728,1.6297215549871324,1.4321803365409371,0.3143959045410156,0.519578754901886,1.2413051128387451
1783202312355368400,1.658368408203125,-0.3704897012971341,1.5700395319625735,1.6107055966109036,0.1973749995231628,0.4831344783306122,1.2167283296585083
1783202312365305300,1.668305419921875,-0.4031403634026646,1.3888108581528067,1.8014993866235016,0.0448781102895736,0.4355848133563995,1.2103351354599
1783202312375242200,1.6782421875,-0.3400499932393431,1.1137696359187363,1.8982400974541904,-0.1437061876058578,0.4011693298816681,1.2227908372879028
1783202312385179400,1.688179443359375,-0.2614906896568835,0.8103150968879461,1.9636229624688624,-0.3375784754753113,0.3793298602104187,1.2456403970718384
1783202312395116300,1.6981162109375,-0.2327202299855649,0.5413312749966979,2.0298715044021605,-0.5111044645309448,0.353600800037384,1.2635360956192017
1783202312405052400,1.708052490234375,-0.2588477008674293,0.3283499108344316,1.989502669134736,-0.650518536567688,0.324714332818985,1.2625857591629028
1783202312414989300,1.7179892578125,-0.3407157636716961,0.1647515862613916,1.9023498708605768,-0.7664382457733154,0.2776235342025757,1.2500945329666138
1783202312424926200,1.72792626953125,-0.4476546279117465,-0.0306818462505936,1.7598299901515244,-0.8689888119697571,0.1874354928731918,1.2387479543685913
1783202312434863400,1.73786328125,-0.5618284118413925,-0.3630520986422896,1.484651113012433,-0.9571005702018738,0.0714114233851432,1.2262907028198242
1783202312444800300,1.74780029296875,-0.7223259939201175,-0.7977204037308693,1.1237094306528568,-0.998050093650818,-0.0877488777041435,1.2001413106918335
1783202312454737400,1.7577373046875,-0.9315494668535887,-1.2077397129923104,0.6217886672854424,-0.9763030409812928,-0.2596772313117981,1.1496951580047607
1783202312464674300,1.76767431640625,-1.1589621650155633,-1.5285560134515166,-0.0100035076200962,-0.8814945816993713,-0.3857947289943695,1.0560297966003418
1783202312474611200,1.777611083984375,-1.3655652993828058,-1.6581678972706198,-0.5441477937221527,-0.7284581661224365,-0.4697330296039581,0.9337844252586364
1783202312484548400,1.78754833984375,-1.5663718032352625,-1.575998732627928,-1.0574597196757791,-0.540867030620575,-0.5052004456520081,0.8046566247940063
1783202312494485500,1.797485595703125,-1.6589396122954785,-1.3991875829994678,-1.5268173530906437,-0.3399877250194549,-0.4527359008789062,0.6842021346092224
1783202312504422400,1.80742236328125,-1.582139573470503,-1.1744161200612784,-1.8096575586378572,-0.1329784095287323,-0.3393996655941009,0.5898780822753906
1783202312514359300,1.817359375,-1.32667179736495,-0.8920718813374638,-2.0376631811916828,0.0652891397476196,-0.1778967976570129,0.5289047360420227
1783202312524296200,1.827296142578125,-0.9929713192828,-0.6315341084912419,-2.1951468222767114,0.2352751791477203,-0.0287528522312641,0.5183570981025696
1783202312534232300,1.837232421875,-0.6016708851471543,-0.4527019744291901,-2.2506740637093783,0.3701515197753906,0.0635405927896499,0.561136782169342
1783202312544169500,1.84716943359375,-0.2380991465449333,-0.382695541267097,-2.340500465106964,0.4611881673336029,0.1352092623710632,0.6249610185623169
1783202312554106000,1.857106201171875,0.0126177817717194,-0.3500613919049501,-2.295238597100973,0.5191337466239929,0.1966657042503357,0.6935187578201294
1783202312564043300,1.867043212890625,0.1524012232542038,-0.2797866631954908,-2.157972983658313,0.5534315705299377,0.2548378109931946,0.7380913496017456
1783202312573980400,1.87698046875,0.1819106647245585,-0.1887409491360187,-2.0084768341958523,0.5804274678230286,0.3164289891719818,0.77362060546875
1783202312583917300,1.886917236328125,0.1439718330830335,-0.0934413770243525,-1.810690408816933,0.6160683035850525,0.3876596689224243,0.7855387926101685
1783202312593854500,1.8968544921875,0.0749213854715228,0.0477218283787369,-1.5768758077234029,0.6731244325637817,0.4346641898155212,0.7834324836730957
1783202312603791400,1.906791259765625,0.0026820786908268,0.2610799168989062,-1.371499365606904,0.7356148958206177,0.477031946182251,0.7762662172317505
1783202312613728300,1.916728271484375,-0.0208289991475641,0.4817369302555918,-1.1119675549328327,0.7954212427139282,0.5185887217521667,0.7723245024681091
1783202312623665400,1.92666552734375,0.0456995287708938,0.7225251697540283,-0.8090876009196043,0.8400358557701111,0.5450211763381958,0.7751330733299255
1783202312633602300,1.936602294921875,0.1497815422751009,0.9579726327463984,-0.5144716173827648,0.8703836798667908,0.5579143762588501,0.7877934575080872
1783202312643539500,1.94653955078125,0.2660376854367554,1.1850947504639624,-0.2380003623455762,0.8734506368637085,0.5551776885986328,0.804855227470398
1783202312653476400,1.956476318359375,0.3764606654655188,1.421529763188958,0.0419131420999765,0.8602302074432373,0.5483325719833374,0.8291916847229004
1783202312663413200,1.966413330078125,0.4978802558049559,1.6353876179248097,0.2943178773730993,0.8220376968383789,0.5511519908905029,0.8648430109024048
1783202312673350400,1.976350341796875,0.6249746769104153,1.7881430614441631,0.5341261659234762,0.745082437992096,0.5859419107437134,0.9123330116271972
1783202312683287300,1.986287353515625,0.7402351600982249,1.87501148981899,0.87526600022614,0.6298897862434387,0.618537425994873,0.9656029343605042
1783202312693223200,1.99622314453125,0.8207208286333829,1.8929358535662293,1.1326941166192293,0.4786970913410187,0.6194956302642822,1.029768943786621
1783202312703160300,2.006160400390625,0.8492040688611566,1.81691644372493,1.2562713964492085,0.3047944605350494,0.5981716513633728,1.1070072650909424
1783202312713097200,2.01609716796875,0.8685754896115511,1.6684513908758758,1.3214970250755549,0.1267096996307373,0.5981860160827637,1.1851418018341064
1783202312723034400,2.026034423828125,0.8215317796900868,1.5289666400790214,1.4797224244385956,-0.0313379541039466,0.5987488627433777,1.244466781616211
1783202312732971500,2.035971435546875,0.6992921782046556,1.4618033213883637,1.581822031953931,-0.1807823032140731,0.5753322243690491,1.2879303693771362
1783202312742908200,2.045908203125,0.5376540477886795,1.4162410091310738,1.592798768520355,-0.3114024996757507,0.5415416359901428,1.330736517906189
1783202312752845300,2.05584521484375,0.4229739217720925,1.2998898811623454,1.6491536929488182,-0.4366142153739929,0.4676969647407532,1.3904060125350952
1783202312762782200,2.0657822265625,0.377816171727702,1.056809439073503,1.59070091945827,-0.5327580571174622,0.3627127408981323,1.4634394645690918
1783202312772719400,2.07571923828125,0.3249937322743237,0.6975617011502385,1.351763568523526,-0.6185411214828491,0.2466820031404495,1.525302529335022
1783202312782656500,2.085656494140625,0.173818032227084,0.3257210236355662,1.075692710980773,-0.6631520986557007,0.1314641684293747,1.5520573854446411
1783202312792593200,2.09559326171875,-0.1478214942485094,-0.0059153615236282,0.7766261777758597,-0.6712872982025146,0.0564013756811618,1.5270862579345703
1783202312802530300,2.1055302734375,-0.5321535506762564,-0.2271121808454394,0.4791366846293211,-0.6346713304519653,0.0137724848464131,1.4538789987564087
1783202312812467500,2.115467529296875,-0.8988102496817707,-0.3219990805029868,0.3170364896595478,-0.5831298232078552,-0.0112953186035156,1.3595178127288818
1783202312822404400,2.125404296875,-1.2416709164276718,-0.3702387952759862,0.11288871255517,-0.5238375067710876,0.002762128598988,1.258134841918945
1783202312832341200,2.13534130859375,-1.457166601498425,-0.418192094323039,-0.064338908919692,-0.4695812165737152,0.0357714779675006,1.1680129766464231
1783202312842278100,2.145278076171875,-1.49233567616567,-0.4391071643188595,-0.2234434292048215,-0.4211025834083557,0.0481412708759307,1.086284637451172
1783202312852215300,2.15521533203125,-1.416535023641586,-0.4761418867275118,-0.4582254140257835,-0.3885662257671356,0.0270450413227081,1.017063856124878
1783202312862152400,2.16515234375,-1.2702543290942907,-0.5052645208373665,-0.7638193031728268,-0.3827949464321136,0.0198854859918355,0.966385543346405
1783202312872089300,2.17508935546875,-1.091654104091972,-0.5800517585352063,-0.972141735613346,-0.4043838679790497,0.0236767623573541,0.9288187623023988
1783202312882026200,2.185026123046875,-0.9699179220840334,-0.6494219396203756,-1.1790887880474328,-0.4397776424884796,0.0311377495527267,0.8861592411994934
1783202312891963100,2.194963134765625,-0.9787500478371978,-0.6643608578160405,-1.432600607779622,-0.4842875599861145,0.0740194395184516,0.8302541971206665
1783202312901899300,2.204899169921875,-0.9596737375758588,-0.6186386788219214,-1.6142536444813012,-0.5297572612762451,0.1418908685445785,0.772026538848877
1783202312911836400,2.21483642578125,-0.9393385132946074,-0.5549266696289181,-1.7577777337968348,-0.5530085563659668,0.2362234890460968,0.7125009298324585
1783202312921773300,2.224773193359375,-0.8781041462615132,-0.4744762916028499,-1.8660826256930827,-0.5453828573226929,0.3446868658065796,0.6610512733459473
1783202312931710200,2.234710205078125,-0.7164477495364845,-0.3880599909096956,-1.980852329689264,-0.498441994190216,0.4491083323955536,0.6429734826087952
1783202312941647400,2.2446474609375,-0.4982626792512833,-0.337998613667488,-2.0348697510808704,-0.4270413815975189,0.5426790118217468,0.645214319229126
1783202312951584300,2.254584228515625,-0.3136089994288981,-0.2254351875439286,-1.9860756172955036,-0.3294224143028259,0.6218752861022949,0.6711612343788147
1783202312961521400,2.264521484375,-0.1335913088440895,-0.082901278309524,-1.8645505938202145,-0.2093731164932251,0.6800805330276489,0.7135517001152039
1783202312971458300,2.274458251953125,0.0455078055910766,0.0179284554004669,-1.726851265135407,-0.0663664191961288,0.706605076789856,0.7710554599761963
1783202312981395200,2.284395263671875,0.1971577720865607,0.0850875363074243,-1.5570628537505864,0.0863612666726112,0.7132208347320557,0.8431020379066467
1783202312991332400,2.294332275390625,0.2880143933147192,0.1417915664345025,-1.3189233751952647,0.2688149511814117,0.6925022602081299,0.922209084033966
1783202313001269200,2.304269287109375,0.3473866197377443,0.181319566963613,-1.0925737031549214,0.6396797299385071,0.681470513343811,1.0079870223999023
1783202313011206400,2.314206298828125,0.3426910092674196,0.303524097135663,-1.046879873472452,0.7478469610214233,0.5578127503395081,1.0818899869918823
1783202313021143300,2.324143310546875,0.2118036986850202,0.1726665971696376,-0.8247966267049313,0.7829769849777222,0.5500720143318176,1.1680262088775637
1783202313031080200,2.334080078125,0.1774624531440436,-0.0925987887203693,-0.1190291150063276,0.8601180911064148,0.6136645674705505,1.221715807914734
1783202313041017300,2.344017333984375,0.0587500028714537,0.0227332253336906,0.2742798824727535,0.9801570773124696,0.6359699964523315,1.2382274866104126
1783202313050954200,2.353954345703125,-0.1854504562232643,0.3342994668886065,0.3678226740449666,1.0319571495056152,0.6369550824165344,1.2646872997283936
1783202313060891400,2.363891357421875,-0.2345085016418248,0.3633011049672961,0.6056599547833204,0.9720925688743592,0.6549097895622253,1.3120957612991333
1783202313070828300,2.373828369140625,-0.1706349452115595,0.0769718882605433,1.094008704394102,0.8722062110900879,0.6991161704063416,1.382559061050415
1783202313080764700,2.3837646484375,-0.1574570453390479,-0.1326812082618474,1.463934488198161,0.7785817980766296,0.7282629609107971,1.4489970207214355
1783202313090701600,2.39370166015625,-0.2670484699144959,-0.1572825655549764,1.6565888113856315,0.6874082088470459,0.7308664917945862,1.503483533859253
1783202313100638700,2.403638671875,-0.414151075303927,-0.1436246270805597,1.723606584125757,0.585487425327301,0.725790798664093,1.5509459972381592
1783202313110575600,2.41357568359375,-0.5498322690993547,-0.2080485839352011,1.841753071078658,0.4997965395450592,0.7252938747406006,1.5834131240844729
1783202313120512800,2.4235126953125,-0.7461552708622068,-0.2587257549881935,2.003904703974724,0.4435064792633056,0.6656627655029297,1.5714561939239502
1783202313130449700,2.43344970703125,-1.0294348907399922,-0.2289011100888252,1.992251675581932,0.3857244253158569,0.5373455286026001,1.5050681829452517
1783202313140386600,2.443386474609375,-1.3658768495500089,-0.1644733538419008,1.9111551086068157,0.329052597284317,0.404811829328537,1.4045729637145996
1783202313150323700,2.45332373046875,-1.5956924441352485,-0.1519441271364688,1.969921770352125,0.2753531634807586,0.2727470099925995,1.2833596467971802
1783202313160260600,2.463260498046875,-1.6286663468457758,-0.1406000185623765,1.9425328281670808,0.230894073843956,0.1459644734859466,1.1711266040802002
1783202313170197800,2.47319775390625,-1.5857377440929412,-0.1104237837463617,1.8696786043584344,0.1815217286348343,0.0035450069699436,1.0620512962341309
1783202313180134700,2.483134765625,-1.467914205484092,-0.1047802249014377,1.7076818697631355,0.1213950663805008,-0.1561034619808197,0.9495118856430054
1783202313190071600,2.493071533203125,-1.4561439804524183,-0.154336575230956,1.4026438609331846,0.0574653595685958,-0.2840006947517395,0.8219329118728638
1783202313200008700,2.5030087890625,-1.5300313467010855,-0.3116507049679756,1.0687257945775983,-0.0286256596446037,-0.3360285460948944,0.683557391166687
1783202313209944800,2.51294482421875,-1.5469496021457017,-0.5321949055999518,0.8147159621953963,-0.1347299814224243,-0.3540933132171631,0.5572604537010193
1783202313219882800,2.5228828125,-1.4777468865819274,-0.756910838958621,0.5334796847134828,-0.2460353076457977,-0.3633970618247986,0.4497980773448944
1783202313229818600,2.532818603515625,-1.36441481417343,-0.9817892694026232,0.121124625980854,-0.3478018939495086,-0.3333459496498108,0.3616503775119781
1783202313239755500,2.542755615234375,-1.29038847784549,-1.179481879018247,-0.2062853736549615,-0.4195339977741241,-0.2818911969661712,0.2816755473613739
1783202313249692700,2.552692626953125,-1.2801891553923488,-1.3665303450226782,-0.4814145664334296,-0.4529769122600555,-0.222768485546112,0.196341186761856
1783202313259629800,2.5626298828125,-1.3443565071374175,-1.4845599275976418,-0.8118915524244308,-0.4429159462451935,-0.160091146826744,0.0994720682501792
1783202313269566700,2.572566650390625,-1.4232551256768404,-1.570491659644246,-1.116388878506422,-0.3770455718040466,-0.1031751185655593,-0.0079960692673921
1783202313279503600,2.582503662109375,-1.4809049122214315,-1.6238772128731012,-1.3658628210246562,-0.2620622515678406,-0.0636366158723831,-0.1127917692065239
1783202313289440500,2.5924404296875,-1.5295254430055618,-1.623678183169663,-1.633842142048478,-0.1207219064235687,-0.0406663194298744,-0.2077814042568206
1783202313299377700,2.602377685546875,-1.521359964467585,-1.5833400353014468,-1.808378624743223,0.0523577518761158,-0.033774510025978,-0.2892991602420807
1783202313309314800,2.612314697265625,-1.4386359424211084,-1.4959160188704728,-1.896409374895692,0.2298326790332794,-0.0340426862239837,-0.3527992963790893
1783202313319251700,2.622251708984375,-1.3559572208210826,-1.3764555267095564,-1.8618816668719047,0.390245258808136,-0.0131445117294788,-0.4017495214939117
1783202313329188600,2.632188720703125,-1.2595827129542827,-1.249831718790531,-1.6534353157907724,0.5158431529998779,0.0143441036343574,-0.4544207453727722
1783202313339125800,2.642125732421875,-1.134825137298554,-1.072539507646859,-1.37635557346642,0.6187848448753357,0.0251615270972251,-0.4926733374595642
1783202313349062700,2.652062744140625,-1.0143108983010054,-0.8541662213131785,-1.105398697936535,0.6996756792068481,0.030233783647418,-0.5191635489463806
1783202313358999800,2.661999755859375,-0.8944640371710062,-0.6451432393878698,-0.8240829254776239,0.7642970681190491,0.0383504629135131,-0.5375863313674927
1783202313368936700,2.671936767578125,-0.7833626464240252,-0.4263447133794427,-0.5401011486798525,0.8024559020996094,0.0436496175825595,-0.5542505383491516
1783202313378873600,2.68187353515625,-0.6816162362605332,-0.2448573886334896,-0.2409054361373186,0.8179589509963989,0.0463504828512668,-0.5662859082221985
1783202313388810800,2.691810791015625,-0.6040436056278645,-0.0951794528633356,0.027989830687642,0.8104483485221863,0.0390888415277004,-0.585670530796051
1783202313398747600,2.70174755859375,-0.6230987269707023,0.0144932202547788,0.2563882519513368,0.777545690536499,0.0431556217372417,-0.6159425377845764
1783202313408684800,2.711684814453125,-0.6923094797104596,0.1211129355430603,0.5486889442831278,0.7201188802719116,0.0742349773645401,-0.6652538776397705
1783202313418621700,2.72162158203125,-0.7423028332177549,0.2551201317116618,0.8712497503221035,0.6349965333938599,0.1152050420641899,-0.7195578813552856
1783202313428558600,2.73155859375,-0.7739294129725545,0.3499094162136316,1.1719675578653812,0.5141173601150513,0.1610084325075149,-0.7831960916519165
1783202313438495700,2.741495849609375,-0.7644772556249052,0.4275812694370746,1.4572610017836094,0.3673669397830963,0.2104333192110061,-0.8359822034835815
1783202313448432600,2.7514326171875,-0.7256860449377447,0.4879591657713055,1.761809765791893,0.2014786303043365,0.25992152094841,-0.8735684752464294
1783202313458369800,2.761369873046875,-0.6862640620663761,0.5408002368599176,2.067400732329488,0.0309292040765285,0.2922395765781402,-0.9096964597702026
1783202313468306700,2.771306640625,-0.6486568735320121,0.5944914950370789,2.325115848970413,-0.1447028070688247,0.2698871195316314,-0.93552166223526
1783202313478243600,2.78124365234375,-0.5114844182655215,0.6316179873824119,2.478117960727215,-0.3111315965652466,0.1795401871204376,-0.947114109992981
1783202313488180700,2.7911806640625,-0.21978381071873,0.6004419278740882,2.516848381137848,-0.4585396647453308,0.0329238437116146,-0.923869490623474
1783202313498117600,2.80111767578125,0.0979599504273384,0.5584042826116085,2.464827686521411,-0.5923523902893066,-0.1552843451499939,-0.8707900643348694
1783202313508054800,2.8110546875,0.3509202006913721,0.558272765186429,2.3701778104901314,-0.6983456611633301,-0.3339880406856537,-0.8015976548194885
1783202313517991700,2.82099169921875,0.5866703729573637,0.6017354748159647,2.2239777799636125,-0.7778918743133545,-0.4795421063899994,-0.7242184281349182
1783202313527928600,2.830928466796875,0.7557371190041303,0.6514221735268831,1.9920114370852708,-0.8177481889724731,-0.6045618057250977,-0.6421315670013428
1783202313537865700,2.84086572265625,0.7638451682664453,0.652634471926093,1.5679145026326178,-0.8150166869163513,-0.6677509546279907,-0.5693444013595581
1783202313547802600,2.850802734375,0.6868602743938564,0.6497898961499333,1.1785165411174297,-0.7893158793449402,-0.6909976601600647,-0.4986973702907562
1783202313557739800,2.86073974609375,0.6009272271730005,0.5884867016643286,0.821318721461296,-0.7603628039360046,-0.720906138420105,-0.4421427547931671
1783202313567676700,2.8706767578125,0.4367435039274394,0.4067570925951004,0.3226923234641551,-0.7290884852409363,-0.7654829025268555,-0.4066476225852966
1783202313577613600,2.880613525390625,0.2677188434567302,0.1332148767471313,-0.2185644249916076,-0.6886135339736938,-0.7928498387336731,-0.3904809057712555
1783202313587550700,2.89055078125,0.0671332888785749,-0.1480395209133625,-0.6683844142436981,-0.623835027217865,-0.7818179726600647,-0.4054310917854309
1783202313597487600,2.900487548828125,-0.1713907320149242,-0.3305810308873653,-1.008846787676215,-0.5415922403335571,-0.7343127131462097,-0.4443870782852173
1783202313607424800,2.9104248046875,-0.3739940561562776,-0.3936895212292671,-1.27831254786551,-0.4562885165214538,-0.6645890474319458,-0.5053879022598267
1783202313617361700,2.920361572265625,-0.4916344932831823,-0.4065764753311872,-1.4793360554695127,-0.3782978951931,-0.5717347860336304,-0.5613092184066772
1783202313627298600,2.930298583984375,-0.4845097559697925,-0.4557186919018626,-1.5925766502022742,-0.3158276081085205,-0.4953984320163727,-0.5914841890335083
1783202313637235700,2.940235595703125,-0.3466543599404394,-0.5537684395045042,-1.7127835768163202,-0.264508306980133,-0.4456100463867187,-0.5900624990463257
1783202313647172600,2.950172607421875,-0.1865240037389099,-0.6976604853495955,-1.8674241034299133,-0.2212404757738113,-0.4133024513721466,-0.569942057132721
1783202313657109800,2.96010986328125,-0.1094556693665683,-0.8198504024744033,-1.9600322445005176,-0.1765522509813308,-0.383784681558609,-0.5358846187591553
1783202313667047000,2.970046875,-0.1667749087825417,-0.8765756215199828,-2.053414292553067,-0.1231305822730064,-0.3441208899021148,-0.518635094165802
1783202313676983600,2.979983642578125,-0.3434538103334605,-0.9129404818430542,-2.062223037430644,-0.0550722666084766,-0.2825522422790527,-0.5276637077331543
1783202313686920700,2.989920654296875,-0.5567242205701768,-0.9187441996857524,-2.018145995295048,0.0390795283019542,-0.2171841710805893,-0.565717339515686
1783202313696857600,2.999857666015625,-0.7398255563840269,-0.8422291152819991,-1.95937465737462,0.1452638506889343,-0.1619861423969268,-0.6077854037284851
1783202313706794800,3.009794677734375,-0.8082707315787673,-0.7689113656148314,-1.8654063338667155,0.2409810572862625,-0.1245482042431831,-0.6348345875740051
1783202313716732000,3.01973193359375,-0.8193645186536014,-0.7409504687607288,-1.7079098333001137,0.3197106122970581,-0.1036555022001266,-0.6463379263877869
1783202313726668500,3.02966845703125,-0.7925015000388026,-0.7244196051985025,-1.4844114590376614,0.3936439454555511,-0.0859651863574981,-0.6531111598014832
1783202313736605700,3.039605712890625,-0.779271285457164,-0.6612310353577137,-1.2566209405392408,0.4560592472553253,-0.0835614502429962,-0.6680450439453125
1783202313746542600,3.04954248046875,-0.7855307842433452,-0.5645554987177253,-1.0035451741367578,0.5131203532218933,-0.0771080777049064,-0.6867782473564148
1783202313756479700,3.059479736328125,-0.8278450544901191,-0.4697495553418994,-0.7574094361305236,0.5591209530830383,-0.0648600757122039,-0.7122282981872559
1783202313766417000,3.0694169921875,-0.8787414212517439,-0.4100958816289901,-0.4533867418229579,0.5883387923240662,-0.0550351440906524,-0.7421712875366211
1783202313776353500,3.079353515625,-0.930419732171297,-0.3240358470275998,-0.1396305890083312,0.6032896041870117,-0.0592466481029987,-0.782096803188324
1783202313786290700,3.089290771484375,-0.9480999118991196,-0.2244052599743008,0.1162520515084266,0.599531888961792,-0.0693586617708206,-0.8281713128089905
1783202313796227600,3.0992275390625,-0.9417216090388596,-0.1465276550456881,0.3909416838258505,0.5869445204734802,-0.0827092081308364,-0.8773365616798401
1783202313806164700,3.109164794921875,-0.9094169838920236,-0.0242491828545928,0.6801368113577365,0.556843101978302,-0.0805096998810768,-0.932125210762024
1783202313816102000,3.119101806640625,-0.9189896988794208,0.1735764054909348,1.0179121376633644,0.5002650618553162,-0.0583655163645744,-0.9924636483192444
1783202313826038500,3.12903857421875,-0.9174306328691542,0.3981947236940264,1.3814987815737725,0.4122779369354248,-0.0512604676187038,-1.053763508796692
1783202313835975700,3.1389755859375,-0.8814364324893802,0.6247220903888344,1.7063696181207897,0.3007040619850158,-0.0755827650427818,-1.1171773672103882
1783202313845912600,3.14891259765625,-0.6770352651458234,0.8038260271295905,1.9447931743144988,0.1816687434911728,-0.1940588057041168,-1.1624362468719482
1783202313855849700,3.158849609375,-0.2185484967701137,0.9329843219622967,1.8873726664811368,0.0677892491221427,-0.327640026807785,-1.162500500679016
1783202313865787000,3.168786865234375,0.2245527056209743,1.0083072739720345,1.7889070315539837,-0.0298297200351953,-0.4363915622234344,-1.1214356422424316
1783202313875723500,3.1787236328125,0.591741173415631,1.1464391488552093,1.8359627972394228,-0.1290020495653152,-0.5336127877235413,-1.0547600984573364
1783202313885660700,3.18866064453125,0.801722844305262,1.3054571599006652,1.7932511982381345,-0.2330861091613769,-0.6126421093940735,-0.9664389491081238
1783202313895597800,3.198597900390625,0.9044683485087008,1.4183695455923675,1.6881389649033545,-0.3542911410331726,-0.6775487661361694,-0.8753045201301575
1783202313905534700,3.20853466796875,0.919946342017129,1.3684399780362844,1.541757732591033,-0.4811143279075622,-0.7184373140335083,-0.793668806552887
1783202313915472000,3.218471923828125,0.83512403251715,1.21121849501878,1.2277882292866706,-0.5933239459991455,-0.7237837910652161,-0.7458177804946899
1783202313925408500,3.228408447265625,0.7256166329633444,1.0849512454524637,0.8410469197601079,-0.6774371862411499,-0.675238311290741,-0.7257266044616699
1783202313935345700,3.238345703125,0.6591365472964942,0.9945958517447112,0.4759767592936754,-0.7401024699211121,-0.6121097803115845,-0.7235230803489685
1783202313945282800,3.24828271484375,0.6389049295201897,0.9286763956353068,0.1241203006654977,-0.7801364660263062,-0.5299879908561707,-0.7133697867393494
1783202313955219700,3.2582197265625,0.6114949445471167,0.93396690325886,-0.2125526173561811,-0.8017365336418152,-0.4462999105453491,-0.6884951591491699
1783202313965156900,3.268156982421875,0.6012662498690188,0.8839329985454678,-0.5139923094332218,-0.7997016310691833,-0.3922510743141174,-0.6470047235488892
1783202313975093500,3.278093505859375,0.6394244233496487,0.7710033694580197,-0.8208686396062373,-0.7787081599235535,-0.3786008059978485,-0.5922330021858215
1783202313985030700,3.28803076171875,0.6457867979884148,0.5982777355775237,-1.176421614664793,-0.7330126166343689,-0.4001830518245697,-0.5431509613990784
1783202313994967800,3.2979677734375,0.672191113050282,0.4021732719361782,-1.5156944860517978,-0.6784040331840515,-0.4483304023742676,-0.4832590520381927
1783202314004904700,3.30790478515625,0.7212294308550655,0.2169967372834682,-1.8518401653289795,-0.5894954800605774,-0.4765591025352478,-0.40609210729599
1783202314014841900,3.317841796875,0.6805987297810614,0.0390767496302723,-2.114776231488585,-0.4914643764495849,-0.4986676871776581,-0.3380260467529297
1783202314024778500,3.327778564453125,0.538641597521305,-0.1253761459454894,-2.375742458879948,-0.3836566805839538,-0.47708860039711,-0.2743772864341736
1783202314034715600,3.337715576171875,0.3091282007530331,-0.3855906781867146,-2.533981886768341,-0.2772322297096252,-0.3771814107894897,-0.2272874265909195
1783202314044652800,3.34765283203125,-0.0866555162765085,-0.7007359472721815,-2.528065356200933,-0.1699393093585968,-0.2654660642147064,-0.2210763990879058
1783202314054589700,3.357589599609375,-0.4274187723517417,-0.9541048514023422,-2.610540225791931,-0.0542433559894561,-0.1618197411298751,-0.2536801993846893
1783202314064526800,3.36752685546875,-0.7043658282071351,-1.1054945595264434,-2.7305419852226973,0.1010548919439315,-0.0702120512723922,-0.3044589757919311
1783202314074464000,3.377464111328125,-0.9159314803525804,-1.1601236830756068,-2.789942853218317,0.2918697595596313,0.0441981106996536,-0.3577239215373993
1783202314084401000,3.38740087890625,-1.0730489184737204,-1.085871575167775,-2.675117619642615,0.5042837262153625,0.1664704978466034,-0.4072746932506561
1783202314094338000,3.397338134765625,-1.1734537047699094,-0.9126008746251464,-2.384814238607883,0.7197179198265076,0.2835547924041748,-0.4562096297740936
1783202314104276000,3.40727587890625,-1.2575753186546266,-0.712788496376574,-2.0165175173103806,0.9192693829536438,0.3525002896785736,-0.4962891638278961
1783202314114212900,3.417212890625,-1.2226666484892368,-0.5201633992835879,-1.63251410831511,1.101295828819275,0.3518315851688385,-0.5203662514686584
1783202314124150000,3.42714990234375,-1.157661384615302,-0.4060121194466948,-1.3109101646095511,1.2511290311813354,0.3213692903518677,-0.5327368974685669
1783202314134087200,3.437087158203125,-1.0722054533869028,-0.3296998641386628,-0.8969342266768217,1.3562045097351074,0.2690343558788299,-0.549625039100647
1783202314144023800,3.44702392578125,-1.0081829169400036,-0.2062704683467745,-0.3911486045747995,1.406017541885376,0.2145841419696808,-0.5724003911018372
1783202314153961000,3.4569609375,-0.9539213845942168,-0.0049342415317893,0.0970154361188411,1.4140461683273315,0.1514419317245483,-0.6053891181945801
1783202314163898000,3.466898193359375,-0.8883888819757848,0.208410695245862,0.5244599274337292,1.383232593536377,0.0729218125343322,-0.6365312933921814
1783202314173835000,3.4768349609375,-0.7770603314094245,0.3431839073508977,0.8939566721707582,1.3243913650512695,-0.0150175672024488,-0.6692991852760315
1783202314183772200,3.486772216796875,-0.6295023104026913,0.4596729824855923,1.1766612686395646,1.22880220413208,-0.0864677801728248,-0.6901568174362183
1783202314193708800,3.496708740234375,-0.5097163126144558,0.5319160886585712,1.452087983059883,1.1063477993011477,-0.1218357756733894,-0.7064761519432068
1783202314203646000,3.50664599609375,-0.4319289432525634,0.6327504985436797,1.7760206619739531,0.9616472721099854,-0.1485491544008255,-0.7180733680725098
1783202314213583000,3.5165830078125,-0.3257086756106466,0.7499836700439453,2.024362970113754,0.803644061088562,-0.1924265623092651,-0.7258440256118774
1783202314223520000,3.52652001953125,-0.1962178608879446,0.8665706525951623,2.113571531873941,0.6404449939727783,-0.2571288347244262,-0.7321144342422485
1783202314233457200,3.53645703125,-0.0902688114028424,0.9712985627874732,2.1469418865561485,0.487119197845459,-0.3135708570480346,-0.7283901572227478
1783202314243393800,3.546393798828125,0.0240824479855597,1.068607428894937,2.234211589208245,0.3422355055809021,-0.3525262475013733,-0.7274351119995117
1783202314253331000,3.5563310546875,0.0821891845174133,1.1754808266833423,2.2852736679255963,0.1957867741584777,-0.3810994923114776,-0.7146995663642883
1783202314263268000,3.56626806640625,0.1274628160264343,1.2489978983148933,2.3054151232004165,0.0407670959830284,-0.3959631323814392,-0.6975416541099548
1783202314273205000,3.576205078125,0.1621530211355537,1.2787851338133216,2.335985618031025,-0.1246901899576187,-0.4503505229949951,-0.6866880655288696
1783202314283142100,3.58614208984375,0.2515715723846107,1.2424416085392236,2.187424703592062,-0.2730112373828888,-0.5325647592544556,-0.674109160900116
1783202314293078800,3.596078857421875,0.4614279363941401,1.1516533763721584,1.868879562935233,-0.4052272439002991,-0.5984392166137695,-0.6494577527046204
1783202314303016000,3.606015869140625,0.5863050467763096,1.0418637988761066,1.586870547515154,-0.5121704936027527,-0.6312394738197327,-0.6319706439971924
1783202314312953000,3.615953125,0.5739318143501877,1.0116709051862358,1.3064175293654203,-0.6069921255111694,-0.6322205066680908,-0.6297624111175537
1783202314322890000,3.625889892578125,0.5146078840482979,1.1128428764626384,1.0575339539557695,-0.6941438317298889,-0.6137503981590271,-0.6243751049041748
1783202314332827100,3.6358271484375,0.4763854131598025,1.1309665621742606,0.8282979128241539,-0.7786160111427307,-0.6021996140480042,-0.6212103366851807
1783202314342763800,3.645763671875,0.4484636792723089,1.0121771011427043,0.4982330147653818,-0.8553799986839294,-0.6044047474861145,-0.6282304525375366
1783202314352701000,3.655700927734375,0.4331596540912985,0.872628929720819,0.1176531504780054,-0.9066590070724488,-0.6175813674926758,-0.653860330581665
1783202314362638000,3.66563818359375,0.4426161953531205,0.7886877869695424,-0.3033393882185221,-0.9269658923149108,-0.616146445274353,-0.6741328239440918
1783202314372575000,3.675574951171875,0.450886595570296,0.7703355531990528,-0.7034574811905622,-0.910197615623474,-0.5871922373771667,-0.6918821930885315
1783202314382512000,3.68551220703125,0.5072644624829292,0.7883636695817112,-1.0768670154571534,-0.8534451127052307,-0.546379804611206,-0.6854567527770996
1783202314392449000,3.695448974609375,0.5996408406242728,0.8423954117596149,-1.4987228929847478,-0.7747541069984436,-0.4837143123149872,-0.6506831049919128
1783202314402386000,3.705385986328125,0.5916220770806074,0.8157765771642327,-1.845208764490485,-0.6786326169967651,-0.4335012137889862,-0.6039161086082458
1783202314412323000,3.715322998046875,0.572530715380609,0.7536112128913403,-2.1331185283869503,-0.5580900311470032,-0.3968311250209808,-0.5546590685844421
1783202314422260000,3.725260009765625,0.5533960990607738,0.7077595622986554,-2.437119010862708,-0.418603777885437,-0.3480894267559051,-0.5075607895851135
1783202314432197000,3.735197021484375,0.5747179962918162,0.7023065575897693,-2.5967981161653992,-0.2731288075447082,-0.2736603617668152,-0.4555256366729736
1783202314442134000,3.745134033203125,0.6590905161976814,0.7632622538119554,-2.633431272035837,-0.1187754571437835,-0.2087886929512024,-0.4035543203353882
1783202314452071000,3.75507080078125,0.8213504317738115,0.879072406771779,-2.661684722095728,0.0386567078530788,-0.1315033137798309,-0.3405439853668213
1783202314462008800,3.7650087890625,1.0356028387852012,0.9976862189754844,-2.669576352128386,0.1899942904710769,-0.0186553299427032,-0.263239324092865
1783202314471946000,3.774946044921875,1.2164794842869042,1.1676210530936717,-2.513929863342643,0.3286256194114685,0.1152509525418281,-0.1767324060201645
1783202314481883100,3.784883056640625,1.3442960091218352,1.3732207825720308,-2.24701612572372,0.4438155889511108,0.2461945861577987,-0.0788881331682205
1783202314491820000,3.794820068359375,1.4321321134850382,1.5925936013370752,-1.9258599257856608,0.5334469079971313,0.3370541930198669,0.0312699489295482
1783202314501757000,3.8047568359375,1.5280561011053622,1.7401067602887748,-1.5819383518099783,0.5955523252487183,0.3786828815937042,0.1488828659057617
1783202314511694000,3.814694091796875,1.6097538488440215,1.7645079188346862,-1.231750703176856,0.6229022145271301,0.3630917966365814,0.2719393372535705
1783202314521631000,3.824630859375,1.6505144599080084,1.733452563096583,-0.8953320521771907,0.6139143705368042,0.3014393746852875,0.3868677914142608
1783202314531568000,3.834568115234375,1.5964906087756157,1.6667653374850748,-0.6119546710133552,0.5711662769317627,0.2157769650220871,0.4870404899120331
1783202314541505000,3.844505126953125,1.4468796007618308,1.5749962775871156,-0.4237047202646732,0.5171049237251282,0.1433770656585693,0.5572794675827026
1783202314551442000,3.85444189453125,1.281710665871203,1.5145067375719543,-0.2747819867759943,0.470012217760086,0.0970106348395347,0.6010899543762207
1783202314561379000,3.864379150390625,1.080346528135985,1.47138685003072,-0.1984901897341013,0.449922651052475,0.093012697994709,0.6300110816955566
1783202314571316000,3.87431591796875,0.8944492779932915,1.434486275395751,-0.2269476379334926,0.4503771066665649,0.1604414880275726,0.6408863067626953
1783202314581253000,3.884253173828125,0.7430432763215153,1.437031868225336,-0.1283633450627327,0.449026882648468,0.2774554491043091,0.6541270613670349
1783202314591189800,3.894189697265625,0.631950726468116,1.4935454903468488,0.0899643485635519,0.438202291727066,0.382108986377716,0.6694857478141785
1783202314601127000,3.904126953125,0.5979940963305532,1.57910049803555,0.2897498388051986,0.4052643179893493,0.4296807646751404,0.7033909559249878
1783202314611064000,3.91406396484375,0.6368414211191237,1.5482050090342758,0.4063409130096435,0.3513939380645752,0.4303953945636749,0.756292998790741
1783202314621001000,3.9240009765625,0.7019241341434419,1.379872933937609,0.5411363369464874,0.2782749831676483,0.4168188571929931,0.8302358984947205
1783202314630938000,3.933938232421875,0.7641279307305813,1.1881553070783617,0.6905395474284887,0.18538598716259,0.3851837515830993,0.8911669254302979
1783202314640874800,3.943874755859375,0.762758542073518,1.0778948972001672,0.7675257564753294,0.0888272300362587,0.3446504175662994,0.9402018189430236
1783202314650812000,3.95381201171875,0.6907447146117687,1.0009013816297054,0.78628657104671,-0.0037851389497518,0.3264126181602478,0.9765823483467102
1783202314660749000,3.9637490234375,0.5851854681618511,0.9748273214355112,0.850448369833827,-0.0787366107106208,0.3185091614723205,1.0006837844848633
1783202314670686000,3.97368603515625,0.4637507533185184,1.0284382078528405,0.8919938476651906,-0.1366952955722808,0.3083721399307251,1.0028064250946045
1783202314680623000,3.983623046875,0.3572757071979344,1.1097075010463595,0.8850240086525678,-0.1758589446544647,0.2915268540382385,0.9915294647216796
1783202314690559700,3.993559814453125,0.3384687153972685,1.1831459544837477,0.8803384811848401,-0.2093317061662674,0.2658767700195312,0.9873919486999512
1783202314700497000,4.003496826171875,0.4108914159208536,1.253537587571144,0.8907523231714963,-0.2515388131141662,0.2110060602426529,1.0161676406860352
1783202314710434800,4.013434814453125,0.5797887236848474,1.2834586785823106,0.8234200776547193,-0.3034698963165283,0.1367238163948059,1.0884573459625244
1783202314720372000,4.0233720703125,0.745710376638919,1.183911678159237,0.7226596097886562,-0.3743731081485748,0.0636781007051467,1.1897847652435305
1783202314730309000,4.03330908203125,0.8542096220634877,0.9794628722816704,0.5957055470019579,-0.4540921151638031,-0.018343947827816,1.2957912683486938
1783202314740246000,4.04324609375,0.8312436108872294,0.6774366124883294,0.3344786228477954,-0.5258201360702515,-0.0914431884884834,1.372668743133545
1783202314750183000,4.053182861328125,0.657268123076111,0.3305103037387132,0.0273228912115097,-0.5759795904159546,-0.1583792269229889,1.409076690673828
1783202314760119800,4.063119873046875,0.3264144127272069,0.002012216605246,-0.3096352734923362,-0.5995224714279175,-0.1676808446645736,1.393926978111267
1783202314770057000,4.073056884765625,-0.1631134636655449,-0.2290004788100719,-0.5655746126323938,-0.6019782423973083,-0.1148964464664459,1.3418034315109253
1783202314779994000,4.082994140625,-0.7188172551468014,-0.3664087155938148,-0.7431459329783916,-0.5934670567512512,-0.0146396150812506,1.2590337991714478
1783202314789931000,4.092930908203125,-1.240933249802887,-0.5218301634520291,-0.8937643644690513,-0.5710329413414001,0.0992322713136673,1.1627386808395386
1783202314799868000,4.102867919921875,-1.6159107640385626,-0.7213850598081946,-1.0181436083316802,-0.5221306681632996,0.1916820406913757,1.0507855415344238
1783202314809804800,4.1128046875,-1.81272980569005,-0.945407165683806,-1.2256488791704176,-0.4414258301258087,0.2502235770225525,0.9483729600906372
1783202314819742000,4.122741943359375,-1.8490017270326613,-1.1004793617129325,-1.4717296721190214,-0.3120348155498504,0.272221028804779,0.8618031740188599
1783202314829679000,4.13267919921875,-1.7537442404970525,-1.1777636769235134,-1.7201017908751963,-0.1388334184885025,0.2734929323196411,0.7996605634689331
1783202314839616000,4.142615966796875,-1.5528411444023251,-1.167980241794884,-1.874541826480627,0.0740058794617652,0.273531824350357,0.7618402242660522
1783202314849553000,4.152552978515625,-1.3094707794561982,-1.0786340251296758,-1.9146143091499803,0.2839312851428985,0.2840409576892853,0.7298427820205688
1783202314859489800,4.16248974609375,-1.0785150749251249,-0.9379235319301484,-1.8227496799230571,0.4744559526443481,0.2928909063339233,0.7039462327957153
1783202314869427000,4.172427001953125,-0.8908343023665248,-0.7672507389262319,-1.6706863103210925,0.6385327577590942,0.2968016564846039,0.6961026191711426
1783202314879364000,4.182364013671875,-0.7395163443043827,-0.6147481011241674,-1.486935424557328,0.7687531113624573,0.3178962767124176,0.6946322917938232
1783202314889301000,4.192301025390625,-0.5997060148149729,-0.4707128474161028,-1.2167629774034023,0.8673000931739807,0.3295100629329681,0.7006239295005798
1783202314899238000,4.20223779296875,-0.4922340666115283,-0.3345499345183372,-0.9438637356340884,0.9304487109184264,0.3298735916614532,0.7083300352096558
1783202314909175000,4.212175048828125,-0.4024564727917313,-0.2825625576496124,-0.7441881355077028,0.9717639684677124,0.3245429992675781,0.7175343632698059
1783202314919112000,4.22211181640625,-0.32832024634853,-0.2317807571783661,-0.4896931499570607,0.9953377842903136,0.3329687118530273,0.7166534066200256
1783202314929049900,4.2320498046875,-0.2912725183278322,-0.1490080736845731,-0.2402648001462221,0.9957435131072998,0.3505799770355224,0.695684015750885
1783202314938987000,4.241987060546875,-0.2892896739475429,-0.0282829684153199,-0.0159293905377388,0.9797517657279968,0.3758022487163543,0.673058032989502
1783202314948924200,4.251924072265625,-0.2942852902777493,0.1425228033185005,0.2052683055669069,0.949411690235138,0.4156412780284881,0.6536323428153992
1783202314958860800,4.26186083984375,-0.2825681106075644,0.3006096709936857,0.4605827908068895,0.9057877659797668,0.4566891193389892,0.6352900862693787
1783202314968798000,4.2717978515625,-0.2289868886761367,0.4227116175740957,0.700330289080739,0.8523573279380798,0.4827585220336914,0.613621711730957
1783202314978734800,4.28173486328125,-0.1862006170034408,0.5339639610990882,0.861649562805891,0.7853476405143738,0.5107067823410034,0.5921095013618469
1783202314988672000,4.291672119140625,-0.144102327594906,0.6251473300635815,1.08078974185884,0.6989977955818176,0.5387047529220581,0.5666771531105042
1783202314998609200,4.301609130859375,-0.1018685752384364,0.7598509840637445,1.358772570502758,0.5852579474449158,0.5571416020393372,0.5488728880882263
1783202315008545800,4.3115458984375,-0.0374346815116703,0.8767696827873587,1.602232367298007,0.4515183866024017,0.5382722020149231,0.5381588339805603
1783202315018483000,4.32148291015625,0.0993127532757818,0.907942819686234,1.7558721924364566,0.2956595420837402,0.4824688732624054,0.5444111227989197
1783202315028420000,4.331420166015625,0.238683376173675,0.8567924781635403,1.8624965838998555,0.1286039650440216,0.4145079255104065,0.5712252855300903
1783202315038357000,4.34135693359375,0.3090202103339135,0.826205032198131,1.9836457598000763,-0.0532182976603508,0.3414472937583923,0.5998734831809998
1783202315048294100,4.351294189453125,0.3391416462227702,0.7811410248517989,2.087703515645861,-0.2450270503759384,0.2678839564323425,0.6325677633285522
1783202315058230800,4.361230712890625,0.3077164342589676,0.7106020922482014,2.1176105781316754,-0.4365376234054565,0.213505133986473,0.6599919199943542
1783202315068168000,4.37116796875,0.2276473106354475,0.6439344481199979,2.095579363587498,-0.6088577508926392,0.1687328666448593,0.6794726252555847
1783202315078105000,4.38110498046875,0.0956062999732792,0.608590747538209,2.005577021101117,-0.7523488402366638,0.1235544607043266,0.6912379264831543
1783202315088042000,4.3910419921875,-0.0386401117786765,0.5260594715848564,1.790137450131774,-0.8607192039489746,0.0853362157940864,0.6935617923736572
1783202315097979000,4.400978759765625,-0.1511357333630323,0.3152662651166319,1.4677274507403373,-0.9440165162086488,0.0788223892450332,0.6852157115936279
1783202315107916800,4.410916748046875,-0.2487142101921141,0.099941844959557,1.1635609640479088,-0.9943314790725708,0.0687618255615234,0.67930668592453
1783202315117854000,4.42085400390625,-0.3263413474909961,-0.0739274059981107,0.8510387369424104,-1.0165879726409912,0.0323193967342376,0.6718890070915222
1783202315127790800,4.430790771484375,-0.4181140606507659,-0.3076768329009413,0.412733244395256,-0.9971002340316772,-0.0001877504400908,0.6612947583198547
1783202315137728000,4.44072802734375,-0.4576347546562552,-0.5140151057869196,0.0086509239673614,-0.9375335574150084,-0.0303698889911174,0.646338164806366
1783202315147665000,4.450664794921875,-0.4159770486220717,-0.6356482658118009,-0.3247393191218376,-0.8388158679008484,-0.0569751113653183,0.6374502778053284
1783202315157601800,4.460601806640625,-0.369391384666413,-0.6549474250435828,-0.6165016667932272,-0.7189815640449524,-0.078030064702034,0.6462671756744385
1783202315167539000,4.4705390625,-0.3092164635583758,-0.620961276550591,-0.88158818898499,-0.5829237103462219,-0.0728276520967483,0.6665985584259033
1783202315177475800,4.480475830078125,-0.2115335034415125,-0.5916314294308423,-1.0057476526170968,-0.4380674362182617,-0.0595587193965911,0.687691867351532
1783202315187413000,4.4904130859375,-0.1608040176793932,-0.5506307260006665,-1.1382190175205469,-0.2966032326221466,-0.0545980893075466,0.7000818252563477
1783202315197350100,4.50035009765625,-0.2516711603015661,-0.5694891557276248,-1.2998878353357315,-0.1685728132724762,-0.0256069172173738,0.684435248374939
1783202315207286800,4.510286865234375,-0.4220936318062245,-0.596156505639851,-1.3216092532783743,-0.0741277486085891,0.0007081208750605,0.6415574550628662
1783202315217224000,4.520223876953125,-0.5745911550417542,-0.572838466155529,-1.3282827396929264,-0.0088941492140293,0.0136478878557682,0.5835069417953491
1783202315227160800,4.530160888671875,-0.629158757662028,-0.5426154695883393,-1.3429232594639062,0.0245421566069126,0.0310583245009183,0.5345207452774048
1783202315237098000,4.540097900390625,-0.5829737834617496,-0.5304314030587672,-1.3609756335049867,0.0453033633530139,0.0727232173085212,0.4985478222370147
1783202315247035100,4.55003515625,-0.4772089314371347,-0.4914505150184035,-1.2928607131779193,0.0590877756476402,0.1121453568339347,0.4717532992362976
1783202315256971800,4.5599716796875,-0.3406571653522551,-0.3653866790696978,-1.2616834846258165,0.0687140375375747,0.1421280205249786,0.4588476121425628
1783202315266909000,4.569908935546875,-0.1829730332590639,-0.231068517255783,-1.2733376820623874,0.0858940407633781,0.1943084448575973,0.4555860161781311
1783202315276845800,4.579845703125,-0.0456691336326301,-0.1525529066845774,-1.2336498147964476,0.103667713701725,0.2667836844921112,0.4533252418041229
1783202315286784000,4.589783935546875,-0.0256998200543224,-0.0309317293584346,-1.176326337596774,0.1256007701158523,0.3787479996681213,0.4422546923160553
1783202315296721000,4.599720947265625,-0.0750870974272489,0.1284030925512314,-1.013740989458561,0.1378939151763916,0.505118727684021,0.4312055110931396
1783202315306658000,4.609657958984375,-0.0823825151324272,0.2509323246330022,-0.8238760047286748,0.1456279754638672,0.6183344125747681,0.4268093705177307
1783202315316595000,4.619594970703125,-0.0061556000202894,0.3191194334134459,-0.6433616166681051,0.1621520817279815,0.6900975704193115,0.4378628134727478
1783202315326531800,4.62953173828125,0.1117984331004321,0.411599271929264,-0.467542108425498,0.1947558671236038,0.7251242399215698,0.4647842645645141
1783202315336469000,4.639468994140625,0.1965712043702602,0.5384069119825959,-0.277130595728755,0.2376303672790527,0.7362583875656128,0.4939179122447967
1783202315346406000,4.649406005859375,0.2335973050810396,0.6858548967435956,-0.0199655141860246,0.2697921097278595,0.7038848400115967,0.5278603434562683
1783202315356343000,4.659343017578125,0.291781198502332,0.7768298836544155,0.2302390806943178,0.2810921669006347,0.6256701946258545,0.5658231973648071
1783202315366280000,4.669280029296875,0.3627523850433528,0.7864537443071603,0.4264771075874566,0.2817939817905426,0.5140435695648193,0.6111716032028198
1783202315376216800,4.679216796875,0.4629357836738229,0.7611711267516017,0.5677034413546324,0.2594756186008453,0.4031005501747131,0.6555635929107666
1783202315386154000,4.689154052734375,0.5089228972144425,0.7373144503459333,0.675296385589242,0.2317100763320922,0.324627935886383,0.6884289383888245
1783202315396091000,4.6990908203125,0.4592313761979341,0.7491857976645231,0.800753487816453,0.1814048290252685,0.3022507131099701,0.7048001885414124
1783202315406028000,4.709028076171875,0.355229442192614,0.8050921015426517,0.9939479092299938,0.1155502647161483,0.306894838809967,0.7031890749931335
1783202315415965000,4.71896484375,0.2446056058295071,0.8958049303859472,1.1702946562170982,0.0338394194841384,0.3135106563568115,0.6976451873779297
1783202315425901800,4.72890185546875,0.1849225598916411,0.9340215560555456,1.3068980063587423,-0.0602902472019195,0.3049664497375488,0.6993098258972168
1783202315435840000,4.738840087890625,0.1823424802705645,0.9033271425843238,1.4125304641753431,-0.1516236364841461,0.2676659524440765,0.6974762082099915
1783202315445777000,4.74877685546875,0.1986290136829018,0.8491369949743152,1.4325702126413582,-0.2427457720041275,0.2062141001224517,0.7067173719406128
1783202315455714000,4.758714111328125,0.1961263832122087,0.72686758287251,1.3685101206630468,-0.3296172618865967,0.1096854358911514,0.7227349281311035
1783202315465651000,4.76865087890625,0.1730788312323391,0.5203767497733235,1.2061486444085836,-0.4091153740882873,-0.0024817762896418,0.7394647598266602
1783202315475587800,4.778587890625,0.0392575130246579,0.2416267361491918,0.9655343001723288,-0.4656561315059662,-0.0863098353147506,0.7375869750976562
1783202315485525000,4.78852490234375,-0.1698323966570198,-0.0231155026495456,0.7228419806182385,-0.4684554040431976,-0.1167597249150276,0.715522050857544
1783202315495462000,4.7984619140625,-0.3771459443159401,-0.1917649731323122,0.4910924953609705,-0.5873921513557434,-0.1560637354850769,0.6691210269927979
1783202315505399000,4.80839892578125,-0.5807182596199214,-0.3957093366190791,0.2957020252078771,-0.6418166756629944,-0.1141801476478576,0.6309211254119873
1783202315515336000,4.8183359375,-0.6563543692320585,-0.6035130058825016,0.1398129598379135,-0.5689427852630615,-0.0825742855668068,0.5957719683647156
1783202315525272800,4.82827294921875,-0.7181989771179854,-0.6481973662614822,-0.3721802847325801,-0.4947409331798553,-0.1382110565900802,0.5686265826225281
1783202315535210000,4.8382099609375,-0.820624893978238,-0.7958174927189946,-0.952206616565585,-0.4240009486675262,-0.1743371039628982,0.5627628564834595
1783202315545147000,4.84814697265625,-0.8747158189974725,-1.0511816623196004,-1.2380588634103535,-0.3487545549869537,-0.1688290983438491,0.5595338940620422
1783202315555084000,4.858083984375,-0.9509183303207158,-1.2571005407497289,-1.388635209324956,-0.2696538865566253,-0.1729410290718078,0.5357244610786438
1783202315565021000,4.86802099609375,-1.0738256019346415,-1.3643497861132026,-1.5851064604520797,-0.1701554656028747,-0.1591775715351104,0.5072150230407715
1783202315574957800,4.877957763671875,-1.2307245749995113,-1.468490836328268,-1.7253262475252151,-0.0592904612421989,-0.1027891263365745,0.4642222821712494
1783202315584895000,4.88789501953125,-1.394276722343266,-1.5201082108408213,-1.725751779460907,0.0562634617090225,-0.0343304239213466,0.3947091102600097
1783202315594833000,4.8978330078125,-1.58367935025841,-1.531419878450036,-1.720396974429488,0.1572010070085525,0.0297596137970685,0.3037925064563751
1783202315604770000,4.90777001953125,-1.723919157206267,-1.5082126058638097,-1.6726801144868135,0.2622421979904175,0.101117193698883,0.1967902779579162
1783202315614707000,4.91770703125,-1.781251109973341,-1.482467046971619,-1.552992243310809,0.3498245179653168,0.1621725708246231,0.0946010649204254
1783202315624644000,4.92764404296875,-1.7917016307085751,-1.4068097484409807,-1.3919973792344331,0.408082902431488,0.2036698460578918,0.0008263504132628
1783202315634580700,4.937580810546875,-1.7112293331116435,-1.3293459850102662,-1.2025006432950496,0.4276872277259826,0.2404230535030365,-0.0728220343589782
1783202315644518000,4.947517822265625,-1.5600003685072064,-1.238421851503849,-0.9288841931670904,0.4122457802295685,0.2835939526557922,-0.1346477270126342
1783202315654455000,4.957455078125,-1.4038101282335818,-1.1159864351853728,-0.6084703360289335,0.3822479546070099,0.3158895671367645,-0.1916931718587875
1783202315664392000,4.967391845703125,-1.2497390720710158,-0.9673302436783908,-0.3620961130917072,0.3551341891288757,0.3260436654090881,-0.2465399354696273
1783202315674329000,4.9773291015625,-1.1345713086679576,-0.8235086327210068,-0.2466425184845924,0.3328291475772857,0.3505096137523651,-0.2940416932106018
1783202315684265700,4.987265625,-1.087603367396444,-0.7030459777802228,-0.1145434940248727,0.3187912404537201,0.3925067782402038,-0.3291509449481964
1783202315694203000,4.997202880859375,-1.078506160966307,-0.5776859061866998,0.0951344446778297,0.304448515176773,0.426083356142044,-0.3632010519504547
1783202315704140000,5.00714013671875,-1.0887893623106182,-0.4476429374739527,0.3021194910347461,0.2908343970775604,0.4384752810001373,-0.4064453244209289
1783202315714077000,5.017076904296875,-1.0837274027459325,-0.3504425001770258,0.4771048865407705,0.2796448469161987,0.4262271225452423,-0.4517374336719513
1783202315724015000,5.02701513671875,-1.062668540365249,-0.2960793340876698,0.6810159322798252,0.265909194946289,0.4013173282146454,-0.4959032535552978
1783202315733952000,5.036951904296875,-1.0330948014870285,-0.226372468394041,0.8748135802835225,0.2492852210998535,0.3674712181091308,-0.5565104484558105
1783202315743889000,5.046888916015625,-1.0067781647086145,-0.1408367499276995,1.077514665710926,0.2221710681915283,0.3214121758937835,-0.6174284815788269
1783202315753825800,5.05682568359375,-0.9136743490755558,-0.0428945543527603,1.2751993842810392,0.1761106252670288,0.2638428807258606,-0.6639449000358582
1783202315763763000,5.066762939453125,-0.7992901372656226,0.0743888860300183,1.4561492411494257,0.1176133900880813,0.2114305049180984,-0.6968633532524109
1783202315773700000,5.0767001953125,-0.6775590698242188,0.1898752138629555,1.6256927378624677,0.0361856445670127,0.1482054591178894,-0.7115938663482666
1783202315783637000,5.086636962890625,-0.5721249110586941,0.3068210928544402,1.7852239591270684,-0.0651145204901695,0.0919035524129867,-0.7238511443138123
1783202315793574000,5.096573974609375,-0.5270360615320503,0.4280313512921333,1.9291180507987735,-0.1917622089385986,0.0555247738957405,-0.7329866290092468
1783202315803510800,5.1065107421875,-0.4854682257384061,0.5164607453733683,2.115051541298628,-0.3291813433170318,0.021766448393464,-0.7525392174720764
1783202315813448000,5.116447998046875,-0.3980896558843553,0.5904799213081597,2.238926342770457,-0.4861395359039306,-0.0275315940380096,-0.7795833945274353
1783202315823385000,5.126385009765625,-0.2365717908471822,0.6306193317338824,2.2313912710905077,-0.6409154534339905,-0.0859047695994377,-0.7962602972984314
1783202315833322000,5.136322021484375,0.0139750415995717,0.6715022540032863,2.096883431923389,-0.7857173681259155,-0.155345618724823,-0.7904649972915649
1783202315843259000,5.1462587890625,0.3514702357895672,0.7165481411710382,1.8433973311543463,-0.9004707932472229,-0.2130948454141616,-0.7543300986289978
1783202315853196800,5.15619677734375,0.7015440487846731,0.7405456873521208,1.492407718488574,-0.9861896634101868,-0.2723011672496795,-0.6842122673988342
1783202315863134000,5.166134033203125,1.0418145529069005,0.7534229968428612,1.0260732322871684,-1.024391770362854,-0.3215908706188202,-0.588412344455719
1783202315873070800,5.17607080078125,1.2979407929211857,0.7825213732942938,0.5486410134881734,-1.0272186994552612,-0.3421928286552429,-0.4692585468292236
1783202315883008000,5.186008056640625,1.4024414702288803,0.8383066811412573,0.1394242527812719,-0.990630865097046,-0.2999108433723449,-0.3461306989192962
1783202315892945200,5.195945068359375,1.4120413654841482,0.8446279931172728,-0.1124807162761688,-0.915299117565155,-0.212818831205368,-0.2353432029485702
1783202315902881800,5.2058818359375,1.3945643071129916,0.8468038758516311,-0.2884691513448953,-0.8224895596504211,-0.1174239963293075,-0.1357948333024978
1783202315912819000,5.21581884765625,1.3165874795936048,0.8445964289352297,-0.4716834460139274,-0.7267217636108398,-0.0445005223155021,-0.0547322109341621
1783202315922755800,5.225755859375,1.1510277918197214,0.7273787472650408,-0.6539356176525354,-0.6376412510871887,-0.0209289826452732,0.0103988973423838
1783202315932693000,5.23569287109375,0.8553573307938873,0.4588368239223956,-0.8355535830408334,-0.5534981489181519,-0.0226429942995309,0.0595166385173797
1783202315942630100,5.245630126953125,0.5234050115533173,0.086660192451626,-0.9238561358720064,-0.4730213284492492,-0.0794183760881424,0.0840136334300041
1783202315952566800,5.25556689453125,0.2234871222160756,-0.2138295054242014,-1.0093103135347363,-0.3828645348548889,-0.1742314398288726,0.0836439877748489
1783202315962504000,5.26550390625,-0.0708304628960788,-0.4488898687951266,-1.1459446433365343,-0.2765543460845947,-0.2873790562152862,0.0657166540622711
1783202315972440800,5.27544091796875,-0.3112714963920414,-0.6783389681555331,-1.2654156568914652,-0.1544584184885025,-0.3930616080760956,0.0237804651260375
1783202315982379000,5.28537890625,-0.5327002247735858,-0.8365230125948786,-1.409327284219861,-0.01954847574234,-0.4836954474449157,-0.0413347706198692
1783202315992316000,5.29531591796875,-0.7506273747749627,-0.9585808277726172,-1.5679051502823829,0.1178940683603286,-0.5278351902961731,-0.1112294346094131
1783202316002253000,5.305253173828125,-0.9340420143216848,-1.054274952159822,-1.708302632009983,0.2436764538288116,-0.4901092052459717,-0.1849672645330429
1783202316012190000,5.31518994140625,-1.0721082766227423,-1.0654568559095263,-1.6931880649864672,0.33782559633255,-0.425117939710617,-0.2488567680120468
1783202316022126800,5.325126953125,-1.1516351100631057,-1.0110967585600912,-1.6515233446896076,0.4012002646923065,-0.3370526432991028,-0.2888757884502411
1783202316032064000,5.33506396484375,-1.1570707252457737,-1.0204428251847624,-1.6000421637773512,0.4416345059871673,-0.2700075805187225,-0.3038792312145233
1783202316042001000,5.3450009765625,-1.0968882053531706,-1.116508120971918,-1.5647329499870537,0.4798098802566528,-0.2020164877176284,-0.3083380460739136
1783202316051938000,5.35493798828125,-1.0483538915477693,-1.1658727481216191,-1.476995629823208,0.5333670973777771,-0.1543307155370712,-0.3161845207214355
1783202316061875000,5.364875,-1.020275944185257,-1.1329437074661255,-1.3341934250414371,0.5994833707809448,-0.1378100216388702,-0.3329603970050812
1783202316071811800,5.374811767578125,-1.0424975667349994,-1.059842523159087,-1.1985551205396652,0.6686382293701172,-0.1326453536748886,-0.3643451929092407
1783202316081748000,5.384748046875,-1.1335912115894258,-1.0086202854439617,-1.0077619150489567,0.7265806794166565,-0.1311153918504715,-0.4171176254749298
1783202316091685000,5.39468505859375,-1.2614866468794643,-0.9351990754023194,-0.7536778483867644,0.7686660885810852,-0.1269715130329132,-0.4847800433635711
1783202316101622800,5.404622802734375,-1.4210634608514603,-0.8517401632100343,-0.4910854810982942,0.7855629920959473,-0.1246311217546463,-0.5537666082382202
1783202316111560000,5.414559814453125,-1.5308891325742005,-0.7689031823083758,-0.2399362988442182,0.7819674611091614,-0.1285001635551452,-0.6211722493171692
1783202316121496800,5.424496826171875,-1.5524898467466235,-0.6603349633008241,-0.0144236621499061,0.7710016965866089,-0.1419800072908401,-0.6880360841751099
1783202316131434000,5.43443408203125,-1.4722329454660414,-0.5314250902712345,0.1650479388594627,0.7589194774627686,-0.1743872165679931,-0.7488592267036438
1783202316141371100,5.44437109375,-1.352885996682197,-0.4037058883309364,0.3332219007849693,0.7302932143211365,-0.2051358819007873,-0.806536853313446
1783202316151307800,5.454307861328125,-1.2359540000855922,-0.2527525257974863,0.4822966099649667,0.6917319893836975,-0.203492984175682,-0.8683789372444153
1783202316161245000,5.464244873046875,-1.1316858163595198,-0.0917553236335515,0.6633867520868778,0.6353711485862732,-0.1450831443071365,-0.9383126497268676
1783202316171181800,5.474181884765625,-1.057154306988418,0.1337418232306838,0.9057955785244702,0.5551167726516724,-0.0770649388432502,-0.992533266544342
1783202316181119000,5.484118896484375,-0.983048329553008,0.3650564242020249,1.1057049874067306,0.4661805927753448,-0.0388580113649368,-1.0419111251831057
1783202316191056100,5.49405615234375,-0.790230924758315,0.5641767285332083,1.2359142525970934,0.3705911934375763,-0.0505996234714984,-1.064665913581848
1783202316200992800,5.50399267578125,-0.4654113800071179,0.6819549666956066,1.2513883005827664,0.2938958704471588,-0.1024399474263191,-1.0625159740447998
1783202316210930000,5.513929931640625,-0.1293104166544973,0.7779279080241918,1.242024259909987,0.2269421368837356,-0.1818090826272964,-1.026642918586731
1783202316220867800,5.523867919921875,0.169571846024692,0.9204521726474164,1.206620353573561,0.169169083237648,-0.2608022093772888,-0.9751316905021667
1783202316230805000,5.533804931640625,0.3944122825458646,1.0770379881098866,1.2169739898055791,0.1179210841655731,-0.3356149196624756,-0.9227438569068908
1783202316240742000,5.543741943359375,0.5585848998755216,1.2609706601813435,1.2156161454558372,0.0703167617321014,-0.3918643593788147,-0.879456102848053
1783202316250679000,5.553678955078125,0.7021838079929351,1.4180112336739896,1.183993511223793,0.013223648071289,-0.4271427094936371,-0.8443745374679565
1783202316260616000,5.563615966796875,0.8354286414869129,1.514334595875442,1.157570199200511,-0.0588189214468002,-0.4354533553123474,-0.8101512789726257
1783202316270552800,5.573552734375,0.952379196653515,1.57966953009516,1.1318752014517783,-0.1507837176322937,-0.4174682199954986,-0.777400553226471
1783202316280490000,5.583489990234375,1.0498286402754484,1.6483698490947485,1.1027794553488492,-0.2549745142459869,-0.3853927552700043,-0.7298493981361389
1783202316290427000,5.593427001953125,1.1356893529124557,1.6730729131966828,1.0827502282768486,-0.3797350823879242,-0.372899055480957,-0.6604183912277222
1783202316300364000,5.603364013671875,1.1929983631953596,1.5785004863157868,0.968807038232684,-0.5170171856880188,-0.3757230639457702,-0.5789359211921692
1783202316310301000,5.613301025390625,1.2159947695098816,1.355353701969981,0.8086042013168334,-0.64410001039505,-0.4044955670833587,-0.4956839084625244
1783202316320237800,5.62323779296875,1.2637623367264863,1.080914537282288,0.4819353754371404,-0.7379214763641357,-0.4637819230556488,-0.4166619777679443
1783202316330176000,5.633176025390625,1.2183563840746878,0.8321516656428575,0.0368260480940341,-0.7874038219451904,-0.5123279094696045,-0.3468810319900512
1783202316340113000,5.64311279296875,0.9785438577406108,0.5859636129274964,-0.4042091616779565,-0.7883503437042236,-0.5217342972755432,-0.3074099719524383
1783202316350050000,5.653050048828125,0.646051001882553,0.3539674594327807,-0.7912859867691994,-0.7436779141426086,-0.4994838535785675,-0.2989461719989776
1783202316359987000,5.662987060546875,0.3029297845043242,0.1313680798366665,-1.1254442916214464,-0.6681829690933228,-0.4747484922409057,-0.3109559714794159
1783202316369923800,5.672923828125,-0.0144854753397405,-0.0742033003300428,-1.48152333638072,-0.5773739814758301,-0.4543462693691253,-0.3283171355724334
1783202316379861000,5.682861083984375,-0.2434616964913904,-0.3524880345299839,-1.7721721698522566,-0.4800231754779815,-0.4275060296058655,-0.3478129804134369
1783202316389798000,5.6927978515625,-0.4151692393705248,-0.6884075038358569,-2.0493612177699805,-0.3748168647289276,-0.3736957907676697,-0.3809195458889007
1783202316399735000,5.702735107421875,-0.6061404317766428,-0.9222592220693826,-2.225146239221096,-0.2643413245677948,-0.2860611975193023,-0.4376914799213409
1783202316409672000,5.712671875,-0.8219685636721551,-0.9630804772794246,-2.2862539111346005,-0.1536976546049118,-0.1757634580135345,-0.511775016784668
1783202316419608800,5.72260888671875,-1.057339746557921,-0.8867869266718625,-2.254502682086825,-0.03095468506217,-0.0451008528470993,-0.5962154865264893
1783202316429546000,5.7325458984375,-1.195522474845499,-0.8382879764407872,-2.157843804320693,0.1005434170365333,0.079475425183773,-0.677743673324585
1783202316439484000,5.74248388671875,-1.1628370336875318,-0.7016802423849702,-2.007781253147125,0.221690148115158,0.1462840735912323,-0.721940279006958
1783202316449421000,5.752421142578125,-0.9350418390139936,-0.578692745141685,-1.8909382500082248,0.3297396600246429,0.161303237080574,-0.7152796983718872
1783202316459358000,5.76235791015625,-0.6272524856492877,-0.5509419839069247,-1.7216215477883814,0.4268471598625183,0.1525264978408813,-0.6689428687095642
1783202316469295000,5.772295166015625,-0.4189703852191567,-0.5051344647169113,-1.506876388823986,0.5147889852523804,0.1280885338783264,-0.6183177828788757
1783202316479231700,5.782231689453125,-0.3546886133141815,-0.3745096044629812,-1.2442226467370987,0.6148306131362915,0.1008108258247375,-0.5903529524803162
1783202316489169000,5.7921689453125,-0.3726258365429937,-0.1592696477189659,-0.9507803831547498,0.717086911201477,0.0690726041793823,-0.579231858253479
1783202316499106000,5.80210595703125,-0.3899478504829108,0.0431286553695797,-0.6677309187710285,0.804029107093811,0.0451281778514385,-0.5813870429992676
1783202316509043000,5.81204296875,-0.3841964473493397,0.2292629291385412,-0.3449287051916122,0.8555095791816711,0.031780682504177,-0.5893693566322327
1783202316518980000,5.82197998046875,-0.3610461656473577,0.4085661878436804,-0.0005330839633941,0.8725755214691162,0.0340343043208122,-0.603187620639801
1783202316528916700,5.831916748046875,-0.3308496186956763,0.5616206143096089,0.3499363042205572,0.8438032865524292,0.0289391428232193,-0.6117762923240662
1783202316538854000,5.84185400390625,-0.2962327710837125,0.6625611149176955,0.6483218694239854,0.7767617702484131,0.022627929225564,-0.6191884875297546
1783202316548791800,5.851791748046875,-0.2332764025636017,0.7512702027231455,0.9081360041707752,0.6737831830978394,0.0172201134264469,-0.6362537145614624
1783202316558729000,5.86172900390625,-0.1525198811978101,0.8085092165097594,1.127785301789641,0.5595435500144958,0.0228581521660089,-0.6570020914077759
1783202316568665900,5.871665771484375,-0.0608601268932223,0.9067562402501702,1.3220271864295006,0.4218291044235229,0.0382895693182945,-0.6841535568237305
1783202316578603000,5.88160302734375,0.0551233368068933,1.0092729041337969,1.504735285142064,0.2827793955802917,0.0367027632892131,-0.707939624786377
1783202316588540000,5.891539794921875,0.2026359112367033,1.0928174487829208,1.595180695220828,0.1373265981674194,0.0173626206815242,-0.7184039950370789
1783202316598476800,5.901476806640625,0.3651215983927249,1.1233370902091264,1.6396429372817276,-0.005877829156816,-0.0453104451298713,-0.6981373429298401
1783202316608414000,5.9114140625,0.5404175211526453,1.0797101299285887,1.5547557458519934,-0.1295739412307739,-0.1336658746004104,-0.6542492508888245
1783202316618351000,5.92135107421875,0.6696100105158984,0.9728995682433248,1.3728396742999551,-0.2369825094938278,-0.2172867357730865,-0.5938430428504944
1783202316628288000,5.9312880859375,0.7478162628769874,0.8139578373044729,1.2164759771555662,-0.3242478668689728,-0.3210490942001343,-0.53141188621521
1783202316638225000,5.941224853515625,0.676737085916847,0.6096797118186951,0.9276549436330794,-0.378076434135437,-0.4136634469032287,-0.4977110028266907
1783202316648162800,5.951162841796875,0.4287520667821168,0.3573655774384737,0.5284580571591854,-0.407741904258728,-0.4778722524642944,-0.5037931799888611
1783202316658100000,5.961099853515625,0.0321527955859899,0.0501361960440874,0.1513777254253625,-0.4268558919429779,-0.5022940635681152,-0.5382517576217651
1783202316668036900,5.971036865234375,-0.388971991188079,-0.2935655977010726,-0.2471130586057901,-0.4225234687328338,-0.4856348931789398,-0.6150045990943909
1783202316677974000,5.98097412109375,-0.7922007635265589,-0.6545324145019054,-0.6557610795140266,-0.4292112588882446,-0.4277377426624298,-0.7265894412994385
1783202316687911000,5.990910888671875,-1.2017691141501068,-1.0227385349065066,-1.0294470926344397,-0.4164935946464538,-0.3287776112556457,-0.8541215658187866
1783202316697847800,6.000847900390625,-1.407544930847734,-1.417458275966346,-1.3235691551744937,-0.3682680130004883,-0.2074845135211944,-0.9998797178268432
1783202316707785000,6.010784912109375,-1.521338775549084,-1.5951739732190966,-1.6462983035176992,-0.2777325212955475,-0.067269891500473,-1.1389178037643433
1783202316717721900,6.020721923828125,-1.592261154512316,-1.4950532645612955,-1.82030170224905,-0.1511111855506897,0.0704421401023864,-1.2467372417449951
1783202316727659000,6.030658935546875,-1.593984032782167,-1.22324795550853,-1.8794506413102148,-0.0019392790272831,0.1831284761428833,-1.315804362297058
1783202316737596200,6.04059619140625,-1.5061736473821103,-0.9434119002133609,-1.836811523023248,0.1552921086549759,0.2527108490467071,-1.3420989513397217
1783202316747534000,6.0505341796875,-1.3466188991114496,-0.7267027476996183,-1.6709510987371206,0.3003896474838257,0.2789232730865478,-1.3419204950332642
1783202316757470700,6.060470703125,-1.1786249699279665,-0.5828481112554669,-1.3977543353259565,0.4200750291347503,0.2548141181468963,-1.330072999000549
1783202316767407900,6.070407958984375,-1.037943848953396,-0.4764095977529883,-1.1591156750768423,0.5228034853935242,0.2016315758228302,-1.3157720565795898
1783202316777345000,6.080344970703125,-0.928611002248898,-0.3672843293845653,-0.923797099161148,0.6113892197608948,0.1446195840835571,-1.2991868257522583
1783202316787282000,6.090281982421875,-0.7794921616662294,-0.1734831742495298,-0.6530208408951759,0.7020860910415649,0.1211568713188171,-1.2725964784622192
1783202316797219000,6.100218994140625,-0.6243603444043546,0.0544818240329623,-0.3407482046365738,0.7819734811782837,0.1196068599820137,-1.2273770570755005
1783202316807156000,6.110156005859375,-0.5095901289515197,0.2746738502264023,0.014000468301773,0.844704270362854,0.1031354740262031,-1.1797560453414917
1783202316817092900,6.1200927734375,-0.3746099960975348,0.5153185896009207,0.3089981446325778,0.8914523720741272,0.0692677125334739,-1.1389933824539185
1783202316827030000,6.130030029296875,-0.2467944576432928,0.7440349907726049,0.599849222677946,0.9201157093048096,0.0222637206315994,-1.1046007871627808
1783202316836967000,6.139966796875,-0.1475896947866305,0.9738830263227224,0.889656344628334,0.8997666239738464,-0.0285057034343481,-1.0745437145233154
1783202316846905000,6.149905029296875,-0.0471989004831761,1.193150631147623,1.194433656695485,0.8477692008018494,-0.0740955546498298,-1.0453176498413086
1783202316856842000,6.159842041015625,0.0712588443759828,1.3233926295638083,1.5142004481017588,0.738633394241333,-0.1428479254245758,-1.008653998374939
1783202316866779000,6.16977880859375,0.2179090298227965,1.3869979635119438,1.721799826964736,0.582703709602356,-0.2199379205703735,-0.9807330965995787
1783202316876715800,6.1797158203125,0.3192278622239828,1.3896984546422957,1.8655384358137843,0.3898259699344635,-0.2837647795677185,-0.9642040729522704
1783202316886653000,6.18965283203125,0.3537421993095427,1.4352145896703004,1.9912024587899448,0.1718251854181289,-0.3328319191932678,-0.9598830938339232
1783202316896590000,6.199590087890625,0.3891272913476452,1.5262842691272496,2.051688783934712,-0.0509043522179126,-0.3451400101184845,-0.9543231725692748
1783202316906527000,6.20952685546875,0.4594599242568016,1.6340817960232494,2.0076357071965933,-0.2571240961551666,-0.3241905272006988,-0.9381857514381408
1783202316916463900,6.2194638671875,0.5548445808360353,1.7263532524853944,2.0076018049269915,-0.460545152425766,-0.3153385818004608,-0.8988325595855713
1783202316926401000,6.229401123046875,0.6610379970036446,1.7372861499100922,1.8995622859686607,-0.6468162536621094,-0.3442858159542084,-0.8441442847251892
1783202316936338000,6.239337890625,0.7899354489430784,1.6569909624457355,1.6831372110933065,-0.7981867790222168,-0.37583127617836,-0.7933843731880188
1783202316946275800,6.24927587890625,0.9556861292444168,1.524985461488366,1.414148420765996,-0.9191398620605468,-0.416471391916275,-0.741801917552948
1783202316956213000,6.259212890625,1.0682034512039271,1.502017258355021,1.09889881452322,-1.0107301473617554,-0.4990952610969543,-0.6935778856277466
1783202316966150100,6.269150146484375,1.0993210585232824,1.5294906639531254,0.6841518922179937,-1.0525298118591309,-0.5702612996101379,-0.6362877488136292
1783202316976086800,6.279086669921875,1.0046338461562991,1.490781286330521,0.1991828481733799,-1.056962251663208,-0.5819361805915833,-0.5901633501052856
1783202316986024000,6.28902392578125,0.8802307830266654,1.3876695791631937,-0.1351274323701858,-1.0437796115875244,-0.5390248894691467,-0.5602573752403259
1783202316995960800,6.2989609375,0.7419051391370594,1.3518033160120249,-0.4167266979455947,-1.0186469554901123,-0.4785673916339874,-0.5652833580970764
1783202317005898000,6.30889794921875,0.6273579918503761,1.2434867336779831,-0.7977285870373249,-0.9710804224014282,-0.4256533086299896,-0.5743993520736694
1783202317015835100,6.318835205078125,0.6156817287124693,1.078124614302814,-1.2408750898748635,-0.9112133979797364,-0.3735103011131286,-0.5747717022895813
1783202317025771800,6.328771728515625,0.657215443040803,0.9493418747842312,-1.602273283830285,-0.8160021901130676,-0.3247811198234558,-0.5520924925804138
1783202317035710000,6.3387099609375,0.7582887031830847,0.923487887081504,-1.8458324493467808,-0.6944229602813721,-0.2693848013877868,-0.5031207203865051
1783202317045646800,6.348646728515625,0.9280913622889668,1.0029133059740063,-2.028085205507278,-0.5642066597938538,-0.2269470542669296,-0.4198066294193268
1783202317055584000,6.358583984375,1.154267066001892,1.0675953292429448,-2.146612800732255,-0.4397326111793518,-0.2119168192148208,-0.3087213039398193
1783202317065521000,6.36852099609375,1.3810524991109967,1.0148606411382557,-2.2801403966903684,-0.3240169286727905,-0.2123269438743591,-0.1710158884525299
1783202317075458000,6.3784580078125,1.6002277494773267,0.8753288363292813,-2.3894068270951507,-0.2154655456542968,-0.2257102578878402,-0.0262997411191463
1783202317085396000,6.38839599609375,1.7446546328514814,0.735869804495573,-2.5151830782741307,-0.116847887635231,-0.1980551928281784,0.101554624736309
1783202317095332900,6.398332763671875,1.7429478289335965,0.620783874157071,-2.5640859331309795,-0.0143532482907176,-0.1048849001526832,0.1925312876701355
1783202317105270000,6.40827001953125,1.5725491766959427,0.6156748605802654,-2.507370943218469,0.0815162882208824,0.0285623744130134,0.2591454684734344
1783202317115207000,6.41820703125,1.313557171986997,0.7529404740229249,-2.401836685079336,0.1522366851568222,0.1851325333118438,0.3077394962310791
1783202317125144000,6.42814404296875,1.0552402900606392,0.900495718550682,-2.212348132446408,0.1940765380859375,0.3392419219017029,0.3530340194702148
1783202317135082000,6.43808203125,0.8724280003212391,0.9884788301691412,-1.8876766178637745,0.2321943342685699,0.44790780544281,0.3812272548675537
1783202317145019100,6.44801904296875,0.7977287331677972,1.049299209573865,-1.6019237397402524,0.2572932839393616,0.4779727756977081,0.412293016910553
1783202317154955800,6.457955810546875,0.774945385082066,1.0650614268511531,-1.376308811715245,0.2782764434814453,0.4618118703365326,0.4497231245040893
1783202317164893000,6.467892822265625,0.772035927376151,1.0698954228788613,-1.1436445497006178,0.2909949123859405,0.4475442469120025,0.5016148090362549
1783202317174830000,6.477830078125,0.7704803684972226,1.0758087385758757,-0.874504952725768,0.3045843243598938,0.4208197295665741,0.5614562034606934
1783202317184767000,6.48776708984375,0.7505282252494245,1.052579546418786,-0.7015501862645149,0.3243990540504455,0.4010473489761352,0.623954176902771
1783202317194704100,6.4977041015625,0.6993532607421279,1.0387249163284895,-0.5728875659942627,0.3453060388565063,0.3986391425132751,0.677746057510376
1783202317204640800,6.507640869140625,0.6195210876796394,1.0429545167222618,-0.3927712373405694,0.3684614300727844,0.4117397665977478,0.7260081171989441
1783202317214578000,6.517577880859375,0.5438011357089504,1.0470260039448738,-0.2179758114486932,0.4008273482322693,0.4215355217456817,0.766988217830658
1783202317224515800,6.527515869140625,0.4627655416734516,1.075409802386165,-0.0839221457898616,0.4315288066864013,0.4367411136627197,0.794404149055481
1783202317234453000,6.537452880859375,0.4182897825438529,1.1152335709914565,0.0697626875340938,0.4557829201221466,0.4675782024860382,0.8261072635650635
1783202317244390000,6.547389892578125,0.3585089022547006,1.1786898518577218,0.2964274168729782,0.4581187665462494,0.5025604367256165,0.8597025275230408
1783202317254327000,6.5573271484375,0.305003631636314,1.2453718167722223,0.5480746117770672,0.4509603083133697,0.5197862982749939,0.8913425207138062
1783202317264264000,6.567263916015625,0.2984067175893113,1.2871429200530051,0.7738391774058342,0.4226490259170532,0.5081897974014282,0.911301851272583
1783202317274200800,6.577200927734375,0.3174190957689657,1.3144780862241985,0.9600544074565172,0.3703032732009887,0.4761345982551574,0.929185688495636
1783202317284138000,6.587137939453125,0.3387152009716257,1.3693135460004209,1.1633546278208493,0.2935088872909546,0.4447905123233795,0.950204372406006
1783202317294075100,6.5970751953125,0.3604631781276315,1.406059514595568,1.4663082315921785,0.1974731534719467,0.4032993912696838,0.9719243049621582
1783202317304012000,6.607011962890625,0.3926894408086314,1.4345654781118031,1.7306389669805764,0.0920236855745315,0.3388138711452484,1.0091911554336548
1783202317313950000,6.616949951171875,0.4466861847383901,1.438167594256997,1.881315266138315,-0.0264064222574234,0.2418772429227829,1.060053825378418
1783202317323886800,6.626886962890625,0.4913216279417276,1.3267378483384846,1.953191000303626,-0.1845105737447738,0.1178988367319107,1.121389627456665
1783202317333824000,6.636823974609375,0.4399801842937246,1.0356848179802298,1.943190999814868,-0.373379111289978,0.0257931370288133,1.182339429855347
1783202317343761000,6.646760986328125,0.2171286200348287,0.6413318644061684,1.849724196088314,-0.5228196978569031,-0.0457683950662612,1.2050931453704834
1783202317353698000,6.656697998046875,-0.0539214502038434,0.2663213246837258,1.5962462786257263,-0.5919808745384216,-0.147313967347145,1.1894416809082031
1783202317363635000,6.666635009765625,-0.3334929362786933,-0.0170636552646756,1.106478309866786,-0.5932631492614746,-0.2820874750614166,1.1397031545639038
1783202317373571800,6.67657177734375,-0.6210483703121542,-0.227653740376234,0.6518962207794189,-0.5475809574127197,-0.3940343856811523,1.0695581436157229
1783202317383509000,6.686509033203125,-0.8307024166826158,-0.4353153708204627,0.2655254981309175,-0.4765187203884125,-0.4267457127571106,1.000961184501648
1783202317393446000,6.69644580078125,-1.0482244199492037,-0.5590072169408202,-0.0440273577749729,-0.3855094611644745,-0.3709578514099121,0.9208531379699708
1783202317403384000,6.706384033203125,-1.1463008363630622,-0.5751002736076712,-0.199158298254013,-0.2982621788978576,-0.2786646783351898,0.8375837802886963
1783202317413321000,6.716321044921875,-1.187855739609897,-0.4797475100040435,-0.3970744874924421,-0.2183835208415985,-0.231056660413742,0.7724979519844055
1783202317423258000,6.726258056640625,-1.1176180549751966,-0.4520128231212496,-0.7063432657599449,-0.1824004799127578,-0.2599759399890899,0.7316450476646423
1783202317433194800,6.73619482421875,-0.9515506368748844,-0.5915452124521136,-1.0602508116990328,-0.1945780962705612,-0.3114502131938934,0.7065185904502869
1783202317443132000,6.7461318359375,-0.8626374047994613,-0.7428744225606322,-1.3137351589024069,-0.2384198457002639,-0.3441937863826751,0.6597257852554321
1783202317453069000,6.756069091796875,-0.8893415065255016,-0.7712029836833476,-1.5356576621502638,-0.3095892667770386,-0.3053800761699676,0.5942220091819763
1783202317463006000,6.766005859375,-0.9458120932228864,-0.7250199091792107,-1.7758318614035844,-0.3862078785896301,-0.1852704584598541,0.5188273787498474
1783202317472943000,6.775943115234375,-0.887845495814085,-0.7353411044463515,-1.909180593663454,-0.4354218542575836,-0.0130375605076551,0.4513047635555267
1783202317482880000,6.7858798828125,-0.7231985389709472,-0.6941483855754137,-2.094054345977306,-0.4281373023986816,0.1707152277231216,0.392482191324234
1783202317492818000,6.79581787109375,-0.5370221796259284,-0.4981903446674346,-2.2695529517024755,-0.368852287530899,0.3373650014400482,0.3657600879669189
1783202317502754800,6.8057548828125,-0.3527634904704987,-0.1980050365656614,-2.3227485353171824,-0.2672966420650482,0.4724437296390533,0.3846466839313507
1783202317512692000,6.81569189453125,-0.1372853410564363,0.1197200198799371,-2.262822766664624,-0.1440830677747726,0.5692023038864136,0.4349575042724609
1783202317522629000,6.825629150390625,0.1251369303621351,0.3966486632958054,-2.0475702426999804,0.0066071110777556,0.6084351539611816,0.5154606103897095
1783202317532566000,6.83556591796875,0.3902155615083873,0.6650394877299666,-1.7981389702796935,0.1723240315914154,0.581852912902832,0.6158429980278015
1783202317542503000,6.8455029296875,0.6384382618565112,0.8500915192201733,-1.5943874990165232,0.3504487574100494,0.530682384967804,0.7321799397468567
1783202317552439800,6.855439697265625,0.840816472005099,0.9252493437960744,-1.3370780405670404,0.5056368112564087,0.4766588807106018,0.8443158864974976
1783202317562377000,6.865376953125,0.9226417185809462,0.9357859353795648,-1.0373960058122873,0.6352251768112183,0.451197475194931,0.9411643743515016
1783202317572314000,6.875314208984375,0.8362923456441611,0.9424541610971092,-0.7165624619573354,0.7137033939361572,0.4610180258750915,1.0123647451400757
1783202317582252000,6.885251953125,0.6462732663311064,0.946736660721898,-0.3439116371035575,0.7582229375839233,0.5014991164207458,1.062025785446167
1783202317592189200,6.895189208984375,0.4183298953585326,0.9410624144777656,0.0068839142948389,0.7475535869598389,0.5597177743911743,1.0935170650482178
1783202317602125800,6.905125732421875,0.1744979773152619,0.84659140214473,0.3244254308670759,0.7166886329650879,0.6418224573135376,1.107840895652771
1783202317612063000,6.91506298828125,-0.0174869221780449,0.7456389188379049,0.6412760425657034,0.664096474647522,0.7219676971435547,1.0960694551467896
1783202317621999900,6.924999755859375,-0.1686423100896179,0.685949004767835,0.980556512737274,0.5933389663696289,0.7653160095214844,1.074811935424805
1783202317631937000,6.93493701171875,-0.2572545133918523,0.6582952741667628,1.3009084105551243,0.4869857430458069,0.7543036937713623,1.0589929819107056
1783202317641874200,6.944874267578125,-0.2641150468111038,0.592008738310635,1.568645154994726,0.3789125382900238,0.6913500428199768,1.059412956237793
1783202317651810800,6.954810791015625,-0.1955941760316491,0.4541393137559294,1.7408236763864755,0.2723394632339477,0.5673761367797852,1.06352961063385
1783202317661749000,6.9647490234375,-0.0930593919694423,0.2567559162199497,1.7592139040797947,0.1626259982585907,0.4082980453968048,1.077830195426941
1783202317671686000,6.974685791015625,-0.1034513143852353,0.0607169190302491,1.6914812610685823,0.0538083091378212,0.2581168711185455,1.0972883701324463
1783202317681623000,6.984623046875,-0.2192815602850168,-0.1358849727392196,1.611273751887679,-0.0282980129122734,0.1667888164520263,1.0912562608718872
1783202317691560000,6.994559814453125,-0.4533709597319364,-0.2769540701180696,1.4950176087260243,-0.0887364298105239,0.1480634212493896,1.049483060836792
1783202317701497000,7.0044970703125,-0.6856357010349631,-0.3464215740978718,1.4505430917054414,-0.1392651051282882,0.1541649848222732,0.9848062992095948
1783202317711434000,7.01443408203125,-0.8505614748194813,-0.3422109706655144,1.3701345069944857,-0.1691346615552902,0.1832752376794815,0.9281976819038392
1783202317721371000,7.024370849609375,-0.9769844264041632,-0.3390712113350629,1.2521131077259775,-0.186365321278572,0.2200279235839843,0.878685474395752
1783202317731308000,7.03430810546875,-1.001094273853302,-0.3190788091421127,1.2045020462453364,-0.2066400945186615,0.2164120972156524,0.8419727087020874
1783202317741245000,7.044244873046875,-1.0297648533467203,-0.3157496647194027,1.125801434496045,-0.2261195182800293,0.149984061717987,0.8145906329154968
1783202317751183000,7.05418310546875,-1.039094407228008,-0.3647892976984381,1.0032751250237226,-0.2626703679561615,0.0552658922970294,0.780762791633606
1783202317761120000,7.0641201171875,-1.0371389623112977,-0.5188640071228147,0.903861980113387,-0.2968219518661499,-0.0464950911700725,0.7406319379806519
1783202317771057000,7.074056884765625,-1.010377212113887,-0.6682312695086002,0.7579296606123447,-0.3343748152256012,-0.144806370139122,0.6857882142066956
1783202317780994000,7.083994140625,-1.023123004179448,-0.7184639116644859,0.5453121613264084,-0.3817170262336731,-0.2415190637111663,0.60969078540802
1783202317790931000,7.093930908203125,-1.0752069732904437,-0.7012450658380985,0.295856923508644,-0.4375119507312774,-0.3006139099597931,0.5131372213363647
1783202317800868000,7.1038681640625,-1.1398274756304918,-0.6296183379977941,0.0325584537774324,-0.5083230137825012,-0.3383578360080719,0.4036187529563904
1783202317810805000,7.113804931640625,-1.1648534880764785,-0.5093856924206018,-0.2523918757915496,-0.5922846794128418,-0.3298666775226593,0.294482409954071
1783202317820742000,7.123741943359375,-1.1329990909151733,-0.3875429812982678,-0.5967939267605543,-0.6889039278030396,-0.2657393515110016,0.1940021216869354
1783202317830679000,7.133678955078125,-1.0578192006379366,-0.3413599067941308,-0.9028542643755674,-0.7583255171775818,-0.1496409326791763,0.1146872267127037
1783202317840617000,7.143616943359375,-0.9369935576036572,-0.4098115117296576,-1.2030337272584437,-0.8066909313201904,-0.0303864404559135,0.0592442117631435
1783202317850554000,7.15355419921875,-0.7883693686701357,-0.5144613882496952,-1.5622247665584086,-0.8245863318443298,0.0776343718171119,0.0243264306336641
1783202317860491000,7.163490966796875,-0.6328776320546865,-0.498875988844037,-1.8757582165330648,-0.8035399317741394,0.1976244300603866,0.0160927362740039
1783202317870428200,7.17342822265625,-0.4634126074053347,-0.4783756371289491,-2.049762199786305,-0.7282823920249939,0.3053630590438843,0.0305241495370864
1783202317880364800,7.18336474609375,-0.2731754283621907,-0.4528928208261728,-2.1722586986422536,-0.5880184769630432,0.3952535390853882,0.0573083609342575
1783202317890302000,7.193302001953125,-0.0942269744440913,-0.3760375446826219,-2.204095852407813,-0.4163756072521209,0.4679580330848694,0.0992699787020683
1783202317900239000,7.203239013671875,0.0570211332522332,-0.3023527152687311,-2.1272961058437825,-0.222368061542511,0.5341498851776123,0.1513390392065048
1783202317910176000,7.213176025390625,0.1602741485863923,-0.207914436161518,-1.899407972189784,-0.0369831472635269,0.5803197026252747,0.2021155357360839
1783202317920113200,7.223113037109375,0.1888944591972977,-0.0795899618044495,-1.590947003173828,0.1131317839026451,0.5899888873100281,0.2482444196939468
1783202317930051000,7.233051025390625,0.2065893981028348,0.0077761869594454,-1.247942544043064,0.2248121052980423,0.5783352255821228,0.2954234480857849
1783202317939988000,7.242988037109375,0.2430026276122778,0.0914566329479217,-0.8774608799219131,0.3025774657726288,0.5489019155502319,0.3396140933036804
1783202317949924900,7.2529248046875,0.2893222610428929,0.1554535965621471,-0.5118073666095734,0.3546558618545532,0.5234582424163818,0.3790108859539032
1783202317959862000,7.262862060546875,0.3536198150388896,0.187315592508018,-0.113905196121335,0.3752349019050598,0.4972780644893646,0.4131241142749786
1783202317969799200,7.272799072265625,0.4002832934711128,0.2530158529087901,0.2164782663673162,0.3811279535293579,0.4749051034450531,0.4399482607841491
1783202317979736000,7.282736083984375,0.4214252310253679,0.3250494079843163,0.4961538704037666,0.3922184109687805,0.4870946407318115,0.4687743186950683
1783202317989673000,7.2926728515625,0.4120845712281763,0.4364741854667663,0.8287205221503973,0.4449053704738617,0.4972971081733703,0.4945655167102813
1783202317999609900,7.30260986328125,0.4158056375779211,0.6127171798184514,1.0536001216381787,0.3992092609405517,0.4525818228721618,0.5307839512825012
1783202318009547000,7.312547119140625,0.4102889199830591,0.659695496353507,1.3226181380599735,0.3578681051731109,0.4379764795303345,0.5835298299789429
1783202318019484200,7.322484130859375,0.499825252392888,0.6531915212869643,1.7061515914559364,0.3356823921203613,0.3964234292507171,0.6380069255828857
1783202318029422000,7.332422119140625,0.5496481447041034,0.7711974307253956,1.881518679755926,0.2916335463523865,0.3284035623073578,0.6839131712913513
1783202318039359000,7.34235888671875,0.5312332209609448,0.9234212515860796,2.0226795470714567,0.2246694266796112,0.279335081577301,0.733699381351471
1783202318049296000,7.3522958984375,0.5547020670928061,0.9755506672739982,2.284011685165763,0.135639414191246,0.236357495188713,0.787024199962616
1783202318059233000,7.36223291015625,0.5001667593069374,0.9585054244488476,2.517445762509108,0.0182904135435819,0.1647754460573196,0.8184465169906616
1783202318069170000,7.372169921875,0.2869144692488014,0.9000912294030189,2.6091905647486446,-0.1224294751882553,0.0882177874445915,0.8311620950698853
1783202318079106300,7.382106201171875,-0.0345193055216223,0.7238204702615737,2.664423791670799,-0.2625658214092254,0.0106281880289316,0.8212136030197144
1783202318089043500,7.39204345703125,-0.3315235724344849,0.5166755571678281,2.571854813566804,-0.3840288817882538,-0.0766916871070861,0.7922661900520325
1783202318098980400,7.40198046875,-0.5827044650010764,0.3136535692229867,2.282549795919657,-0.4900719821453094,-0.165127545595169,0.7547249794006348
1783202318108917200,7.411917236328125,-0.8044565801180898,0.0923144188210368,1.9504881710857151,-0.5719720125198364,-0.2477568089962005,0.7043790221214294
1783202318118854400,7.4218544921875,-0.9584441227156668,-0.0774134945482015,1.5853028598070145,-0.6343008875846863,-0.3066150546073913,0.6352878212928772
1783202318128791300,7.431791259765625,-1.05953316494897,-0.2236249232515692,1.1599977186083792,-0.6833572387695312,-0.3577209413051605,0.5533590316772461
1783202318138729200,7.441729248046875,-1.0865231709443033,-0.3441571362972259,0.7675497218728065,-0.7389193177223206,-0.4053835272789001,0.4742916226387024
1783202318148666400,7.451666259765625,-1.0665655478037892,-0.4869146251544356,0.3349707902789116,-0.8050617575645447,-0.4297108948230743,0.4082610607147217
1783202318158603500,7.461603515625,-1.0369719351813196,-0.7091784891858697,-0.1132470244735479,-0.8674308657646179,-0.406199961900711,0.3602519929409027
1783202318168540200,7.4715400390625,-1.0261825378805398,-0.9519055877923964,-0.5549234547585249,-0.911216914653778,-0.3488271236419678,0.3109480142593384
1783202318178477300,7.481477294921875,-1.048873677638173,-1.1532269092991947,-0.9577110592007636,-0.929086983203888,-0.2672651410102844,0.2509568333625793
1783202318188414200,7.491414306640625,-1.080238683847338,-1.2866437383592129,-1.3835463617533446,-0.9002557992935181,-0.1923712193965912,0.1932758390903473
1783202318198351400,7.501351318359375,-1.0873935240380466,-1.395986448870599,-1.8144693428337573,-0.8242998123168945,-0.1208719983696937,0.1397345811128616
1783202318208288500,7.51128857421875,-1.0706010869301854,-1.446282219390571,-2.172195570278168,-0.6977567672729492,-0.0455928146839141,0.0918024033308029
1783202318218225200,7.52122509765625,-1.0647957616522907,-1.5068537386007606,-2.4164976631164548,-0.5566604137420654,0.0081255380064249,0.0523418150842189
1783202318228162300,7.531162353515625,-1.0699755023777484,-1.5670014794409275,-2.571739662754536,-0.413853257894516,0.0689386874437332,0.0126690017059445
1783202318238099500,7.541099365234375,-1.0847273735687135,-1.6423434284120797,-2.637217804837227,-0.2413555383682251,0.1265106350183487,-0.0319035239517688
1783202318248036400,7.551036376953125,-1.0543692063145338,-1.6793360652446745,-2.6007033069103955,-0.0568011701107025,0.1570726186037063,-0.0742923691868782
1783202318257973200,7.56097314453125,-1.0671493390411138,-1.649710303918272,-2.580956403911113,0.1319833993911743,0.1832032799720764,-0.1001513972878456
1783202318267911200,7.5709111328125,-1.0787095745839177,-1.5932269308045506,-2.3646996713399884,0.3313084542751312,0.2206560373306274,-0.1341916173696518
1783202318277848300,7.580848388671875,-1.0974129598796367,-1.4599598854787648,-1.9695213728576897,0.525928795337677,0.2233972400426864,-0.1762013882398605
1783202318287785200,7.59078515625,-1.1441264879986643,-1.2788503080040217,-1.5669529641240834,0.6959800124168396,0.170788824558258,-0.2334040403366089
1783202318297722400,7.600722412109375,-1.1250685901768505,-1.1370368219986555,-1.2214935130566358,0.8357882499694824,0.1052598878741264,-0.2708989381790161
1783202318307659300,7.6106591796875,-1.036585273951292,-1.0746896714180707,-0.8313233981251716,0.9444608092308044,0.0452792793512344,-0.2894036769866943
1783202318317596200,7.62059619140625,-0.9089144411973654,-0.949627413727343,-0.3976631010353565,1.0118979215621948,0.0011624186299741,-0.3119441270828247
1783202318327533300,7.630533203125,-0.8392366554677486,-0.7534308878883719,0.0112152214974164,1.0360543727874756,-0.0197508297860622,-0.3288488686084747
1783202318337470200,7.64047021484375,-0.8189379638046026,-0.5539379508525133,0.4116016100168227,1.016518235206604,-0.0254057869315147,-0.3505504131317138
1783202318347407400,7.650407470703125,-0.7981476892322301,-0.407451504600048,0.7660036614745855,0.9619188904762268,-0.0059794415719807,-0.370716780424118
1783202318357344500,7.660344482421875,-0.7922767513722181,-0.3288838715806603,1.1058148775219916,0.8789968490600586,0.0022172350436449,-0.3909573554992676
1783202318367281200,7.67028125,-0.7927807553716003,-0.2679837049379944,1.3666250375688076,0.7883384823799133,-0.0056145312264561,-0.4189084768295288
1783202318377218300,7.68021826171875,-0.7498500337269157,-0.2078060073509812,1.5126742614477873,0.6898403763771057,-0.0225474424660205,-0.4368115663528442
1783202318387155200,7.6901552734375,-0.7120455690547823,-0.1100052660733461,1.6573194637477398,0.592814028263092,-0.0459314733743667,-0.4525739848613739
1783202318397093400,7.70009326171875,-0.660870020025596,-0.0313335881575942,1.826639088577032,0.4979791045188904,-0.0712642595171928,-0.4697377979755401
1783202318407030300,7.7100302734375,-0.6202583889782428,0.043708208823204,1.9349749601334327,0.4006591439247131,-0.1019739434123039,-0.4920675456523895
1783202318416967400,7.719967529296875,-0.5899830777019262,0.1371297121033072,2.0210610059589147,0.2840585112571716,-0.1232739090919494,-0.5226656794548035
1783202318426904300,7.729904296875,-0.5630332575865089,0.2599117499023676,2.1661872697740794,0.1477417796850204,-0.1594029366970062,-0.5587040781974792
1783202318436841200,7.73984130859375,-0.5240081650782377,0.3747483816549182,2.2584914594620464,-0.0004157274961471,-0.2086437195539474,-0.589500904083252
1783202318446778400,7.7497783203125,-0.4306067547380924,0.4596572003945708,2.2451789734244345,-0.1453909426927566,-0.2594448626041412,-0.61778724193573
1783202318456715300,7.75971533203125,-0.2586708829957991,0.5138835883617401,2.165239759790897,-0.2802163958549499,-0.3091053664684295,-0.6392480731010437
1783202318466652400,7.76965234375,-0.0461506335392594,0.5775163948386908,1.9968682294666769,-0.3942793607711792,-0.3397117555141449,-0.6486003398895264
1783202318476589300,7.77958935546875,0.1184055762805044,0.6555766628578305,1.7910697625458238,-0.4866665601730346,-0.3469763398170471,-0.6397943496704102
1783202318486526200,7.789526123046875,0.2443883828822523,0.719472796446085,1.5907950274825096,-0.5454108715057373,-0.3724338412284851,-0.6164316534996033
1783202318496463400,7.79946337890625,0.3313790493972599,0.6900242913827299,1.2232283740252257,-0.5705881118774414,-0.3888857662677765,-0.5649561882019043
1783202318506400300,7.809400146484375,0.3520281619332731,0.5962406767919659,0.8783154509246349,-0.5683318972587585,-0.3956423699855804,-0.521888017654419
1783202318516337400,7.81933740234375,0.3344626946263015,0.4897282212704419,0.6112666887491941,-0.5354309678077698,-0.4280184209346771,-0.4855843186378479
1783202318526274300,7.8292744140625,0.2552928579300642,0.3485574170827865,0.2504939332157373,-0.4804680943489074,-0.4864818453788757,-0.4643344283103943
1783202318536211200,7.839211181640625,0.2053881325542926,0.1822869506910443,-0.1206371347248554,-0.4208223521709442,-0.5490570664405823,-0.4504167437553406
1783202318546148400,7.8491484375,0.1390098267614841,0.0085100541919469,-0.4215168548315763,-0.3521728515625,-0.6195707321166992,-0.4529266059398651
1783202318556085200,7.859085205078125,0.0226404324837028,-0.1165107024446129,-0.7415396668255329,-0.2842476069927215,-0.685499906539917,-0.4829683899879455
1783202318566022400,7.8690224609375,-0.1272919164389371,-0.1540042745366692,-1.077318850877881,-0.2154753655195236,-0.6952290534973145,-0.5254079699516296
