time,seconds_elapsed,ax,ay,az,gx,gy,gz
1783201261842603800,0.095603759765625,-1.954605543276668,-0.3299374722868204,0.0943032545506954,-0.2219554781913757,0.3209353685379028,-1.0471194982528689
1783201261852540400,0.10554052734375,-1.6346020205050706,-0.2522112585276365,0.2487263390213251,-0.1638799309730529,0.3741048574447632,-1.152841567993164
1783201261862477600,0.1154775390625,-1.2240397634733469,-0.2756593541324138,0.2805225762546062,-0.1142761558294296,0.3177279531955719,-1.1990766525268557
1783201261872414500,0.12541455078125,-0.885147123575583,-0.1556827291429042,0.2924830631613731,-0.0921791195869445,0.2075694799423217,-1.2115553617477417
1783201261882350600,0.1353505859375,-0.6511748477023095,0.07301496732831,0.5133937590181827,-0.1143879890441894,0.0716370269656181,-1.2001465559005735
1783201261892288800,0.145288818359375,-0.4448961960490792,0.2400648936599493,0.7198036358356475,-0.1655867248773574,-0.0665352195501327,-1.1903975009918213
1783201261902224600,0.155224609375,-0.2217867115063592,0.3657254095047712,0.7878951752871275,-0.2222762107849121,-0.2052422314882278,-1.1836004257202148
1783201261912162600,0.16516259765625,0.0112231125429272,0.5336375056236982,0.7595803504288197,-0.2729287445545196,-0.2946253716945648,-1.1663732528686523
1783201261922099700,0.175099609375,0.1671400157678872,0.652837885543704,0.8219400682300328,-0.3158334791660309,-0.3229210376739502,-1.1222481727600098
1783201261932035600,0.18503564453125,0.2300807483274489,0.791845958739519,0.884980754032731,-0.348628968000412,-0.3248989582061767,-1.0529916286468506
1783201261941972500,0.194972412109375,0.2565188377947546,0.9481436049103736,0.9087748865962028,-0.3661842942237854,-0.3050828278064728,-0.9712665677070618
1783201261951909600,0.20490966796875,0.2928348722737282,1.0251724840551617,1.0041659363836049,-0.3926039040088653,-0.2882854640483856,-0.8851348757743835
1783201261961846500,0.214846435546875,0.349914749975875,1.0652899749100209,1.0484884777128696,-0.4227001368999481,-0.3170409202575683,-0.8262317180633545
1783201261971783700,0.22478369140625,0.3752085465125739,1.0274497813373804,0.8325187453895807,-0.4593777358531952,-0.4069838523864746,-0.793542742729187
1783201261981720600,0.234720458984375,0.3738695529937744,0.8985428309172392,0.462027144396305,-0.476911723613739,-0.4992267191410064,-0.7788941264152527
1783201261991657500,0.244657470703125,0.318508461908251,0.7354717450886964,0.1886579470276832,-0.4726546704769134,-0.5439844131469727,-0.7738288044929504
1783201262001594600,0.2545947265625,0.2767253759287297,0.6139928988426924,-0.0814016874015331,-0.4484306573867798,-0.5702970027923584,-0.7710863351821899
1783201262011531500,0.264531494140625,0.2898195795731619,0.5154705652922391,-0.4461252263873815,-0.3992162346839905,-0.6027028560638428,-0.7607266306877136
1783201262021467400,0.27446728515625,0.362782597518526,0.452909187439084,-0.8092489289611577,-0.3517404496669769,-0.6419267654418945,-0.7513818144798279
1783201262031404500,0.284404541015625,0.4987464441802352,0.4115180233865976,-1.1523843209952116,-0.3237474262714386,-0.6697043180465698,-0.7492680549621582
1783201262041341400,0.294341552734375,0.5664232653509825,0.3386737364500761,-1.438027893525362,-0.3427454531192779,-0.655635416507721,-0.759395956993103
1783201262051278600,0.304278564453125,0.592133460668847,0.238110836982727,-1.7505699943751096,-0.3799974918365478,-0.5692811012268066,-0.7853018641471863
1783201262061215700,0.3142158203125,0.6158060857445001,0.127844289624691,-2.1060867290765044,-0.424144834280014,-0.4146977066993713,-0.8081721067428589
1783201262071152400,0.32415234375,0.6511300587125122,0.0258300223052501,-2.439683308392763,-0.4466972649097442,-0.1704621315002441,-0.8117218017578125
1783201262081089500,0.334089599609375,0.6545064032778144,0.0293429988622665,-2.542988200044632,-0.4338569343090057,0.1285157352685928,-0.8093883991241455
1783201262091026400,0.3440263671875,0.5843770013231784,0.1428387373998761,-2.520551327309012,-0.3920439779758453,0.3928115665912628,-0.8029648065567017
1783201262100963600,0.353963623046875,0.560971868077293,0.2322811079159379,-2.4638392600059507,-0.3303189575672149,0.5626419186592102,-0.8050243258476257
1783201262110900700,0.363900634765625,0.6201937993094325,0.3099325028732418,-2.33914612788856,-0.2542699873447418,0.6285077333450317,-0.8016437292098999
1783201262120837400,0.37383740234375,0.7374729288432746,0.3981090912371873,-2.142652664929628,-0.1728089451789856,0.6337610483169556,-0.7793322801589966
1783201262130774500,0.3837744140625,0.8861920295186341,0.5075920870020986,-1.9182091187715529,-0.0947495698928833,0.5979170799255371,-0.7482971549034119
1783201262140711400,0.39371142578125,1.0359904498632997,0.613971271532774,-1.680977987232804,-0.0071399360895156,0.5562683939933777,-0.7039840221405029
1783201262150648600,0.403648681640625,1.1376647446386516,0.7468444952353834,-1.4502683664172886,0.0874491557478904,0.5282463431358337,-0.6456117630004883
1783201262160585500,0.41358544921875,1.1991641923487186,0.8997346710503101,-1.1718898164540528,0.1871467232704162,0.5076937079429626,-0.5771978497505188
1783201262170522400,0.4235224609375,1.189730301310122,1.0670905945912004,-0.8651181156992912,0.2678152024745941,0.5006040930747986,-0.5050658583641052
1783201262180459500,0.43345947265625,1.142523875107616,1.2002005496591328,-0.4863531918793916,0.3125813007354736,0.5279368162155151,-0.4274296462535858
1783201262190396700,0.443396728515625,1.0900288409776986,1.241299452766776,-0.0630067835330963,0.3230664432048797,0.5589131116867065,-0.3361681699752807
1783201262200333600,0.45333349609375,1.0221792935885488,1.2275947525411843,0.2902724013745784,0.3111791014671325,0.5737184882164001,-0.2429313957691192
1783201262210270500,0.4632705078125,0.9327232598733156,1.195224514812231,0.5813613798290491,0.2966156005859375,0.5375639200210571,-0.1609957814216613
1783201262220207400,0.473207275390625,0.8226616605028509,1.1922247484743596,0.773930947342515,0.2889009416103363,0.4617714285850525,-0.0999650955200195
1783201262230144500,0.48314453125,0.7447611130900681,1.2193974175602198,1.0200789603084326,0.2965266108512878,0.3922224342823028,-0.0667962208390235
1783201262240081700,0.49308154296875,0.7249766545593738,1.2857377294301986,1.348481478112936,0.3137209415435791,0.3408921658992767,-0.0447852648794651
1783201262250018600,0.5030185546875,0.7532868032425641,1.4156243385374545,1.6667138995587825,0.3258247375488281,0.2900787889957428,-0.0364287979900836
1783201262259955500,0.51295556640625,0.7804168022304773,1.5893535965025425,1.959959179264307,0.3234681785106659,0.2489047050476074,-0.0407613776624202
1783201262269892400,0.522892333984375,0.8220221935555339,1.797093845140934,2.335112342327833,0.2808471918106079,0.2124601453542709,-0.0381197892129421
1783201262279829500,0.53282958984375,0.916983181362599,1.9631734651356931,2.6830788077801464,0.2013877779245376,0.1531361639499664,-0.0292198322713375
1783201262289766700,0.5427666015625,1.0494464360248297,2.0274340481221675,2.8400737885653973,0.0757685974240303,0.0436070077121257,-0.0042564254254102
1783201262299703600,0.55270361328125,1.277158117133379,1.9903467187434436,2.7044576958954334,-0.0748687386512756,-0.1510738134384155,0.0659957081079483
1783201262309640400,0.562640380859375,1.61829356752187,1.8047534199833868,2.236447969958186,-0.2239247858524322,-0.3561798334121704,0.1814195066690445
1783201262319577300,0.572577392578125,1.780589138933271,1.689945137542486,1.907542763328552,-0.36101233959198,-0.4865882098674774,0.3048342168331146
1783201262329514500,0.582514404296875,1.7825050555571913,1.779541821837425,1.652553272259235,-0.478645771741867,-0.5830913186073303,0.4273939430713653
1783201262339451600,0.59245166015625,1.7398887336239215,1.7864421027451751,1.1440110449254512,-0.5788876414299011,-0.6818499565124512,0.5473562479019165
1783201262349388500,0.602388427734375,1.7096946708902716,1.627307187321782,0.5535813924998044,-0.6571789979934692,-0.7631160616874695,0.647807240486145
1783201262359325400,0.612325439453125,1.6153832330331206,1.3653759142905473,-0.1002174470305442,-0.7012640237808228,-0.8272783160209656,0.7213776111602783
1783201262369262300,0.622262451171875,1.4725604238547385,1.028792720378935,-0.8782078988969325,-0.695712685585022,-0.8710510730743408,0.7555496692657471
1783201262379199500,0.632199462890625,1.3201863808684051,0.6869903305143118,-1.7931944996148346,-0.6330705285072327,-0.8789346814155579,0.7614878416061401
1783201262389136600,0.64213671875,1.2009742374453694,0.4493529562622309,-2.560017660778761,-0.5013005137443542,-0.7803204655647278,0.7650687098503113
1783201262399073500,0.652073486328125,0.9660204762540756,0.4070230500549078,-3.052371554377675,-0.3480167984962463,-0.5365834832191467,0.7584848403930664
1783201262409010400,0.662010498046875,0.7178169920630753,0.448569404669106,-3.362035469442606,-0.1971039921045303,-0.3119985461235046,0.7577964067459106
1783201262418947600,0.671947509765625,0.7241838967464864,0.4097404923200607,-3.801514097422361,-0.0834212154150009,-0.115484818816185,0.765330970287323
1783201262428884500,0.681884521484375,0.8605997614920139,0.2046756003707647,-3.876068110886216,-0.0020395396277308,0.0689034014940261,0.7839094400405884
1783201262438821600,0.691821533203125,0.9825153917200864,-0.0032177930027246,-3.800280171713233,0.0526087433099746,0.223610371351242,0.8114247918128967
1783201262448758500,0.701758544921875,0.9613580374009908,-0.0608650953292846,-3.6165099967271086,0.0963152050971984,0.3408347368240356,0.8453801274299622
1783201262458695400,0.7116953125,0.8428922553658484,0.0137187287509441,-3.308369345706701,0.1382317692041397,0.4566977918148041,0.8866445422172546
1783201262468632600,0.721632568359375,0.6415837933406233,0.1779866231486201,-2.894181226328015,0.1777402907609939,0.5452170372009277,0.914030909538269
1783201262478569500,0.731569580078125,0.4412304766157642,0.3832715875893831,-2.450257893899083,0.211068257689476,0.6190524101257324,0.9242070317268372
1783201262488506600,0.741506591796875,0.3687327746272087,0.5995598843425511,-1.9493261415690184,0.2268309742212295,0.6665610671043396,0.9359808564186096
1783201262498443500,0.751443603515625,0.2996998626723885,0.7516758609145879,-1.4499480484217404,0.2160715460777282,0.7472330331802368,0.9343868494033812
1783201262508380400,0.76138037109375,0.224724847317487,0.8932979160010814,-0.7941121501058339,0.1660781502723693,0.8481087684631348,0.9292360544204712
1783201262518317600,0.771317626953125,0.1314062929552048,1.095362749351561,-0.1783943271666765,0.0576778575778007,0.9072880744934082,0.9119521975517272
1783201262528254500,0.78125439453125,0.0880227129764854,1.2030834116190672,0.3061772419929504,-0.0589273162186145,0.9250481724739076,0.9174164533615112
1783201262538191600,0.791191650390625,0.168853395557031,1.1121677536800505,0.5573404527723789,-0.123842142522335,0.8960883021354675,0.9409636855125428
1783201262548128500,0.80112841796875,0.2475559800677001,0.9844541046977042,0.6046522390455007,-0.116508848965168,0.836199939250946,0.9823579788208008
1783201262558065400,0.8110654296875,0.2272057774130254,0.9187214033320544,0.579912350064516,-0.0408228300511837,0.7620885372161865,1.0180134773254397
1783201262568002600,0.82100244140625,0.0518285969772841,0.9648018942445516,0.6555722789436579,0.0874496549367904,0.723564863204956,1.0530885457992554
1783201262577939500,0.830939453125,-0.0376429905001074,1.0857982176706191,0.9447475327312944,0.2386295199394226,0.7092412710189819,1.0731666088104248
1783201262587876600,0.840876708984375,-0.0933060602068901,1.1928569088980554,1.2504822916537524,0.3701910078525543,0.6725359559059143,1.0831878185272217
1783201262597814500,0.850814453125,-0.129026119820401,1.2642691172048448,1.586605174577236,0.4443587064743042,0.5842896103858948,1.0910660028457642
1783201262607750400,0.86075048828125,-0.1242410775009542,1.2092033558040856,1.8847043240547177,0.4558862149715423,0.4347787201404571,1.1192563772201538
1783201262617687600,0.8706875,-0.1655972433052956,0.9966811335861684,2.027780669602752,0.426403284072876,0.254808247089386,1.1628119945526123
1783201262627624400,0.88062451171875,-0.3163088329721242,0.7244049921512603,2.0182786817640066,0.4007575511932373,0.0893793478608131,1.2010997533798218
1783201262637561600,0.8905615234375,-0.5054596050180494,0.5310229392111301,1.9002713110208511,0.3967093825340271,-0.0244425311684608,1.2008217573165894
1783201262647499500,0.90049951171875,-0.7632921374935656,0.4777981295019388,1.769547666567564,0.420551061630249,-0.0698507577180862,1.144874095916748
1783201262657436700,0.910436767578125,-0.968782780574262,0.5857692593991756,1.7501245886951684,0.429684966802597,-0.0301096700131893,1.03932523727417
1783201262667373300,0.920373291015625,-1.0324470781680195,0.7560480846494436,1.8611539371192451,0.3636819720268249,0.0523061081767082,0.920881450176239
1783201262677310500,0.930310546875,-0.9760035986732692,0.8224848426312208,2.019220931050181,0.1929780542850494,0.1124988719820976,0.8578217625617981
1783201262687247600,0.94024755859375,-0.7003452674541621,0.603584902074933,2.046870569998026,-0.0547430701553821,0.1237701699137687,0.8659502863883972
1783201262697184500,0.9501845703125,-0.435811776035279,0.2257856084167957,1.820228637012839,-0.3105801045894623,0.0710674300789833,0.9235612154006958
1783201262707121700,0.96012158203125,-0.3572602173678577,-0.0609679711818695,1.3860393476128576,-0.5034334659576416,-0.0333599112927913,0.9750217199325562
1783201262717058300,0.970058349609375,-0.4596592462211847,-0.2030570592582225,0.8346504967212677,-0.5957451462745667,-0.1296847909688949,0.9701480865478516
1783201262726995500,0.979995361328125,-0.6639910015903413,-0.177166246676445,0.2947118451267481,-0.583530843257904,-0.1775050312280655,0.9033054113388062
1783201262736932600,0.9899326171875,-0.8727266179416329,-0.0758674341499805,-0.0849000509113073,-0.5370513796806335,-0.1540457308292389,0.7862029671669006
1783201262746869500,0.999869384765625,-1.0956030609134584,0.085605568832159,-0.3392670261681079,-0.5238168239593506,-0.0990117788314819,0.6262348890304565
1783201262756806700,1.009806640625,-1.235189445453882,0.3315779329702258,-0.5520704034149646,-0.5887899398803711,-0.0232369117438793,0.4418778419494629
1783201262766743300,1.019743408203125,-1.0609297338739037,0.55965106780231,-0.746873429068923,-0.7006009221076965,0.1046544760465622,0.3013812005519867
1783201262776680400,1.029680419921875,-0.5751286959845573,0.6993561833515762,-1.0330185213804244,-0.8211020827293396,0.2284908443689346,0.2341370433568954
1783201262786617600,1.03961767578125,-0.0325626915611326,0.7615171637102961,-1.5929636036932469,-0.913865327835083,0.3288986682891845,0.2785844206809997
1783201262796554500,1.049554443359375,0.4958498824885115,0.6145490714207291,-2.2893138832271096,-0.9236764311790466,0.4178306460380554,0.4200046062469482
1783201262806491600,1.05949169921875,0.8971591945391147,0.3073556381225585,-3.0038498077929017,-0.8133110404014587,0.5023231506347656,0.6006929278373718
1783201262816428500,1.069428466796875,1.0008302891548722,0.097343937420845,-3.443823525813222,-0.6206514239311218,0.6080053448677063,0.7490637898445129
1783201262826365400,1.079365478515625,0.91991894255355,0.1843947366252541,-3.503174709448218,-0.4062587320804596,0.6846756339073181,0.8122113347053528
1783201262836302600,1.089302490234375,0.7094353865563869,0.4012140715152025,-3.445855908423662,-0.2340409606695175,0.7038431167602539,0.8302521109580994
1783201262846239500,1.099239501953125,0.5323428627032786,0.4749859946906566,-3.29692031545341,-0.100221648812294,0.6778594851493835,0.8427867889404297
1783201262856176600,1.1091767578125,0.4391968153636902,0.424219684049487,-3.121878805845976,-0.0031592240557074,0.6498314142227173,0.8688281774520874
1783201262866113500,1.119113525390625,0.3895513254459947,0.2801329924151301,-2.996762479880452,0.0813157111406326,0.639399528503418,0.9038143754005432
1783201262876050400,1.129050537109375,0.3220570943005383,0.1452861305519938,-2.859852840268612,0.1846355348825454,0.7015112638473511,0.9435438513755798
1783201262885987600,1.138987548828125,0.2169507061846554,0.0499982488781213,-2.522446931797266,0.2954464554786682,0.8378339409828186,0.9692391157150269
1783201262895924500,1.148924560546875,0.012289097806625,0.0289651054605841,-2.126924349921941,0.4074587523937225,0.977537214756012,0.9804518818855286
1783201262905861600,1.158861572265625,-0.2573250030784867,0.02902881834656,-1.5992337700039148,0.4891072809696197,1.1006882190704346,0.9836874008178712
1783201262915798500,1.168798583984375,-0.4962373109035193,0.0558516510814428,-0.9323550841480494,0.5511095523834229,1.1627987623214722,0.988301396369934
1783201262925735400,1.1787353515625,-0.704330756893754,0.0508393758773803,-0.3765150990664959,0.6043472290039062,1.1333582401275637,1.003316044807434
1783201262935672600,1.188672607421875,-0.9127961049363016,0.007250994041562,0.0131178402483463,0.6415183544158936,1.0433721542358398,1.0144438743591309
1783201262945609500,1.198609375,-1.106486639303714,-0.03226443926692,0.3690554307103156,0.6817731261253357,0.9326266646385192,1.0190725326538086
1783201262955546600,1.208546630859375,-1.2438178653284906,-0.0792819187685847,0.6617986061125993,0.7304508090019226,0.8043180108070374,1.021155595779419
1783201262965483500,1.2184833984375,-1.317648386823386,-0.1358107384592294,0.8550608320653438,0.7814874053001404,0.6763680577278137,1.0145409107208252
1783201262975420400,1.22842041015625,-1.4567619662202893,-0.2093614200994372,1.0327484722673892,0.7951284646987915,0.577663242816925,0.9909902811050416
1783201262985357600,1.238357666015625,-1.7364777561366558,-0.2698079977557063,1.283749185961485,0.7676281332969666,0.5424309372901917,0.9397523999214172
1783201262995294500,1.24829443359375,-1.9587622245647007,-0.3313979002282023,1.623165265211463,0.6982606053352356,0.5656813979148865,0.8601542115211487
1783201263005231600,1.258231689453125,-2.01926067853868,-0.3808551740974187,1.91155667514503,0.598931074142456,0.606740415096283,0.7730837464332581
1783201263015168500,1.26816845703125,-1.9873111504398284,-0.407362072750926,2.0952654753327367,0.4888879060745239,0.643841028213501,0.6960727572441101
1783201263025106000,1.27810595703125,-1.8593154696457088,-0.4041659070581198,2.269853395953774,0.3799145519733429,0.6458234786987305,0.6511151790618896
1783201263035043000,1.28804296875,-1.729195344043523,-0.4358049079030752,2.2957833715021607,0.2968550324440002,0.5990268588066101,0.6314437389373779
1783201263044980000,1.29797998046875,-1.6494878933392465,-0.5495534521579742,2.224847548535466,0.2354305535554886,0.53708815574646,0.6296804547309875
1783201263054917000,1.307917236328125,-1.6297599873013793,-0.6669008976876736,2.1388643785625696,0.1958008855581283,0.4763851463794708,0.6235230565071106
1783201263064854000,1.31785400390625,-1.640122391361743,-0.7021908222556114,2.1111136173278093,0.1587259620428085,0.3800437152385711,0.6008760333061218
1783201263074791000,1.327791015625,-1.5732766141876575,-0.6895996362298726,1.864097589355707,0.1500414460897445,0.2048688381910324,0.5750349760055542
1783201263084728000,1.33772802734375,-1.4927048017390072,-0.7711638207167386,1.4004688549816608,0.1830843538045883,0.0601638555526733,0.5396743416786194
1783201263094665000,1.3476650390625,-1.342606740860641,-0.7892366530239582,1.220914836385846,0.2330807447433471,0.0221629422158002,0.4999891519546509
1783201263104602000,1.35760205078125,-1.30883306607455,-0.7062626017391681,1.161986262077093,0.2680871784687042,0.0554258227348327,0.4463299214839935
1783201263114539000,1.3675390625,-1.3824571052119137,-0.6769575967997312,1.0431880332171917,0.2672119140625,0.1146809756755828,0.4049434661865234
1783201263124476000,1.377475830078125,-1.360114486631006,-0.7263280691683291,0.990176573997736,0.2311114370822906,0.1771195828914642,0.3839755952358246
1783201263134413000,1.3874130859375,-1.2133837102286518,-0.7671803040385246,0.9078776454955338,0.1800003945827484,0.1749023348093032,0.3738575577735901
1783201263144350000,1.397349853515625,-1.0361595958851275,-0.7450023745000361,0.805070766493678,0.1365658491849899,0.1471604406833648,0.3760109841823578
1783201263154288000,1.4072880859375,-0.8484893447205424,-0.693905224469304,0.8132230932891369,0.1041574701666832,0.0913871079683303,0.3767850399017334
1783201263164225000,1.41722509765625,-0.684847911658138,-0.6451467465192079,0.7057552367389202,0.0928592756390571,0.0059206765145063,0.3847796022891998
1783201263174162000,1.427161865234375,-0.6061372169062494,-0.6125906308293342,0.8033744839698076,0.1348772048950195,0.0937364622950553,0.3698514103889465
1783201263184099000,1.43709912109375,-0.4333196669586002,-0.6204319919794797,1.2759469877779483,0.1428515166044235,-0.0648798197507858,0.3281324505805969
1783201263194036000,1.447035888671875,-0.3316200185462832,-0.6374398254036903,0.6558844136327505,0.1015115529298782,-0.4097261726856231,0.3110675513744354
1783201263203973000,1.45697314453125,-0.3483412901140749,-0.883990573951602,0.4568102865308523,0.029860533773899,-0.6474649310112,0.3295461535453796
1783201263213910000,1.466909912109375,-0.5120109263576567,-1.018289738804102,0.7130331187874078,-0.0694991126656532,-0.7461280226707458,0.3291358649730682
1783201263223847000,1.476846923828125,-0.8839239384561777,-0.7787310411006212,0.7486924611896276,-0.1787134855985641,-0.7273399233818054,0.2772763967514038
1783201263233784000,1.4867841796875,-1.1977682079456746,-0.6381248850584029,0.4983738845407962,-0.2746316790580749,-0.5751292109489441,0.1923895925283432
1783201263243721000,1.496720947265625,-1.3622596819661557,-0.8063216433376074,0.0946674116879701,-0.3227627277374267,-0.316890001296997,0.0822412446141243
1783201263253658000,1.506658203125,-1.4773777610085903,-0.9476590362638234,-0.1815197657108306,-0.3138715326786041,-0.0511379055678844,-0.0409725196659565
1783201263263595000,1.516594970703125,-1.5026688541315496,-0.9511556462079286,-0.2610726103752851,-0.2653724551200866,0.1208114847540855,-0.1467506140470504
1783201263273532000,1.526531982421875,-1.470370366464555,-1.0099597173541783,-0.2537473820537329,-0.1913070529699325,0.1844980865716934,-0.2370245307683944
1783201263283469000,1.536468994140625,-1.485451031218469,-0.9644546882420778,-0.0171259068459272,-0.0940460190176963,0.1758358925580978,-0.3015928864479065
1783201263293406000,1.546406005859375,-1.38383453104496,-0.86148355858922,0.4221417087316513,0.0215307548642158,0.1359515339136123,-0.3356497585773468
1783201263303343000,1.556343017578125,-1.2017020402632652,-0.7823492315977811,1.001015947920084,0.1425248235464096,0.0752263963222503,-0.350247323513031
1783201263313280000,1.566280029296875,-1.0568440719954668,-0.6712579238533973,1.4408873746097086,0.2200794070959091,-0.0845417603850364,-0.3394926488399505
1783201263323217000,1.576216796875,-0.9456614327058196,-0.5978378828555345,1.6979934194415809,0.2228919714689254,-0.3010479807853699,-0.314657598733902
1783201263333154000,1.586154052734375,-0.9401724799007176,-0.5834405241906643,1.9012778577148912,0.1516607254743576,-0.5255562663078308,-0.3081656694412231
1783201263343091000,1.596091064453125,-1.0531804349213838,-0.4765653728365898,2.022776577705145,0.0031258473172783,-0.6829860806465149,-0.3312667310237884
1783201263353028000,1.606028076171875,-1.1844812947407364,-0.2406418167650699,2.08988845846951,-0.2067658007144928,-0.7709041833877563,-0.3834166824817657
1783201263362965000,1.615965087890625,-1.2106772277489304,-0.012972878819704,1.95359373588562,-0.4271621108055115,-0.7678436636924744,-0.4439977407455444
1783201263372902000,1.62590185546875,-1.0470037921130655,0.0915372969686985,1.7354139262974262,-0.6110615134239197,-0.705795168876648,-0.4903154373168945
1783201263382839000,1.635839111328125,-0.7088102403953671,0.1217874738037586,1.3897849638819693,-0.7272075414657593,-0.6269605755805969,-0.5021768808364868
1783201263392776000,1.64577587890625,-0.3383693466760218,0.1511199512720108,0.9984650943934916,-0.7653176784515381,-0.5479272603988647,-0.4854426681995392
1783201263402713000,1.655713134765625,-0.0102326402008533,0.2625508662343025,0.7293728436917066,-0.7333431839942932,-0.517727792263031,-0.4326169788837433
1783201263412650000,1.66564990234375,0.2167754957482218,0.3781669579267501,0.5221230089187622,-0.6576733589172363,-0.5273915529251099,-0.3527200818061828
1783201263422587000,1.6755869140625,0.2887191805832088,0.3790487091973423,0.3658417293608188,-0.57133549451828,-0.6209989786148071,-0.2710981965065002
1783201263432524000,1.68552392578125,0.0648451048761606,0.2334463523030281,0.0462134696424007,-0.4856165945529938,-0.778026282787323,-0.2338744848966598
1783201263442461000,1.6954609375,-0.2534391928873956,0.0167371997892856,-0.2431359716683626,-0.4009110331535339,-0.9274005889892578,-0.2593497335910797
1783201263452398000,1.705398193359375,-0.5964154488369822,-0.1623535852089524,-0.4760638530552387,-0.3371201157569885,-1.0353500843048096,-0.3511446714401245
1783201263462335200,1.715335205078125,-0.883386835904792,-0.2432747956171631,-0.7640712321072817,-0.3168851435184479,-1.0934165716171265,-0.4762453138828277
1783201263472273200,1.725273193359375,-0.911623773221299,-0.2514329676315188,-0.9303361455410718,-0.3361385762691498,-1.0649514198303225,-0.597806990146637
1783201263482210000,1.7352099609375,-0.7928172879897057,-0.3309644772469997,-1.1001216343164444,-0.3627720475196838,-0.9581063985824584,-0.6909227967262268
1783201263492147000,1.74514697265625,-0.549309048942849,-0.3542120818436146,-1.325977969881892,-0.3960322141647339,-0.7976062297821045,-0.7601653933525085
1783201263502084000,1.755083984375,-0.246201204457879,-0.2831184379667043,-1.5165116476535796,-0.4297406375408172,-0.5878889560699463,-0.8028526902198792
1783201263512021000,1.76502099609375,-0.0100269615609198,-0.2170665876492857,-1.5735843649625778,-0.4605087041854858,-0.3620420694351196,-0.8013037443161011
1783201263521958100,1.774958251953125,0.1312410193908959,-0.1341869366496801,-1.5356933179855343,-0.4893746972084045,-0.1841977834701538,-0.7637110948562622
1783201263531895000,1.78489501953125,0.2026977244265377,-0.0816141611084342,-1.4691834947675466,-0.5003350973129272,-0.0913796052336692,-0.70206618309021
1783201263541832000,1.79483203125,0.2065891789071261,-0.1240285307288169,-1.4224480470776557,-0.465489000082016,-0.0832646861672401,-0.6418539881706238
1783201263551769000,1.80476904296875,0.1796283259410411,-0.2158843921273946,-1.3450894975870846,-0.3763071596622467,-0.1230769604444503,-0.5927391648292542
1783201263561706000,1.8147060546875,0.0495693559415638,-0.2598854464173317,-1.219534780204296,-0.2357316762208938,-0.2160441875457763,-0.5725665092468262
1783201263571643100,1.82464306640625,-0.14804419708848,-0.2465364277616143,-1.0955424898326396,-0.0793798342347145,-0.3063776195049286,-0.578380286693573
1783201263581580000,1.834580078125,-0.3111439244896173,-0.20739801107198,-0.7837824792712926,0.0449953824281692,-0.3714628517627716,-0.6000064611434937
1783201263591517000,1.844516845703125,-0.4195254618186503,-0.127185825715959,-0.4254840048968791,0.1017289757728576,-0.4260083734989166,-0.6289628148078918
1783201263601454000,1.8544541015625,-0.463793277285993,-0.0297828515842556,-0.1505313377290964,0.1105448380112648,-0.4453924596309662,-0.6512710452079773
1783201263611391000,1.864390869140625,-0.4204391425974667,0.0117646720737218,0.1134533607006073,0.0715180411934852,-0.4183160662651062,-0.6514158844947815
1783201263621328100,1.874328125,-0.3267272050034254,0.0271732536077499,0.387572499653697,0.0158454570919275,-0.3713935613632202,-0.6395424008369446
1783201263631265000,1.88426513671875,-0.2992842676088214,0.09535773203969,0.5141781873941421,-0.066734991967678,-0.3545999228954315,-0.6353002786636353
1783201263641202000,1.894201904296875,-0.3660393708247691,0.2135024654269218,0.5270744938462972,-0.1735650300979614,-0.3607267737388611,-0.6508305072784424
1783201263651139000,1.90413916015625,-0.42613516228199,0.3098737584233283,0.4732458730250596,-0.2971382737159729,-0.3397180736064911,-0.6785590052604675
1783201263661076000,1.914075927734375,-0.4310683809004724,0.3217696556612849,0.3951636854350566,-0.4017983973026275,-0.2683589458465576,-0.7122277617454529
1783201263671013000,1.92401318359375,-0.3588755436100065,0.3238555220246314,0.3946148193806409,-0.4833179712295532,-0.1754776239395141,-0.7462107539176941
1783201263680950000,1.933949951171875,-0.1693449784662574,0.3921680107504129,0.3793552909284829,-0.5485007166862488,-0.1253502666950225,-0.7722271680831909
1783201263690887000,1.943886962890625,0.1092411498330533,0.4559045698627829,0.3301432239919901,-0.5908812284469604,-0.128985196352005,-0.7715058326721191
1783201263700824000,1.953823974609375,0.3749100750226527,0.5157075889185071,0.2372247017979621,-0.6185605525970459,-0.1769210249185562,-0.7397897243499756
1783201263710761000,1.963760986328125,0.4381664494026452,0.6023831250697373,0.0072281976878643,-0.6455138921737671,-0.278014987707138,-0.7103928923606873
1783201263720698000,1.973697998046875,0.3140318279508501,0.6555623420715332,-0.3028063042551279,-0.6735886335372925,-0.3894807994365692,-0.6898684501647949
1783201263730636000,1.983635986328125,0.1689301871202886,0.5237713606476784,-0.7593225762754678,-0.6795173287391663,-0.471852570772171,-0.6932145953178406
1783201263740573000,1.993572998046875,0.1069971702985465,0.2908510780453682,-1.2054144849151371,-0.6297774910926819,-0.4758390486240387,-0.7172869443893433
1783201263750510000,2.003510009765625,0.1030287050589919,0.1634749904543161,-1.5479349599212406,-0.5584681034088135,-0.4070970416069031,-0.760113537311554
1783201263760447000,2.013447021484375,0.1105570547372102,0.1110033371999859,-1.8348539592146875,-0.4850564301013946,-0.2795704901218414,-0.7954753041267395
1783201263770384100,2.023384033203125,0.2082217485450208,0.0037274960905313,-2.017981744644046,-0.4237683117389679,-0.1258003562688827,-0.8073332905769348
1783201263780321000,2.033321044921875,0.316966566228494,-0.1463257027328014,-2.1352070250988007,-0.3730425536632538,0.0081675536930561,-0.7761543393135071
1783201263790258000,2.0432578125,0.3700342126145958,-0.261417770551145,-2.2091186490058896,-0.3309861421585083,0.120866909623146,-0.7220474481582642
1783201263800195000,2.053195068359375,0.3168470315020531,-0.3118064800515771,-2.154121568927169,-0.2702783346176147,0.2317114025354385,-0.6701043248176575
1783201263810132000,2.063132080078125,0.1792877688750624,-0.3065390610426664,-1.9874556734770532,-0.2008879333734512,0.3205934166908264,-0.6405820250511169
1783201263820069000,2.073069091796875,0.013513196241483,-0.2996446253538131,-1.7623668151527645,-0.1251058280467987,0.3598356246948242,-0.6214157938957214
1783201263830006000,2.083006103515625,-0.1345147803645581,-0.3355050432860851,-1.5306296048551795,-0.0292697548866271,0.3423573970794678,-0.613156795501709
1783201263839943000,2.09294287109375,-0.2772715020367876,-0.2989519669145346,-1.264964405992627,0.0877708494663238,0.3032406270503998,-0.6224895715713501
1783201263849880000,2.102880126953125,-0.3717355366397649,-0.1865305796101689,-0.9289134192615748,0.2120062708854675,0.2412031888961792,-0.6424503326416016
1783201263859817000,2.11281689453125,-0.385866353322938,-0.0570402763441205,-0.5921054766833782,0.3352211713790893,0.1711261123418808,-0.6577422618865967
1783201263869754000,2.122754150390625,-0.324660445199348,0.0954351811900734,-0.2411281389772891,0.4365195631980896,0.1203983351588249,-0.6682809591293335
1783201263879691000,2.13269091796875,-0.2254909363191574,0.2849880312308669,0.2221604036569595,0.4910400509834289,0.0933488756418228,-0.674980640411377
1783201263889628000,2.1426279296875,-0.1437663005735725,0.5067044905126095,0.6706903530985117,0.5066072940826416,0.0936938822269439,-0.6579174399375916
1783201263899565000,2.15256494140625,-0.0768838446509093,0.6877756356731056,1.0846119304955004,0.4787359833717346,0.1086211651563644,-0.6369447708129883
1783201263909502000,2.162501953125,0.0296536722466349,0.8649424668714404,1.5243945098578928,0.4076524376869201,0.1208148822188377,-0.6111540794372559
1783201263919439000,2.172439208984375,0.1524950572838075,1.0489885361894964,1.924883774229884,0.3174048364162445,0.1020883321762085,-0.5775330066680908
1783201263929376000,2.1823759765625,0.3284784325849265,1.2013573184788229,2.183988883924484,0.225255399942398,0.0415565781295299,-0.5490021109580994
1783201263939313000,2.19231298828125,0.5412213118162006,1.33509212744683,2.3248452153354884,0.1296572387218475,-0.0639482736587524,-0.5120174288749695
1783201263949250800,2.202250732421875,0.7327307758174836,1.3992562643215058,2.4078712890684604,0.027230154722929,-0.2037961632013321,-0.4633640348911285
1783201263959188000,2.21218798828125,0.905230565052852,1.3686518672212955,2.376750759139657,-0.0928573682904243,-0.405038982629776,-0.3862583339214325
1783201263969125000,2.222125,0.9278920403245836,1.1844538222119212,2.013255885165929,-0.2473514974117279,-0.6325387358665466,-0.2883258461952209
1783201263979062000,2.23206201171875,0.8039155320439487,0.839301245136559,1.514355346402526,-0.3946831524372101,-0.7838545441627502,-0.2067747861146927
1783201263988999200,2.241999267578125,0.5743588441232219,0.5283908371418714,0.9009873014599084,-0.5166301131248474,-0.8766923546791077,-0.1791500151157379
1783201263998936000,2.25193603515625,0.3140109312932938,0.2396653729483485,0.120451256763935,-0.6067283153533936,-0.8771229982376099,-0.2052468657493591
1783201264008873000,2.261873046875,0.0812776956956833,-0.055862464736402,-0.5897007536292076,-0.6501810550689697,-0.7925239205360413,-0.2709111273288727
1783201264018810000,2.27181005859375,-0.0798423656629398,-0.3379287633016705,-1.2816700415998696,-0.6497427225112915,-0.6332541108131409,-0.3348448276519775
1783201264028746200,2.281746337890625,-0.1757507173227146,-0.5673059664696455,-1.8925211352854967,-0.606683611869812,-0.4616538286209106,-0.3862111270427704
1783201264038683400,2.291683349609375,-0.2627830675549805,-0.7241428340837359,-2.44580500614345,-0.5098673105239868,-0.2827911376953125,-0.4251462519168854
1783201264048620500,2.30162060546875,-0.3634661593358964,-0.8365271042481064,-2.727157018959522,-0.3788370490074157,-0.1092456355690956,-0.4497250020503998
1783201264058557200,2.31155712890625,-0.4853728025399148,-0.8918450868442654,-2.820408134108781,-0.2387949973344802,0.0472052209079265,-0.481122076511383
1783201264068494300,2.321494384765625,-0.6250106980718672,-0.8991235534146428,-2.702453370335698,-0.1101483255624771,0.1576651632785797,-0.5185939073562622
1783201264078431500,2.331431396484375,-0.6885798647280782,-0.8872253180891275,-2.4941426283329724,-0.0093796392902731,0.2097629755735397,-0.5505390167236328
1783201264088368400,2.341368408203125,-0.6876531783372163,-0.8958470159620046,-2.2540549383193254,0.079066477715969,0.2195365726947784,-0.5768199563026428
1783201264098305500,2.351305419921875,-0.6914167686544358,-0.8854463257178664,-1.969626586797833,0.1652181446552276,0.214898407459259,-0.59959477186203
1783201264108242200,2.3612421875,-0.6859113031059503,-0.7623109444364905,-1.6499503962844608,0.2487014234066009,0.2059621214866638,-0.627142071723938
1783201264118179300,2.371179443359375,-0.6631300008468329,-0.5769722049593925,-1.3285060270547866,0.3194451034069061,0.2109201252460479,-0.6479171514511108
1783201264128116500,2.381116455078125,-0.6546994416318833,-0.4300321697205305,-0.9814975929796697,0.364470899105072,0.2272002696990966,-0.6565671563148499
1783201264138053400,2.391053466796875,-0.66579067142345,-0.2875681108519435,-0.6614800416827201,0.391748309135437,0.2472360283136367,-0.6677305698394775
1783201264147990500,2.400990478515625,-0.6663774583354591,-0.1292556177273392,-0.3013356471806764,0.4019467532634735,0.2673720419406891,-0.6773726940155029
1783201264157928400,2.410928466796875,-0.6662260671660304,0.0453188588902354,0.0224660988301038,0.3983845114707947,0.3075951039791107,-0.695821225643158
1783201264167865300,2.420865234375,-0.6340375426795333,0.2065562995508313,0.3926262759119272,0.3796887397766113,0.3515423536300659,-0.7156819701194763
1783201264177802200,2.43080224609375,-0.577291938433051,0.3761436354056,0.7502870369046926,0.3527082502841949,0.3640221953392029,-0.7357667684555054
1783201264187739400,2.440739501953125,-0.4761138296768069,0.5057388603508473,1.0253478406220673,0.3103334307670593,0.3436519205570221,-0.7390077710151672
1783201264197676500,2.450676513671875,-0.3386610961642116,0.5698845847859978,1.2565905454009771,0.2559008002281189,0.282128632068634,-0.7295724749565125
1783201264207613400,2.460613525390625,-0.1863361530166119,0.6069380118951201,1.4038006297528742,0.2010145485401153,0.196826696395874,-0.7053788304328918
1783201264217550300,2.47055029296875,-0.028600299869338,0.6519350914850831,1.5179028097510336,0.1561924815177917,0.1142404749989509,-0.6748352646827698
1783201264227487200,2.4804873046875,0.1112058740347623,0.7093436166197061,1.6186065789937971,0.1196249574422836,0.0377132929861545,-0.6389465928077698
1783201264237424400,2.49042431640625,0.2222303088217042,0.753115538328886,1.684571627810597,0.0936524868011474,-0.0300340615212917,-0.6079506278038025
1783201264247361500,2.500361572265625,0.2735250455174595,0.8252820721343159,1.761142241793871,0.0654988288879394,-0.0977718010544776,-0.5792723894119263
1783201264257298400,2.51029833984375,0.3092780575525015,0.895544233623147,1.8366963722109797,0.0352061726152896,-0.1457694172859192,-0.5566017031669617
1783201264267235300,2.5202353515625,0.3810345492523163,0.9367536113679408,1.9514391882002355,-0.0042165424674749,-0.1911398619413375,-0.5295448303222656
1783201264277172200,2.530172119140625,0.4853975716549903,0.949278746420145,1.9298703304708005,-0.055406492203474,-0.2784585058689117,-0.4950052201747894
1783201264287109400,2.540109375,0.5854664039950818,0.9183744895905256,1.80963359324038,-0.1187464594841003,-0.3699996769428253,-0.4351668357849121
1783201264297046500,2.550046630859375,0.755105908428505,0.7936033238008617,1.7593167799323797,-0.1920630186796188,-0.4551065862178802,-0.348271906375885
1783201264306983400,2.5599833984375,0.8624663590814918,0.656685208621621,1.563949106132984,-0.2672981023788452,-0.5691012144088745,-0.2616963982582092
1783201264316920300,2.56992041015625,0.7658858072485775,0.5234212320357561,1.2254197465896606,-0.3402191996574402,-0.6994123458862305,-0.1919809877872467
1783201264326857200,2.579857177734375,0.5193769981462508,0.3352174585163593,0.8417711423814296,-0.4003161787986755,-0.7700209021568298,-0.1538487523794174
1783201264336794400,2.58979443359375,0.195378925845772,0.1639721263214945,0.3982172277867793,-0.4329249858856201,-0.7683063745498657,-0.1628606170415878
1783201264346731500,2.5997314453125,-0.0993725937042385,0.0228112590059638,-0.0891588773995637,-0.4559780061244964,-0.7409957051277161,-0.2145760506391525
1783201264356669400,2.60966943359375,-0.3313764555813744,-0.1069683825954794,-0.6548264290124177,-0.4640015959739685,-0.7024038434028625,-0.2987822592258453
1783201264366606600,2.619606689453125,-0.4899632356027141,-0.2331438622251153,-1.2081114689141512,-0.457379937171936,-0.627886176109314,-0.3880887925624847
1783201264376543200,2.629543212890625,-0.5847365553505718,-0.3589697977647185,-1.648898256883025,-0.4386533796787262,-0.5277596116065979,-0.4621630012989044
1783201264386480400,2.63948046875,-0.6316827231816947,-0.5019914905160665,-2.0307634848058225,-0.4008912444114685,-0.4166933000087738,-0.5160180330276489
1783201264396417300,2.649417236328125,-0.6284236483205109,-0.6452806020319461,-2.3651848245084284,-0.3544507622718811,-0.3113522529602051,-0.5601346492767334
1783201264406354400,2.6593544921875,-0.5925493479933589,-0.7223509822309017,-2.594982591176033,-0.2872753739356994,-0.2017553597688675,-0.6032981276512146
1783201264416291300,2.669291259765625,-0.5331224687736481,-0.7105208437055349,-2.721739085564017,-0.1943691372871399,-0.078551672399044,-0.6508554816246033
1783201264426228200,2.679228271484375,-0.5065752381097525,-0.6349664210274815,-2.7314702059835194,-0.0919988006353378,0.0351952500641346,-0.6891308426856995
1783201264436165400,2.689165283203125,-0.4774550151526928,-0.5712000512987375,-2.659028070107102,0.0072769219987094,0.1379735618829727,-0.7192040085792542
1783201264446102300,2.699102294921875,-0.4513990386044606,-0.4965598208561539,-2.378753915655613,0.0886306837201118,0.2338602095842361,-0.7318060398101807
1783201264456039400,2.709039306640625,-0.4100890134967863,-0.3916732129707932,-1.9989087953835725,0.1471808105707168,0.2974519729614258,-0.7288405895233154
1783201264465976300,2.718976318359375,-0.3663787588469684,-0.3008288667023182,-1.6591367423027752,0.1964892446994781,0.3337872624397278,-0.7224156856536865
1783201264475913200,2.728913330078125,-0.3439684453247115,-0.2359206334620714,-1.2859499108761547,0.2181034684181213,0.3541338145732879,-0.7109472751617432
1783201264485850400,2.738850341796875,-0.3606871230766177,-0.1895332685574889,-0.9126613726407288,0.2279277443885803,0.350196897983551,-0.6945707201957703
1783201264495787300,2.748787353515625,-0.454995199932903,-0.2024137929186225,-0.6078133334249257,0.2172095775604248,0.3334506452083587,-0.692946195602417
1783201264505724400,2.758724365234375,-0.5776164576796814,-0.2026470171526074,-0.3318307386875152,0.2130650281906128,0.320410817861557,-0.7046672105789185
1783201264515661300,2.768661376953125,-0.6744518975891173,-0.1589592665955424,-0.0818500156909227,0.2156477868556976,0.3213916718959808,-0.7319698929786682
1783201264525598200,2.77859814453125,-0.7402457545574754,-0.0904477481663227,0.1432102010607719,0.2220369428396225,0.3275434374809265,-0.7604299783706665
1783201264535536400,2.788536376953125,-0.7274751933768391,0.0128913380160927,0.394666841828823,0.2249946594238281,0.3291613161563873,-0.7848386168479919
1783201264545473300,2.798473388671875,-0.6901496713280677,0.1102943121477961,0.6451303799062967,0.2171697616577148,0.3176189363002777,-0.7952058911323547
1783201264555410400,2.808410400390625,-0.5580375681910663,0.2063382728859782,0.8566092305511236,0.209440991282463,0.2835216820240021,-0.7930132746696472
1783201264565347300,2.818347412109375,-0.4501467369884252,0.3711500649020076,1.0444541076302527,0.2079750001430511,0.2513836324214935,-0.7827433943748474
1783201264575284200,2.8282841796875,-0.3256584067281335,0.5031386147245764,1.2588070524066686,0.209741473197937,0.2153795659542083,-0.7642509341239929
1783201264585221400,2.838221435546875,-0.1859136167556047,0.5776616485282778,1.4505337393552065,0.2096279710531234,0.1577622592449188,-0.7387115359306335
1783201264595158300,2.848158203125,-0.0677018825467676,0.6569923748746513,1.618392643982172,0.1982584148645401,0.0825689733028411,-0.7196001410484314
1783201264605095400,2.858095458984375,0.0248848504096269,0.7535507148757576,1.8064608084231613,0.1723504066467285,0.0125756338238716,-0.7093900442123413
1783201264615032300,2.8680322265625,0.1457820973753929,0.8662006502389907,2.00163558999896,0.1268399208784103,-0.06972137093544,-0.7016975283622742
1783201264624969200,2.87796923828125,0.2892659277457743,0.9976415030509233,2.121087314331531,0.0716381818056106,-0.1640448421239853,-0.6908596754074097
1783201264634906400,2.88790625,0.4753836887713521,1.151727026130259,2.1002011781692502,0.0202056169509887,-0.2777823209762573,-0.6650914549827576
1783201264644843300,2.89784326171875,0.7262595339767635,1.3005959836050869,1.9045681314319367,0.0002668173983693,-0.4136762320995331,-0.6080895662307739
1783201264654780400,2.907780517578125,1.029432698782906,1.2973548097267746,1.5687246499717236,0.0073612118139863,-0.5536208152770996,-0.5019646883010864
1783201264664717300,2.91771728515625,1.3146462823979557,1.181039045332372,1.2097656658619642,0.0423610247671604,-0.6877935528755188,-0.3647650182247162
1783201264674654200,2.927654296875,1.4821796083323655,1.1488485480844974,0.8650959038674831,0.0931091606616973,-0.8183081746101379,-0.2338842004537582
1783201264684591400,2.93759130859375,1.5089435504868625,1.203087503272295,0.5861556283682584,0.1341738551855087,-0.902841866016388,-0.1319381892681121
1783201264694528300,2.9475283203125,1.4235701829753815,1.2627762482985854,0.4084177192836999,0.1506473571062088,-0.9290950298309326,-0.0352193601429462
1783201264704465400,2.95746533203125,1.2610478170707822,1.290321257828176,0.2321452065765857,0.1373810023069381,-0.9197186827659608,0.0302629582583904
1783201264714403300,2.9674033203125,1.0962691966719924,1.2501660653114317,-0.0190618433445692,0.088355928659439,-0.8696627020835876,0.0703009217977523
1783201264724340500,2.977340576171875,0.8185531292054802,1.084713637304306,-0.236663560783863,0.0006448170170187,-0.7741078734397888,0.0576173700392246
1783201264734277400,2.98727734375,0.449029679124616,0.8730667366161942,-0.4853302785724401,-0.1248704940080642,-0.6462603807449341,-0.0054633277468383
1783201264744214300,2.99721435546875,0.1653033749252557,0.69544193251729,-0.7288362525969744,-0.2732766568660736,-0.5077754259109497,-0.1034290194511413
1783201264754151400,3.0071513671875,0.0491516419861465,0.5535831460654735,-1.091263205078244,-0.4213073849678039,-0.37464240193367,-0.2041873186826706
1783201264764088300,3.01708837890625,0.1549438386754132,0.4114969805985689,-1.537190278545022,-0.5245685577392578,-0.2411650419235229,-0.2709580957889557
1783201264774025500,3.027025390625,0.4064366284690797,0.3342465676575898,-1.938745126321912,-0.5614943504333496,-0.1026614978909492,-0.3086724579334259
1783201264783962400,3.03696240234375,0.6581222556874156,0.40391368586272,-2.291398872807622,-0.5482775568962097,-0.0019026547670364,-0.319093257188797
1783201264793899300,3.046899169921875,0.8908279456909746,0.4783803133040666,-2.5959160726338624,-0.503204345703125,0.0638398751616478,-0.285880446434021
1783201264803836400,3.05683642578125,1.136368713478744,0.4363184103831649,-2.8329098882853985,-0.4252850115299225,0.1197004467248916,-0.2196452468633651
1783201264813773300,3.066773193359375,1.2280448343962431,0.4035962904766201,-2.878068295916915,-0.3341582715511322,0.2653079628944397,-0.1500699073076248
1783201264823710500,3.07671044921875,1.111956887408346,0.5121072263389825,-2.5403029064834115,-0.2555358111858368,0.4461548030376434,-0.1012646928429603
1783201264833647400,3.0866474609375,0.9908753699168562,0.6605357465699314,-2.2386457722634074,-0.1776314377784729,0.5671787261962891,-0.0637554004788398
1783201264843584300,3.096584228515625,0.956018868330121,0.6640700581759214,-2.0260855561226605,-0.0824162513017654,0.5928685069084167,-0.0104804569855332
1783201264853521400,3.106521484375,0.9999823670886456,0.6581237169921398,-1.8615216013878584,0.0416103601455688,0.53606116771698,0.0523855909705162
1783201264863458300,3.116458251953125,0.9862640767291188,0.7622215125873685,-1.614903048300743,0.173946350812912,0.4527587592601776,0.0981528759002685
1783201264873395500,3.1263955078125,0.9399288804031908,0.963669090822339,-1.295187110298872,0.2925390303134918,0.3690936863422394,0.1412902176380157
1783201264883333400,3.13633349609375,0.9561228401612488,1.1252864707112311,-0.9482599247664212,0.3914110958576202,0.3120807409286499,0.1814919859170913
1783201264893270300,3.146270263671875,1.0270590284541248,1.2115455350160598,-0.6366121424078941,0.4428633749485016,0.2770639061927795,0.2235321104526519
1783201264903207400,3.15620751953125,1.0788133272193372,1.315970370608568,-0.3632984746187925,0.4606587588787079,0.2646294832229614,0.2677574455738067
1783201264913144300,3.166144287109375,1.1292840159147977,1.4111132908537982,-0.0895890855103731,0.4395140707492828,0.2772060036659241,0.3111930787563324
1783201264923081500,3.17608154296875,1.1895439849577842,1.497499196408689,0.1758656854718923,0.3766536116600036,0.3089822232723236,0.3520988225936889
1783201264933018400,3.186018310546875,1.2036417761541902,1.5895602249905465,0.3430301780939102,0.2918292582035064,0.3487812876701355,0.3943799436092376
1783201264942955300,3.195955322265625,1.173159690259397,1.6430393017217515,0.4941577281504869,0.1947826594114303,0.4104190468788147,0.4347105324268341
1783201264952892400,3.205892333984375,1.224298341344297,1.6558683881565928,0.690882077255845,0.096251294016838,0.4489675164222717,0.4818626046180725
1783201264962829300,3.215829345703125,1.2833809371709823,1.6076976469665765,0.7262088267028332,0.0102941319346427,0.4459790885448456,0.5331547260284424
1783201264972766500,3.225766357421875,1.3711100740283726,1.5295874023258684,0.6670160484999418,-0.0439533963799476,0.4243254661560058,0.5930587649345398
1783201264982703400,3.235703369140625,1.3902411832168695,1.465771640497446,0.6215589501827955,-0.0629944577813148,0.4054470360279083,0.6578845381736755
1783201264992640300,3.24564013671875,1.2844234319612382,1.4183549325451257,0.5827671549737453,-0.0518462024629116,0.3921312093734741,0.722777247428894
1783201265002577400,3.255577392578125,1.1528266579352318,1.3797589521691205,0.5810246952205896,-0.0286887753754854,0.3727529048919678,0.776667594909668
1783201265012514300,3.265514404296875,1.0345726189546287,1.3143892388969658,0.6320289062708616,-0.0021945843473076,0.3478305041790008,0.8322006464004517
1783201265022451500,3.275451416015625,0.9004474954947829,1.210706453843415,0.715591571098566,0.0177375525236129,0.2951080501079559,0.8874909281730652
1783201265032388900,3.285388916015625,0.7148351997733116,1.0855872052684423,0.7638719101428986,0.0279244109988212,0.2188697308301925,0.9263954162597656
1783201265042326000,3.295325927734375,0.4769034456845372,0.946794528388977,0.7924994542121887,0.0248371623456478,0.1614348441362381,0.9578351974487304
1783201265052263000,3.305262939453125,0.2089675984762609,0.8152028689295053,0.8574655551195144,0.0089410208165645,0.1048687696456909,0.9713252186775208
1783201265062201000,3.315201171875,-0.0751979739231988,0.6776271666243672,0.7792489274948835,-0.0010119350627064,0.0563736520707607,0.9613333344459534
1783201265072138000,3.325137939453125,-0.2956786808649078,0.5662178789719939,0.7298632575571536,0.0093432338908314,0.0240700393915176,0.9331256747245787
1783201265082075000,3.335074951171875,-0.4281440909516066,0.5324260840073227,0.7266378657698631,0.0336829870939254,-0.0082431882619857,0.8836020827293396
1783201265092012000,3.345011962890625,-0.4872243121581152,0.554932514847815,0.6887333747893571,0.0552665740251541,-0.0511555038392543,0.8315896987915039
1783201265101949000,3.354948974609375,-0.4124973167475312,0.5217109209865332,0.6780296099454164,0.0517550259828567,-0.1132283136248588,0.8089107871055603
1783201265111886000,3.364885986328125,-0.291018397436291,0.3797644562512636,0.5957938098073006,0.0086845178157091,-0.1931196749210357,0.8223179578781128
1783201265121823000,3.374822998046875,-0.2119902342330664,0.2446399464905261,0.4411345784932374,-0.0558167323470115,-0.2584846317768097,0.85899418592453
1783201265131759900,3.384759765625,-0.1817406053872779,0.1231029403164982,0.2396276712864637,-0.1212332844734191,-0.3021191954612732,0.8993684649467468
1783201265141697000,3.394697021484375,-0.2077053599881008,0.0488487865820527,-0.0445224478155374,-0.1626717150211334,-0.3160999119281769,0.911952793598175
1783201265151634000,3.404634033203125,-0.3220235208244994,0.0252492998078465,-0.4157411940395832,-0.1658049374818802,-0.2966942489147186,0.8859728574752808
1783201265161571000,3.414571044921875,-0.4501948869790881,-0.0018342296898365,-0.7872966248720884,-0.1460817158222198,-0.2270141392946243,0.8408759832382202
1783201265171508000,3.424508056640625,-0.5307312993207947,-0.0340127442389726,-1.0670809499800205,-0.1194756850600242,-0.1092140153050422,0.8057371973991394
1783201265181444900,3.43444482421875,-0.582380968667753,-0.0632598815113306,-1.288726389852166,-0.1103625893592834,0.012760903686285,0.7702175974845886
1783201265191382000,3.444382080078125,-0.6204997234534472,-0.0956856488198041,-1.449945125812292,-0.1274153441190719,0.1051041483879089,0.7315003275871277
1783201265201319000,3.45431884765625,-0.6381611254155636,-0.0892278509825468,-1.5858996566563843,-0.1739934682846069,0.1701544821262359,0.6914982199668884
1783201265211256000,3.464256103515625,-0.6024399698235094,-0.1334425480231642,-1.6711352231323715,-0.2377530038356781,0.2217449694871902,0.6561055779457092
1783201265221193000,3.47419287109375,-0.5015946001529693,-0.327711320669949,-1.7788275360882282,-0.3069642782211303,0.2698223292827606,0.6237478256225586
1783201265231131100,3.484131103515625,-0.4220590354168787,-0.5303156677246094,-1.983202692207694,-0.3538076877593994,0.3153509199619293,0.5845029354095459
1783201265241067800,3.49406787109375,-0.4153874852310866,-0.6129989193692803,-2.2553812184870243,-0.3526096940040588,0.4089083969593048,0.530707597732544
1783201265251005000,3.5040048828125,-0.3980860391551628,-0.6437994235634803,-2.466065703883767,-0.285684198141098,0.547151505947113,0.4836573004722595
1783201265260942000,3.513942138671875,-0.327695355915837,-0.6127487440004944,-2.523119716492295,-0.1605528593063354,0.7022791504859924,0.4699735045433044
1783201265270879000,3.52387890625,-0.2336737313181161,-0.5614680540964007,-2.427989363467693,-0.0105471173301339,0.8322837352752686,0.481586754322052
1783201265280816000,3.533816162109375,-0.1500140723893419,-0.471143347787857,-2.095964563512802,0.1302954256534576,0.9258872866630554,0.5233654379844666
1783201265290752800,3.543752685546875,-0.0906544679858721,-0.3408922892823815,-1.614901294735074,0.2588344812393188,0.9661710262298584,0.5786489248275757
1783201265300690000,3.55368994140625,-0.105078038804233,-0.1984694392070174,-1.1009247673928737,0.3756830394268036,0.9554474949836732,0.6349195241928101
1783201265310627000,3.563626953125,-0.1604775622040033,-0.048361295326054,-0.5854740758448839,0.4933271110057831,0.904704451560974,0.6788315773010254
1783201265320564000,3.57356396484375,-0.2347733265904709,0.1170019930928945,-0.0544441223710775,0.6099113821983337,0.8317890763282776,0.7159104943275452
1783201265330501000,3.583501220703125,-0.2740779301598668,0.3309308672383427,0.475690343567729,0.7265253663063049,0.7404658198356628,0.7343097925186157
1783201265340438000,3.59343798828125,-0.3006978607337922,0.5517752198606729,0.9864104994624852,0.830471932888031,0.6462979316711426,0.7454640865325928
1783201265350375000,3.603375,-0.3150720577187836,0.7223997898086905,1.5295558381438257,0.8958461284637451,0.5635921359062195,0.7600159049034119
1783201265360312000,3.61331201171875,-0.2710686653412878,0.7965659729987382,2.0535165838837623,0.9039249420166016,0.4553311169147491,0.7885465025901794
1783201265370249000,3.6232490234375,-0.2321832735646516,0.7938955847457051,2.4695243199050423,0.8575851321220398,0.3294466733932495,0.828629195690155
1783201265380186000,3.63318603515625,-0.217780617670156,0.7737199349403381,2.8271599464565518,0.7542604207992554,0.2284469455480575,0.8653414249420166
1783201265390123000,3.643123046875,-0.2304612720776349,0.6850646231487393,3.1644828528195617,0.5928510427474976,0.1341582536697387,0.9002432227134705
1783201265400061000,3.65306103515625,-0.2909769329147413,0.5748387000620365,3.279364785018563,0.3944872915744781,0.0444688312709331,0.9252438545227052
1783201265409997800,3.662997802734375,-0.4012101259924471,0.4357318426668644,3.209458305099606,0.1996834576129913,-0.0339218452572822,0.9297800064086914
1783201265419935000,3.67293505859375,-0.5178522727970034,0.2679194075301289,2.8960592951595783,0.0436987951397895,-0.0951612889766693,0.9189910888671876
1783201265429872000,3.6828720703125,-0.7360287213843315,0.1341416362032294,2.4941835448652503,-0.0668101385235786,-0.116867646574974,0.8864067792892456
1783201265439809000,3.69280908203125,-0.8543461809899657,0.0122001408815383,2.2077485296964645,-0.1445981562137603,-0.126943290233612,0.8442042469978333
1783201265449746000,3.702745849609375,-0.8967955488584936,-0.0744587363958358,1.8476666790366167,-0.2160646170377731,-0.1787375211715698,0.7969856262207031
1783201265459682800,3.712682861328125,-0.9207111158445476,-0.0981622680664062,1.4565069685459135,-0.2891353070735931,-0.2784443199634552,0.7466528415679932
1783201265469620000,3.722619873046875,-0.9254784033115953,-0.0961094271898269,1.0297785165458917,-0.3688213229179382,-0.3927884697914123,0.6877628564834595
1783201265479557000,3.73255712890625,-0.9424051343236118,-0.0343587811976671,0.5757271733343601,-0.4505023062229156,-0.4726535081863403,0.6105247735977173
1783201265489494000,3.742493896484375,-0.922577128912136,0.0574804213270545,0.0972433996558189,-0.51701819896698,-0.4600567519664764,0.5159370303153992
1783201265499431000,3.752430908203125,-0.7557672949466854,0.1175841768950223,-0.3387064696758985,-0.5557290315628052,-0.3482330739498138,0.4271866679191589
1783201265509368000,3.7623681640625,-0.4418337397385388,0.1444026257157325,-0.7139034718811511,-0.5882315635681152,-0.1950885355472564,0.3521590232849121
1783201265519305000,3.772304931640625,-0.0831321461896412,0.1774485707491636,-1.006784594449401,-0.638451337814331,-0.0332675017416477,0.3223988711833954
1783201265529242000,3.7822421875,0.2985604833789169,0.1180713758900761,-1.2944120342731475,-0.7120749950408936,0.0892493650317192,0.3451499938964844
1783201265539179000,3.792178955078125,0.5402605770252644,0.0814379277586936,-1.5968781467884778,-0.8010677099227905,0.1795693039894104,0.4075236916542053
1783201265549116000,3.802115966796875,0.6366123616036027,0.0527940170764923,-1.8554595248699184,-0.8678174614906311,0.2401120066642761,0.4787342250347137
1783201265559053800,3.8120537109375,0.6186051418785006,-0.0213973005548119,-2.1646213356316086,-0.8824134469032288,0.282756894826889,0.530725359916687
1783201265568991000,3.821990966796875,0.5324048220235854,-0.1149792550936341,-2.465412792932987,-0.8184803128242493,0.3363961577415466,0.556796669960022
1783201265578927900,3.831927978515625,0.4421560304954647,-0.178438166308403,-2.708613646531105,-0.6727001667022705,0.391543835401535,0.5559625029563904
1783201265588865000,3.841864990234375,0.3389140480119735,-0.1721896273076534,-2.915504000341892,-0.4673726260662079,0.4368559420108795,0.5355126261711121
1783201265598802200,3.85180224609375,0.2526866940196603,-0.0572150483891367,-2.9643805517137047,-0.2375518232583999,0.4635912179946899,0.5200455188751221
1783201265608738800,3.86173876953125,0.2085823254857212,0.1087237018302083,-2.812051809173822,-0.0019443687051534,0.500789999961853,0.5124403238296509
1783201265618676000,3.871676025390625,0.2835103598937392,0.3076034754037857,-2.421595863038301,0.2095672935247421,0.5267016887664795,0.5190138816833496
1783201265628613000,3.881613037109375,0.4241819093223661,0.480446013662219,-1.9043448440700768,0.3780913352966308,0.528775691986084,0.5534865856170654
1783201265638550000,3.891550048828125,0.5744646791178732,0.5809112979739904,-1.3356775261193512,0.4908149838447571,0.5208690166473389,0.6158650517463684
1783201265648487200,3.901487060546875,0.6179799957174807,0.6466247101172804,-0.7366811208784579,0.5418424606323242,0.5002310872077942,0.6848185658454895
1783201265658423800,3.911423828125,0.5698481982983649,0.6647653469637036,-0.18053250823915,0.5270124673843384,0.450693279504776,0.760810375213623
1783201265668361000,3.92136083984375,0.4722962441500276,0.5947679738909005,0.2350491113245487,0.4824120104312897,0.3925862908363342,0.8355767726898193
1783201265678298000,3.931298095703125,0.3296138663556426,0.5474179014340043,0.5528764591008425,0.4357439577579498,0.3525008261203766,0.8897040486335754
1783201265688235000,3.941235107421875,0.200265236582607,0.5563058490276336,0.8525204999327659,0.4070513546466827,0.3527168035507202,0.9136738181114196
1783201265698172200,3.951172119140625,0.1204693038772791,0.5818418568223714,1.1337637916773555,0.391805350780487,0.3743242025375366,0.9193153977394104
1783201265708108800,3.96110888671875,0.0673966936216922,0.6255930280044675,1.445786252567172,0.3758676648139953,0.4030538499355316,0.9273996949195862
1783201265718047000,3.971046875,-0.0286433992255479,0.6977724212914704,1.7675374957889318,0.3352029025554657,0.4025539755821228,0.9264274835586548
1783201265727983900,3.98098388671875,-0.1963387838538736,0.8045835674986243,2.092552709242701,0.2576095759868622,0.3567766547203064,0.90877366065979
1783201265737921000,3.990921142578125,-0.3648329907096922,0.8861723019048571,2.3136714948922394,0.1252959370613098,0.2631026208400726,0.8813895583152771
1783201265747858000,4.00085791015625,-0.4488427417177706,0.9146575148940086,2.362138880941272,-0.0501374006271362,0.1680589020252227,0.8574711680412292
1783201265757795000,4.010795166015625,-0.4046034216925501,0.7892939361691474,2.305387066149712,-0.2295308113098144,0.1005301550030708,0.8431428670883179
1783201265767732000,4.02073193359375,-0.2736439226567745,0.6239397078394889,2.073721167522669,-0.3744677603244781,0.0788704007863998,0.8253031373023987
1783201265777668900,4.0306689453125,-0.1539508455826901,0.6179553727328777,1.841195437195897,-0.4685029089450836,0.1086726188659668,0.7996602654457092
1783201265787606000,4.04060595703125,-0.0140185154151171,0.7225818683773279,1.6162562164753675,-0.5156163573265076,0.1323931217193603,0.7869820594787598
1783201265797543200,4.050543212890625,0.1207161913104355,0.8167030443593859,1.276193656015396,-0.5222292542457581,0.10947235673666,0.7856312394142151
1783201265807480000,4.06047998046875,0.2548047090869397,0.872259511886537,0.9704361007392406,-0.5276418924331665,0.0685427635908126,0.814927339553833
1783201265817417000,4.0704169921875,0.4022814084857702,0.8660311388909816,0.6739104841887951,-0.5681300163269043,-0.0155549608170986,0.8911716341972351
1783201265827353900,4.080353759765625,0.486030316600576,0.6995093280866742,0.1882505352705717,-0.635401725769043,-0.1160067319869995,1.0050121545791626
1783201265837291000,4.090291015625,0.472898374761641,0.4984215230748057,-0.2848807714641094,-0.7204607725143433,-0.1866480112075805,1.1125942468643188
1783201265847228200,4.100228271484375,0.3374361574791372,0.3359834744527936,-0.7169558451890945,-0.812167763710022,-0.2038972973823547,1.1681389808654783
1783201265857165000,4.1101650390625,0.1259280076745897,0.1745817831411957,-1.20928869599998,-0.8767228722572327,-0.1508713662624359,1.173673152923584
1783201265867102000,4.12010205078125,-0.181533063583821,-0.040104923634231,-1.670614414128661,-0.8998430967330933,-0.031886126846075,1.1183356046676636
1783201265877039900,4.130039794921875,-0.5010715261269361,-0.1973079942122101,-2.121401202586293,-0.8768625259399414,0.1061600521206855,1.023495316505432
1783201265886977000,4.13997705078125,-0.8200479708731174,-0.3156847827896475,-2.5272511172086,-0.8413645029067993,0.2655928432941437,0.9284218549728394
1783201265896914000,4.149913818359375,-0.9982548857089132,-0.5299366052791475,-2.85026901936531,-0.80072021484375,0.4059031903743744,0.8714203238487244
1783201265906851000,4.15985107421875,-1.0311148797161878,-0.8165706501513719,-3.174717831107974,-0.7253383994102478,0.5278298854827881,0.8509621620178223
1783201265916788000,4.1697880859375,-0.9877543152868749,-1.1157675317376852,-3.3698429283231497,-0.5930909514427185,0.6379296779632568,0.8514574766159058
1783201265926724900,4.179724853515625,-0.9504857841223476,-1.2960600937411189,-3.37105405767858,-0.3939520418643951,0.7343153357505798,0.8482419848442078
1783201265936662000,4.189662109375,-0.994440807313472,-1.3418725813671946,-3.1863001323521134,-0.1614402532577514,0.7999438047409058,0.8296156525611877
1783201265946599000,4.199598876953125,-1.0828444824315606,-1.314004623493552,-2.8047248272866008,0.0712185651063919,0.8252933621406555,0.8050743937492371
1783201265956536000,4.2095361328125,-1.2301463367201386,-1.2455562334284185,-2.325473576366901,0.2891422212123871,0.7884833216667175,0.7801482081413269
1783201265966473000,4.219472900390625,-1.3600281235218048,-1.156585279816389,-1.7902151915431022,0.4818549454212188,0.7112647294998169,0.7602570652961731
1783201265976409900,4.229409912109375,-1.435890296974778,-1.0527814987316726,-1.2060615506470205,0.6478111147880554,0.6251331567764282,0.7210277915000916
1783201265986347000,4.239346923828125,-1.520625220452249,-0.8849673100292682,-0.6073907240986823,0.7740209698677063,0.5302167534828186,0.6517792344093323
1783201265996284000,4.249283935546875,-1.5264929434418677,-0.6302160116299986,-0.0357680634737014,0.8449108004570007,0.45996955037117,0.5658478140830994
1783201266006221000,4.259220947265625,-1.4504834704726934,-0.4125330456480384,0.5649269623786211,0.8464850187301636,0.4276217222213745,0.4765014350414276
1783201266016159000,4.269158935546875,-1.3107764552272856,-0.2238236606940627,1.1408213089734316,0.7817240357398987,0.4201136529445648,0.3988301455974579
1783201266026094600,4.279094482421875,-1.0995511409521102,-0.044638767671585,1.6012690752238037,0.6601938605308533,0.4253859221935272,0.3408975899219513
1783201266036031700,4.28903173828125,-0.8327360414020717,0.1590992595881223,1.9416624750733371,0.5111286640167236,0.4276450872421264,0.3006055355072021
1783201266045968600,4.29896875,-0.5128083603456616,0.3435001336932182,2.1572721419125798,0.3655475080013275,0.4421960413455963,0.2882822751998901
1783201266055905500,4.308905517578125,-0.1922242612071335,0.4732093404069543,2.379630113968253,0.2329275012016296,0.4883542358875274,0.2920454740524292
1783201266065842700,4.3188427734375,0.0843712047316133,0.6088999596178531,2.5787241148144004,0.1356827169656753,0.5042982697486877,0.3014307022094726
1783201266075779600,4.328779541015625,0.3028624183565378,0.7831482730209827,2.5858167034238577,0.0492291375994682,0.4872167110443115,0.3175194263458252
1783201266085716700,4.338716796875,0.4839828094862401,0.9652817867159844,2.6544933492869136,-0.0186753403395414,0.4626684784889221,0.3483401834964752
1783201266095653600,4.348653564453125,0.6824610165216028,1.1111486397653818,2.7685242176145315,-0.0775422751903534,0.4102202951908111,0.4015709161758423
1783201266105590500,4.358590576171875,0.9273685279071332,1.1659615954488516,2.7645699270308017,-0.1232730150222778,0.2995017766952514,0.4873896837234497
1783201266115527700,4.368527587890625,1.1312143994554875,1.1658908683001994,2.716248671454191,-0.1606840789318084,0.1445993185043335,0.5865878462791443
1783201266125464600,4.378464599609375,1.2298536373838782,1.2098211954414844,2.68032980133295,-0.1987259984016418,-0.034011710435152,0.6793734431266785
1783201266135401700,4.388401611328125,1.228271775019914,1.288879534587264,2.548086984488368,-0.2415382117033004,-0.1790414601564407,0.7595555782318115
1783201266145338600,4.398338623046875,1.1693078371368348,1.324262398135662,2.444205754253268,-0.2883667051792145,-0.2679662704467773,0.8254494071006775
1783201266155275500,4.408275634765625,1.1133113707572222,1.3749088817894457,2.2494553355693814,-0.3460613489151001,-0.2977515161037445,0.883580207824707
1783201266165213700,4.418213623046875,1.0301654700368643,1.3862149964407084,1.9890467420607805,-0.4161038100719452,-0.317929208278656,0.93080335855484
1783201266175150600,4.428150634765625,0.9981773634932934,1.3821157444283363,1.674721264925599,-0.4973447024822235,-0.3504116833209991,0.9591261744499208
1783201266185087700,4.438087646484375,0.972857774928212,1.35394763456434,1.4027841461867092,-0.5859882831573486,-0.3825933337211609,0.9769054055213928
1783201266195024600,4.448024658203125,0.9041537296015768,1.31413000343889,1.1318588348388672,-0.6866024732589722,-0.4408324658870697,0.9956257939338684
1783201266204961500,4.45796142578125,0.7969165400020778,1.2357248675048351,0.7249778236031532,-0.8006877899169922,-0.5123197436332703,1.0282297134399414
1783201266214898700,4.467898681640625,0.6755578130044043,1.0041124526306986,0.2178057155787944,-0.9198777675628662,-0.6015850305557251,1.0671682357788086
1783201266224835600,4.477835693359375,0.5132444502079859,0.6180298992738127,-0.4739478838145732,-1.0288857221603394,-0.6656918525695801,1.0994704961776731
1783201266234772700,4.487772705078125,0.2733300344020128,0.2110188319176435,-1.204117430841923,-1.0984545946121216,-0.692156195640564,1.115685224533081
1783201266244709600,4.497709716796875,0.0039541444532573,-0.1328074649900198,-2.0705413684427736,-1.085420846939087,-0.6818891763687134,1.112040877342224
1783201266254646500,4.507646484375,-0.3003231091372668,-0.3883481602013111,-2.924159015962481,-0.9708855152130128,-0.5737782120704651,1.1207493543624878
1783201266264583700,4.517583740234375,-0.6597093056831509,-0.5881380343571305,-3.45434608887136,-0.7786465883255005,-0.3643786609172821,1.1309244632720947
1783201266274520600,4.5275205078125,-1.0309569126754998,-0.7085311311930418,-3.723124451318383,-0.5397465825080872,-0.1195994839072227,1.122905969619751
1783201266284457700,4.537457763671875,-1.313066027469188,-0.8645636966869235,-3.7847453334510326,-0.3027409613132477,0.091489054262638,1.0916814804077148
1783201266294394600,4.54739453125,-1.490720642184466,-1.063801197656989,-3.662870765885711,-0.0945258289575576,0.2208518385887146,1.034286618232727
1783201266304332800,4.557332763671875,-1.5935941566817462,-1.2797963566824793,-3.411442766690254,0.0701009333133697,0.2520803213119507,0.9634427428245544
1783201266314269400,4.56726953125,-1.636876979699731,-1.5095149206340313,-3.113753951579332,0.1860379576683044,0.2305684685707092,0.8997156023979187
1783201266324206600,4.57720654296875,-1.7146492245577274,-1.7309245059236884,-2.814287020879984,0.2662201523780823,0.20688097178936,0.834309995174408
1783201266334143700,4.587143798828125,-1.887028383088112,-1.7952601999729871,-2.497602997919917,0.3200254738330841,0.2189463824033737,0.7514756321907043
1783201266344080600,4.59708056640625,-2.0747391123935577,-1.7352768559142946,-2.137089770105481,0.3626171350479126,0.2773169875144958,0.6582748889923096
1783201266354017800,4.607017822265625,-2.2114628740444777,-1.6513035644590854,-1.7714584686249493,0.4090141654014587,0.3573482632637024,0.5560498237609863
1783201266363954400,4.616954345703125,-2.2867584996558725,-1.5219365953117607,-1.4214748181313277,0.4605702757835388,0.4385453760623932,0.4487819969654083
1783201266373891600,4.6268916015625,-2.280098603375256,-1.3586767089128493,-1.0033411759972573,0.5154665112495422,0.5019686818122864,0.3544539213180542
1783201266383828700,4.636828857421875,-2.182981314317137,-1.203480886504054,-0.5946838027387857,0.5711206793785095,0.5461103320121765,0.2693179845809936
1783201266393765600,4.646765625,-2.0288088436067104,-1.070112280499935,-0.1197498304963111,0.6217395663261414,0.5800561308860779,0.2006103694438934
1783201266403702800,4.656702880859375,-1.8773928319975728,-0.9049994597107172,0.370718395486474,0.6603381037712097,0.5900927782058716,0.1372734755277633
1783201266413639400,4.666639404296875,-1.7418772770926356,-0.7488160875692963,0.8489046475231647,0.6849316358566284,0.5580150485038757,0.076827086508274
1783201266423576600,4.67657666015625,-1.5937470091558992,-0.6369669471949339,1.3156208265185356,0.6906100511550903,0.5079672932624817,0.0282110851258039
1783201266433513700,4.686513671875,-1.434607271426916,-0.5489478874802589,1.7527374015420674,0.6852704286575317,0.4249934554100036,-0.011017745360732
1783201266443451600,4.69645166015625,-1.2674506698504089,-0.4733081246063113,2.170554817333817,0.652370810508728,0.335492342710495,-0.0418353118002414
1783201266453388800,4.706388916015625,-1.0714343228839338,-0.3997521822690963,2.588019766426086,0.5898273587226868,0.2436214983463287,-0.0574883520603179
1783201266463325700,4.71632568359375,-0.906610255908221,-0.3224909556731581,2.962889436373114,0.4923170506954193,0.1412538588047027,-0.0657835602760315
1783201266473262600,4.7262626953125,-0.7672291116163135,-0.2366021859854459,3.251343390148878,0.370189219713211,0.0122750932350754,-0.0631685107946395
1783201266483199500,4.736199462890625,-0.6736094554156065,-0.1220078385561704,3.3976679238379,0.2288576662540435,-0.1499585509300232,-0.0746366158127784
1783201266493136600,4.74613671875,-0.6042615226948633,0.0345303383722901,3.350405237403512,0.0735108256340026,-0.3041081726551056,-0.0985139533877372
1783201266503073800,4.75607373046875,-0.5290909482352435,0.1396159759610891,3.282900557929277,-0.0899324268102645,-0.4317737221717834,-0.1341744810342788
1783201266513010700,4.7660107421875,-0.4856944357097149,0.2278156529396772,3.031944267898798,-0.2587348222732544,-0.5458269119262695,-0.1838448941707611
1783201266522947600,4.775947509765625,-0.4196718114867806,0.2978644639387726,2.6264281152755022,-0.4295784533023834,-0.624475359916687,-0.2210974544286728
1783201266532884500,4.785884521484375,-0.2394805179007351,0.309736395779252,2.16887080976963,-0.604369044303894,-0.6677973866462708,-0.2273053079843521
1783201266542821600,4.795821533203125,-0.1074284013226628,0.3134986709222197,1.611684086254239,-0.7816386222839355,-0.6963027715682983,-0.2128267735242843
1783201266552758800,4.8057587890625,-0.0391346903625875,0.2905810289323329,0.9480056577444076,-0.938477635383606,-0.7117310166358948,-0.2061266601085662
1783201266562695700,4.81569580078125,-0.0370410060189664,0.14508797763139,0.1388806474238634,-1.0454158782958984,-0.731134831905365,-0.2148410528898239
1783201266572633900,4.8256337890625,-0.1901245855141431,-0.059693128940463,-0.7763584667503833,-1.0899869203567505,-0.7122780084609985,-0.239113762974739
1783201266582570500,4.835570556640625,-0.4235839434292167,-0.2765732541069388,-1.6875439216196535,-1.0580281019210815,-0.6771796941757202,-0.2813693583011627
1783201266592507600,4.845507568359375,-0.5527679572250693,-0.540437833288312,-2.560125212806463,-0.9433728456497192,-0.5862650871276855,-0.3183760046958923
1783201266602444500,4.855444580078125,-0.6623138621583581,-0.8466448858976363,-3.236018395245075,-0.7623772025108337,-0.4275172650814056,-0.3610063195228576
1783201266612381700,4.865381591796875,-0.7854140259958803,-1.0594485554054378,-3.6737083862423896,-0.5455154180526733,-0.2192998677492141,-0.3973566889762878
1783201266622318800,4.87531884765625,-0.9035770987574012,-1.1313754352360963,-3.8633120896875854,-0.3174742460250854,0.0050634630024433,-0.437846839427948
1783201266632255500,4.88525537109375,-0.9738706782978028,-1.120432308678329,-3.768862120142579,-0.1067737117409706,0.1909711807966232,-0.4779455363750458
1783201266642192600,4.895192626953125,-0.9456025421254336,-1.0985440097361805,-3.4677725566774606,0.0751380324363708,0.2925963103771209,-0.5099500417709351
1783201266652129500,4.905129638671875,-0.8638159470595419,-1.032247244746983,-3.0664328129559757,0.2268178611993789,0.3015157580375671,-0.5238248109817505
1783201266662066700,4.915066650390625,-0.8308032467085867,-0.919041429066658,-2.622243523067236,0.355985164642334,0.2434678971767425,-0.5194684267044067
1783201266672003800,4.92500390625,-0.8728329278603195,-0.8133110638335347,-2.217053533658385,0.4688747227191925,0.1751512736082077,-0.5214488506317139
1783201266681940500,4.9349404296875,-0.9706887603260576,-0.7114943649128079,-1.7956337094604968,0.5770515203475952,0.150711715221405,-0.5486195087432861
1783201266691877600,4.944877685546875,-1.103186574845016,-0.5630082692757249,-1.316084936898947,0.6598417162895203,0.1658420860767364,-0.6125733256340027
1783201266701815600,4.954815673828125,-1.1873210482113064,-0.3724389356687664,-0.8379635667920112,0.7101845145225525,0.1905631422996521,-0.6883927583694458
1783201266711752700,4.964752685546875,-1.1593369166120886,-0.2443687283337116,-0.345186479344964,0.7278969287872314,0.2373289316892624,-0.7548775672912598
1783201266721689600,4.974689697265625,-1.0534559639271348,-0.1322191437080502,0.1508493176370859,0.7113109827041626,0.2886658906936645,-0.8039990067481995
1783201266731626800,4.984626708984375,-0.912963205131516,0.0446750080287456,0.6171990014076233,0.666293740272522,0.3363780081272125,-0.8348515629768372
1783201266741563600,4.994563720703125,-0.7304710141919553,0.2116197204202413,1.0259522362560034,0.605400800704956,0.358049213886261,-0.8550399541854858
1783201266751500500,5.00450048828125,-0.5134360637899488,0.3235910258695483,1.387717509958148,0.5303146243095398,0.3721616268157959,-0.8653238415718079
1783201266761437700,5.014437744140625,-0.3172577311947941,0.4229498102441429,1.735466533267498,0.4485366642475128,0.3688481152057647,-0.864412248134613
1783201266771374600,5.02437451171875,-0.1215920242968946,0.5086158770918846,2.040590466815233,0.3659879565238952,0.325508713722229,-0.855782151222229
1783201266781311700,5.034311767578125,0.0746834850624203,0.5928042726024985,2.2741052081793547,0.2881032824516296,0.2648983597755432,-0.8314645886421204
1783201266791248600,5.04424853515625,0.2766918389853089,0.6285355111971497,2.502186818578839,0.2258697599172592,0.1984277665615081,-0.7910709381103516
1783201266801185500,5.054185546875,0.4640971556033939,0.6793617353320122,2.703682035347819,0.1816892474889755,0.1039678379893302,-0.7420139312744141
1783201266811122700,5.064122802734375,0.6294624167837202,0.6949465502157807,2.837095649537444,0.1677285432815551,-0.0189608074724674,-0.6797618269920349
1783201266821059600,5.0740595703125,0.7392662420008331,0.7437722481831908,2.896891069808602,0.167422816157341,-0.1703276932239532,-0.6125527024269104
1783201266830996700,5.083996826171875,0.7165403231907636,0.8604334650143981,2.933435962873697,0.1610819101333618,-0.3254285156726837,-0.5612004399299622
1783201266840934700,5.0939345703125,0.647170069040358,1.0163900426626205,3.0080501820921897,0.1139412894845008,-0.4726254343986511,-0.5116237998008728
1783201266850871600,5.10387158203125,0.5869388877004384,1.0925374627977609,3.0105437524735925,-0.0084548937156796,-0.6472483277320862,-0.4680353701114654
1783201266860808700,5.11380859375,0.4851067720148712,1.0304185680150986,2.65207635127306,-0.2023601830005645,-0.8533189296722412,-0.4154120981693268
1783201266870745600,5.12374560546875,0.4675372130546718,0.7781351210340857,2.0756185255765915,-0.4283506870269775,-1.0197826623916626,-0.3586230278015136
1783201266880682800,5.133682861328125,0.3940447644077241,0.4982651634693145,1.4798837524801491,-0.6195057034492493,-1.0834580659866333,-0.3139088153839111
1783201266890619600,5.14361962890625,0.237441267158091,0.3096066319197416,0.840989052093029,-0.7603721618652344,-1.052147626876831,-0.2880201637744903
1783201266900556500,5.153556640625,0.0173273477021604,0.093388185532391,0.1471481250315904,-0.857913613319397,-0.9674725532531738,-0.2939776480197906
1783201266910493700,5.16349365234375,-0.2955531913217157,-0.2631479553446173,-0.638128392189741,-0.9111038446426392,-0.8887796401977539,-0.3362728059291839
1783201266920430600,5.1734306640625,-0.7373368083082139,-0.6579387158140539,-1.4440794486492872,-0.9157140254974364,-0.784984290599823,-0.4112724661827087
1783201266930367700,5.18336767578125,-1.122708290786296,-0.935498058348894,-2.156194283547997,-0.8352758884429932,-0.6246485114097595,-0.519832193851471
1783201266940304600,5.1933046875,-1.3322864223763349,-1.0565355905681848,-2.6612492532879117,-0.658143162727356,-0.4055910110473633,-0.6523439288139343
1783201266950241500,5.203241455078125,-1.4148092227622866,-1.0126023408174514,-3.0125878255218264,-0.4266121983528137,-0.2146930992603302,-0.7787932753562927
1783201266960178700,5.2131787109375,-1.3644558768361803,-0.9137757636234164,-3.262274534007907,-0.190460667014122,-0.1092420369386673,-0.8571421504020691
1783201266970116600,5.22311669921875,-1.177225040002167,-0.8851268845051526,-3.3080139563977715,0.012824373319745,-0.0795161128044128,-0.8824875950813293
1783201266980053800,5.2330537109375,-0.9325751566395164,-0.9128452047750352,-3.157971863490343,0.1785640716552734,-0.1096013113856315,-0.8646590709686279
1783201266989990700,5.24299072265625,-0.7275717856191098,-0.8826979037925601,-2.957429417401552,0.324073851108551,-0.1672969162464141,-0.831306517124176
1783201266999927800,5.252927734375,-0.6527159396644682,-0.7925546915307641,-2.744684492343664,0.4466836750507355,-0.211818590760231,-0.7965229749679565
1783201267009864400,5.262864501953125,-0.663922612529248,-0.7384867089956998,-2.460407531991601,0.5630806684494019,-0.1964754462242126,-0.7785468101501465
1783201267019801600,5.272801513671875,-0.7603573261506855,-0.6297241364598274,-2.110243264234066,0.6627031564712524,-0.1806773096323013,-0.7845269441604614
1783201267029739000,5.282739013671875,-0.8860553975269198,-0.4562105670720338,-1.795933569189906,0.748786449432373,-0.1537680774927139,-0.8130949139595032
1783201267039676000,5.292676025390625,-0.9751571379117668,-0.32219840246737,-1.4344406826883551,0.8142594695091248,-0.0975000113248825,-0.8535563349723816
1783201267049612800,5.30261279296875,-1.0166207826785745,-0.1476142812386155,-1.01473116953969,0.8582701683044434,-0.0154087822884321,-0.894351065158844
1783201267059549700,5.3125498046875,-1.002242128714174,0.0465440167710185,-0.5888444290608167,0.8753210306167603,0.0654783397912979,-0.932469129562378
1783201267069486800,5.32248681640625,-0.8895734155852347,0.2058247704058885,-0.1337555594950914,0.8623072504997253,0.1283347308635711,-0.966463267803192
1783201267079424000,5.332424072265625,-0.7316539403662085,0.3310889804095029,0.2641512871682643,0.832290768623352,0.1589067578315735,-0.992631196975708
1783201267089361000,5.34236083984375,-0.6100270639516413,0.397522231259942,0.67871291603446,0.7878420352935791,0.202643483877182,-1.021821141242981
1783201267099299000,5.352299072265625,-0.5159669705070555,0.5182718864485621,1.200409223973751,0.7276442050933838,0.2333337515592575,-1.0514874458312988
1783201267109235700,5.362235595703125,-0.4097573703896254,0.656366644191742,1.6213368807405233,0.6508782505989075,0.2160685658454895,-1.0733846426010132
1783201267119172900,5.3721728515625,-0.2807233960563317,0.752887867052853,1.9522300463169813,0.562887966632843,0.1518525630235672,-1.0956555604934692
1783201267129109800,5.38210986328125,-0.14630509833619,0.8662918356537819,2.255023491090536,0.4568732380867004,0.0479681082069873,-1.10535991191864
1783201267139047000,5.392046875,0.0103175420053303,1.0477850056186315,2.4630069008350373,0.3366557657718658,-0.0803491175174713,-1.1039372682571411
1783201267148984000,5.401984130859375,0.2613357182908803,1.2132464937150478,2.607606510427594,0.2189983427524566,-0.2248842269182205,-1.0750747919082642
1783201267158920700,5.411920654296875,0.5899860733766108,1.3427736218601465,2.61996096508801,0.1167569234967231,-0.3733551800251007,-1.0177332162857056
1783201267168857900,5.42185791015625,0.8263133148781955,1.5249322699964043,2.474515552321076,0.0161259230226278,-0.5089713335037231,-0.9520296454429626
1783201267178794800,5.431794677734375,1.0604267527878284,1.7565812174886464,2.268363449656963,-0.0769923031330108,-0.5784884095191956,-0.8694077134132385
1783201267188732000,5.44173193359375,1.2865581059023736,1.9145745616614815,2.1396219189316037,-0.1682729721069336,-0.591693639755249,-0.7676092386245728
1783201267198669000,5.4516689453125,1.4519579269394278,2.02112530336678,1.99400816386044,-0.2702773809432983,-0.6086114048957825,-0.6531763672828674
1783201267208605700,5.461605712890625,1.5596227673664689,2.040374778237939,1.7145067473471165,-0.3975022137165069,-0.6463239789009094,-0.5352656841278076
1783201267218542800,5.47154296875,1.6479128991074858,1.84639300583899,1.3888760323435068,-0.5338212251663208,-0.6951205730438232,-0.3971946537494659
1783201267228480800,5.481480712890625,1.6351584853440522,1.5030112378284337,0.95180563454926,-0.6603763699531555,-0.7587517499923706,-0.2710033655166626
1783201267238418000,5.49141796875,1.401110806147009,1.1794102750867606,0.411921928012371,-0.7700831294059753,-0.8235695958137512,-0.1822228878736496
1783201267248354800,5.501354736328125,1.0355246589824556,0.8602557703599333,-0.216238027870655,-0.8563364148139954,-0.8638052344322205,-0.1391208916902542
1783201267258292000,5.5112919921875,0.6177062202773987,0.415017848201096,-0.9041267685294152,-0.914711594581604,-0.8561984300613403,-0.1505953818559646
1783201267268228900,5.521228759765625,0.2048242150612175,-0.0308501885548233,-1.5482266363441943,-0.925166130065918,-0.7918869853019714,-0.2117822170257568
1783201267278165800,5.531165771484375,-0.1567771733161062,-0.3205073806405067,-2.118689605540037,-0.8820740580558777,-0.6523892879486084,-0.3197441101074219
1783201267288103000,5.54110302734375,-0.4477892140768468,-0.5150783511042595,-2.5540613827228547,-0.7876322865486145,-0.4620319008827209,-0.4406844973564148
1783201267298039800,5.551039794921875,-0.6068978260152041,-0.643671413269639,-2.9200802222162485,-0.6565552353858948,-0.2785313129425049,-0.5458481311798096
1783201267307977000,5.56097705078125,-0.6478468723233789,-0.7435542215183377,-3.210115307703614,-0.5019849538803101,-0.1304622292518615,-0.6067196130752563
1783201267317913900,5.570913818359375,-0.5804278253059834,-0.861699831688404,-3.44166371743083,-0.3384484946727752,-0.0194518137723207,-0.6297216415405273
1783201267327850800,5.580850830078125,-0.4925669518277049,-0.8859563210666179,-3.5038568464934823,-0.1613316535949707,0.0555064529180526,-0.6114124059677124
1783201267337788000,5.590787841796875,-0.4212291239313781,-0.8448129942953586,-3.4792145726680754,0.0343558266758918,0.0985953360795974,-0.575129508972168
1783201267347725800,5.600725830078125,-0.4049032814219593,-0.7493558935344219,-3.3284774832338093,0.2468610405921936,0.11701350659132,-0.534808337688446
1783201267357663000,5.6106630859375,-0.4336066672064363,-0.657821226914227,-2.972304914972186,0.4300684332847595,0.1461839228868484,-0.5154117345809937
1783201267367599900,5.620599853515625,-0.5092207111172378,-0.5709320480123162,-2.491813893124461,0.5666689276695251,0.1657134145498275,-0.5230381488800049
1783201267377536800,5.630536865234375,-0.620071634234488,-0.5013388718262315,-1.993680831602216,0.6374286413192749,0.1917213201522827,-0.5433517098426819
1783201267387474000,5.640473876953125,-0.7319212130002677,-0.4339300539419055,-1.5355197149842976,0.6764381527900696,0.1979770958423614,-0.5623167157173157
1783201267397410800,5.650410888671875,-0.7715401066832244,-0.3850792215332388,-1.1787141095161435,0.6984262466430664,0.2036080807447433,-0.5725821256637573
1783201267407348000,5.660347900390625,-0.749859166881442,-0.3006307137817144,-0.877397751557827,0.7270764708518982,0.2141985446214676,-0.5912540555000305
1783201267417284900,5.670284912109375,-0.7339385441720485,-0.1588175200372934,-0.5795967082440853,0.7673253417015076,0.2405705004930496,-0.613045871257782
1783201267427221800,5.6802216796875,-0.7298105044566094,0.0116296475172042,-0.2073854438513517,0.7947534322738647,0.2838201224803924,-0.6316332221031189
1783201267437159000,5.690158935546875,-0.6826207371279597,0.1223474457740783,0.1359311499685049,0.8017138242721558,0.2941595613956451,-0.6470521092414856
1783201267447095800,5.700095703125,-0.5803342652710154,0.1833136633902788,0.3463917634814977,0.7971769571304321,0.2886335253715515,-0.6533970832824707
1783201267457033000,5.710032958984375,-0.4969029352053999,0.2270814934462308,0.6245125392913818,0.7902921438217163,0.2682203948497772,-0.6586616635322571
1783201267466969900,5.719969970703125,-0.4415630330383777,0.2886342787787318,0.8765794209122657,0.7806901931762695,0.2323419600725174,-0.6542757153511047
1783201267476908000,5.729907958984375,-0.3558097993638366,0.3440206504359841,1.0348615188986063,0.7660894393920898,0.1827690750360489,-0.6408970952033997
1783201267486844700,5.7398447265625,-0.2792953725472092,0.3641971770241856,1.1652490632653236,0.7571665048599243,0.1260084360837936,-0.6090644001960754
1783201267496781800,5.74978173828125,-0.1758552371431142,0.3866819805547595,1.306733171185851,0.7521626949310303,0.0609846897423267,-0.5610047578811646
1783201267506719000,5.759718994140625,-0.0791545660618692,0.4329819594368338,1.436228150627017,0.7553180456161499,0.0008236253634095,-0.5123949646949768
1783201267516655900,5.76965576171875,0.0043698856472969,0.479198351688683,1.5562603051960466,0.765556812286377,-0.0580383613705635,-0.4706499576568603
1783201267526593000,5.779593017578125,-0.0339590412903577,0.5420972909331322,1.6935253341168164,0.7490280270576477,-0.1119343042373657,-0.4409597814083099
1783201267536529700,5.78952978515625,-0.1565718600023538,0.6451011538118123,1.777193797406554,0.6944971084594727,-0.1849890649318695,-0.4233935475349426
1783201267546466800,5.799466796875,-0.2315291205048561,0.685503306826949,1.82086108969748,0.6076503396034241,-0.2561032474040985,-0.4147151112556457
1783201267556404000,5.809404052734375,-0.2671658126838505,0.6165981129050254,1.879410893821716,0.4908784329891205,-0.3219557702541351,-0.4027058482170105
1783201267566340900,5.8193408203125,-0.2885196942220442,0.5152990081176162,1.8498931229144333,0.3748642802238464,-0.3953661918640136,-0.4057588279247284
1783201267576278000,5.829278076171875,-0.3397327439837158,0.4230947716727852,1.7360598229855295,0.287927508354187,-0.4667756557464599,-0.4310961365699768
1783201267586214700,5.839214599609375,-0.425473556568101,0.3863248376801609,1.5502122572034596,0.2420519888401031,-0.562572181224823,-0.4810926914215088
1783201267596152800,5.84915283203125,-0.6239481103416532,0.4369108233183622,1.2371318116933108,0.2219850718975067,-0.6569352149963379,-0.5735304355621338
1783201267606089700,5.85908984375,-0.7858402885839343,0.5316296729326248,0.9825772049099206,0.210266888141632,-0.7247708439826965,-0.6693860292434692
1783201267616027000,5.86902685546875,-0.7288206166364252,0.5119792160451412,0.7881073567330836,0.1690070629119873,-0.7728225588798523,-0.757712721824646
1783201267625964000,5.878964111328125,-0.5632991785136983,0.3558569264411926,0.5111965412348508,0.0845836699008941,-0.7880833745002747,-0.8095556497573853
1783201267635901000,5.88890087890625,-0.3496232196833938,0.1755769316583871,0.1686778197944164,-0.0335538908839225,-0.7526447176933289,-0.8407180905342102
1783201267645837800,5.898837890625,-0.1247194721350446,0.093294954290986,-0.1738198588579893,-0.1578186005353927,-0.6711198091506958,-0.8576145172119141
1783201267655774700,5.908774658203125,0.0713848088432103,0.0713321288079023,-0.5355319410681724,-0.2710610032081604,-0.5632777214050293,-0.8552892804145813
1783201267665711900,5.9187119140625,0.1742010401953011,0.0051359015837311,-0.9152028738170862,-0.3536660373210907,-0.4571283757686615,-0.8266904354095459
1783201267675649000,5.92864892578125,0.2152677945990115,-0.1077291378349065,-1.292551501098275,-0.3840082585811615,-0.3542091846466064,-0.7826322317123413
1783201267685585700,5.938585693359375,0.182204386974126,-0.1740136278644204,-1.632803446650505,-0.3573581278324127,-0.2686225473880768,-0.7623010873794556
1783201267695522800,5.948522705078125,0.0797895760297775,-0.147932261146605,-1.9132038578301669,-0.2693771421909332,-0.2130213379859924,-0.7554426193237305
1783201267705459700,5.958459716796875,-0.0064314578196033,-0.1213283318594098,-2.1106489224255083,-0.1309142708778381,-0.1667665243148803,-0.7516620755195618
1783201267715396900,5.96839697265625,-0.0645944180507212,-0.1316296533823013,-2.192266298404336,0.0353340879082679,-0.1323949694633484,-0.7451820373535156
1783201267725334800,5.978334716796875,-0.0970210256094113,-0.1323641051366925,-2.094514364704489,0.1907025575637817,-0.1136904507875442,-0.7414522767066956
1783201267735272000,5.98827197265625,-0.1403924036936834,-0.1370972711384296,-1.8755910432726144,0.3080025613307953,-0.1041392907500267,-0.7390834093093872
1783201267745208800,5.998208740234375,-0.1922447925385087,-0.1758478575542569,-1.631622712433338,0.3771284222602844,-0.1014716997742652,-0.7467131018638611
1783201267755145700,6.008145751953125,-0.273644434113428,-0.1515636033862829,-1.4121832581728695,0.4135468602180481,-0.1014083176851272,-0.7646178007125854
1783201267765083000,6.018082763671875,-0.3408689814720302,-0.0860506822511553,-1.2268126622527835,0.4408030211925506,-0.0986791849136352,-0.7977426052093506
1783201267775019800,6.028019775390625,-0.3484538836430758,0.0558361612513661,-1.0528086789995432,0.4584898650646209,-0.0616189055144786,-0.8319674730300903
1783201267784957000,6.03795703125,-0.2743556511227041,0.1874760437667369,-0.8221089950561523,0.4608833789825439,-0.0095656961202621,-0.8555970788002014
1783201267794893800,6.047893798828125,-0.1975903913501649,0.2967722847878933,-0.6513736582100391,0.4525991082191467,0.0404303595423698,-0.8545606136322021
1783201267804830700,6.057830810546875,-0.0945192353889346,0.3662923957377672,-0.4630442124843597,0.4367080628871918,0.0912471786141395,-0.8349758386611938
1783201267814767900,6.067767822265625,0.0224219674274325,0.4135597583472728,-0.254623580366373,0.4269877970218658,0.1105756089091301,-0.8009968400001526
1783201267824704800,6.077704833984375,0.1187875613354146,0.462103716763854,-0.0831762958586215,0.4298174679279327,0.0992941632866859,-0.7594033479690552
1783201267834642000,6.087641845703125,0.1629258321389556,0.5244558357805014,0.1222621055781841,0.4388503730297088,0.0603390336036682,-0.719527006149292
1783201267844578800,6.097578857421875,0.1702258529540151,0.5848170732408762,0.3761164551377296,0.4364485740661621,0.0096602030098438,-0.6877756714820862
1783201267854516700,6.107516845703125,0.1310123982667922,0.5822516066670418,0.6283078399211168,0.4202355146408081,-0.0476864427328109,-0.6558195948600769
1783201267864454000,6.117453857421875,0.0526704637620598,0.5576613552898169,0.8178723803997039,0.3848638832569122,-0.1093927696347236,-0.6330491304397583
1783201267874390800,6.127390869140625,0.0028298896636813,0.5611708247154951,0.999324341571331,0.3496031165122986,-0.1612825989723205,-0.6152826547622681
1783201267884328000,6.137327880859375,-0.036617373779416,0.5656827491819858,1.1660784998267888,0.3196046054363251,-0.2059807777404785,-0.611114501953125
1783201267894264800,6.147264892578125,-0.0556564390365965,0.6409282520413399,1.2915624900609255,0.3008463680744171,-0.2531477510929107,-0.6103816032409668
1783201267904201700,6.15720166015625,-0.0490622101370245,0.744350048071146,1.3761422229766844,0.2941897809505462,-0.2896662354469299,-0.6052444577217102
1783201267914139000,6.167138916015625,-0.038241394784674,0.8263783429384232,1.5164023420602082,0.2751228809356689,-0.2987550795078277,-0.5947153568267822
1783201267924075800,6.17707568359375,-0.0118261199373751,0.903550429946184,1.741241609537601,0.2422118037939071,-0.3098765611648559,-0.5833318829536438
1783201267934013000,6.187012939453125,0.0235760876323096,0.9478133500427008,1.8959318205118176,0.1825002580881118,-0.3669089376926422,-0.5566773414611816
1783201267943949800,6.19694970703125,0.1055120463073253,0.9420026179373264,1.932410662603378,0.0894016921520233,-0.4597324728965759,-0.5102934241294861
1783201267953886700,6.20688671875,0.1390331345718354,0.9566378770112992,1.8744249221026896,-0.0294868759810924,-0.5654820799827576,-0.4680189192295074
1783201267963823900,6.216823974609375,0.1404048613164573,1.000139165085554,1.7122902403414249,-0.1510314643383026,-0.6622335314750671,-0.4286499321460724
1783201267973761800,6.22676171875,0.1678225546719506,0.9783172093778848,1.44306705673635,-0.2543695569038391,-0.7533629536628723,-0.4028063416481018
1783201267983699000,6.236698974609375,0.2006444086259231,0.930410379821062,1.0994289758771658,-0.3354767560958862,-0.8363549113273621,-0.3947935402393341
1783201267993635800,6.2466357421875,0.2341594324758276,0.9009867169380188,0.6207417885810137,-0.373479276895523,-0.9177983403205872,-0.4056086242198944
1783201268003573000,6.256572998046875,0.320696692667529,0.8951087648153304,0.0262152222305536,-0.3736379444599151,-0.9340134859085084,-0.4226336479187011
1783201268013509600,6.266509521484375,0.4361665808223187,0.9515198033452034,-0.4356120156794786,-0.3481973111629486,-0.8997436761856079,-0.4470910727977752
1783201268023446800,6.27644677734375,0.6846504893898964,0.9986556485295296,-0.9133154526352882,-0.3253245651721954,-0.8533248901367188,-0.4536617398262024
1783201268033384400,6.286384521484375,0.97315091265589,0.8965051876097917,-1.4209844042658806,-0.3101674616336822,-0.7958205938339233,-0.4238644242286682
1783201268043321600,6.296321533203125,1.1262746049657464,0.7557499784857035,-1.8200398364424704,-0.3124884665012359,-0.7107886672019958,-0.3846427798271179
1783201268053258800,6.3062587890625,1.163764816056937,0.6574100157648325,-2.0892443153470754,-0.3203541040420532,-0.5990248322486877,-0.3614474534988403
1783201268063195600,6.316195556640625,1.1925775074347853,0.5801145946383476,-2.299555875778198,-0.3127718269824981,-0.4731181263923645,-0.3564009368419647
1783201268073132500,6.326132568359375,1.253408262103051,0.5240858334243297,-2.4753765530645846,-0.2998197972774505,-0.3560120165348053,-0.359700858592987
1783201268083069400,6.3360693359375,1.3304720664307474,0.4981763161420822,-2.6042671368718144,-0.284670889377594,-0.2392606288194656,-0.3553919494152069
1783201268093007600,6.346007568359375,1.3683651592344044,0.4668459428548812,-2.6818589105963704,-0.2691513001918793,-0.1350540667772293,-0.330951064825058
1783201268102944500,6.355944580078125,1.3854147859737276,0.4188572802335024,-2.681205415123701,-0.2527304887771606,-0.0423864312469959,-0.2911827266216278
1783201268112881700,6.365881591796875,1.3411438287012278,0.4213005817323922,-2.6085440835386517,-0.2264557480812072,0.0860650166869163,-0.2589842975139618
1783201268122818800,6.37581884765625,1.2410687127508222,0.5688707315683365,-2.331781152078509,-0.1939237415790558,0.2277438789606094,-0.2557385563850403
1783201268132755500,6.38575537109375,1.2025431672625242,0.7707423804342747,-2.055856425008177,-0.1563172489404678,0.3261282444000244,-0.2476550638675689
1783201268142692600,6.395692626953125,1.311265261657536,0.90314769436419,-1.921881085282564,-0.0977740585803985,0.3471525907516479,-0.2044069766998291
1783201268152629500,6.40562939453125,1.467716929346323,0.9905091669529676,-1.8456056548535824,-0.0133332060649991,0.3407429158687591,-0.1231584623456001
1783201268162566700,6.415566650390625,1.6104373010635376,1.1457768855541943,-1.6557757414370775,0.093991532921791,0.3517939746379852,-0.0236762091517448
1783201268172503800,6.42550390625,1.6863523737475274,1.3873580289959906,-1.4407400750935078,0.2109354585409164,0.3540810942649841,0.0738021433353424
1783201268182440400,6.4354404296875,1.739338406264782,1.5344272435724735,-1.1927034719020126,0.2969116270542145,0.3698054552078247,0.1777746081352234
1783201268192377600,6.445377685546875,1.7557433053597806,1.5675924310714004,-0.8670546367198229,0.3288581073284149,0.3830669224262237,0.2693135738372803
1783201268202314500,6.455314453125,1.7395710459768772,1.5519360122561454,-0.5487906510919333,0.3125361800193786,0.3847158253192901,0.352849543094635
1783201268212252700,6.465252685546875,1.6535858301773667,1.5698662212222814,-0.2498217330425977,0.2660781443119049,0.3852905631065368,0.4180344045162201
1783201268222189600,6.475189453125,1.5340966964438556,1.6208827072322367,0.0351063846945762,0.2049838304519653,0.3984978199005127,0.4682349860668182
1783201268232126700,6.485126708984375,1.467940508969128,1.6464853505223989,0.2315834810405969,0.1431207358837127,0.4013410210609436,0.5198542475700378
1783201268242063600,6.495063720703125,1.4250349948309362,1.6180109511882066,0.3566992224842309,0.0828990638256073,0.3979498445987701,0.5665237307548523
1783201268252000500,6.50500048828125,1.3650056196734308,1.5929939988315105,0.4662549912244081,0.0339267253875732,0.3912575840950012,0.6107375025749207
1783201268261937700,6.514937744140625,1.2385242889650163,1.6103420239955186,0.5992196926027537,-0.004989406093955,0.3988057672977447,0.6473907232284546
1783201268271874600,6.52487451171875,1.139123272883892,1.5665496440201996,0.7477566416442394,-0.0472697541117668,0.402896374464035,0.6858696937561035
1783201268281811700,6.534811767578125,1.0714431637775153,1.4943892476946117,0.8192413306653499,-0.095509834587574,0.4058023393154144,0.7323106527328491
1783201268291748600,6.54474853515625,1.0050554325692356,1.412318867251277,0.9210083452254532,-0.1447908282279968,0.418759673833847,0.788358211517334
1783201268301685500,6.554685546875,0.916365195594728,1.3566682916998862,1.0196277094095945,-0.1954808384180069,0.4137470126152038,0.8427658081054688
1783201268311622700,6.56462255859375,0.819939688193053,1.3167460311561825,1.0923293730050323,-0.2378338724374771,0.3839781880378723,0.8996887803077698
1783201268321559600,6.5745595703125,0.7434574100803584,1.2955717257022856,1.1708967137634754,-0.2630175054073334,0.3257376253604889,0.9511571526527404
1783201268331496700,6.58449658203125,0.6315902225926519,1.3067758412837982,1.236142800655961,-0.2720184624195099,0.2714512050151825,0.9822708368301392
1783201268341434600,6.5944345703125,0.4734860384564846,1.3498247094154356,1.343259359550476,-0.281404584646225,0.2300486862659454,0.9987481236457824
1783201268351371500,6.60437158203125,0.3452513612747192,1.2958774306505918,1.4328291558384894,-0.3167745471000671,0.184426873922348,1.0296775102615356
1783201268361308700,6.61430859375,0.2291003589879721,1.1016846458494662,1.4344763385236263,-0.3826638758182525,0.1247958466410636,1.0874302387237549
1783201268371245600,6.62424560546875,0.1080496019609272,0.8478294195070862,1.3671645512729882,-0.4525630474090576,0.0631806850433349,1.153173565864563
1783201268381182700,6.6341826171875,-0.0229444934641942,0.6163669344976545,1.219924656304717,-0.5120042562484741,-0.0176790207624435,1.2160499095916748
1783201268391119600,6.64411962890625,-0.1574031962599605,0.4111173336312174,0.8959621667742729,-0.5429688692092896,-0.0992740094661712,1.2521969079971311
1783201268401056500,6.654056396484375,-0.3450686981841921,0.2080710880279541,0.4946779526323079,-0.5458003282546997,-0.140537604689598,1.2504432201385498
1783201268410993700,6.66399365234375,-0.6499924329847097,-0.0119198626354336,0.1840706192374229,-0.5683091282844543,-0.1703745871782302,1.2095232009887695
1783201268420930600,6.6739306640625,-1.0204748277582227,-0.2636120657250285,-0.2047334680378437,-0.6142594814300537,-0.1934951841831207,1.1538619995117188
1783201268430867700,6.68386767578125,-1.3415737445510922,-0.5635045283600688,-0.681167323449254,-0.6679295897483826,-0.210020363330841,1.0859578847885132
1783201268440804600,6.6938046875,-1.5531179155170916,-0.8403712124556303,-1.2285942849725484,-0.7024808526039124,-0.1560241878032684,1.0045310258865356
1783201268450741500,6.703741455078125,-1.6259499274939295,-0.999675054705143,-1.686784043163061,-0.6843505501747131,-0.0615445636212825,0.9071488976478576
1783201268460679400,6.713679443359375,-1.5481880578994751,-1.1116428530231115,-2.1152771667480468,-0.6107197403907776,0.0667434409260749,0.8096457123756409
1783201268470616600,6.723616455078125,-1.3571665966108442,-1.278446403378248,-2.486924367517233,-0.5061376690864563,0.1924685984849929,0.7149543166160583
1783201268480553700,6.7335537109375,-1.1788731725353747,-1.2673708826124668,-2.7259517348229885,-0.3946007490158081,0.30495086312294,0.6195497512817383
1783201268490490600,6.74349072265625,-1.0457558378785847,-1.074497071455419,-2.798738154092431,-0.3017975687980652,0.404808759689331,0.5331693291664124
1783201268500427800,6.753427734375,-0.8379625438787043,-0.9091559948682784,-2.7707296187043187,-0.235128715634346,0.4722324907779693,0.478918582201004
1783201268510364400,6.763364501953125,-0.5948808596808463,-0.7481552855730056,-2.702776026418805,-0.2018008530139923,0.5120856165885925,0.4514811038970947
1783201268520301600,6.773301513671875,-0.3881912160739302,-0.5426987639576196,-2.595786308774352,-0.1825249940156936,0.5507725477218628,0.4381968379020691
1783201268530238700,6.78323876953125,-0.1810403846960514,-0.3631231180518865,-2.478029697921872,-0.1500775665044784,0.5973680019378662,0.4421510994434356
1783201268540175600,6.793175537109375,0.0558065698307007,-0.275699978403747,-2.409264789253473,-0.0815655812621116,0.6460328698158264,0.4646556973457336
1783201268550112800,6.80311279296875,0.2222877198310568,-0.1586649598240852,-2.273085802003741,0.0093166548758745,0.6899558901786804,0.4835566878318786
1783201268560049400,6.81304931640625,0.2750196679893881,0.0734150725618004,-2.0690642816275355,0.1137409284710884,0.725271463394165,0.4896483421325683
1783201268569986600,6.822986572265625,0.2833784771423787,0.3079015815675258,-1.7794722637325524,0.22084741294384,0.7569686770439148,0.5019311308860779
1783201268579924500,6.832924560546875,0.2980613747503608,0.5479553693115711,-1.4279261862277983,0.3213741481304168,0.7900813221931458,0.5174062252044678
1783201268589861600,6.842861572265625,0.3467236257843673,0.7574822091057897,-0.9955261183321475,0.4041601121425628,0.84108567237854,0.5377666354179382
1783201268599798800,6.852798828125,0.4155677371688187,0.8992556553617119,-0.5035340437829494,0.460209846496582,0.8635361194610596,0.5743531584739685
1783201268609735400,6.8627353515625,0.4874480744440108,0.959039969716966,-0.0556289482414722,0.4932117164134979,0.8535545468330383,0.6191738843917847
1783201268619672600,6.872672607421875,0.5200650534756481,0.9579127192527056,0.3999813148498535,0.498801589012146,0.8271685838699341,0.6749504804611206
1783201268629609500,6.882609375,0.5121222047124058,0.9996791463583709,0.8507417998224497,0.4869731366634369,0.7902182936668396,0.7348300218582153
1783201268639546600,6.892546630859375,0.4533396878108382,1.0760232581093907,1.225665245783329,0.4578770101070404,0.7325479984283447,0.7914758324623108
1783201268649483800,6.90248388671875,0.4143468170717358,1.1519257635727524,1.5561317103803156,0.4232124984264374,0.6685479879379272,0.8380358815193176
1783201268659420400,6.91242041015625,0.3914577435892075,1.2179504336223006,1.844125060907006,0.3982904851436615,0.6148315072059631,0.8801102638244629
1783201268669357600,6.922357666015625,0.3662308748088776,1.295520872297883,2.10902336705029,0.3789854943752289,0.5638352036476135,0.9151334762573242
1783201268679294500,6.93229443359375,0.3462751513645052,1.3875313397362827,2.386687046742439,0.348695307970047,0.4965960085391998,0.956589698791504
1783201268689231600,6.942231689453125,0.3505767940811812,1.4136562533348798,2.5934821234852072,0.304307609796524,0.3882223963737488,1.0195837020874023
1783201268699168800,6.952168701171875,0.3210129920750856,1.329637369172275,2.668708337122202,0.2436753511428833,0.2592091858386993,1.0941450595855713
1783201268709105400,6.96210546875,0.1867502137102186,1.2000333763986826,2.7335312301665544,0.1709263175725937,0.1457452178001403,1.164836287498474
1783201268719043600,6.972043701171875,-0.0079433602198958,1.0593702294722198,2.737109673175216,0.0913664251565933,0.0403615981340408,1.2244912385940552
1783201268728980500,6.98198046875,-0.2226495023481547,0.9060922233834864,2.5877204912185667,0.0084619540721178,-0.0591620579361915,1.265893816947937
1783201268738917600,6.991917724609375,-0.4197616817273199,0.7125085103914142,2.374840541604161,-0.0813816338777542,-0.1553529351949691,1.286224126815796
1783201268748854500,7.0018544921875,-0.5333989476274699,0.4808256606295704,2.113276932841539,-0.1566790640354156,-0.235961228609085,1.2941746711730957
1783201268758791700,7.011791748046875,-0.5818699138730764,0.279950329324603,1.7810218312621116,-0.2138257324695587,-0.3102188408374786,1.2919580936431885
1783201268768728600,7.021728515625,-0.6460558972533792,0.1414738787874579,1.4335954640358686,-0.2523707449436188,-0.3804197609424591,1.2832677364349363
1783201268778665500,7.03166552734375,-0.743151266740635,0.0803156457304954,1.017979942202568,-0.2833650112152099,-0.4311933517456054,1.2603659629821775
1783201268788602600,7.0416025390625,-0.8461581252939998,0.0147141695290803,0.651909080260992,-0.3093851506710052,-0.4580175280570984,1.2361061573028564
1783201268798539500,7.05153955078125,-0.9183175717715172,-0.1007359179466962,0.2410539046972989,-0.3333670198917389,-0.4650061130523681,1.2073100805282593
1783201268808476700,7.0614765625,-0.9699610305733978,-0.241822258721292,-0.2450304071128368,-0.3389514088630676,-0.4724595248699188,1.164799690246582
1783201268818413600,7.07141357421875,-1.0153205137349666,-0.2892804677277803,-0.7005810489714145,-0.344980776309967,-0.4441292285919189,1.0987989902496338
1783201268828350500,7.0813505859375,-0.9868805281270296,-0.3739142689183354,-1.065345504489541,-0.3533918261528015,-0.3763009011745453,1.0292478799819946
1783201268838288600,7.09128857421875,-0.8944650600843131,-0.4456006179913878,-1.3852028967887162,-0.3823595941066742,-0.2635622322559356,0.9482186436653136
1783201268848225500,7.1012255859375,-0.8346006662301718,-0.4555898048251867,-1.6520622738718986,-0.4400266110897064,-0.0966986715793609,0.8524196743965149
1783201268858162700,7.11116259765625,-0.7198442601069808,-0.4046551518797874,-1.820102380284667,-0.5136866569519043,0.087755300104618,0.7482836842536926
1783201268868099600,7.121099609375,-0.5347630025222897,-0.3403805403679609,-1.955028152602911,-0.5842830538749695,0.2582972049713135,0.6583958864212036
1783201268878036500,7.131036376953125,-0.2201829661041498,-0.2891863597035408,-2.1199287919461725,-0.6222449541091919,0.3930447101593017,0.6010263562202454
1783201268887973600,7.1409736328125,0.1522759894393384,-0.2451364978358149,-2.2852958797574043,-0.6188539266586304,0.4725914597511291,0.588721752166748
1783201268897910500,7.15091064453125,0.4417860281392932,-0.19941578014642,-2.4391841266989704,-0.5703222751617432,0.5096848607063293,0.6082250475883484
1783201268907847700,7.16084765625,0.6074810327306389,-0.1458425953909754,-2.5186335109889506,-0.4972879886627197,0.5472849607467651,0.6555744409561157
1783201268917784600,7.17078466796875,0.640910277993232,-0.1284624215230345,-2.5227549748331306,-0.4015752673149109,0.5882776379585266,0.7171213626861572
1783201268927721500,7.180721435546875,0.5688284998618066,-0.0968038391947746,-2.489940500468016,-0.2826874852180481,0.6254096031188965,0.7841662168502808
1783201268937658600,7.19065869140625,0.3907049524605274,-0.0271229847252368,-2.4071587568849324,-0.1635900139808654,0.65478515625,0.8320261240005493
1783201268947595500,7.200595458984375,0.1719954929750412,0.0381841847047209,-2.2406226252943275,-0.0316841714084148,0.7016592025756836,0.8639131784439087
1783201268957532700,7.21053271484375,0.0358497504077851,0.0395113416552543,-1.966678258386254,0.1064111217856407,0.7501828074455261,0.8846288919448853
1783201268967470600,7.220470703125,-0.0484389636721462,0.038430268420279,-1.601654275149107,0.2493909001350402,0.7913869619369507,0.8942532539367676
1783201268977407700,7.23040771484375,-0.1404998461235314,0.0981181366637349,-1.0943044724702835,0.3835157454013824,0.8277739882469177,0.8944348096847534
1783201268987344400,7.240344482421875,-0.2301277292743325,0.190584823437035,-0.4855541504561901,0.4950031340122223,0.8185045719146729,0.8935319781303406
1783201268997281500,7.250281494140625,-0.2602942464139312,0.3185544930070638,0.1027969421297311,0.5861048102378845,0.7784559726715088,0.8991938829421997
1783201269007218700,7.26021875,-0.248840686115995,0.4400952985733747,0.6984983974784612,0.6479306221008301,0.707074761390686,0.9063628315925598
1783201269017155600,7.270155517578125,-0.2661548090104013,0.5908782729759812,1.2757359753757715,0.675992488861084,0.614870011806488,0.9224636554718018
1783201269027092500,7.280092529296875,-0.2752032078627496,0.7126862050458789,1.7548580469578503,0.678753137588501,0.4889714419841766,0.9513416290283204
1783201269037029400,7.290029296875,-0.2808715358227491,0.7892273006737232,2.122742680323124,0.6473503112792969,0.3527294099330902,0.9904048442840576
1783201269046966300,7.29996630859375,-0.2909864679280668,0.8324564938083291,2.4376456650853155,0.5915951728820801,0.2170642614364624,1.0187273025512695
1783201269056903400,7.3099033203125,-0.3368392875645309,0.8657757028251886,2.69047593229413,0.5072426795959473,0.0944893062114715,1.0226192474365234
1783201269066840300,7.31984033203125,-0.3720901952963322,0.8914753767490387,2.816516971889138,0.3967143297195434,-0.0243923403322696,1.0084296464920044
1783201269076777500,7.329777587890625,-0.379929218358919,0.8719646205931901,2.792527024492621,0.255432665348053,-0.1294301599264145,0.9926956295967102
1783201269086715400,7.33971533203125,-0.3944618207760155,0.7699372015312314,2.619040927633643,0.1012167483568191,-0.1933351159095764,0.983074188232422
1783201269096652300,7.34965234375,-0.3895155234802514,0.5858779804706573,2.359370000749826,-0.0565398000180721,-0.2316388487815857,0.9955774545669556
1783201269106589400,7.35958935546875,-0.4269915599156171,0.3964809055134654,1.977511202567816,-0.2068091928958892,-0.2654708623886108,1.0298765897750854
1783201269116526300,7.3695263671875,-0.4643687390863895,0.1341179630666971,1.5107745653063058,-0.3442850708961487,-0.2945410311222076,1.0680891275405884
1783201269126463500,7.37946337890625,-0.572423309483379,-0.1049091119781136,1.019009285250306,-0.464406669139862,-0.3275951147079468,1.0956158638000488
1783201269136400400,7.389400390625,-0.7902930302090942,-0.2784539532870054,0.4935100778967142,-0.5666303038597107,-0.3658056259155273,1.093498706817627
1783201269146337300,7.399337158203125,-1.0517302361130714,-0.4541416518434882,-0.1267249302059412,-0.6341853737831116,-0.3943701386451721,1.0572855472564695
1783201269156274400,7.4092744140625,-1.280734806576371,-0.6927841114848852,-0.7134551435917615,-0.652334451675415,-0.3447788655757904,0.9920821189880372
1783201269166211300,7.41921142578125,-1.5028221449971195,-0.9368275533869862,-1.2137585348904132,-0.620969295501709,-0.2808480858802795,0.895110011100769
1783201269176148500,7.4291484375,-1.6299819594889875,-1.1396040421381592,-1.744409133657813,-0.5484703183174133,-0.193964347243309,0.7842767834663391
1783201269186085400,7.43908544921875,-1.7277891305074096,-1.2551152121514082,-2.1088094320386648,-0.4491962194442749,-0.096657782793045,0.6694082617759705
1783201269196022300,7.449022216796875,-1.7764339189499616,-1.3121928978964683,-2.3727532139360905,-0.3365022540092468,0.0144508397206664,0.5591018795967102
1783201269205960200,7.458960205078125,-1.7223823030278085,-1.3773323095440864,-2.5271412270933387,-0.2199301272630691,0.1256894767284393,0.4566780626773834
1783201269215897300,7.4688974609375,-1.6448459127523003,-1.399013395476341,-2.583752756631374,-0.1101637184619903,0.2345113903284073,0.3558145463466644
1783201269225834500,7.47883447265625,-1.5618021572321652,-1.3299585639506577,-2.532950205633044,-0.0217323936522007,0.3259539604187011,0.255690336227417
1783201269235771400,7.488771484375,-1.471672681234777,-1.200653261862695,-2.399475216645002,0.0371032282710075,0.4014140963554382,0.1477817147970199
1783201269245708500,7.49870849609375,-1.3529288129106165,-1.027377592884004,-2.1909891180753704,0.0682728588581085,0.4530152380466461,0.0551553815603256
1783201269255645200,7.508645263671875,-1.222948826431483,-0.8300541088417172,-1.9799527505010368,0.0867691189050674,0.4933212101459503,-0.0217142440378665
1783201269265582300,7.518582275390625,-1.0779030805066228,-0.5751502502292394,-1.7511352270424363,0.1005094349384307,0.5466651320457458,-0.0674609541893005
1783201269275519500,7.52851953125,-0.8965424508802592,-0.3269032191574573,-1.460948750385642,0.1190403699874877,0.6101364493370056,-0.1030856147408485
1783201269285456400,7.538456298828125,-0.7511831089615821,-0.0965136240765452,-1.1460638858020304,0.1397192776203155,0.6752867102622986,-0.1253182142972946
1783201269295393500,7.5483935546875,-0.6355947820588946,0.0964157166600227,-0.8164654362112284,0.1569671630859375,0.7462068796157837,-0.1369580030441284
1783201269305330200,7.558330078125,-0.534617894963175,0.2485126962706446,-0.4323725953668356,0.1682288646697998,0.7999539971351624,-0.1393479257822036
1783201269315267300,7.568267333984375,-0.4099596880286931,0.365334072099626,-0.0694973145961761,0.1857175081968307,0.8128347396850586,-0.1329454332590103
1783201269325205200,7.578205322265625,-0.2848115786854177,0.4771925648242235,0.2388099251627922,0.2016173750162124,0.7965412735939026,-0.1322743147611618
1783201269335142400,7.588142333984375,-0.1555011620309203,0.5699436214968562,0.5679115311473608,0.2126502841711044,0.7761828303337097,-0.1292210668325424
1783201269345079300,7.598079345703125,0.0123364806123077,0.6193132170826197,0.9077385292857884,0.2272795587778091,0.7394333481788635,-0.1266354024410247
1783201269355016400,7.608016357421875,0.188483540308848,0.7031570369392633,1.1893524079084397,0.24970144033432,0.6924599409103394,-0.131782665848732
1783201269364953300,7.617953369140625,0.3342073316257447,0.8600023801207541,1.5222510680884125,0.266555517911911,0.6543000340461731,-0.1364919245243072
1783201269374890200,7.62789013671875,0.4484978007376193,1.0604413658350706,1.9360686005890368,0.2658662497997284,0.6350929737091064,-0.1284833401441574
1783201269384827400,7.637827392578125,0.5689008344456553,1.2397446245402095,2.343496724313497,0.2381310164928436,0.6023193001747131,-0.102665327489376
1783201269394764500,7.6477646484375,0.6504431724268943,1.4348574467957018,2.69301275729537,0.1743418872356414,0.5266041159629822,-0.056193009018898
1783201269404701400,7.657701416015625,0.7637655271589756,1.5969921285569666,2.921881134158373,0.0921301022171974,0.4280192255973816,0.0150100626051425
1783201269414638300,7.667638427734375,0.9234696207724512,1.6552631157398223,3.068565733331442,-0.0070063201710581,0.3227287232875824,0.1235730871558189
1783201269424575200,7.6775751953125,1.0720147531203923,1.616134051400423,3.1865088066667315,-0.0978970751166343,0.1978333741426468,0.2578371465206146
1783201269434512400,7.687512451171875,1.1969690203920007,1.610822500988841,3.121874129670858,-0.1924466341733932,0.0193569436669349,0.4087739586830139
1783201269444450300,7.6974501953125,1.1876904660455885,1.614932858917117,2.955017095562816,-0.2999334037303924,-0.2002553045749664,0.5759432911872864
1783201269454387500,7.707387451171875,1.1145781758226454,1.405817522533238,2.6371318801194428,-0.4130511581897735,-0.4443707764148712,0.7437333464622498
1783201269464324400,7.717324462890625,0.8479094990059733,1.102332880625129,2.107732742717862,-0.5020793080329895,-0.6408966183662415,0.8940410614013672
1783201269474261200,7.72726123046875,0.4126791030552238,0.807799314674735,1.5632850892663002,-0.5716586112976074,-0.7787059545516968,1.0093101263046265
1783201269484198400,7.737198486328125,-0.0929623613357543,0.4545359118580818,0.996791608223319,-0.6226648092269897,-0.9068266153335572,1.0574592351913452
1783201269494135300,7.74713525390625,-0.5314112078763544,0.0661161477252841,0.4558101695775985,-0.6521514654159546,-1.0045534372329712,1.0474574565887451
1783201269504072400,7.757072509765625,-0.8942813740804791,-0.2761512293025851,-0.0750491035044193,-0.6612901091575623,-1.0506218671798706,0.9867563247680664
1783201269514009300,7.76700927734375,-1.3243437928088009,-0.5221665557995439,-0.6264765328407287,-0.6572620272636414,-1.0311391353607178,0.9000777006149292
1783201269523946200,7.7769462890625,-1.7135950393296775,-0.7759840804800391,-1.181022386458516,-0.6480535864830017,-0.9015915989875792,0.7867599129676819
1783201269533883400,7.78688330078125,-2.06389009386003,-1.0467167918652296,-1.6045622715502976,-0.6184079051017761,-0.7138306498527527,0.6498842835426331
1783201269543820300,7.7968203125,-2.3792066278591752,-1.2708324212431907,-2.030001268261671,-0.5829034447669983,-0.5101824402809143,0.4975288510322571
1783201269553757400,7.80675732421875,-2.5836098410293458,-1.5095906162187456,-2.415602175581455,-0.5326517820358276,-0.2959915995597839,0.3430698812007904
1783201269563695400,7.8166953125,-2.670556010815501,-1.719269139443338,-2.573761523970961,-0.4636386334896087,-0.0885398760437965,0.1864712387323379
1783201269573632300,7.82663232421875,-2.668086405831575,-1.8249813844978808,-2.6208114444375035,-0.3828183710575104,0.0599832832813262,0.0214841421693563
1783201269583569400,7.8365693359375,-2.607358088624477,-1.806302987512946,-2.6032173355579373,-0.2972264885902405,0.1512639224529266,-0.1483794599771499
1783201269593506300,7.84650634765625,-2.4363763758018613,-1.7090023047119378,-2.463200377580524,-0.209447979927063,0.1965905874967575,-0.2958241701126098
1783201269603443500,7.856443359375,-2.176307827902585,-1.5837439399272202,-2.287353396809101,-0.1180613487958908,0.2167895883321762,-0.4128583669662475
1783201269613380400,7.86638037109375,-1.9037524311348797,-1.3795868104726074,-2.062200825598836,-0.0351592525839805,0.2202123552560806,-0.4904869198799133
1783201269623317200,7.876317138671875,-1.6534942063711582,-1.135656473556161,-1.771403523567319,0.0456623584032058,0.2367444634437561,-0.539822518825531
1783201269633254400,7.88625439453125,-1.4461162151739,-0.9204209007263184,-1.4504723645567894,0.1241946667432785,0.2713579535484314,-0.5640925765037537
