time,seconds_elapsed,ax,ay,az,gx,gy,gz
1783201234829569000,0.076569091796875,-0.8326622455134988,-1.2382120081454515,-0.6394353831350803,-0.1848136186599731,0.1489008069038391,-0.1067336872220039
1783201234839505000,0.0865048828125,-0.7315307523779571,-1.3983879570543765,-0.514840450695157,-0.09901162981987,0.1584575623273849,-0.1514015644788742
1783201234849442000,0.096442138671875,-0.5441857876449823,-1.561991250063479,-0.5165092606902122,-0.0257324054837226,0.1335383057594299,-0.1887619346380233
1783201234859379000,0.10637890625,-0.4053447415791452,-1.618472723481059,-0.5947118597894907,0.0682681277394294,0.1427536457777023,-0.2288627475500106
1783201234869315000,0.116315185546875,-0.3275274885356426,-1.532684199297428,-0.4815063363701105,0.1663127094507217,0.1587687730789184,-0.259207010269165
1783201234879252000,0.126251953125,-0.2493085958886891,-1.342227970676124,-0.289487972998619,0.2020102590322494,0.1107229441404342,-0.277521014213562
1783201234889189000,0.136189208984375,-0.1698083581943064,-1.1389058307409283,-0.2218108595669269,0.1677960902452469,0.0216152556240558,-0.2837022840976715
1783201234899125000,0.146125,0.0195126558519899,-1.0894424193918704,-0.134593763884902,0.1106214970350265,-0.0187550708651542,-0.2535499930381775
1783201234909062100,0.156062255859375,0.2117602248694747,-1.1475316202670336,0.0505962147712707,0.0553377270698547,0.0449542365968227,-0.2052642554044723
1783201234918998000,0.165998046875,0.269314734346047,-1.0574047746181487,0.2880477110624313,0.006524649914354,0.1930433064699173,-0.1556506305932998
1783201234928935200,0.17593505859375,0.2259936251442879,-0.759365246373415,0.5753834744632244,-0.0190664604306221,0.3795734047889709,-0.0974488407373428
1783201234938872000,0.1858720703125,0.1756730855092406,-0.3870291865572333,0.9380015656024218,-0.0093355374410748,0.5292832851409912,0.0095843970775604
1783201234948808000,0.195807861328125,0.2105430310994386,-0.0821340933293104,1.421136379957199,0.0382535532116889,0.5468518137931824,0.1504836678504943
1783201234958745000,0.2057451171875,0.3800271988406777,0.1424468154728412,1.862201400345564,0.0749849379062652,0.3911088109016418,0.2835628688335418
1783201234968682000,0.215681884765625,0.5363698531970381,0.3403744028881192,2.0983289545565844,0.0440563112497329,0.0932869911193847,0.3588306009769439
1783201234978618000,0.2256181640625,0.583612665887177,0.5565463797852397,2.2746681027591227,-0.0751457139849662,-0.2598273754119873,0.3427115678787231
1783201234988555000,0.235554931640625,0.5876501777749509,0.7668573556944728,2.1939771939754484,-0.2412579953670501,-0.4960266649723053,0.2764064967632293
1783201234998492400,0.245492431640625,0.5196148985553533,0.8234045878246427,2.025239168426394,-0.3798116147518158,-0.5025633573532104,0.2285950183868408
1783201235008428500,0.255428466796875,0.4648817301098257,0.7494216522470116,2.0252473517328498,-0.4598768949508667,-0.4288369417190552,0.2207211703062057
1783201235018365700,0.26536572265625,0.3467567243363708,0.7553960504814982,1.651865874516964,-0.4913636744022369,-0.3967205286026001,0.2263827919960022
1783201235028302300,0.27530224609375,0.0723814917303621,0.8860141887336969,1.0544342343747617,-0.5237107276916504,-0.4271674156188965,0.2024589627981186
1783201235038238500,0.285238525390625,-0.1878400547735393,1.0546706734791398,0.4976911629736423,-0.5722745656967163,-0.4597536027431488,0.1428699344396591
1783201235048175600,0.295175537109375,-0.3197119194138795,1.1290557601168751,0.0608037205308675,-0.6138957142829895,-0.4521559476852417,0.0593097545206546
1783201235058112500,0.305112548828125,-0.3121923375640064,1.0605053709819912,-0.340451267516613,-0.6339618563652039,-0.4649226069450378,-0.0103870313614606
1783201235068048400,0.31504833984375,-0.2160242389895021,0.9679340547904371,-0.914662191069126,-0.6207755208015442,-0.4737453460693359,-0.0286064445972442
1783201235077985500,0.324985595703125,-0.0086952015005052,0.8432809624224901,-1.479537130999565,-0.5701736211776733,-0.45098677277565,0.0081297326833009
1783201235087922700,0.334922607421875,0.1086852695159614,0.6673220457091927,-1.8862860402882096,-0.497560054063797,-0.3950889110565185,0.086729809641838
1783201235097858300,0.3448583984375,0.1284732351779937,0.4407984784066677,-2.05424782076776,-0.4448430836200714,-0.3738371431827545,0.1808912009000778
1783201235107795500,0.35479541015625,0.057562400522083,0.1631122946217656,-2.1118962921381,-0.4063159227371216,-0.4596072137355804,0.2616212069988251
1783201235117732600,0.364732666015625,-0.1096387708485126,-0.163050043040514,-2.448369303673505,-0.308552086353302,-0.5732863545417786,0.3068520724773407
1783201235127668700,0.374668701171875,-0.3380303239800036,-0.6011600130155682,-3.0068776311814784,-0.1353515386581421,-0.5922765731811523,0.2985912561416626
1783201235137605400,0.38460546875,-0.6767179428249597,-1.0705258297368885,-3.3827275443375107,0.0749071612954139,-0.4784831702709198,0.2346202582120895
1783201235147541500,0.39454150390625,-1.1279822856664656,-1.319872346483171,-3.316637992358208,0.2377000302076339,-0.336061418056488,0.1183739304542541
1783201235157478700,0.404478759765625,-1.6038136451400815,-1.2264157718896864,-3.1172891399681566,0.3092967271804809,-0.2416997402906417,-0.0055442862212657
1783201235167415600,0.41441552734375,-1.864678019592166,-1.0333473149433732,-2.958457006883621,0.3001528084278106,-0.1552652567625045,-0.1136738732457161
1783201235177351400,0.424351318359375,-1.9255895844116808,-0.9787275437444448,-2.7614965109348297,0.2562050521373749,-0.0708659663796424,-0.2097681760787964
1783201235187288600,0.43428857421875,-1.8624270257949829,-0.955791197054088,-2.743323140862584,0.2434916496276855,0.0462418273091316,-0.2949416637420654
1783201235197225500,0.4442255859375,-1.7652797799900173,-0.8954027793258428,-2.8154221623897557,0.3025147616863251,0.1608379185199737,-0.3754623234272003
1783201235207161300,0.454161376953125,-1.598227077179402,-0.7456453485786915,-2.948382187592983,0.4328980445861816,0.2522003054618835,-0.4321534037590027
1783201235217098500,0.464098388671875,-1.3730577009648084,-0.5211299062281847,-2.961996286925673,0.5975056290626526,0.3095866441726684,-0.4575037658214569
1783201235227035600,0.47403564453125,-1.174724163097143,-0.2786941917836666,-2.730622064721584,0.7546201348304749,0.315041720867157,-0.4388848841190338
1783201235236971500,0.483971435546875,-0.9822270762979984,-0.0882245191588997,-2.339785594835877,0.8710300922393799,0.2865962386131286,-0.3877367377281189
1783201235246908400,0.493908447265625,-0.7879176793798803,0.0483019663542509,-1.842778322473168,0.9602038860321044,0.2407007217407226,-0.3291376829147339
1783201235256845600,0.503845458984375,-0.6734988346479833,0.1700312802299857,-1.3027467318981885,1.0261589288711548,0.183775395154953,-0.2724160850048065
1783201235266781700,0.51378173828125,-0.6604726182058454,0.3103139034062623,-0.7684773581117391,1.0830098390579224,0.1323691457509994,-0.2356729656457901
1783201235276718600,0.523718505859375,-0.7131848022177815,0.495438707871735,-0.2106909151375293,1.1335275173187256,0.0888099446892738,-0.2154558449983596
1783201235286655500,0.533655517578125,-0.7903945908874273,0.7041466324985027,0.3377852631777525,1.1696674823760986,0.0557611882686615,-0.2182409763336181
1783201235296591600,0.543591552734375,-0.880051480937004,0.9234346955895424,0.9080904114633798,1.1730926036834717,0.0127087906002998,-0.2296627461910247
1783201235306528500,0.553528564453125,-0.9443946276403964,1.18843763115108,1.4547703540116548,1.1035689115524292,-0.0152080673724412,-0.2561061680316925
1783201235316465700,0.563465576171875,-1.0257821403861045,1.4764134460210798,1.9994173294276,0.9366288185119628,-0.0144567880779504,-0.2916367352008819
1783201235326401500,0.573401611328125,-1.070666407251358,1.726077650414407,2.58079507586956,0.6817551851272583,-0.0118140056729316,-0.3406205177307129
1783201235336338400,0.58333837890625,-1.1302570987306535,1.8541937427178024,2.967328880125284,0.3707903921604156,-0.0151562727987766,-0.3962544798851013
1783201235346275600,0.593275634765625,-1.2078852589428424,1.766225828668475,3.007568536055088,0.0475665517151355,-0.0325614027678966,-0.4555605947971344
1783201235356211500,0.60321142578125,-1.2578123422808944,1.528143048736453,2.6400416300863028,-0.1861806809902191,-0.0290460288524627,-0.5112190246582031
1783201235366148400,0.6131484375,-1.1788309408288449,1.2998992335125803,1.987324156051874,-0.2872862517833709,0.0474324971437454,-0.5495325922966003
1783201235376085500,0.62308544921875,-0.93490191908665,1.1656874546825886,1.56149469871819,-0.2568002641201019,0.126584306359291,-0.5830258727073669
1783201235386022700,0.633022705078125,-0.6840485049087554,1.183497836661339,1.0796703824400902,-0.1611587405204773,0.2137822955846786,-0.6075984835624695
1783201235395958500,0.64295849609375,-0.6622128860019147,1.159416703850031,0.7247200494498014,-0.0508064068853855,0.2619937360286712,-0.5942440629005432
1783201235405895400,0.6528955078125,-0.6527811869204044,1.0186617869868877,0.5255792868524789,0.0691737830638885,0.2408286780118942,-0.554635763168335
1783201235415832600,0.66283251953125,-0.6804705733567475,0.8374392506569623,0.2347574349015951,0.1868884265422821,0.0944616049528122,-0.5141698122024536
1783201235425768700,0.672768798828125,-0.731556032949686,0.6526759729802608,-0.2183019746631384,0.3066700398921966,-0.1173974648118019,-0.4791194498538971
1783201235435705300,0.682705322265625,-0.7599830860108137,0.3881774798095226,-0.800596835950017,0.4228829145431518,-0.2432746887207031,-0.4511562585830688
1783201235445642500,0.692642578125,-0.8394320319093763,-0.0021487024664878,-1.0029086297988892,0.5372438430786133,-0.2476167976856231,-0.4371491074562073
1783201235455578600,0.70257861328125,-1.0622376016020774,-0.349020942941308,-1.0293652595698832,0.6173655390739441,-0.1741252690553665,-0.4523277878761291
1783201235465515500,0.712515625,-1.4187975617460906,-0.5157271704018116,-1.0014724595159292,0.6476485729217529,-0.0816178172826767,-0.4868763983249664
1783201235475452400,0.722452392578125,-1.75166465774402,-0.4642722929745912,-0.9545821135252712,0.6257385015487671,0.0060558440163731,-0.5504292845726013
1783201235485388500,0.732388427734375,-1.9388002175100147,-0.3811979961857199,-0.9871949278384446,0.5786266326904297,0.0878333747386932,-0.6106772422790527
1783201235495325400,0.742325439453125,-1.9635459517098963,-0.3622454584345221,-0.9810539408653974,0.5118822455406189,0.1559823304414749,-0.6497045755386353
1783201235505262600,0.7522626953125,-1.8084622113734483,-0.3578279342532158,-0.7766834609210491,0.4014891684055328,0.4233045876026153,-0.6973249316215515
1783201235515198500,0.762198486328125,-1.472685073147714,-0.4308534229755401,0.8045359289646148,0.1592693477869033,0.0714413598179817,-0.7739344835281372
1783201235525135600,0.772135498046875,-1.1588088010847568,-0.4231730976060032,0.1854763943821191,-0.1275068968534469,-0.4730292558670044,-0.8371675610542297
1783201235535072500,0.782072509765625,-0.8550143625751138,-0.5675514656633138,-0.8287976790398359,-0.3575259745121002,-0.7151886224746704,-0.8687619566917419
1783201235545008400,0.79200830078125,-1.0566599476002156,-0.9651409169405698,-0.8518143974900245,-0.4973900020122528,-0.7767816781997681,-0.9545055627822876
1783201235554945500,0.801945556640625,-1.7189502827525138,-0.6471776678249239,-1.4874959810495376,-0.5106406211853027,-0.6161144971847534,-1.068853735923767
1783201235564882400,0.81188232421875,-2.082340527307987,-0.3768611360251903,-1.8350667251825328,-0.4207081496715545,-0.3916191756725311,-1.1800049543380735
1783201235574818600,0.821818603515625,-2.2645658109396694,-0.3352455155670643,-1.891201869380474,-0.2762212753295898,-0.3644480109214782,-1.2319177389144895
1783201235584755500,0.83175537109375,-2.1628931966647507,-0.1305737145885825,-1.9535814609259363,-0.0880057737231254,-0.4850630760192871,-1.2213830947875977
1783201235594692400,0.8416923828125,-1.8052496790677308,0.090747315634787,-1.9200532853335144,0.1236723884940147,-0.547372043132782,-1.1723250150680542
1783201235604629500,0.85162939453125,-1.521248320786655,0.0897802241683006,-1.460359552320838,0.3048911392688751,-0.6154944896697998,-1.1503198146820068
1783201235614565600,0.861565673828125,-1.3333034904643892,-0.0323027254506945,-1.2827069834321736,0.4510848224163055,-0.6836647391319275,-1.1483983993530271
1783201235624502500,0.87150244140625,-1.1552421946443616,-0.2151549088090658,-1.243130759847164,0.5414600372314453,-0.7229062914848328,-1.159375548362732
1783201235634439400,0.881439453125,-1.126048833385855,-0.2450362523317336,-1.0638391915798189,0.5567860007286072,-0.7118946313858032,-1.163930058479309
1783201235644375600,0.89137548828125,-1.244124447059631,-0.1241787528544664,-0.6858364843040704,0.4825212955474853,-0.6413271427154541,-1.1537622213363647
1783201235654312700,0.901312744140625,-1.414828804245591,-0.0520271243572235,-0.1922346364706754,0.341177761554718,-0.5320342183113098,-1.1442174911499023
1783201235664249300,0.911249267578125,-1.5719031338773668,-0.0361550169646739,0.1820464199334382,0.1928750574588775,-0.4402702152729034,-1.150254249572754
1783201235674185500,0.921185546875,-1.794707388395816,-0.083404843917489,0.2604898420512676,0.1001637578010559,-0.3908981382846832,-1.187164306640625
1783201235684122600,0.93112255859375,-2.056979729949683,-0.1063058270335197,0.056494625160098,0.0818174332380294,-0.3022480010986328,-1.258680820465088
1783201235694059500,0.9410595703125,-2.093847717489302,-0.0550146157354116,0.1715910768926143,0.143604889512062,-0.2541659772396087,-1.354292392730713
1783201235703996400,0.950996337890625,-1.9430404854282732,0.1609668070256709,0.2683224353730678,0.2474908530712127,-0.28585085272789,-1.425756335258484
1783201235713932500,0.9609326171875,-1.601732601082325,0.4591384372174739,0.3828606687009334,0.3469263613224029,-0.3930409550666809,-1.434911012649536
1783201235723869400,0.970869384765625,-1.0064069933086632,0.7198369535833596,0.6873848827898502,0.3901064097881317,-0.5829615592956543,-1.4038029909133911
1783201235733806600,0.980806640625,-0.383653134252876,0.9059516458690166,0.8425602469325065,0.3728925585746765,-0.8038204312324524,-1.34165620803833
1783201235743742500,0.990742431640625,0.0647394525445997,1.0193664281249046,0.8706383404254913,0.3182301819324493,-0.9953596591949464,-1.2507619857788086
1783201235753679600,1.0006796875,0.2888254539692774,1.079677981224656,0.936729061448574,0.2399854362010955,-1.1500046253204346,-1.1664972305297852
1783201235763616500,1.010616455078125,0.3040626244591549,1.2328308996289967,0.8937129265427589,0.1841203272342682,-1.2057422399520874,-1.1180133819580078
1783201235773553700,1.0205537109375,0.1282160455465316,1.4003075269401073,0.8309814528197049,0.1603963524103164,-1.146289348602295,-1.1173603534698486
1783201235783489500,1.030489501953125,-0.1423704623010009,1.5129273594260215,0.7211398528754711,0.1486330032348632,-1.0418455600738523,-1.1472440958023071
1783201235793426400,1.040426513671875,-0.3611527678269893,1.648775507286191,0.5969634381085633,0.114019364118576,-0.9364056587219238,-1.1819353103637695
1783201235803363600,1.050363525390625,-0.3132609166435897,1.781058071619272,0.489933388453722,0.0581054724752903,-0.8578715920448303,-1.1772494316101074
1783201235813299500,1.060299560546875,-0.0557248098313808,1.877494831067324,0.3435796286702156,0.0225940849632024,-0.8214326500892639,-1.133695363998413
1783201235823236400,1.070236328125,0.2705346315298229,1.942601801750064,0.0173895262181758,0.034577015787363,-0.7890748381614685,-1.077219843864441
1783201235833173500,1.080173583984375,0.5729959948047996,2.0021686739623545,-0.5002092832744122,0.0755681246519088,-0.6964205503463745,-1.0244735479354858
1783201235843110700,1.090110595703125,0.7504377704869956,2.0105203227221966,-0.7780418897926807,0.1191870719194412,-0.4987629652023315,-0.9809737205505372
1783201235853046500,1.100046630859375,0.7713723489008844,1.996069188043475,-0.8219558503210544,0.1556670516729354,-0.3177623152732849,-0.938183069229126
1783201235862983400,1.1099833984375,0.7519660760328173,1.9779156917154788,-1.130561196243763,0.2227426469326019,-0.148104652762413,-0.9005549550056458
1783201235872920600,1.119920654296875,0.6245868466366082,2.003395000886917,-1.642699402242899,0.3172297477722168,0.1415849477052688,-0.8601271510124207
1783201235882856700,1.129856689453125,0.4627900915928185,2.0547896725595,-1.1547101335942744,0.4774401187896728,0.648130476474762,-0.8772292137145996
1783201235892793300,1.13979345703125,0.5893921260714531,2.28118259921968,0.3738783208221197,0.5093993544578552,0.5246993899345398,-0.990851640701294
1783201235902730500,1.14973046875,1.019534332037717,2.202607659676671,1.8335715181887149,0.3574000597000122,-0.3673727214336395,-1.0835179090499878
1783201235912667400,1.15966748046875,1.2979238417863843,1.4680027605503796,0.2335422138929367,0.0839098989963531,-1.123607158660889,-0.9775217771530152
1783201235922603500,1.169603515625,1.0267885409496724,0.6105541565656661,-0.0922667802870273,-0.2154380083084106,-1.5185836553573608,-0.7504101395606995
1783201235932540400,1.17954052734375,0.4935259330529719,-0.0128746791422367,-0.6272235518157482,-0.3932655155658722,-1.3954681158065796,-0.5960407853126526
1783201235942477600,1.1894775390625,0.0254700298864394,0.041889761224389,-1.170032205888629,-0.4335871338844299,-1.0704339742660522,-0.6056706309318542
1783201235952414500,1.19941455078125,-0.6975433617759496,0.4330179075330496,-1.994865072950721,-0.3793846070766449,-0.7062116265296936,-0.6953262686729431
1783201235962350600,1.2093505859375,-1.187511967673525,0.5962970831543207,-2.602947870966792,-0.2657026648521423,-0.3947677314281463,-0.7293596863746643
1783201235972287500,1.21928759765625,-1.1209349975034597,0.3790601073741912,-2.3698475556224583,-0.1315709948539734,-0.2476360499858856,-0.7066216468811035
1783201235982224400,1.229224365234375,-1.0370194275848568,0.3242956670075654,-2.128435923528671,0.0366677269339561,-0.2788099944591522,-0.6537357568740845
1783201235992160500,1.239160400390625,-1.22681003190428,0.4447451702058315,-1.9993711521983144,0.1792272627353668,-0.4423669576644897,-0.6030400991439819
1783201236002097400,1.249097412109375,-1.1456740827668457,0.2742974181294441,-1.7352105126798152,0.2664880156517029,-0.7609092593193054,-0.5564612746238708
1783201236012034300,1.259034423828125,-0.7838055678859353,-0.0313911635637283,-1.8159405844300984,0.3198742866516113,-1.0407516956329346,-0.5433923602104187
1783201236021971500,1.268971435546875,-0.6075322514612227,-0.2266998006522655,-1.956369045817852,0.35664102435112,-1.094377040863037,-0.5763516426086426
1783201236031907300,1.2789072265625,-0.8301173102710395,-0.2497340547591447,-2.033485018724203,0.3703094124794006,-0.8877509236335754,-0.6420611143112183
1783201236041844500,1.288844482421875,-1.120735237147659,-0.101208211633563,-1.88621063696444,0.361770361661911,-0.5828952193260193,-0.7053584456443787
1783201236051781400,1.298781494140625,-1.2824063930504024,0.1287742639511823,-1.7604548440515997,0.3529510200023651,-0.3173980116844177,-0.7397428154945374
1783201236061718500,1.308718505859375,-1.2863427095860245,0.3114338473469019,-1.716909716835618,0.3654844462871551,-0.1701405793428421,-0.7427771687507629
1783201236071654400,1.318654296875,-1.086408458523452,0.3432248238831758,-1.5557365735828876,0.4001092910766601,-0.1459308415651321,-0.7221102714538574
1783201236081591300,1.32859130859375,-0.7904140262402594,0.3473240758955478,-1.4046563697993757,0.4475890696048736,-0.2075864672660827,-0.6904363632202148
1783201236091528400,1.338528564453125,-0.4474175677528604,0.4035626804679632,-1.1253642121225595,0.5116593837738037,-0.3347300291061401,-0.6604635119438171
1783201236101465300,1.34846533203125,-0.1773017461569979,0.5512181704998016,-0.834163005465269,0.5833311080932617,-0.5081920027732849,-0.6279304623603821
1783201236111401200,1.358401123046875,-0.0176368885753676,0.7732698530852794,-0.6059171444147825,0.6363216042518616,-0.6710687875747681,-0.5934369564056396
1783201236121338400,1.36833837890625,0.0676246525920927,0.9334826268732548,-0.2947171058237552,0.6524984836578369,-0.7971411943435669,-0.5667123794555664
1783201236131275500,1.378275634765625,0.1564216013440862,1.0517144540220498,0.1095399866491556,0.6111177206039429,-0.887470543384552,-0.5509513020515442
1783201236141211400,1.38821142578125,0.2581963242866099,1.2105927643358707,0.5307569817513227,0.505297839641571,-0.9584959149360656,-0.5496847033500671
1783201236151148300,1.398148193359375,0.3603172668509185,1.4322317744672295,0.8912637798249721,0.3684491515159607,-0.97566157579422,-0.5567466020584106
1783201236161085400,1.40808544921875,0.4376786658857017,1.7284323968470097,1.1214520071148872,0.2243557572364807,-0.9104819893836976,-0.5730249881744385
1783201236171022300,1.418022216796875,0.4854664721727371,2.0765379785090685,1.3603133702039718,0.0847893357276916,-0.8130518198013306,-0.5800160765647888
1783201236180958500,1.42795849609375,0.5549868023183196,2.4612802231729027,1.5105460172474383,-0.0332273095846176,-0.6990333795547485,-0.5704278945922852
1783201236190895400,1.437895263671875,0.6842870629049838,2.7741508253246545,1.5570634382724762,-0.1321408301591873,-0.5843169093132019,-0.5339194536209106
1783201236200832300,1.447832275390625,0.9328064081121236,2.9241812277942896,1.743806491589546,-0.2258279174566269,-0.5062788128852844,-0.476177841424942
1783201236210769400,1.457769287109375,1.2901014775976538,2.921070402297377,1.9495213718801736,-0.312027245759964,-0.5165200233459473,-0.3957711458206177
1783201236220705500,1.46770556640625,1.678603951577842,2.8178461746662853,2.0167454808473586,-0.3790008127689361,-0.6463617086410522,-0.2989742755889892
1783201236230642400,1.477642333984375,2.0143384197056293,2.6739514984726904,1.887635701331496,-0.40449258685112,-0.807547926902771,-0.1994764506816864
1783201236240579300,1.487579345703125,2.1979677249163387,2.5517186189889904,1.6298329064071178,-0.406101644039154,-0.8991184830665588,-0.098894864320755
1783201236250516500,1.4975166015625,2.299550176689773,2.4435429064303635,1.610100616455078,-0.4005734324455261,-0.9583621025085448,-0.0224224552512168
1783201236260452600,1.50745263671875,2.189376129920781,2.414612580022216,1.4050959302604198,-0.4079606831073761,-0.9957651495933532,0.0304416585713624
1783201236270389200,1.51738916015625,1.8622043229550125,2.362993451943993,1.125533138948679,-0.4392575919628143,-1.0160410404205322,0.0672603920102119
1783201236280326400,1.527326416015625,1.6174530250445007,2.2239216658622025,0.8743044617176056,-0.4932660162448883,-1.0095820426940918,0.0888038799166679
1783201236290263300,1.53726318359375,1.4790011244267225,2.0067589243620634,0.6199328102856874,-0.5623815059661865,-0.9631917476654052,0.0976458415389061
1783201236300200400,1.547200439453125,1.3631243359714746,1.7821154717177152,0.3580266716957092,-0.645509660243988,-0.8888611793518066,0.0973391309380531
1783201236310136300,1.55713623046875,1.251715340580046,1.61574768243134,-0.0194645789265632,-0.7476469278335571,-0.7804995179176331,0.089250311255455
1783201236320073500,1.567073486328125,1.084836679162085,1.5087018506854772,-0.4407528856992721,-0.8540957570075989,-0.6805190443992615,0.0673937052488327
1783201236330010400,1.57701025390625,0.891224909119308,1.4585381821125745,-0.9965630601644516,-0.926626980304718,-0.5783910751342773,0.0346922166645526
1783201236339947500,1.586947509765625,0.7390569100990891,1.340661744272709,-1.6130933685302733,-0.942388951778412,-0.4236589670181274,0.0054477239027619
1783201236349883400,1.59688330078125,0.6814940711855888,1.1322101324945688,-1.9098112927824256,-0.920841097831726,-0.2822009027004242,-0.0280324723571538
1783201236359820300,1.6068203125,0.7734396566942334,0.9959493121802806,-2.1975147204518315,-0.868127703666687,-0.2118719667196273,-0.0618329904973506
1783201236369757400,1.61675732421875,1.026102166120708,0.913748583355546,-2.4736381849646567,-0.8065003156661987,-0.2413571625947952,-0.0707156956195831
1783201236379694300,1.6266943359375,1.3795289428055286,0.8927864593476057,-2.7192338247448204,-0.7585471868515015,-0.330726683139801,-0.0623737648129463
1783201236389630200,1.636630126953125,1.5892301162533462,1.0626005896955728,-2.941196075481176,-0.7256217002868652,-0.3934398591518402,-0.0445092804729938
1783201236399567400,1.6465673828125,1.6965291921079158,1.2993354621499775,-2.995901479136944,-0.7056581974029541,-0.382523626089096,-0.0147178657352924
1783201236409504500,1.65650439453125,1.7191218399271369,1.4090584041506051,-3.0787773307442663,-0.6915911436080933,-0.3147352337837219,0.0381874293088912
1783201236419441400,1.66644140625,1.6903594174318015,1.3698866697132586,-3.223672708413005,-0.6497054100036621,-0.2163759917020797,0.1110724583268165
1783201236429377300,1.676377197265625,1.5953513756126163,1.2365572266757487,-3.258532424870133,-0.566173791885376,-0.115130603313446,0.1864865124225616
1783201236439314400,1.686314453125,1.4487725749015807,1.122306578117609,-3.191694100350141,-0.4687221050262451,-0.024189967662096,0.2480027079582214
1783201236449251300,1.696251220703125,1.3344703422866762,1.1231167254567145,-2.9257231965392827,-0.3539172410964966,0.0289209205657243,0.279037594795227
1783201236459188500,1.7061884765625,1.1804960244968532,1.265997840693593,-2.568044315367937,-0.2315185964107513,0.1143324524164199,0.2856128811836242
1783201236469125600,1.716125732421875,1.0991326232790946,1.3646020073086025,-2.0073475379049777,-0.1054304391145706,0.2168521732091903,0.290047824382782
1783201236479061200,1.726061279296875,1.0862667119652032,1.356485920870304,-1.3562106110602616,0.0049890475347638,0.278310626745224,0.2948201596736908
1783201236488998400,1.735998291015625,1.067834983217716,1.377166889849305,-0.8816413804769515,0.115829013288021,0.3016732037067413,0.2936662137508392
1783201236498935600,1.745935546875,1.0463961816087364,1.4459721305280924,-0.4260521601736545,0.2292553931474685,0.317795842885971,0.2923966944217682
1783201236508872400,1.75587255859375,1.0004381480321287,1.4545891522258518,0.1611842491686344,0.3150360882282257,0.2986831367015838,0.3121360540390014
1783201236518808300,1.765808349609375,0.9757127259679138,1.4175392322480678,0.6774643772780895,0.3641307651996612,0.2425227016210556,0.3576122224330902
1783201236528745500,1.775745361328125,1.0367900027431547,1.3555541929781436,1.0488391908466814,0.3715950846672058,0.202761173248291,0.4385371506214142
1783201236538682400,1.785682373046875,1.2084098673388362,1.1863292606949805,1.437757844412327,0.3213831186294555,0.1734425276517868,0.5245960354804993
1783201236548619500,1.79561962890625,1.3820410717569291,1.040962173861265,1.8687953917831184,0.2313251346349716,0.1679729223251342,0.6110025644302368
1783201236558556400,1.805556396484375,1.6005403225578367,0.966436801970005,2.2988778303861617,0.1178200989961624,0.1830105632543563,0.6907612681388855
1783201236568492300,1.8154921875,1.7966551614627242,0.8917904340475797,2.760093658399582,0.0049707796424627,0.1879885494709015,0.7528728246688843
1783201236578429400,1.825429443359375,1.8875097368642688,0.8337591008394956,3.095861152014136,-0.1100523397326469,0.1577006727457046,0.7816462516784668
1783201236588366600,1.83536669921875,1.8253933262996371,0.8043588188320397,3.2146926986217497,-0.2241522818803787,0.1273379623889923,0.7939175367355347
1783201236598303200,1.84530322265625,1.884950700031221,0.7852706720024347,3.331284357348084,-0.3597148656845093,0.0558456368744373,0.8256674408912659
1783201236608239400,1.8552392578125,2.0782646561712026,0.7245870707198977,3.3363702823102472,-0.519767701625824,-0.0789254903793335,0.8923596143722534
1783201236618176500,1.865176513671875,2.2660941895507274,0.5473571111574769,3.001677139928937,-0.7133519649505615,-0.2451851069927215,1.0056968927383425
1783201236628113400,1.875113525390625,2.3053004107795654,0.1654664565324783,2.4648434686124325,-0.9255529642105104,-0.3821650743484497,1.14161479473114
1783201236638050300,1.88505029296875,2.1320209424085914,-0.3193134946808219,1.7290046437770128,-1.1272168159484863,-0.4513727128505707,1.274025321006775
1783201236647987500,1.894987548828125,1.8109315240964288,-0.7887263654142618,0.8628893337339162,-1.2498090267181396,-0.4416165053844452,1.3739691972732544
1783201236657923600,1.904923583984375,1.4625819045454262,-1.149004030907154,-0.0987152257740497,-1.2608494758605957,-0.3618631660938263,1.4166539907455444
1783201236667860500,1.914860595703125,0.9807850607961416,-1.3878931587859988,-1.0420096370875835,-1.1695212125778198,-0.2468244582414627,1.392324686050415
1783201236677797400,1.92479736328125,0.4694792139679193,-1.4405892684459685,-1.8879536812394857,-1.0036159753799438,-0.0704263374209404,1.317923665046692
1783201236687734300,1.934734375,0.0671408145979046,-1.3869012251392006,-2.410412205722928,-0.8081257939338684,0.1329241096973419,1.2271913290023804
1783201236697671400,1.94467138671875,-0.1547720440387725,-1.3342267427891492,-2.6300901449143885,-0.6525177359580994,0.2603548169136047,1.1494228839874268
1783201236707607600,1.954607666015625,-0.1439694949954748,-1.39422265406847,-2.8791040687054394,-0.5492472648620605,0.2830180525779724,1.115195393562317
1783201236717544200,1.964544189453125,0.0342813320472836,-1.7214383001759648,-3.1773727295309304,-0.4826448261737823,0.2551637887954712,1.113500475883484
1783201236727481300,1.9744814453125,0.1551592897906899,-2.202519689132273,-3.4616292316168544,-0.4187689125537872,0.2212620228528976,1.103129267692566
1783201236737418500,1.98441845703125,0.1767640956163406,-2.513518944454193,-3.616929683443904,-0.3603854775428772,0.200607031583786,1.0442942380905151
1783201236747355400,1.99435546875,0.1153249997913837,-2.457341130158305,-3.6439018615216017,-0.3136869370937347,0.2164248824119568,0.938214898109436
1783201236757291300,2.004291259765625,0.1044423712491989,-2.1149013191729784,-3.595095452776551,-0.2651829421520233,0.2679663896560669,0.8226442933082581
1783201236767228400,2.014228515625,0.1351543203771114,-1.6951041277408598,-3.4458196680665014,-0.2095643877983093,0.369347870349884,0.7249747514724731
1783201236777165300,2.024165283203125,0.2261553185120224,-1.3961843095302582,-3.347698316532373,-0.1542582064867019,0.4859325885772705,0.6720492839813232
1783201236787102500,2.0341025390625,0.3901867738053202,-1.2862141147702932,-3.292328311488032,-0.0807938501238823,0.5516801476478577,0.6648473143577576
1783201236797039600,2.04403955078125,0.6183288822203874,-1.297719551385939,-3.41200975292325,0.0281991548836231,0.5875312685966492,0.6989025473594666
1783201236806975500,2.0539755859375,0.7378156778663396,-1.37240186740458,-3.4788539226621387,0.1749374568462371,0.6152888536453247,0.7486022114753723
1783201236816912400,2.063912353515625,0.7168880406498909,-1.4109618996843696,-3.3044144706010816,0.3533282876014709,0.6361370086669922,0.7813113331794739
1783201236826849500,2.073849609375,0.5576543410271406,-1.3743088700696826,-2.990738981807232,0.5195031762123108,0.6473339796066284,0.7758592963218689
1783201236836786400,2.083786376953125,0.3046399494230747,-1.2362711032107472,-2.531077397498488,0.6560500264167786,0.6601116061210632,0.7565139532089233
1783201236846723300,2.093723388671875,0.1534051395997405,-1.1365005231648684,-1.962051767629385,0.7378700375556946,0.6567331552505493,0.7256878614425659
1783201236856659500,2.103659423828125,0.0981198902294039,-1.0318713971719145,-1.3899807787150145,0.7708362340927124,0.6390553712844849,0.6955020427703857
1783201236866596400,2.113596435546875,0.0475327355474233,-0.8878314672887325,-0.8594546831101179,0.7509336471557617,0.6359440088272095,0.6718249320983887
1783201236876533500,2.123533447265625,0.0531385927304625,-0.7599673039197922,-0.2717395503401756,0.6986492872238159,0.6604434847831726,0.6522099375724792
1783201236886470400,2.133470458984375,0.1248462768524885,-0.6038374155312776,0.2822439932197332,0.6251766681671143,0.6721685528755188,0.6224158406257629
1783201236896407300,2.1434072265625,0.1718950282752513,-0.4438672183275222,0.6197188752740621,0.5605732202529907,0.6614334583282471,0.6059442162513733
1783201236906343400,2.153343505859375,0.2849009374693036,-0.3662202072843909,0.7939052293568849,0.5251049399375916,0.6566086411476135,0.6044975519180298
1783201236916280600,2.163280517578125,0.366893284240365,-0.3150128748774528,0.8692395795434713,0.5069798231124878,0.7034659385681152,0.611397922039032
1783201236926217200,2.17321728515625,0.3787351132035255,-0.2444374096557497,1.051907930767536,0.4854420125484466,0.7914429306983948,0.6264791488647461
1783201236936154400,2.183154296875,0.3990734062246978,-0.1000438440293073,1.334682669863105,0.4500479102134704,0.8806669116020203,0.6552128195762634
1783201236946091500,2.193091552734375,0.451010660341382,0.045019291421771,1.635317475298047,0.4096014201641083,0.9525986313819884,0.7053194046020508
1783201236956027400,2.20302734375,0.502164947386831,0.1493710617780685,1.9535124873429532,0.3622437119483948,0.9980782866477966,0.771996796131134
1783201236965964300,2.21296435546875,0.479523784250766,0.2304050849109888,2.3100778543144465,0.2967206239700317,0.995370090007782,0.8279508948326111
1783201236975901400,2.2229013671875,0.4179043634228408,0.3034112844109535,2.627559749653935,0.214847058057785,0.9658974409103394,0.8772258162498474
1783201236985838300,2.23283837890625,0.4427689016968011,0.3461252214998007,2.8774451955825087,0.1546257883310318,0.919140875339508,0.9196020364761353
1783201236995775700,2.242775634765625,0.5666917800940573,0.3300558379694819,3.048834027901292,0.1480429321527481,0.8496226668357849,0.9598699808120728
1783201237005712000,2.2527119140625,0.7266593469493091,0.2561068046614527,3.1338007143080238,0.1735395044088363,0.7433958053588867,0.9904845952987672
1783201237015648800,2.262648681640625,0.7758708293639123,0.2590367206335067,3.2393519235819577,0.197829931974411,0.6049838662147522,1.0231914520263672
1783201237025586000,2.2725859375,0.69402928924039,0.3421551488250494,3.3235669148385525,0.2055736035108566,0.4632053971290588,1.056926727294922
1783201237035522800,2.282522705078125,0.5466821345053613,0.2848039068356156,3.3453438623607155,0.2008422762155532,0.3311376869678497,1.090997576713562
1783201237045459700,2.292459716796875,0.2587976511806249,0.175177995468676,3.207168148335814,0.1757563650608062,0.2123164981603622,1.0916308164596558
1783201237055396900,2.30239697265625,-0.1033830714546144,0.1654991897583007,2.9840485442578792,0.1228270530700683,0.1202668026089668,1.045397162437439
1783201237065333000,2.3123330078125,-0.4650678272664547,0.226212017135322,2.700892112368345,0.0323645286262035,0.0827804133296012,0.9561415910720824
1783201237075269600,2.32226953125,-0.7510854938060045,0.2471460840925574,2.4421149194538594,-0.0730741620063781,0.072682499885559,0.8534618020057678
1783201237085206800,2.332206787109375,-0.8895473312959075,0.1322100836187601,2.0506191088765857,-0.1905704289674759,0.0694353058934211,0.7679149508476257
1783201237095143700,2.342143798828125,-0.8600067640349268,-0.1024070660293102,1.5133827019780874,-0.3106768727302551,0.0476862154901027,0.7086199522018433
1783201237105080800,2.352080810546875,-0.7148493744291364,-0.3591542144209146,0.8847375929266214,-0.4226444363594055,0.0163109842687845,0.6757445931434631
1783201237115016700,2.3620166015625,-0.5191602135904133,-0.5249386508613825,0.246210556808114,-0.5070145130157471,0.0086823431774973,0.6609423756599426
1783201237124953900,2.371953857421875,-0.4386920076467097,-0.5468401015460491,-0.3296574863016605,-0.5591909289360046,0.0798872783780098,0.6602321267127991
1783201237134890800,2.381890869140625,-0.3792738962553441,-0.5236860204517841,-0.7510311332702636,-0.5968130826950073,0.18502739071846,0.6480491757392883
1783201237144828000,2.391827880859375,-0.37564942214787,-0.4723176522642374,-1.200870996266603,-0.624923050403595,0.2814593911170959,0.6200748085975647
1783201237154764800,2.401764892578125,-0.3740209441632032,-0.4660337496891617,-1.7644307619452475,-0.6298133134841919,0.3602239787578583,0.5903322100639343
1783201237164701700,2.41170166015625,-0.3264195272937417,-0.5358610268920659,-2.3183967698484658,-0.6095698475837708,0.4236996173858642,0.5668492317199707
1783201237174637800,2.421637939453125,-0.2163916109971702,-0.5809969304308295,-2.758654565507173,-0.553497314453125,0.4785484671592712,0.5591751933097839
1783201237184574700,2.43157470703125,-0.0784238406345248,-0.570749677182734,-3.055227528330684,-0.4692154228687286,0.5042687058448792,0.5824472308158875
1783201237194512000,2.441511962890625,0.0628080460906028,-0.5113683906704187,-3.304387582594156,-0.3552719950675964,0.5289700627326965,0.6273788213729858
1783201237204448800,2.45144873046875,0.1953945618063211,-0.503531121173501,-3.516573120203614,-0.2065403163433075,0.5545481443405151,0.6931466460227966
1783201237214385700,2.4613857421875,0.3157987645581364,-0.6376391473680735,-3.628263562884927,-0.0063531594350934,0.5587987303733826,0.7480490803718567
1783201237224321800,2.47132177734375,0.3249813111841678,-0.7965621736064553,-3.668770929840207,0.2368187457323074,0.5264056324958801,0.7817710638046265
1783201237234259000,2.481259033203125,0.2617307820230722,-0.8703644919201731,-3.4869238318711515,0.4946193993091583,0.48234423995018,0.7935725450515747
1783201237244195600,2.491195556640625,0.1650774572148919,-0.8233300612837076,-3.0393618506789206,0.7397681474685669,0.4368816912174225,0.7957635521888733
1783201237254132700,2.5011328125,0.1020899629041552,-0.7684861259400844,-2.3859645776867864,0.948041558265686,0.3840971291065216,0.7988616824150085
1783201237264070000,2.51106982421875,0.0944971696875989,-0.7619453259944915,-1.596609266719222,1.1176786422729492,0.3006158173084259,0.8145791292190552
1783201237274006800,2.5210068359375,0.1232550621382892,-0.7746054856032133,-0.9011462914139032,1.2434898614883425,0.2174471914768219,0.8382790684700012
1783201237283942700,2.530942626953125,0.1632899892762303,-0.7614940750956535,-0.1449625976860523,1.3341249227523804,0.1772483736276626,0.8540164828300476
1783201237293879800,2.5408798828125,0.200684923299402,-0.6914236367866397,0.7116454638212919,1.3640130758285522,0.1617391705513,0.853459894657135
1783201237303816700,2.550816650390625,0.1627858391463756,-0.4874582305118441,1.5788462310135365,1.309952974319458,0.1447889506816864,0.8280993700027466
1783201237313753900,2.56075390625,0.0888701235860586,-0.1458203835591673,2.332410097631812,1.19127094745636,0.1417942196130752,0.7870141267776489
1783201237323691000,2.57069091796875,0.090805183301866,0.1456935423091054,2.9203502713292835,1.0363833904266355,0.1418546736240387,0.7328627705574036
1783201237333627600,2.580627685546875,0.0570098812058567,0.3053466363877057,3.300347951814532,0.8585501313209534,0.1423747688531875,0.6419259309768677
1783201237343563800,2.590563720703125,-0.1136941837191581,0.5102376330748201,3.4144723436444995,0.682704508304596,0.2021627426147461,0.530135989189148
1783201237353501000,2.6005009765625,-0.1418207925289869,0.7875488460674881,3.633170624148845,0.5187894701957703,0.3115004301071167,0.4294401705265045
1783201237363437800,2.610437744140625,0.0311260828867554,1.0910559920683502,3.798052558791637,0.3661138415336609,0.3799460530281067,0.348000168800354
1783201237373374700,2.620374755859375,0.214374864347279,1.4418725862547754,3.7065567628771054,0.2024799585342407,0.3606618046760559,0.3152687847614288
1783201237383312000,2.630311767578125,0.4902728495411574,1.769959754499793,3.368378700989485,0.0312184616923332,0.260908305644989,0.3276737928390503
1783201237393248800,2.640248779296875,0.7717908665739,1.9093395836174487,3.037880087688565,-0.1695240437984466,0.0837466865777969,0.3774971663951874
1783201237403185000,2.650184814453125,0.8276485090047121,1.860667907167971,2.5747125410854816,-0.4088737666606903,-0.0809000506997108,0.4644661545753479
1783201237413121800,2.660121826171875,0.6991456093408167,1.683321043227613,2.051363205242157,-0.6383958458900452,-0.1725684702396392,0.5796846747398376
1783201237423058700,2.67005859375,0.6189242177650333,1.3433821091473102,1.4607576117277143,-0.7990257143974304,-0.2054145783185959,0.7003700733184814
1783201237432995800,2.679995849609375,0.521565667296946,0.8996101678878068,0.6890560308724641,-0.8585353493690491,-0.229028433561325,0.7959802150726318
1783201237442932700,2.6899326171875,0.3292402838028967,0.5302960862413049,-0.1991027686744928,-0.8183221220970154,-0.2386083453893661,0.8462963700294495
1783201237452870000,2.699869873046875,0.0159615392416715,0.2252440488860011,-1.024365843847394,-0.7308683395385742,-0.1946621984243393,0.8420667052268982
1783201237462805800,2.7098056640625,-0.4057160591095686,-0.000257189631462,-1.623470970159769,-0.6269946694374084,-0.1081952154636383,0.8029003739356995
1783201237472743000,2.719742919921875,-0.7926656045593321,-0.1557423503756523,-2.060299960413575,-0.5293568968772888,-0.0139101892709732,0.7539889812469482
1783201237482679800,2.7296796875,-1.0399630798213184,-0.3044683922484517,-2.419204583987593,-0.4409298598766327,0.0648578628897667,0.7090944647789001
1783201237492617000,2.739616943359375,-1.1071050634630024,-0.5338327359348535,-2.724738267379999,-0.3672326207160949,0.1175234764814376,0.6784276366233826
1783201237502553600,2.7495537109375,-1.1136733359374105,-0.8567597449377179,-2.9736645128875967,-0.2922467887401581,0.1607308685779571,0.6420329213142395
1783201237512490800,2.75949072265625,-1.0747966389238834,-1.1075979615464806,-3.1465754402071235,-0.2108020782470703,0.2029747515916824,0.5791558623313904
1783201237522427000,2.769427001953125,-1.0028795498348773,-1.2684022714868186,-3.1771956193983555,-0.1328358948230743,0.2329006940126419,0.509853184223175
1783201237532363800,2.77936376953125,-0.9281877353355288,-1.2846841287240385,-3.15572203873694,-0.0714769884943962,0.287163645029068,0.4498001337051391
1783201237542300700,2.78930078125,-0.8344074817456305,-1.258032268641889,-3.0238825419962403,-0.0450035706162452,0.3710830509662628,0.4196741878986358
1783201237552237800,2.79923779296875,-0.7551113883212208,-1.2618021425694226,-2.8182237758070228,-0.0552257969975471,0.4560775756835937,0.4057593047618866
1783201237562174700,2.8091748046875,-0.6998745081372558,-1.2624345952540634,-2.623902980712056,-0.0830579623579979,0.5233186483383179,0.389512151479721
1783201237572112000,2.81911181640625,-0.7551125573650002,-1.2741036979988216,-2.513088736343384,-0.0852278023958206,0.6109591722488403,0.3621360063552856
1783201237582048800,2.829048828125,-0.8033743378393352,-1.2971443818464874,-2.3202666553735734,-0.0511726252734661,0.7049030065536499,0.3191009163856506
1783201237591984600,2.838984619140625,-0.7976512840174138,-1.2104513100385663,-2.074694396468997,0.0052252830937504,0.7615667581558228,0.2678831219673157
1783201237601921800,2.848921875,-0.7789385463714599,-1.0339774295404554,-1.804955080035329,0.0878477245569229,0.7717695832252502,0.2175240814685821
1783201237611859000,2.85885888671875,-0.7622500080294906,-0.8731970849975943,-1.5802514216363428,0.1876401007175445,0.8050340414047241,0.1726519465446472
1783201237621795800,2.8687958984375,-0.7478843596771358,-0.7267430797100066,-1.1682768866539002,0.2738953530788421,0.8479114770889282,0.1343333274126052
1783201237631732700,2.878732666015625,-0.7050302834652363,-0.5588742382109165,-0.6198842949688435,0.3301853537559509,0.8726409077644348,0.1000282615423202
1783201237641669600,2.888669677734375,-0.622731939484924,-0.3352189198210835,-0.0549245993643999,0.3665982186794281,0.8566161394119263,0.0751775056123733
1783201237651605800,2.898605712890625,-0.5107768545180559,-0.116333300051093,0.4999275437235831,0.4126292467117309,0.8001949787139893,0.0656748041510582
1783201237661543000,2.90854296875,-0.3616875322908163,0.0600812514752149,1.0186240853250026,0.4807638227939605,0.7108898758888245,0.0666982531547546
1783201237671479800,2.918479736328125,-0.192310039794445,0.2573319625422358,1.5602707098811863,0.5493005514144897,0.5815077424049377,0.0760261118412017
1783201237681416700,2.928416748046875,-0.0192462600007653,0.5017272866219282,2.1094430537670847,0.6092325448989868,0.4093392193317413,0.0920519530773162
1783201237691353900,2.938353759765625,0.1670867512106895,0.7398749484837055,2.6252882975906133,0.6294668912887573,0.2169763594865799,0.1090075224637985
1783201237701290800,2.948290771484375,0.321989435891807,1.0077417490437626,3.109280021035671,0.5780202150344849,0.0194790009409189,0.117022305727005
1783201237711228000,2.958227783203125,0.4274842388033866,1.3277335813775657,3.5786896768987178,0.4500593543052673,-0.1454118192195892,0.1465596556663513
1783201237721163800,2.968163818359375,0.5898357781857252,1.6035966413885354,3.9702234813988206,0.2538658678531647,-0.2648857533931732,0.1922864019870758
1783201237731100700,2.9781005859375,0.8415284196667373,1.7430594726145263,4.118787318447232,0.0034304382279515,-0.3525787889957428,0.2536503672599792
1783201237741037800,2.988037841796875,1.0044007680527864,1.7598305746734142,4.005727340978384,-0.2932310700416565,-0.4444072544574737,0.3210925161838531
1783201237750975000,2.99797509765625,1.0181430238097906,1.7135984003305431,3.7384096987336872,-0.6058177351951599,-0.5772718191146851,0.3855251371860504
1783201237760911600,3.00791162109375,0.8337880346730351,1.5796686533123254,3.081797555348277,-0.8836610913276672,-0.6557796597480774,0.4405961036682129
1783201237770848800,3.017848876953125,0.7055512385994196,1.3452253989264369,2.381731470161676,-1.1150784492492676,-0.7092332243919373,0.4915492534637451
1783201237780786000,3.027785888671875,0.5406802637420595,1.1205109268724918,1.611438002538681,-1.259092092514038,-0.747447669506073,0.5273631811141968
1783201237790721800,3.0377216796875,0.1310935006789863,0.9096855717003344,0.4805108955919742,-1.2925693988800049,-0.716486930847168,0.5297399163246155
1783201237800658700,3.04765869140625,-0.4659042780905961,0.6094286596670746,-0.6796428903609514,-1.2293939590454102,-0.5714203119277954,0.4786719679832458
1783201237810595800,3.057595947265625,-1.0654181313343345,0.2217448085933923,-1.6048142004847523,-1.0955268144607544,-0.3704625070095062,0.3700891733169555
1783201237820532700,3.06753271484375,-1.624357543735951,-0.169321962916851,-2.4452795209646223,-0.9143977165222168,-0.1732200235128402,0.222461387515068
1783201237830470000,3.077469970703125,-1.9755572920210656,-0.5315615761324763,-3.238293938961625,-0.6903942227363586,-0.0070945541374385,0.0826927125453949
1783201237840406800,3.08740673828125,-2.1085633483231065,-0.84149057187438,-3.8608319633096455,-0.4376229643821716,0.1270696371793747,-0.0280476473271846
1783201237850342700,3.0973427734375,-2.003852535396069,-1.0529960182651876,-4.246780076631904,-0.1845870167016983,0.2094426453113556,-0.1027037948369979
1783201237860279800,3.10727978515625,-1.7721090414881706,-1.1175038540109992,-4.334313398656249,0.0548205152153968,0.23051518201828,-0.1381720304489135
1783201237870217000,3.117217041015625,-1.5054158147521317,-1.1063190276518464,-4.210551409909129,0.2640130519866943,0.1901309043169021,-0.1429366320371627
1783201237880153900,3.12715380859375,-1.345196318962425,-1.0777747779518363,-3.979995518350601,0.4527965486049652,0.1528032422065735,-0.13699671626091
1783201237890090800,3.1370908203125,-1.284007836897671,-1.0793243454813957,-3.6587288437753913,0.607082188129425,0.1371443718671798,-0.1428838372230529
1783201237900027600,3.147027587890625,-1.32061088989079,-1.077591822600365,-3.264612621566653,0.7384527325630188,0.120556354522705,-0.1744257807731628
1783201237909964800,3.15696484375,-1.4665869024030864,-1.0259040132001045,-2.9162042575657368,0.8346368670463562,0.1494942307472229,-0.2348949760198593
1783201237919901000,3.16690087890625,-1.634826038519293,-0.9967904391795396,-2.5032325282394883,0.8899065256118774,0.2184019237756729,-0.3108539283275604
1783201237929837800,3.176837890625,-1.7318562338158487,-0.9457675234287976,-1.9488421574443575,0.8908641934394836,0.2862705886363983,-0.3938586115837097
1783201237939774700,3.186774658203125,-1.8079149527542293,-0.7725771946460008,-1.373138364985585,0.8543775677680969,0.3596861958503723,-0.4761721491813659
1783201237949712000,3.1967119140625,-1.8684097534663973,-0.5707862098008394,-0.8092939371466636,0.7954127788543701,0.4271979331970215,-0.5528514385223389
1783201237959648800,3.206648681640625,-1.8189377204194663,-0.3653858022868633,-0.2646691735625266,0.729964554309845,0.4854575097560882,-0.6176013946533203
1783201237969586000,3.2165859375,-1.7139578812927008,-0.1468853824421763,0.2204144367724657,0.6623890399932861,0.518543004989624,-0.6713581681251526
1783201237979522800,3.226522705078125,-1.544844300429523,0.0806999688729643,0.6729366707205772,0.596042275428772,0.5106877684593201,-0.701953649520874
1783201237989459700,3.236459716796875,-1.274243106469512,0.280576936790347,1.0858633918613194,0.5304609537124634,0.4686691164970398,-0.7066690325737
1783201237999396000,3.24639599609375,-1.0037952033750712,0.4298936380326748,1.4743869086295365,0.4698124825954437,0.3892808258533478,-0.6920932531356812
1783201238009333200,3.256333251953125,-0.7445049463719129,0.582350098605454,1.8509335718780755,0.402473896741867,0.3049137592315674,-0.6659918427467346
1783201238019270100,3.266270263671875,-0.5248807831943035,0.7847820117026567,2.1748826174050566,0.3316532671451568,0.2254333049058914,-0.6378297209739685
1783201238029207000,3.27620703125,-0.3771813078902661,1.0172481207966804,2.486107205915451,0.2547006011009216,0.1665887236595153,-0.6058076620101929
1783201238039144000,3.28614404296875,-0.2309428450495004,1.2068871878162026,2.8103584492594003,0.1640948057174682,0.1196169480681419,-0.5579820871353149
1783201238049081000,3.2960810546875,-0.0816219790887087,1.3463345292121172,3.135257927379012,0.0844485089182853,0.0652572065591812,-0.4986228346824646
1783201238059018200,3.306018310546875,0.10274316611588,1.4409364744484423,3.393361166554689,0.0166691951453685,-0.0117550175637006,-0.4369200468063354
1783201238068954000,3.3159541015625,0.2306521915398538,1.534083836962283,3.5533617588967084,-0.0595172829926013,-0.1136716604232788,-0.3959196209907532
1783201238078891000,3.32589111328125,0.2128589068263769,1.654120375445485,3.674201138195395,-0.16453717648983,-0.2086945921182632,-0.3864102661609649
1783201238088828200,3.335828125,0.0874772809881716,1.7903017007827755,3.712540513461828,-0.2982345521450043,-0.2352843433618545,-0.4035964906215668
1783201238098765000,3.34576513671875,-0.0859461989633739,1.793132248033583,3.7204391577571623,-0.4335841238498688,-0.2372343093156814,-0.4365102350711822
1783201238108702200,3.3557021484375,-0.2089096577439457,1.5905764162957667,3.5820413254141807,-0.5672038197517395,-0.2345643639564514,-0.4663405120372772
1783201238118639000,3.36563916015625,-0.1902781686406582,1.277364745621383,3.315821999800205,-0.6833032369613647,-0.2561018764972687,-0.4749073684215545
1783201238128576000,3.375575927734375,-0.0212009011998772,0.9296180603995918,2.997760258746147,-0.7651863098144531,-0.328494668006897,-0.4402980208396911
1783201238138512100,3.38551220703125,0.1512289646044373,0.6495692391365766,2.5880513306081294,-0.7917559146881104,-0.4228112995624542,-0.36958709359169
1783201238148449300,3.39544921875,0.2556060155324637,0.3679632515594363,2.1574568508297203,-0.7668690085411072,-0.5075408816337585,-0.2699392139911651
1783201238158386000,3.405385986328125,0.2366764202654361,0.0263540461793541,1.6914321612298489,-0.7215955257415771,-0.6095268726348877,-0.1871106475591659
1783201238168323000,3.415322998046875,-0.0193272162824869,-0.2454138534724712,1.1294283928215505,-0.697941780090332,-0.7148282527923584,-0.144507423043251
1783201238178260000,3.425260009765625,-0.4806292612746358,-0.423522349435091,0.611018851467967,-0.6932564973831177,-0.7994920015335083,-0.140046626329422
1783201238188197000,3.435197021484375,-0.9560866728693246,-0.6298068463072181,0.0578372719407081,-0.6886022090911865,-0.8560046553611755,-0.1539657562971115
1783201238198134300,3.44513427734375,-1.3912635120019317,-0.923489348386228,-0.6357090560883283,-0.6859265565872192,-0.8721399903297424,-0.1816538423299789
1783201238208071000,3.45507080078125,-1.6835853932522236,-1.2706059190109371,-1.3444114521950483,-0.6712778806686401,-0.8612491488456726,-0.2323883771896362
1783201238218007000,3.465007080078125,-1.8532370265148577,-1.4546554954603317,-2.116499402019381,-0.6209337711334229,-0.8041254281997681,-0.3005311787128448
1783201238227944200,3.474944091796875,-1.9608941220268603,-1.465197055479884,-2.693270531448721,-0.5378345251083374,-0.7351648211479187,-0.3890343606472015
1783201238237881000,3.484881103515625,-2.179946768926829,-1.2828662656471133,-3.174592743423581,-0.4700901210308075,-0.6670459508895874,-0.5149179697036743
1783201238247818000,3.49481787109375,-2.472946111047268,-0.9836106396108864,-3.517528228971362,-0.4422066807746887,-0.5724130868911743,-0.6559733152389526
1783201238257755100,3.504755126953125,-2.672376211979985,-0.8039794641256331,-3.765198921459913,-0.4660163819789886,-0.4461153149604797,-0.7879425287246704
1783201238267692000,3.514692138671875,-2.739250776857137,-0.7817366526573896,-3.971739731180668,-0.5109220147132874,-0.2660070657730102,-0.9096583724021912
1783201238277629200,3.524629150390625,-2.6818632945105434,-0.7923921944454312,-4.213828239622712,-0.5311279892921448,-0.0437100976705551,-1.0237146615982056
1783201238287565000,3.53456494140625,-2.5066002511069176,-0.7063771680295466,-4.465610459083319,-0.4890817105770111,0.1914797574281692,-1.114875555038452
1783201238297502000,3.544501953125,-2.258837204159796,-0.4414087192595005,-4.615141095337272,-0.3782595694065094,0.4117681682109833,-1.174513578414917
1783201238307439000,3.554439208984375,-1.934895611286908,-0.1052250460594892,-4.607255895045399,-0.2278765439987182,0.5922828912734985,-1.196532130241394
1783201238317376300,3.564376220703125,-1.61980397208482,0.2003095141157507,-4.423231453037261,-0.0607780963182449,0.7172620892524719,-1.187337040901184
1783201238327313200,3.574313232421875,-1.4164030678249897,0.425159887509048,-4.073281120291352,0.1068390384316444,0.788804829120636,-1.1578162908554075
1783201238337250000,3.58425,-1.2734697840094569,0.5703448957741261,-3.645950610744953,0.2774954736232757,0.8149539232254028,-1.1219384670257568
1783201238347187000,3.59418701171875,-1.1437443568132817,0.6683718470230698,-3.106199006155133,0.4508023858070373,0.7924857139587402,-1.087242841720581
1783201238357124000,3.6041240234375,-1.0398957136735318,0.7841808309391141,-2.562180391770601,0.6188446879386902,0.7115264534950256,-1.0632915496826172
1783201238367060200,3.614060302734375,-0.9729854929611086,0.930986426143348,-2.0370850890427827,0.774926483631134,0.632546067237854,-1.0559687614440918
1783201238376997000,3.6239970703125,-0.9992583636630326,1.1119260538786648,-1.4102210181891917,0.908602774143219,0.5839298367500305,-1.0466301441192627
1783201238386934000,3.63393408203125,-0.9911856049098072,1.3256699268460272,-0.6658750617712735,1.0087915658950806,0.537606954574585,-1.0360084772109983
1783201238396871200,3.64387109375,-0.9586443945281208,1.555030471140146,0.0230757551610469,1.075421690940857,0.4829674363136291,-1.0213673114776611
1783201238406808000,3.65380810546875,-0.8790139545828104,1.7317396216988563,0.6508037493675947,1.0885272026062012,0.4331752061843872,-1.0098971128463743
1783201238416745200,3.6637451171875,-0.7787897124852985,1.877067253305018,1.347433430364728,1.059784770011902,0.3860116899013519,-0.9859321117401124
1783201238426682000,3.67368212890625,-0.6445750841110944,2.019171831211448,2.07023157184124,0.9863497614860536,0.3339625895023346,-0.9566258192062378
1783201238436619000,3.683618896484375,-0.4376360688529908,2.161368763576448,2.713738149937987,0.8797319531440735,0.2626793682575226,-0.9142754077911376
1783201238446555100,3.69355517578125,-0.1810369140973314,2.290000696447492,3.28032223187387,0.7369052171707153,0.1766374856233596,-0.8581187725067139
1783201238456492300,3.7034921875,0.0900767959620803,2.3312734948173164,3.742971307560801,0.5715333223342896,0.0462597720324993,-0.7885394096374512
1783201238466429000,3.713428955078125,0.3562768688863143,2.3362840164557097,4.103398610657453,0.398711234331131,-0.1226709857583046,-0.7106298208236694
1783201238476366000,3.723365966796875,0.5661141628691926,2.3439964905291792,4.35469509242773,0.239292562007904,-0.3442600965499878,-0.6262499690055847
1783201238486303000,3.733302978515625,0.7223086774591356,2.328611289870739,4.45439874471724,0.0883151590824127,-0.5684733390808105,-0.5469650626182556
1783201238496240000,3.743240234375,0.8140940309047698,2.310932717578113,4.428699655315279,-0.0610796473920345,-0.7678410410881042,-0.4770587086677551
1783201238506177300,3.75317724609375,0.8213629259292036,2.2106071339979767,4.369732502561807,-0.2159523218870163,-0.929027497768402,-0.3992582857608795
1783201238516114000,3.763114013671875,0.6296789821438491,1.998180481109023,4.083819465440511,-0.3738503456115722,-1.050159573554993,-0.3215613663196563
1783201238526050000,3.773050048828125,0.2533805215027183,1.691707763300836,3.6360657610684632,-0.5283132195472717,-1.1316125392913818,-0.2663304209709167
1783201238535987200,3.7829873046875,-0.162592581596598,1.400345520862937,3.0659178491711616,-0.6668931841850281,-1.1274359226226809,-0.2600208520889282
1783201238545924000,3.792924072265625,-0.5790883933957666,1.1250152525544166,2.441750177794695,-0.7777581810951233,-1.0498262643814087,-0.2955156564712524
1783201238555861000,3.802861083984375,-0.9275283946439624,0.9004320056647062,1.7892928160011767,-0.8641697764396667,-0.9510661363601683,-0.3556972444057464
1783201238565798100,3.812798095703125,-1.123529617106542,0.6939791664883493,1.030020508608222,-0.9214249849319458,-0.8854936957359314,-0.4168977737426758
1783201238575735000,3.822735107421875,-1.2181680949609726,0.463972433245182,0.1928197428822517,-0.9373160600662231,-0.8083544373512268,-0.4677902460098266
1783201238585672200,3.832672119140625,-1.274766253560781,0.1837871261209249,-0.6563023467838763,-0.907942533493042,-0.6887179613113403,-0.5117661952972412
1783201238595609000,3.842609130859375,-1.42729811745733,-0.1397378487750887,-1.4070955796450375,-0.8351852297782898,-0.5676810145378113,-0.5612053871154785
1783201238605546000,3.8525458984375,-1.62200951930508,-0.4395952400967478,-2.116007819110155,-0.7279844880104065,-0.4655725061893463,-0.6329312324523926
1783201238615482000,3.862482177734375,-1.743839663206786,-0.7331500241428613,-2.686604643818736,-0.6064956188201904,-0.3977401852607727,-0.7216741442680359
1783201238625419300,3.872419189453125,-1.8089603701539336,-0.9711176532626152,-3.1654467294156547,-0.5074244737625122,-0.3115418255329132,-0.8187749981880188
1783201238635356200,3.882356201171875,-1.85621209680289,-1.0889572662234306,-3.491631571170688,-0.4271354973316192,-0.1709636896848678,-0.9116128087043762
1783201238645293000,3.89229296875,-1.835783349019289,-1.1888386131674051,-3.660497607013583,-0.360222190618515,-0.0031028524972498,-0.9988096356391908
1783201238655230000,3.90222998046875,-1.791982639607042,-1.276206807757914,-3.8038808265537023,-0.2826080918312073,0.1779502928256988,-1.0711195468902588
1783201238665167000,3.9121669921875,-1.6523657868631183,-1.3326403503805395,-3.898337810361385,-0.1799734234809875,0.3225200772285461,-1.1321943998336792
1783201238675104300,3.922104248046875,-1.4239756950363516,-1.3252201372519137,-3.9229941127121446,-0.0566765144467353,0.4124435782432556,-1.1718547344207764
1783201238685041200,3.932041259765625,-1.1635741888556628,-1.221480361314118,-3.815609842792153,0.077978141605854,0.4500344693660736,-1.1899484395980835
1783201238694977000,3.94197705078125,-0.954164399569854,-1.09073918120414,-3.5352088470906016,0.2075547724962234,0.4482530653476715,-1.1955254077911377
1783201238704914200,3.9519140625,-0.808476848610118,-0.9671493341535328,-3.1591046669125555,0.3253860473632812,0.4177654683589935,-1.2040493488311768
1783201238714851000,3.96185107421875,-0.7079743740931153,-0.8703121772110461,-2.7582138360023496,0.4264354407787323,0.3708722591400146,-1.2129204273223877
1783201238724788200,3.971788330078125,-0.6236613292895257,-0.7747089459776878,-2.375340307819843,0.4998347759246826,0.3177622258663177,-1.226754069328308
1783201238734725000,3.98172509765625,-0.5714221696168184,-0.625931466178596,-1.950042765405774,0.5440043807029724,0.2736869156360626,-1.2494802474975586
1783201238744662000,3.991662109375,-0.5369701206451282,-0.3967877795055508,-1.5167635765880343,0.5624518990516663,0.2451734393835067,-1.277784824371338
1783201238754599200,4.00159912109375,-0.4837636503102258,-0.1497609378784895,-1.1082271993607282,0.5518498420715332,0.2324019819498062,-1.294827222824097
1783201238764536000,4.0115361328125,-0.4051584982920437,0.0523641012266278,-0.7250795304119586,0.5180097818374634,0.2116994708776474,-1.29288649559021
1783201238774472000,4.021471923828125,-0.287561352317594,0.2317784190908074,-0.4616384373396635,0.4793750345706939,0.2061148136854171,-1.2734994888305664
1783201238784409000,4.0314091796875,-0.1737415694573894,0.3950950041130185,-0.217996854236722,0.4312550127506256,0.2268775105476379,-1.240338921546936
1783201238794346000,4.041345947265625,-0.0443294825267046,0.5469982147172093,0.0759147804230451,0.3876207172870636,0.2183104008436203,-1.201570749282837
1783201238804283100,4.051283203125,0.0714437724888324,0.7114724453419446,0.2677192087829113,0.3670812249183655,0.1755710542201995,-1.15865159034729
1783201238814220300,4.06122021484375,0.176905988305062,0.8769301340460777,0.4319184218585491,0.3741900026798248,0.1321599334478378,-1.1108880043029783
1783201238824157000,4.071156982421875,0.2842769603520632,1.0294289724558592,0.7291337742388248,0.3922934234142303,0.0633648186922073,-1.062353014945984
1783201238834094000,4.081093994140625,0.381483242867887,1.2164081726163625,1.0631494557499883,0.4124474227428436,-0.0349923744797706,-1.0040949583053589
1783201238844031000,4.091031005859375,0.4851965691901743,1.4045441415965556,1.3411328689157962,0.4219337403774261,-0.1388592571020126,-0.932774543762207
1783201238853968100,4.100968017578125,0.6116190093182027,1.5426719248265026,1.5958394513905048,0.4250096976757049,-0.24504055082798,-0.8481957316398621
1783201238863904000,4.110904052734375,0.6982154158186167,1.6343021607756614,1.8958985027641055,0.4289630651473999,-0.3618515431880951,-0.7593116164207458
1783201238873841200,4.120841064453125,0.691214085689187,1.7911884204894304,2.19712484435141,0.4324310421943664,-0.5099000930786133,-0.6838735938072205
1783201238883778000,4.130778076171875,0.6538632830686867,1.9906112148985269,2.489100542512536,0.425450712442398,-0.6716459393501282,-0.6252552270889282
1783201238893715200,4.140715087890625,0.641438831911981,2.131744901946187,2.7773510826706884,0.4016569852828979,-0.8356085419654846,-0.5684403777122498
1783201238903652000,4.150652099609375,0.6841992384910583,2.201828784258664,3.0909850704103707,0.3509877920150757,-1.0140010118484497,-0.4988755285739898
1783201238913589000,4.160589111328125,0.7337683752369135,2.1990467523247004,3.321741452977061,0.2413236051797866,-1.2032687664031982,-0.418241947889328
1783201238923526100,4.170526123046875,0.7305453215371817,2.190112335240841,3.49104763380289,0.0747513175010681,-1.3655741214752195,-0.3394033908843994
1783201238933463000,4.180463134765625,0.6512381952621042,2.159370867757499,3.478054881238937,-0.1388600319623947,-1.4054535627365112,-0.2683140337467193
1783201238943400200,4.190400146484375,0.5386920855995267,1.9211995327591893,3.2450200323462486,-0.3562895357608795,-1.3580211400985718,-0.2058010101318359
1783201238953336000,4.200336181640625,0.444560607419163,1.6032216705963014,2.840362542378902,-0.5602237582206726,-1.2917861938476562,-0.1521913111209869
1783201238963273000,4.21027294921875,0.3295556333623826,1.4394140871867536,2.3113620489060875,-0.747247576713562,-1.2218985557556152,-0.0986652746796608
1783201238973210000,4.220210205078125,0.2556741853978485,1.3978221398651598,1.7132359967589377,-0.8945356011390686,-1.1500190496444702,-0.0577844157814979
1783201238983147300,4.230147216796875,0.1284733813084662,1.434625976127386,0.9612842415124178,-0.999567449092865,-1.0639725923538208,-0.0407035984098911
1783201238993084200,4.240084228515625,-0.1284220164474099,1.427011117209494,0.0878033711373806,-1.0577844381332395,-0.9706783890724182,-0.0643775016069412
1783201239003020500,4.2500205078125,-0.5509262748811393,1.3779548253566023,-0.8081430135458707,-1.08488130569458,-0.8506795167922974,-0.1308461725711822
1783201239012957400,4.25995751953125,-1.0046609533589332,1.3164701368242502,-1.5629098262131214,-1.0839496850967407,-0.6963538527488708,-0.2304590493440628
1783201239022894300,4.269894287109375,-1.3625579342603682,1.1312877569526434,-2.234968545055389,-1.0492448806762695,-0.5181546211242676,-0.3304004967212677
1783201239032831500,4.27983154296875,-1.4523596396081149,0.7110831537634134,-2.9331185674875973,-0.976195991039276,-0.3195749223232269,-0.4204606115818023
1783201239042767600,4.289767578125,-1.2412247800953686,0.1602279713571071,-3.628324937683344,-0.8785409331321716,-0.1250396817922592,-0.5165139436721802
1783201239052704300,4.299704345703125,-1.0168958002276718,-0.1704524282515049,-4.263519029986858,-0.7617639899253845,0.1000328510999679,-0.6060183048248291
1783201239062641400,4.309641357421875,-0.9250048675157128,-0.160963007633388,-4.608329077234864,-0.6474153399467468,0.3503366708755493,-0.6769407987594604
1783201239072578300,4.319578369140625,-0.8265094950374215,0.010449497821927,-4.612188675272464,-0.5350062251091003,0.560166597366333,-0.7089884877204895
1783201239082515500,4.329515380859375,-0.6544527003291994,0.1611325189813971,-4.554315747496485,-0.4093883335590362,0.6957675218582153,-0.7035786509513855
1783201239092452600,4.33945263671875,-0.4621238097038119,0.2362184473648667,-4.429859931266307,-0.2593929767608642,0.7676904797554016,-0.6823564171791077
1783201239102389200,4.34938916015625,-0.3176442462943494,0.2895660066708922,-4.193564034751057,-0.0817805454134941,0.7904143333435059,-0.654355525970459
1783201239112326400,4.359326416015625,-0.1865039838641881,0.3162818718999624,-3.8728924034595487,0.1241156309843063,0.7836278080940247,-0.6386977434158325
1783201239122263600,4.369263671875,-0.1173809094078838,0.2679717222392559,-3.4576264257162808,0.3484156429767608,0.776392936706543,-0.6305570602416992
1783201239132199400,4.379199462890625,-0.0829172795962542,0.242333130852878,-2.8901281515449284,0.5594871044158936,0.7719939351081848,-0.6403068900108337
1783201239142136300,4.38913623046875,-0.0668205331349745,0.3019602088198065,-2.172269804558158,0.7302447557449341,0.739409863948822,-0.6454939246177673
1783201239152073500,4.399073486328125,-0.0571946266556158,0.4048714249789714,-1.424735281231999,0.8727640509605408,0.6900495290756226,-0.6379215121269226
1783201239162010400,4.40901025390625,0.0026777678418904,0.4440376064583659,-0.749085259899497,0.9922040700912476,0.6557905077934265,-0.6247342228889465
1783201239171947500,4.418947509765625,0.1501633629332296,0.478528781864047,-0.0128501292228698,1.079662799835205,0.602851390838623,-0.6158784627914429
1783201239181884400,4.428884521484375,0.2967635534921661,0.618648615694046,0.7887368868082761,1.1303956508636477,0.5100887417793274,-0.6123554110527039
1783201239191821300,4.4388212890625,0.4356976116036996,0.8326885489985346,1.5154706141680478,1.1361289024353027,0.38739213347435,-0.5993362665176392
1783201239201758500,4.448758544921875,0.5897927792942151,1.0652934820413589,2.2074971852839,1.0878326892852783,0.2460121363401413,-0.577404797077179
1783201239211695400,4.4586953125,0.7382551652621477,1.3046098954215646,2.869298714005947,0.9754185676574708,0.0811033472418785,-0.5442886352539062
1783201239221631500,4.468631591796875,0.8783313791461288,1.5212600112244483,3.4187066202133893,0.7826023101806641,-0.0699064582586288,-0.4883289337158203
1783201239231568400,4.478568359375,1.0577512499682604,1.5872779592722654,3.828341314071416,0.5170438885688782,-0.1949229687452316,-0.3998755216598511
1783201239241505300,4.48850537109375,1.2880403072841464,1.3887053519517183,4.09010716740787,0.2069037556648254,-0.2841518521308899,-0.2926703691482544
1783201239251442400,4.4984423828125,1.4633249779976905,1.0019640424251557,4.082168191102147,-0.0880048424005508,-0.3610120117664337,-0.1784540563821792
1783201239261379600,4.508379638671875,1.503507935304195,0.6313125746950506,3.8189457092165946,-0.3213018178939819,-0.3826663494110107,-0.0993567332625389
1783201239271316200,4.518316162109375,1.3225553019568324,0.4385688196584582,3.46318581340909,-0.4554803669452667,-0.3458342850208282,-0.0658328607678413
1783201239281253400,4.52825341796875,1.015317883386463,0.4428545341536402,3.175812640607357,-0.5128851532936096,-0.3268679976463318,-0.068824827671051
1783201239291190300,4.538190185546875,0.7382464704990387,0.5346826307624578,2.8455449134528634,-0.5148596167564392,-0.3747284710407257,-0.0778153911232948
1783201239301127400,4.54812744140625,0.6066107527021318,0.5829886887699365,2.435191257670521,-0.5016063451766968,-0.4714404642581939,-0.0668162107467651
1783201239311064600,4.558064697265625,0.5446799643700942,0.5876280390083789,2.0984294923216105,-0.5107401609420776,-0.6020434498786926,-0.0319415815174579
1783201239321000400,4.56800048828125,0.4481525309639051,0.6010106676727534,1.7844903841555118,-0.5574436783790588,-0.7353222370147705,-0.0069762356579303
1783201239330937300,4.577937255859375,0.2899358628965914,0.6191814073964953,1.450180103611946,-0.628859281539917,-0.8378099799156189,0.0015698480419814
1783201239340874500,4.58787451171875,0.1378538251267746,0.6606389146834611,1.106328672263026,-0.7242226600646973,-0.8979924321174622,-0.0130510441958904
1783201239350811400,4.597811279296875,-0.043584472845681,0.7558101842403412,0.6899678850203752,-0.8285930156707764,-0.8849325776100159,-0.0374080501496791
1783201239360748300,4.607748291015625,-0.152944390220195,0.8327557690158486,0.2591542095333338,-0.9292288422584534,-0.8229682445526123,-0.0664611235260963
1783201239370685400,4.617685546875,-0.2455681672513484,0.9192804985195396,-0.2898363480448723,-1.0110793113708496,-0.7134808897972107,-0.1110847815871238
1783201239380622300,4.627622314453125,-0.4541529769551009,1.043959602111578,-0.9530623566120864,-1.0714722871780396,-0.5435017347335815,-0.1728000193834304
1783201239390559500,4.6375595703125,-0.5755318699579686,1.2588763182505964,-1.5304413888067006,-1.0779647827148438,-0.3292267024517059,-0.2286355793476104
1783201239400496400,4.647496337890625,-0.4400820007003843,1.4061036459982394,-2.0639111366480587,-1.004424810409546,-0.1322065144777298,-0.2283644825220108
1783201239410433300,4.657433349609375,-0.0007793138094246,1.344839029957354,-2.594460613128543,-0.8612655401229858,-0.0286660064011812,-0.163492813706398
1783201239420370400,4.667370361328125,0.5509935679636895,1.1475234369605778,-3.086433982977271,-0.6734969019889832,-0.0481158420443534,-0.0417054332792758
1783201239430306600,4.677306640625,0.9607410014811902,1.0209636341884731,-3.488019810414314,-0.4618631899356842,-0.1502925455570221,0.0875801146030426
1783201239440243500,4.687243408203125,1.1133978069316597,0.9818196645408868,-3.767333595401048,-0.245415911078453,-0.2737680375576019,0.2089927643537521
1783201239450180400,4.697180419921875,0.996801691225916,1.0459504836678504,-3.8687025505542754,-0.0503569319844245,-0.3715992569923401,0.3075451850891113
1783201239460117200,4.7071171875,0.6715656746283173,1.1646230403214692,-3.936853126716613,0.1112932041287422,-0.4210675060749054,0.3716050088405609
1783201239470054400,4.717054443359375,0.3082841511443257,1.213788637767732,-4.00463428504467,0.2483943253755569,-0.386978805065155,0.3997420966625213
1783201239479991600,4.726991455078125,0.0730899322606623,1.1956252045676112,-3.951939636689424,0.3559087514877319,-0.2696717083454132,0.3838349878787994
1783201239489928400,4.736928466796875,-0.0948526320617645,1.2295493937402964,-3.818683258888125,0.4361332952976227,-0.098169982433319,0.3423477113246918
1783201239499865300,4.746865234375,-0.2243593750059604,1.3273188630968331,-3.648833472704887,0.5031459331512451,0.1363691985607147,0.3037012219429016
1783201239509802200,4.75680224609375,-0.2314744677081704,1.373004217211902,-3.261121272319555,0.5581122636795044,0.379223108291626,0.2908442914485931
1783201239519738400,4.76673828125,-0.093887586421892,1.3305135674849151,-2.7465204755991697,0.595894992351532,0.5311319231987,0.3047990202903747
1783201239529675500,4.776675537109375,0.1702265836063772,1.290368896362185,-2.211421080729365,0.6302825212478638,0.5745193362236023,0.3364501595497131
1783201239539612400,4.7866123046875,0.4777751870177686,1.2364847459614277,-1.6888012282043694,0.6948468089103699,0.5464105606079102,0.3885732293128967
1783201239549549300,4.79654931640625,0.7266411537054925,1.162639465288818,-1.1270388673365117,0.7892358899116516,0.4799298346042633,0.4485654532909393
1783201239559486500,4.806486572265625,0.848495774461329,1.1591881557911634,-0.5280997452408075,0.918621063232422,0.421649158000946,0.4977190494537353
1783201239569423400,4.81642333984375,0.9156251178171484,1.2664195732370018,0.1635585770845413,1.0564171075820925,0.3681678473949432,0.5335966348648071
1783201239579360500,4.826360595703125,0.9519676201779396,1.3976646112158897,0.921421017679572,1.1488655805587769,0.3292531073093414,0.5619893670082092
1783201239589297400,4.83629736328125,1.019715168497339,1.4276087908416986,1.7504846541792154,1.1658769845962524,0.3045690655708313,0.6019032597541809
1783201239599234300,4.846234375,1.121295282183215,1.2663178664281964,2.604354815155268,1.0883347988128662,0.2566871345043182,0.6590325236320496
1783201239609171500,4.85617138671875,1.1877148698344826,1.037721292243898,3.380042250776291,0.9378477334976196,0.1732673645019531,0.7101492285728455
1783201239619108400,4.8661083984375,1.163346225318685,0.8820853248521685,4.042259959083795,0.7178868055343628,0.0856927409768104,0.7261596322059631
1783201239629044200,4.876044189453125,1.0354361769814044,0.9304901670590042,4.589597488757968,0.4721412062644958,0.0114747025072574,0.7094778418540955
1783201239638981400,4.8859814453125,0.8960176232885568,1.0795116847470403,4.9552287902385,0.246909886598587,-0.0378421396017074,0.6699896454811096
1783201239648918300,4.895918212890625,0.7831408203668891,1.1765624844402074,5.056699452200531,0.0335534028708934,-0.0701564028859138,0.6134717464447021
1783201239658855400,4.90585546875,0.7001859121739864,1.20444914701432,5.106790640059113,-0.1911104321479797,-0.1152278184890747,0.5648593902587891
1783201239668792600,4.91579248046875,0.7622247274577617,1.027454165251553,4.978818340140581,-0.4254179894924164,-0.1939292848110199,0.5520322918891907
1783201239678729200,4.925729248046875,0.919654519463703,0.6355936130151152,4.566510627681017,-0.6899354457855225,-0.2861729860305786,0.5614730715751648
1783201239688666400,4.935666259765625,1.0999401402696969,0.2597831550866365,3.884078398862481,-0.9506157636642456,-0.3718239963054657,0.5895361304283142
1783201239698603300,4.945603271484375,1.1051036605127156,0.0485816600784659,3.0248598625957963,-1.171308159828186,-0.4073420763015747,0.6202762126922607
1783201239708540400,4.95554052734375,1.024731170028448,-0.0554053686186671,2.1656477560698986,-1.3190041780471802,-0.3910874724388122,0.6262544989585876
1783201239718477600,4.9654775390625,0.7238952890634537,-0.1419955645740032,1.3302619308114052,-1.3755148649215698,-0.330182820558548,0.5728939771652222
1783201239728414200,4.975414306640625,0.2829161933928728,-0.2414241993144154,0.4891057054579257,-1.3410096168518066,-0.2093743681907653,0.4783437848091125
1783201239738350300,4.985350341796875,-0.0858152660600841,-0.4308373486235737,-0.3071984017342329,-1.2455040216445925,-0.0690092667937278,0.3845692574977875
1783201239748287500,4.99528759765625,-0.129147773438692,-0.7331830496296287,-1.1339987694770095,-1.1294584274291992,0.0544037483632564,0.3153885900974273
1783201239758224400,5.005224365234375,0.0541238043755292,-1.1158370898425578,-2.012932644560933,-1.034183144569397,0.0904179811477661,0.2732824385166168
1783201239768161300,5.015161376953125,0.2766946885295212,-1.4697855523139238,-2.9814760634213684,-0.9652831554412842,0.1090696975588798,0.2440808862447738
1783201239778098400,5.025098388671875,0.4533611689902841,-1.784124473452568,-3.834756441810727,-0.8807387351989746,0.1619419753551483,0.2267788648605346
1783201239788035300,5.035035400390625,0.6751245361536741,-2.11748110653311,-4.497396759444475,-0.7611515522003174,0.2511577904224396,0.2200518995523452
1783201239797972500,5.044972412109375,0.8448951196208596,-2.3093054086372256,-5.140548532754183,-0.6039957404136658,0.3696335852146148,0.2075893580913543
1783201239807909400,5.054909423828125,0.8686872794229537,-2.286008996462822,-5.596532889854908,-0.422338604927063,0.497052788734436,0.1957598626613617
1783201239817846300,5.06484619140625,0.8516694360613822,-2.115067907911539,-5.794000750803948,-0.2106359153985977,0.6557546257972717,0.188252106308937
1783201239827783400,5.074783447265625,0.8602259597435593,-1.9884557904303075,-5.769271967738867,0.0262139197438955,0.8059483766555786,0.1915072947740554
1783201239837720300,5.08472021484375,0.8720581440955399,-1.8777941062748431,-5.522502608004212,0.2674436271190643,0.910700798034668,0.1981736123561859
1783201239847656400,5.094656494140625,0.8637770763538777,-1.6102435320571065,-5.067326060155033,0.4876729249954223,0.974868893623352,0.2053255289793014
1783201239857593300,5.10459326171875,0.9066119364086538,-1.2899027401551604,-4.349157916566729,0.6842570900917053,0.9910273551940918,0.2256323099136352
1783201239867530200,5.1145302734375,0.9862003638431428,-1.0023246924310922,-3.5706717901378866,0.8503930568695068,0.9656822681427002,0.2455708682537078
1783201239877467400,5.12446728515625,1.024438324561715,-0.7087453584656119,-2.790350849497318,0.983590304851532,0.9344466328620912,0.2706660032272339
1783201239887404500,5.134404541015625,1.047365976488963,-0.3527037231072783,-1.9091297402590512,1.071849346160889,0.9166418313980104,0.2743848264217376
1783201239897341400,5.144341552734375,1.0087267414931207,0.1103235382422804,-0.9643395374298096,1.119214653968811,0.9414283037185668,0.2572498619556427
1783201239907278300,5.1542783203125,1.0453851779352874,0.58135962626338,0.0050105216383934,1.097989201545715,0.9786244034767152,0.2292792201042175
1783201239917215200,5.16421533203125,1.167588904389739,0.8840431809216738,0.94082071467638,0.9797286987304688,0.9605830907821656,0.236121580004692
1783201239927152400,5.17415234375,1.4548412272907794,0.989620693680644,1.6123083556324245,0.772821307182312,0.9164606332778932,0.3011051118373871
1783201239937089500,5.184089599609375,1.7858304005876182,0.8375091010227799,2.103899448165297,0.534631609916687,0.8773124814033508,0.4348765909671783
1783201239947026400,5.1940263671875,2.01938620461449,0.5748422071933746,2.521120651629567,0.3041762709617615,0.8198444247245789,0.5908088684082031
1783201239956962300,5.20396240234375,2.1007713792726395,0.4193704904526472,2.779214538455009,0.1167246475815773,0.7517108917236328,0.7388755083084106
1783201239966899500,5.2138994140625,1.985193719894439,0.4752393849298357,2.9238971501559017,-0.005993285216391,0.6869441866874695,0.8538758754730225
1783201239976836400,5.22383642578125,1.7600760738670824,0.6185527541041373,3.1164947747200724,-0.0649272501468658,0.6111008524894714,0.9379674196243286
1783201239986773500,5.2337734375,1.5150611565843224,0.7801555209457873,3.2389526951313017,-0.0735630840063095,0.536871612071991,0.9968674778938292
1783201239996710400,5.24371044921875,1.261428340820968,0.9284580767095088,3.2859102611392736,-0.051328882575035,0.5180872678756714,1.0394343137741089
1783201240006648000,5.25364794921875,1.0763408726911992,1.0027879260286687,3.5167975766092536,-0.0211203824728727,0.493484765291214,1.0535757541656494
1783201240016585200,5.263585205078125,0.94954667664133,1.0765648176401852,3.696632750234008,-0.0117483735084533,0.4022197425365448,1.0515940189361572
1783201240026521900,5.27352197265625,0.926835882335156,1.1441378861755132,3.7473517146021127,-0.0611396245658397,0.253297358751297,1.06318199634552
1783201240036459000,5.283458984375,1.0668202532172202,1.059272906577587,3.790975167751312,-0.1671647131443023,0.0803552269935607,1.13213849067688
1783201240046396000,5.29339599609375,1.2903456616170703,0.8238900332540273,3.7212674252748488,-0.3194719552993774,-0.0962965041399002,1.2478872537612915
1783201240056333000,5.3033330078125,1.3797681583888828,0.5578767516061663,3.492434704247117,-0.5044485926628113,-0.2421180158853531,1.3829329013824463
1783201240066270200,5.313270263671875,1.2248267491325735,0.3528247191384434,3.134128046566248,-0.6770387887954712,-0.3175100088119507,1.5046284198760986
1783201240076206000,5.3232060546875,0.8821221497312187,0.2186360289230942,2.5321914962202308,-0.8106233477592468,-0.3045226335525512,1.590074896812439
1783201240086143000,5.33314306640625,0.34453422598131,0.1280383508920669,1.82399471154809,-0.9001700282096863,-0.2338657975196838,1.6212713718414309
1783201240096080100,5.343080078125,-0.1724454652322456,0.012879647578299,0.9660627079606056,-0.9251348972320556,-0.1585993766784668,1.600845217704773
1783201240106017000,5.35301708984375,-0.5543307130297646,-0.2382259877949953,-0.0060731824338436,-0.892920196056366,-0.0917588323354721,1.53623366355896
1783201240115954000,5.362953857421875,-0.8536227620862424,-0.5799550201624631,-0.994471640843153,-0.8137621879577637,-0.0006774929352104,1.426323652267456
1783201240125891000,5.37289111328125,-1.0686939381346106,-0.855491332437098,-1.768143060466647,-0.7179062366485596,0.0737903490662574,1.2836517095565796
1783201240135828000,5.382827880859375,-1.1602830383557825,-1.0509349940821529,-2.43607037859261,-0.6084879636764526,0.14100082218647,1.1492208242416382
1783201240145765000,5.39276513671875,-1.0110811225995422,-1.286288933572173,-3.0479356177568437,-0.4948210418224334,0.1877680569887161,1.0497711896896362
1783201240155702000,5.402701904296875,-0.7799336948886513,-1.5016253364279866,-3.62226987542808,-0.3868975937366485,0.2669320404529571,0.976030170917511
1783201240165639000,5.412638916015625,-0.5789884766852483,-1.6560460828110577,-3.994769309112429,-0.2989120781421661,0.386829674243927,0.9151601791381836
1783201240175576000,5.422576171875,-0.4441117676731199,-1.7068819515570997,-4.148259496647119,-0.2253642678260803,0.5136342644691467,0.854101300239563
1783201240185513000,5.432512939453125,-0.4274981211982667,-1.6176349574826656,-4.21935314052403,-0.1413396596908569,0.6498461961746216,0.8061881065368652
1783201240195449000,5.442448974609375,-0.4005695265339687,-1.4560418352521955,-4.139721969926357,-0.0385407283902168,0.7535451054573059,0.7825433611869812
1783201240205386000,5.452385986328125,-0.3506346252156421,-1.233438217872381,-4.014505690717697,0.0854637771844863,0.7865922451019287,0.7685614824295044
1783201240215323000,5.462322998046875,-0.2416250921813771,-1.057152261161804,-3.910407602861524,0.2335980385541916,0.7715204954147339,0.7734028697013855
1783201240225260000,5.472260009765625,-0.0976975731641054,-0.9517354919224976,-3.716179162225127,0.3968404829502105,0.7315131425857544,0.773652970790863
1783201240235197200,5.482197265625,-0.0017309154458343,-0.8392644202575087,-3.447159976759553,0.5780044198036194,0.6876446008682251,0.7682030200958252
1783201240245134000,5.492134033203125,0.0413392877347767,-0.6907397461757063,-3.0517502076089382,0.7299979329109192,0.6437130570411682,0.760442316532135
1783201240255071000,5.502071044921875,0.0168538119062781,-0.4731292609080672,-2.534234400224685,0.8434626460075378,0.6130736470222473,0.7532193660736084
1783201240265007900,5.5120078125,-0.0465917283702641,-0.2587494281247258,-1.9336136086523528,0.911587119102478,0.6087811589241028,0.7459915280342102
1783201240274945000,5.521945068359375,-0.0853609464213252,-0.0706979225575923,-1.2809089940994978,0.9618086814880372,0.6288597583770752,0.7396693825721741
1783201240284882200,5.531882080078125,-0.1039037343278527,0.124837801285088,-0.5952805995881557,0.9971184730529784,0.666244387626648,0.7310453057289124
1783201240294819000,5.541819091796875,-0.073242346343398,0.3385296518042683,0.1384703130573034,1.0078657865524292,0.6912506818771362,0.7305182814598083
1783201240304756000,5.551755859375,-0.0345968277372419,0.5685273249581456,0.9005296208202839,0.9848544597625732,0.690830409526825,0.7462058663368225
1783201240314692000,5.561692138671875,0.0011140256565064,0.8114923239737749,1.6880641461014747,0.9276057481765748,0.6608999967575073,0.7753438353538513
1783201240324629000,5.57162890625,0.0243361304856836,1.0275748690217732,2.520764677798748,0.8472014665603638,0.5902602076530457,0.8139532804489136
1783201240334566100,5.581566162109375,0.0281144799806177,1.1789040791302918,3.3361429032951597,0.740249752998352,0.4832265079021454,0.8496458530426025
1783201240344503000,5.5915029296875,0.0356618266202509,1.3002967083975672,4.030186659452319,0.6100329160690308,0.3390709459781647,0.8656008839607239
1783201240354440000,5.60143994140625,0.0173867497391998,1.4607801158204674,4.488853387504816,0.4535038471221924,0.1952157616615295,0.8578287959098816
1783201240364377000,5.611377197265625,-0.05201880405345,1.6519953461155297,4.89357166774869,0.2665595412254333,0.1092912703752517,0.8368009924888611
1783201240374314000,5.62131396484375,-0.0869014538615941,1.8190961258515717,5.315620437499881,0.043066170066595,0.0599054023623466,0.7929516434669495
1783201240384251100,5.631251220703125,-0.148963650020957,2.0037147343605755,5.601685450312495,-0.2007180005311966,0.0016420977190136,0.7454453706741333
1783201240394188000,5.64118798828125,-0.2726518428795039,2.164267992149293,5.620258048835397,-0.4557200670242309,-0.0491915307939052,0.6880438923835754
1783201240404125000,5.651125,-0.3176630971252918,2.22510181555748,5.4861833403885365,-0.7239320874214172,-0.0829500332474708,0.6394694447517395
1783201240414062000,5.66106201171875,-0.2316800732828676,2.177978245332837,5.286645687428116,-1.012406826019287,-0.1545883566141128,0.6344096064567566
1783201240423999000,5.6709990234375,-0.0187592802014201,1.9810440528690811,4.772683773133158,-1.2996934652328491,-0.2683402299880981,0.6716586947441101
1783201240433936100,5.68093603515625,0.0531136774849146,1.628926312956214,3.923575127470493,-1.5551553964614868,-0.3822242319583893,0.7486453056335449
1783201240443872000,5.6908720703125,0.060004332047794,1.2248776025369763,3.001948942607641,-1.7500345706939695,-0.4449152946472168,0.8399480581283569
1783201240453809000,5.700808837890625,0.0143636938572861,0.8512091250732541,1.9878829589784144,-1.849638819694519,-0.4543827176094055,0.9164853692054749
1783201240463746000,5.71074609375,-0.0914266031358391,0.482602022652328,0.9565922843039036,-1.8318583965301516,-0.4093393385410309,0.9560301303863524
1783201240473683200,5.72068310546875,-0.2368566722031682,0.1235261341646313,-0.1120616140812635,-1.7072149515151978,-0.3424151837825775,0.9447422623634338
1783201240483619800,5.730619873046875,-0.5284394985891878,-0.3329635421097278,-1.0529968950480222,-1.5263162851333618,-0.3262575268745422,0.8873565196990967
1783201240493557000,5.740556884765625,-0.7983676155932247,-0.8033135475628077,-1.9778747751832009,-1.333164930343628,-0.3190878331661224,0.8146425485610962
1783201240503494100,5.750494140625,-0.8835166728295385,-1.3563878673233092,-2.8088322626054287,-1.1297897100448608,-0.2926570177078247,0.7632097005844116
1783201240513431000,5.76043115234375,-0.7748503272097558,-1.886197192960977,-3.529174243101477,-0.9248379468917848,-0.2719036936759949,0.7060837149620056
1783201240523368200,5.7703681640625,-0.6353465063862502,-2.2020741373218597,-4.187271072086691,-0.7248454689979553,-0.213934913277626,0.6356223225593567
1783201240533304800,5.780304931640625,-0.5349116902779788,-2.20822739925459,-4.60022468123436,-0.5394533276557922,-0.1132762506604194,0.5559141635894775
1783201240543242000,5.790241943359375,-0.383212989269942,-2.0466021283201874,-4.7724324287205935,-0.3802128434181213,0.0121892606839537,0.4957669675350189
1783201240553179100,5.80017919921875,-0.11808036291413,-1.874146397422254,-4.886833883926272,-0.2583573460578918,0.1225677505135536,0.4765186011791229
1783201240563115000,5.810114990234375,0.1949162037048488,-1.7813326507769525,-4.992877845153212,-0.1583133339881897,0.2163975834846496,0.4865009188652038
1783201240573052000,5.820052001953125,0.4655842888886108,-1.6676527878440917,-5.072099265906214,-0.0637238845229148,0.3126967251300812,0.5145539045333862
1783201240582989000,5.829989013671875,0.6868291486032306,-1.5379745607905089,-5.061956057554483,0.0645342171192169,0.3914027214050293,0.554250180721283
1783201240592926000,5.839926025390625,0.8431620122179388,-1.3748117050252855,-5.010110719504953,0.2392006516456604,0.4336437582969665,0.5968573689460754
1783201240602863000,5.849863037109375,0.931602219954133,-1.1364343260608614,-4.928283500167727,0.4492692053318023,0.4604442119598388,0.6418749094009399
1783201240612800000,5.859800048828125,0.9426271795764564,-0.8509269471310078,-4.688952766001225,0.6819959878921509,0.4987430572509765,0.6813833117485046
1783201240622737000,5.86973681640625,0.9308820159208028,-0.5604778740152716,-4.233697307696938,0.8959527611732483,0.5122377872467041,0.7167237401008606
1783201240632674000,5.879674072265625,0.8977244272064417,-0.2988229337073862,-3.6716087836146354,1.0736290216445925,0.4998412430286407,0.7553250193595886
1783201240642611000,5.88961083984375,0.8777596436727791,-0.0952494493596255,-3.0247458808273078,1.2136257886886597,0.4427601099014282,0.7910457253456116
1783201240652548000,5.899548095703125,0.8068618146289139,0.1189300385460257,-2.3352467823624607,1.3206809759140017,0.3870534598827362,0.8199225664138794
1783201240662485200,5.9094853515625,0.7318993664946407,0.3100106826759874,-1.6155881079554557,1.40477454662323,0.3560217916965484,0.8423898220062256
1783201240672422000,5.919421875,0.694950787999481,0.498312802003324,-0.8434808689087628,1.450934648513794,0.3401698768138885,0.8591669201850891
1783201240682359000,5.929359130859375,0.718986255038157,0.6923994960814714,-0.0693821637839078,1.4469228982925415,0.3242284655570984,0.8657084703445435
1783201240692295200,5.939295166015625,0.7362463827230036,0.8508405840218066,0.6539221736490726,1.382244348526001,0.325746476650238,0.8799297213554382
1783201240702232000,5.949232177734375,0.7465929316271096,0.9871335530400276,1.3848697193115949,1.257776379585266,0.3556252717971802,0.8985124826431274
1783201240712169000,5.9591689453125,0.7517114436846226,1.1144222546085714,2.164493325337768,1.1014264822006226,0.3853058815002441,0.9264591932296752
1783201240722105900,5.96910595703125,0.7753707708872855,1.193197392898798,2.900205308923125,0.942672848701477,0.4018912613391876,0.9675512313842772
1783201240732043000,5.97904296875,0.7942857531070708,1.2302817996680735,3.5527468418687578,0.7992048859596252,0.3942781388759613,1.0197670459747314
1783201240741980200,5.988980224609375,0.8195673477493226,1.2224109201624989,4.132569760084152,0.6942132711410522,0.3450389504432678,1.0793131589889526
1783201240751917000,5.9989169921875,0.8626600550226867,1.152761922135949,4.6572447915732855,0.6332770586013794,0.2319210022687912,1.1364631652832031
1783201240761854000,6.00885400390625,0.8602500712715089,1.06530078856498,5.13378386092484,0.5924124717712402,0.0456310212612152,1.1797246932983398
1783201240771791000,6.018791015625,0.7725029603660106,1.069623912461102,5.563188254135847,0.5198250412940979,-0.1890855729579925,1.1642096042633057
1783201240781728000,6.02872802734375,0.6417872069582343,1.2558268675521016,5.980369710111618,0.3935004472732544,-0.4335352480411529,1.0909260511398315
1783201240791665200,6.0386650390625,0.5217800406999886,1.4244696160331367,6.264200095739961,0.2180604189634323,-0.5932604670524597,0.9832123517990112
1783201240801602000,6.04860205078125,0.3919439562035724,1.45121704544425,6.456497860574722,-0.0606657490134239,-0.6990755796432495,0.8525994420051575
1783201240811539000,6.0585390625,0.2646091870035976,1.5949743589937686,6.439391827473044,-0.4512107670307159,-0.7895814776420593,0.7292734980583191
1783201240821475000,6.06847509765625,0.313250614445284,1.816111557082832,6.002498539811373,-0.9246814250946044,-0.8876228332519531,0.6687161326408386
1783201240831412000,6.078411865234375,0.5913046086292714,1.7625944864287972,5.022652221170068,-1.4397493600845337,-0.9886913895606996,0.6963971853256226
1783201240841349000,6.08834912109375,0.8423710810359567,1.3859116295799612,3.529495730140805,-1.9445395469665527,-1.044009804725647,0.7812052965164185
1783201240851286000,6.0982861328125,0.8991716303400695,0.8907669362187385,1.749797256436944,-2.349491834640503,-0.9813689589500428,0.8691844344139099
1783201240861223000,6.108222900390625,0.6706259095601738,0.4736120759889483,-0.3342302010446786,-2.538403272628784,-0.7459729313850403,0.8937992453575134
1783201240871160000,6.11816015625,0.1996544112078845,0.1305908118538558,-2.5763188072383403,-2.4545068740844727,-0.2729226052761078,0.8418353199958801
1783201240881097000,6.128096923828125,-0.4607392965428531,-0.0986953520298004,-4.53065897757709,-2.1006524562835693,0.309219092130661,0.7463638782501221
1783201240891034000,6.1380341796875,-1.0425399445720016,-0.2544197283573448,-6.010569618064165,-1.5650979280471802,0.8211734294891357,0.6553337574005127
1783201240900971000,6.147970947265625,-1.4477993459552525,-0.3364714041002095,-6.957300433567166,-0.9712178111076356,1.084786295890808,0.5881653428077698
1783201240910908000,6.157907958984375,-1.5813960616268217,-0.3492860236182808,-7.300079267248511,-0.4284722805023193,1.0620626211166382,0.555547297000885
1783201240920845000,6.167844970703125,-1.379318368794769,-0.5058233237639069,-7.231156537669896,0.0321400910615921,0.8278637528419495,0.5731936693191528
1783201240930782000,6.177781982421875,-1.0755389086585492,-0.8242318324290215,-6.861416047304869,0.4207532703876495,0.5028793215751648,0.6092231273651123
1783201240940719000,6.187718994140625,-0.9900232831321656,-1.02797716621235,-6.390676019620895,0.7443872094154358,0.2698490023612976,0.6218896508216858
1783201240950656000,6.197656005859375,-1.1466367903191597,-0.9396431953296064,-5.729196562460064,0.9987455606460572,0.2004987895488739,0.5960044264793396
1783201240960592100,6.207592041015625,-1.4802273052208124,-0.7197685645222663,-4.936135967233777,1.1817134618759155,0.270321249961853,0.5339027047157288
1783201240970529000,6.217529052734375,-1.8280907486900688,-0.5401728987418115,-4.141306024247408,1.3049975633621216,0.4062612652778625,0.4672276377677917
1783201240980466200,6.227466064453125,-2.035304927627742,-0.4431557090573013,-3.2877871609270573,1.3625876903533936,0.5372424125671387,0.4069200754165649
1783201240990402800,6.23740283203125,-2.141561654822528,-0.307377996084839,-2.3222037609159947,1.3814703226089478,0.6273019909858704,0.3519370853900909
1783201241000339700,6.247339599609375,-2.1591016954272986,-0.0900245543181896,-1.305811380165815,1.3682152032852173,0.6680307388305664,0.2997990548610687
1783201241010276900,6.25727685546875,-2.133905002589524,0.132687638002634,-0.2749783861309289,1.3443498611450195,0.6546144485473633,0.2472280859947204
1783201241020213800,6.2672138671875,-2.130502792930603,0.3568810087919235,0.6998556573063135,1.3068201541900637,0.5858561396598816,0.1974650621414184
1783201241030151000,6.27715087890625,-2.0700617682322857,0.5531897628337145,1.6112135461330412,1.2634211778640747,0.4742387235164642,0.1548454910516739
1783201241040087800,6.287087890625,-1.950742876499146,0.7060422369867563,2.449476388132572,1.2015892267227173,0.3425536751747131,0.116075187921524
1783201241050024700,6.297024658203125,-1.7701130453653633,0.8978986877948045,3.189031603142619,1.1081663370132446,0.2224531322717666,0.0695362314581871
1783201241059961900,6.3069619140625,-1.5485662435621022,1.1539715901866554,3.910267317607999,0.9448674321174622,0.0951657518744468,0.0100175077095627
1783201241069898800,6.316898681640625,-1.3684583904758094,1.5276362682580946,4.470277281850576,0.6960497498512268,-0.0207745917141437,-0.0540192276239395
1783201241079834600,6.326834716796875,-1.148389844531566,1.960477942441404,4.887724110764265,0.373846173286438,-0.0956277996301651,-0.1056227684020996
1783201241089771800,6.336771728515625,-0.8972557137161493,2.2526503322184084,5.1990159192919725,0.0061813206411898,-0.1158662736415863,-0.1378276795148849
1783201241099708700,6.346708740234375,-0.5886698762115091,2.4315531934291124,5.329494649073482,-0.3681459426879883,-0.0821636989712715,-0.1337152272462844
1783201241109645800,6.356645751953125,-0.1703998943466693,2.4185230314642188,5.251039536517858,-0.7117297053337097,-0.0614684671163558,-0.0846350491046905
1783201241119583000,6.3665830078125,0.3156595752831548,2.222714335899055,4.837086394938826,-1.010344386100769,-0.0983923971652984,0.0116709787398576
1783201241129519600,6.37651953125,0.6888525441896169,1.9660539890080688,4.246073389667273,-1.291508674621582,-0.1882682144641876,0.1288073360919952
1783201241139456800,6.386456787109375,0.8715604967717081,1.698813503652811,3.669359543383121,-1.562132716178894,-0.3206377029418945,0.2488120347261428
1783201241149394000,6.396393798828125,0.8935214956238865,1.2961945337757468,2.9664982745200392,-1.8098098039627075,-0.474312275648117,0.3634485006332397
1783201241159330800,6.406330810546875,0.691168346851319,0.7305538701698183,2.022315974456072,-1.9785748720169067,-0.6140358448028564,0.4446930289268493
1783201241169268000,6.41626806640625,0.4374919111419469,0.0140225340031087,0.7989403009146452,-2.0155692100524902,-0.7413179278373718,0.4707155227661133
1783201241179204600,6.42620458984375,0.1887195410218089,-0.7535686889238655,-0.7988613904595374,-1.8677897453308103,-0.7827410101890564,0.427805632352829
1783201241189140700,6.436140625,-0.2329452709130942,-1.3307000299677252,-2.394996025404334,-1.579383373260498,-0.7005651593208313,0.3131571114063263
1783201241199078000,6.446077880859375,-0.7889706224989146,-1.503430486153811,-3.617150632718205,-1.2096450328826904,-0.514461100101471,0.1379253715276718
1783201241209014800,6.456014892578125,-1.361325469855964,-1.376009682638198,-4.474860517987609,-0.8519325256347656,-0.2567279636859894,-0.0280424170196056
1783201241218951700,6.46595166015625,-1.6694705047905445,-1.278804715296626,-4.878627781116962,-0.5624386668205261,-0.0268588326871395,-0.1312969028949737
1783201241228888800,6.475888916015625,-1.6052499615535138,-1.3611341850675642,-5.134736047083139,-0.3377478718757629,0.1188337057828903,-0.1533198952674865
1783201241238825700,6.48582568359375,-1.254721098267287,-1.6198273529604077,-5.297136101782321,-0.1338743567466735,0.1717485785484314,-0.1313514858484268
1783201241248763000,6.495762939453125,-0.862021757119149,-1.868873571585864,-5.317234886959195,0.0929589793086052,0.177574798464775,-0.1159228384494781
1783201241258699800,6.50569970703125,-0.6786250185552984,-1.8810627526819703,-5.166778952553868,0.3365538120269775,0.1697898507118225,-0.1333542913198471
1783201241268636700,6.51563671875,-0.7492382585041224,-1.6744393792442978,-4.778632452404499,0.5677163004875183,0.1767918169498443,-0.1721916794776916
1783201241278573800,6.52557373046875,-0.9665651045247912,-1.4431139646179971,-4.293438367432356,0.7505300045013428,0.1949180960655212,-0.2205924987792968
1783201241288510700,6.5355107421875,-1.1919905013270675,-1.3173380056999624,-3.744267777112126,0.8741394877433777,0.2482018917798996,-0.2692053020000458
1783201241298446800,6.54544677734375,-1.3809051995947956,-1.2359877562247217,-3.151315328210592,0.9478060007095336,0.2940479516983032,-0.3255921602249145
1783201241308383700,6.5553837890625,-1.5287785701610148,-1.0938413850031792,-2.5859306851923463,0.9991584420204164,0.3457202315330505,-0.3830530941486358
1783201241318320600,6.565320556640625,-1.62379990985319,-0.9196297503486276,-2.010390558862686,1.0369912385940552,0.401684433221817,-0.4440504014492035
1783201241328257800,6.5752578125,-1.7602637053936718,-0.7028728131704032,-1.3439461727708577,1.0608985424041748,0.4480167925357818,-0.5046627521514893
1783201241338195000,6.58519482421875,-1.8883683995202185,-0.4816514439292251,-0.6544336303025484,1.0626550912857056,0.4878068268299103,-0.5658043622970581
1783201241348131800,6.5951318359375,-1.97898624355644,-0.3072591920107603,0.0475900186926126,1.0391466617584229,0.4936065971851349,-0.6265451908111572
1783201241358068700,6.60506884765625,-1.96530580098927,-0.1405019650153815,0.6841869635313749,0.9933434128761292,0.4444624781608581,-0.6814315915107727
1783201241368005600,6.615005615234375,-1.8497677429690955,0.0159209149703383,1.208312544444203,0.9495128393173218,0.3412599563598633,-0.7154718041419983
1783201241377942800,6.62494287109375,-1.7012684955894946,0.1945885061204433,1.627023694205284,0.8845570087432861,0.2346786707639694,-0.7501350045204163
1783201241387879000,6.63487890625,-1.6169493133060633,0.4123150189831853,2.0696973188340664,0.7996737957000732,0.1386291533708572,-0.7865049839019775
1783201241397815800,6.64481591796875,-1.5334804642416535,0.6831772019669413,2.477053546366095,0.688506543636322,0.0760459303855896,-0.8056621551513672
1783201241407752700,6.654752685546875,-1.388032274995744,0.8983060995519161,2.873839864566922,0.5584997534751892,0.0154201872646808,-0.8090707063674927
1783201241417689900,6.66468994140625,-1.2155352622393518,1.0571475849866867,3.181062231698632,0.4109864234924316,-0.0432716235518455,-0.8069531917572021
1783201241427626800,6.674626708984375,-1.0822181672267617,1.218289164057374,3.429375313743949,0.2514770328998565,-0.1047119349241256,-0.8082965016365051
1783201241437564000,6.68456396484375,-0.9025881607852876,1.3407049988925457,3.61324368840754,0.1048402041196823,-0.1738358736038208,-0.799196183681488
1783201241447500800,6.694500732421875,-0.6703960463270544,1.3714733543828128,3.7010160798847673,-0.0399790033698082,-0.2491336166858673,-0.7729490399360657
1783201241457437700,6.704437744140625,-0.4589389691226184,1.3930679310753942,3.782819333824515,-0.1850443184375763,-0.370270162820816,-0.7423090934753418
1783201241467374800,6.714374755859375,-0.2910920106617733,1.4899398670703172,3.7325925368875263,-0.3400660157203674,-0.5022107362747192,-0.6982214450836182
1783201241477311000,6.72431103515625,-0.2126452640756964,1.5235992678269743,3.479552426320314,-0.5066941380500793,-0.5974245667457581,-0.6402840614318848
1783201241487247600,6.73424755859375,-0.2116295842271298,1.4620090730935331,3.2335090427726505,-0.678297758102417,-0.663816511631012,-0.5811920166015625
1783201241497184800,6.744184814453125,-0.2714659210305661,1.3304174136340616,2.806509372615814,-0.813319742679596,-0.6935054063796997,-0.5196058750152588
1783201241507122000,6.754121826171875,-0.3359554539347067,1.0671765193089842,2.2533955976277587,-0.8813313245773315,-0.6958268880844116,-0.4616531133651733
1783201241517058800,6.764058837890625,-0.3376608330804854,0.8121253611803054,1.7089327466070652,-0.8818886876106262,-0.6876384615898132,-0.4222234189510345
1783201241526996000,6.773995849609375,-0.3823463990358635,0.7416185772806405,1.105420909768343,-0.8559125065803528,-0.6825494170188904,-0.4035647511482239
1783201241536932600,6.7839326171875,-0.5540141578938812,0.8217401617437601,0.5324947653293609,-0.8355774283409119,-0.6752888560295105,-0.4029729962348938
1783201241546869800,6.793869873046875,-0.6671120562203228,0.7888730804085731,-0.0153647423923015,-0.8335356712341309,-0.702111005783081,-0.3958262801170349
1783201241556807000,6.803806884765625,-0.7073032698985189,0.4946363054476678,-0.8959984071314334,-0.8199445009231567,-0.7147394418716431,-0.3658491969108581
1783201241566742800,6.81374267578125,-0.7362151108019054,0.0769308255977928,-1.857111383730173,-0.7702558636665344,-0.6787011027336121,-0.3466225564479828
1783201241576679700,6.8236796875,-0.8510221511337905,-0.1963733437106013,-2.618094002172351,-0.6798668503761292,-0.6159093976020813,-0.3798955380916595
1783201241586616800,6.833616943359375,-1.2224584125660358,-0.2631087923780083,-3.3745781401515007,-0.5443711280822754,-0.5079770088195801,-0.4758861064910888
1783201241596553700,6.8435537109375,-1.675679880824685,-0.3084985245473682,-3.954444897508621,-0.3705777525901794,-0.3410541117191314,-0.6120439767837524
1783201241606491000,6.853490966796875,-2.0424939623489973,-0.3503396243244409,-4.390570707929134,-0.1562858670949936,-0.1288583725690841,-0.7548879384994507
1783201241616427800,6.863427734375,-2.2067001896873117,-0.3458922895267605,-4.682162375208735,0.0749287083745002,0.0576795525848865,-0.8729903697967529
1783201241626364700,6.87336474609375,-2.146759223465621,-0.2899633354254067,-4.7710775069803,0.3043587207794189,0.2041587680578231,-0.9400116801261902
1783201241636300800,6.88330078125,-1.9086814119696616,-0.2498416067868471,-4.650848953056335,0.5130703449249268,0.2964849770069122,-0.966618001461029
1783201241646238000,6.893238037109375,-1.578689433016628,-0.2230848250254988,-4.25741720598042,0.6789495348930359,0.3312203288078308,-0.978519320487976
1783201241656174800,6.9031748046875,-1.343956986425817,-0.1541790465816855,-3.695852413511276,0.7995550632476807,0.3204768896102905,-0.999969244003296
1783201241666111700,6.91311181640625,-1.297132106886804,-0.0736684628009796,-3.1175773092597723,0.8972465395927429,0.3044241070747375,-1.0242743492126465
1783201241676048600,6.923048583984375,-1.293840371865034,0.013102496548742,-2.48030874876976,0.965987265110016,0.3011769354343414,-1.0534511804580688
1783201241685985800,6.93298583984375,-1.2883999343767762,0.1688394400969147,-1.8532441869080063,1.0091429948806765,0.3133458793163299,-1.0824980735778809
1783201241695923000,6.9429228515625,-1.2928963690131905,0.3760965813934803,-1.225456571468711,1.0253041982650757,0.334259957075119,-1.110872745513916
1783201241705859800,6.95285986328125,-1.267894614225626,0.575498040753603,-0.5931231292933226,0.9990441203117372,0.3432563543319702,-1.12776517868042
1783201241715795700,6.962795654296875,-1.1787832292295992,0.6842910084277392,0.0144838679045438,0.9359729886054992,0.3087702691555023,-1.1364628076553345
1783201241725732900,6.97273291015625,-1.0409373316809534,0.7609662518292665,0.5579939482450484,0.8520274758338928,0.2471941858530044,-1.1260755062103271
1783201241735669800,6.982669677734375,-0.91519585955441,0.818120217680931,1.0415122089594602,0.7660771608352661,0.1546970009803772,-1.102558135986328
1783201241745607000,6.99260693359375,-0.8039967805866152,0.8969640372931956,1.4344295767724513,0.683118999004364,0.0515457578003406,-1.0763710737228394
1783201241755543800,7.002543701171875,-0.7150487694587558,1.013838896875083,1.7189508672744034,0.630149245262146,-0.0402302332222461,-1.0422093868255615
1783201241765480700,7.012480712890625,-0.6174293030321598,1.1473822749242186,1.9955027863323689,0.5917023420333862,-0.1415992677211761,-1.0091592073440552
1783201241775417900,7.02241796875,-0.5389662263657897,1.3069257711485027,2.2484359293937684,0.5551294088363647,-0.2471531331539154,-0.9696154594421388
1783201241785354000,7.03235400390625,-0.4661653401795774,1.4803098689377308,2.4153946703106164,0.5184674859046936,-0.3255533874034881,-0.9260451793670654
1783201241795290600,7.04229052734375,-0.3608624065782874,1.5697838036358356,2.6463532974511383,0.4789837300777435,-0.3883669674396515,-0.8849624395370483
1783201241805227800,7.052227783203125,-0.2525983581490814,1.600702673512697,2.86332548481524,0.4283698499202728,-0.4532491266727447,-0.8553028106689453
1783201241815165000,7.0621650390625,-0.1892380850031972,1.6141937309876084,2.9975059917241333,0.3679515123367309,-0.5251680612564087,-0.832925021648407
1783201241825101800,7.072101806640625,-0.1128915438330732,1.608589919631183,3.1227871528625486,0.2988728582859039,-0.6307743191719055,-0.808291494846344
1783201241835039000,7.0820390625,-0.002959726588428,1.658704780626297,3.1980992912173267,0.2100220918655395,-0.7394618988037109,-0.7712019681930542
1783201241844975600,7.0919755859375,0.0928961642317473,1.70863434818238,3.2388474811911583,0.073723554611206,-0.8543229699134827,-0.7215757369995117
1783201241854911700,7.101911865234375,0.1958394194969907,1.707927661217749,3.282551598361134,-0.1336397528648376,-0.967785894870758,-0.653110921382904
1783201241864849000,7.111848876953125,0.2635641349300742,1.6122113249987362,3.1437498613923784,-0.3748468458652496,-1.0445427894592283,-0.5675618052482605
1783201241874785800,7.121785888671875,0.2820025856792926,1.3385133340671658,2.715443200290203,-0.60781329870224,-1.0965535640716553,-0.4823864698410034
1783201241884722700,7.13172265625,0.2733598450183868,1.0879603641405702,2.0662422099441287,-0.7719951868057251,-1.0931941270828247,-0.4341476261615753
1783201241894659800,7.141659912109375,0.2183363153241574,1.0091057308733462,1.1651169613182544,-0.8553078770637512,-1.028902530670166,-0.4193545579910278
1783201241904596700,7.1515966796875,0.0267794319845736,0.9967901469185948,0.2387929740279912,-0.8570326566696167,-0.9341282844543456,-0.4377391040325165
1783201241914532900,7.161532958984375,-0.0832817289944738,0.9109624597683548,-0.668520607843995,-0.8032453656196594,-0.8275131583213806,-0.4620492458343506
1783201241924469800,7.1714697265625,-0.1431024298373609,0.7512287016689777,-1.5474205806583166,-0.705498456954956,-0.7162066102027893,-0.4869972169399261
1783201241934406700,7.18140673828125,-0.2637159644909203,0.555035098439455,-2.3524369866162536,-0.589834988117218,-0.5967241525650024,-0.5154334306716919
1783201241944343800,7.19134375,-0.4092519781507551,0.4086261013373732,-2.969057895874977,-0.4694473445415497,-0.4839398562908172,-0.5544159412384033
1783201241954281000,7.201281005859375,-0.5575185858182609,0.295784442794323,-3.408546460726857,-0.3571700751781463,-0.3886812627315521,-0.6040703058242798
1783201241964217900,7.2112177734375,-0.7184820318430661,0.1504912979796528,-3.7912878869622944,-0.2417848259210586,-0.2925105690956116,-0.6610689759254456
1783201241974154800,7.22115478515625,-0.8450452686812728,-0.0334919352352619,-4.043738214942812,-0.1184248179197311,-0.176882266998291,-0.7145021557807922
1783201241984091000,7.2310908203125,-0.891414148081094,-0.1873395579054951,-4.159920708346367,0.01181520242244,-0.0551436506211757,-0.760867178440094
1783201241994027800,7.24102783203125,-0.8515204560447484,-0.2653133166849613,-4.138872659620643,0.1450651437044143,0.0497880913317203,-0.7903933525085449
1783201242003964700,7.250964599609375,-0.7766882101614028,-0.2875339163213968,-3.992251773333549,0.2736871540546417,0.1367183625698089,-0.8105785846710205
1783201242013901800,7.26090185546875,-0.7656886041760445,-0.2974894931465387,-3.707329500815272,0.3868560492992401,0.2043027430772781,-0.8205188512802124
1783201242023838700,7.270838623046875,-0.8009381967335939,-0.2504828272998333,-3.2980010964274404,0.4789608120918274,0.2406327128410339,-0.8329086303710938
1783201242033774600,7.280774658203125,-0.8546364691734314,-0.1935951111689209,-2.8616344629883765,0.5711402297019958,0.2495953142642974,-0.8396954536437988
1783201242043711700,7.290711669921875,-0.9067421386595816,-0.1586816186979412,-2.483375150603056,0.6757529377937317,0.2554919421672821,-0.850045919418335
1783201242053648600,7.300648681640625,-0.989818189014122,-0.1610141532987356,-2.086311769026518,0.7871835827827454,0.2687496840953827,-0.8723523020744324
1783201242063585800,7.310585693359375,-1.039068761330098,-0.0761231624767184,-1.5494272443056103,0.8932738900184631,0.2426946014165878,-0.9124763011932372
1783201242073522700,7.320522705078125,-1.0595222051635385,0.1460156138703227,-1.048172835892439,0.97650408744812,0.1832112967967987,-0.9513749480247498
1783201242083459600,7.33045947265625,-1.036518053933978,0.4195379559740423,-0.5203659361183643,1.0379382371902466,0.1463378220796585,-0.9862223863601683
1783201242093395700,7.340395751953125,-0.9608047874324024,0.7112804299011826,0.1307528705477714,1.047615885734558,0.1199866458773613,-1.0143791437149048
1783201242103332900,7.350332763671875,-0.864282833918929,1.059771211488545,0.8221738769859075,0.9998517036437988,0.103136159479618,-1.0317071676254272
1783201242113269500,7.36026953125,-0.7079588111978024,1.42387603405416,1.5449796172469854,0.8951391577720642,0.0727329850196838,-1.0282032489776611
1783201242123206700,7.37020654296875,-0.4718527381662279,1.7409075552776454,2.1875351782292127,0.7564471364021301,0.02138002961874,-0.9864951968193054
1783201242133143600,7.3801435546875,-0.2097496887646615,1.98223998465538,2.729570509842038,0.5932164192199707,-0.0474230051040649,-0.9294540286064148
1783201242143080700,7.390080810546875,0.0843351835701614,2.1503411736056206,3.2286762157887217,0.4353832006454468,-0.1436969488859176,-0.8669847249984741
1783201242153016600,7.4000166015625,0.4245422670673578,2.2772166181981564,3.5629473333656785,0.303108811378479,-0.2800409197807312,-0.807513415813446
1783201242162953700,7.40995361328125,0.7099011043719947,2.3752590592771767,3.7326854758679855,0.1905597597360611,-0.4449287950992584,-0.7445131540298462
1783201242172890600,7.419890625,0.9201121270380914,2.510532914380729,3.887294438299537,0.0924217402935028,-0.6245752573013306,-0.6709795594215393
1783201242182827800,7.429827880859375,1.1019973650604489,2.6892379149317738,3.940791635209322,-0.0154264643788337,-0.7751643061637878,-0.571353018283844
1783201242192764700,7.4397646484375,1.2313782166026532,2.7157524123698478,3.947261708006263,-0.154747873544693,-0.9291570782661438,-0.4506875872611999
1783201242202700500,7.449700439453125,1.3076774662986397,2.5596432745084163,3.751711078855395,-0.3197220861911773,-1.0913333892822266,-0.3111152946949005
1783201242212637700,7.4596376953125,1.0970052558615804,2.2789614160388707,3.1960861978292465,-0.4733462631702423,-1.1883575916290283,-0.1952315717935562
1783201242222574600,7.46957470703125,0.747796389132738,1.9335589558556676,2.550975691667199,-0.5763291716575623,-1.2016377449035645,-0.1187128573656082
1783201242232511700,7.47951171875,0.4303130324885248,1.660631364774704,1.876921415093541,-0.6220383048057556,-1.1730507612228394,-0.0945238918066024
1783201242242448600,7.48944873046875,0.1668026005070656,1.4617232418894768,1.1633727479994296,-0.6154276728630066,-1.129980206489563,-0.1034078299999237
1783201242252385500,7.499385498046875,0.0113191202633082,1.2848112622350454,0.4425000216275453,-0.5756307244300842,-1.0822632312774658,-0.1145776584744453
1783201242262321700,7.50932177734375,-0.0472835100267082,1.0361533122748137,-0.3737421272218227,-0.5272782444953918,-1.0492743253707886,-0.106080338358879
1783201242272258800,7.5192587890625,-0.1465430718105286,0.7292115156501531,-1.131482402741909,-0.4772675037384033,-1.0219372510910034,-0.0888496860861778
1783201242282195500,7.529195556640625,-0.34561347258538,0.3849944658592343,-1.88490598410666,-0.4234964847564697,-0.9659708738327026,-0.0861014202237129
1783201242292132600,7.539132568359375,-0.6473606231763959,0.0179696641936898,-2.5551474243938923,-0.3605737090110779,-0.8465172052383423,-0.1150446534156799
1783201242302069800,7.54906982421875,-1.054590301719308,-0.2555316351220011,-3.0517648206561803,-0.2940032184123993,-0.6820615530014038,-0.1990396976470947
1783201242312005600,7.559005615234375,-1.4660774915762245,-0.3939963952213525,-3.382050083467364,-0.2122899740934372,-0.4849958717823028,-0.3057951629161834
1783201242321942500,7.568942626953125,-1.721447360265255,-0.4583557624071836,-3.572784252247214,-0.1041612550616264,-0.3016355633735657,-0.4280276000499725
1783201242331879700,7.578879638671875,-1.7419776687271893,-0.5201818117231131,-3.696957744404673,0.0281057022511959,-0.164873719215393,-0.5325356125831604
1783201242341816600,7.588816650390625,-1.5877790406621992,-0.6141451667949557,-3.7621190756231546,0.1875130385160446,-0.0925175473093986,-0.6207088828086853
1783201242351753700,7.598753662109375,-1.3366827576391398,-0.6654582976639271,-3.8516280816346407,0.3514052927494049,-0.0391225032508373,-0.6910887956619263
1783201242361689600,7.608689697265625,-1.1285139083251357,-0.5929138704568148,-3.71430869217813,0.4813409149646759,0.0172813013195991,-0.7525478005409241
1783201242371626500,7.61862646484375,-0.9435786350823938,-0.3739826579794287,-3.4165742843598124,0.5413028001785278,0.0882822424173355,-0.8025678396224976
1783201242381563600,7.628563720703125,-0.8147348130263388,-0.0831888630792498,-3.0203871010959147,0.548004686832428,0.1921666115522384,-0.826565682888031
1783201242391500800,7.638500732421875,-0.7264896894708275,0.0926499343857169,-2.571332250997424,0.5298917293548584,0.2947459816932678,-0.833581268787384
1783201242401437700,7.648437744140625,-0.6300707579404116,0.1904547673165798,-2.180969828364253,0.529129683971405,0.3719558715820312,-0.8415350914001465
1783201242411373600,7.65837353515625,-0.5257089776467532,0.3561275600761175,-1.83026078620553,0.5639286637306213,0.4137006402015686,-0.857035219669342
1783201242421310700,7.668310791015625,-0.4117869765210896,0.611201514558494,-1.4806068060576916,0.6429590582847595,0.4114639461040497,-0.8694007992744446
1783201242431247600,7.67824755859375,-0.2670318841058761,0.9371893724367022,-1.0894850894898176,0.7549465894699097,0.3893471956253052,-0.8744820952415466
1783201242441184800,7.688184814453125,-0.0533223517995327,1.2780056738734245,-0.5848036292374134,0.8525761961936951,0.3444597721099853,-0.876322865486145
1783201242451121700,7.69812158203125,0.1706486814759671,1.6572475675553082,0.0665121613055467,0.8803761601448059,0.2676344811916351,-0.8803309202194214
1783201242461057500,7.7080576171875,0.3925559871546923,2.0591072434976696,0.7509984000444412,0.8044485449790955,0.1402944475412368,-0.8706383109092712
1783201242470994700,7.71799462890625,0.604150500068441,2.354323823276162,1.2710831811338663,0.6390611529350281,-0.0040398281998932,-0.8330896496772766
1783201242480931800,7.727931884765625,0.8136180839560926,2.4041759416818618,1.6023264753222464,0.427716463804245,-0.1255745440721511,-0.7491127252578735
1783201242490868500,7.737868408203125,1.0243924395933746,2.3038801687180994,1.7052818228840827,0.2159584015607834,-0.241248145699501,-0.6526274681091309
1783201242500805600,7.7478056640625,1.1632407191175966,2.222551546552777,1.482380245471001,0.058634415268898,-0.3034146130084991,-0.564083456993103
1783201242510741800,7.75774169921875,1.3421183728218078,2.2192744245782494,1.0850690266132357,-0.0523171387612819,-0.2764048278331756,-0.4910382628440857
1783201242520678700,7.7676787109375,1.505701499825716,2.2962340378791093,0.8220271619915962,-0.1349791139364242,-0.2241108864545822,-0.4282801449298858
1783201242530615600,7.777615478515625,1.5657286830261348,2.394473462834954,0.5945464400947094,-0.1965058594942093,-0.1724695414304733,-0.3579002618789673
1783201242540552700,7.787552734375,1.552908364419639,2.331309735174477,0.2862099742412567,-0.2262657880783081,-0.1263672411441803,-0.2756755352020263
1783201242550489600,7.797489501953125,1.4429101126089692,2.1786840555146334,-0.0229354699075222,-0.2284540981054306,-0.0832325518131256,-0.201537400484085
1783201242560425700,7.80742578125,1.3758062690205872,2.035272778923809,-0.2065606834650039,-0.191398024559021,-0.086171768605709,-0.1529296487569809
1783201242570362600,7.817362548828125,1.324325818760693,1.938304104556143,-0.399704251474142,-0.1249745339155197,-0.1305746436119079,-0.1125566586852073
1783201242580299500,7.827299560546875,1.2764543527781962,1.8728607415258884,-0.556435612887144,-0.0429920777678489,-0.2074765115976333,-0.072917953133583
1783201242590236700,7.837236572265625,1.2340681863389908,1.834017800651491,-0.6587713672459126,0.0187887288630008,-0.2748669981956482,-0.0425946675240993
1783201242600173800,7.847173828125,1.19166901428774,1.863525634686649,-0.6357640011459589,0.0394902043044567,-0.3551521003246307,-0.0172140169888734
1783201242610109400,7.857109375,1.215910233031586,1.7811211999833585,-0.6148936470746994,0.0170219149440526,-0.4400292038917541,0.022095039486885
1783201242620046600,7.867046630859375,1.3156613046593963,1.5136846075341104,-0.7562795553177595,-0.035786647349596,-0.4801490008831024,0.0638271644711494
1783201242629983700,7.876983642578125,1.3758213204592469,1.1537512254342437,-0.8748767086476087,-0.0962832868099212,-0.4706628322601318,0.0915341600775718
