time,seconds_elapsed,ax,ay,az,gx,gy,gz
1783201510406910700,0.10691064453125,0.4711626370102167,-0.4625894544541835,0.5892097552418708,0.1473136842250824,0.4949382543563843,0.2629180252552032
1783201510416847600,0.11684765625,0.4044534918278455,-0.5319137505710124,0.4647825805842876,0.1504994630813598,0.5076154470443726,0.2532538175582886
1783201510426785800,0.126785888671875,0.3685620942354202,-0.5022469265818595,0.2316618069738149,0.1685042977333068,0.4802637100219726,0.2202692329883575
1783201510436722700,0.13672265625,0.3603198971994221,-0.364733475857973,0.044521278771758,0.1882720440626144,0.4326887428760528,0.1846309453248977
1783201510446659800,0.146659912109375,0.3993725353017449,-0.2917383822739124,0.0197626850903034,0.2182584404945373,0.3943844735622406,0.1633496135473251
1783201510456596700,0.1565966796875,0.498881541801989,-0.3274433173835277,0.1114940433263778,0.2581304311752319,0.385890394449234,0.1767950505018234
1783201510466533600,0.16653369140625,0.6538546613708138,-0.4469301130294799,0.2385679331004619,0.2936806976795196,0.4007460474967956,0.216928094625473
1783201510476470800,0.176470703125,0.7725890312142669,-0.5290986931502819,0.4200134645313024,0.3092812895774841,0.4267151355743408,0.2602818608283996
1783201510486407700,0.18640771484375,0.8326289277657866,-0.5173626626491546,0.6050286711424588,0.3148598372936249,0.4684756398200989,0.3037323951721191
1783201510496344800,0.1963447265625,0.7949480164080858,-0.4311784171462058,0.783871326598525,0.3017290830612182,0.5251177549362183,0.3320614695549011
1783201510506282800,0.20628271484375,0.7022438676171004,-0.2994710223525762,0.9412024074703454,0.2493505477905273,0.6087567210197449,0.3498561680316925
1783201510516219600,0.2162197265625,0.5909174359425902,-0.159763860976696,1.1212030007898808,0.1478526294231414,0.7138829827308655,0.3567286133766174
1783201510526156500,0.226156494140625,0.4862652213349938,-0.0483960743784904,1.2642694094657898,0.0023899720981717,0.7960587739944458,0.3522076308727264
1783201510536093700,0.23609375,0.3171136465489864,-0.0252770645976066,1.2375310401439663,-0.1735202372074127,0.8381673097610474,0.3397458493709564
1783201510546030800,0.24603076171875,0.2130596900954842,-0.0551040475845336,1.0334428842723369,-0.3536593914031982,0.8206191658973694,0.3381905555725097
1783201510555967500,0.255967529296875,0.1836129385977983,-0.0959270563602447,0.7299205407023429,-0.5204823017120361,0.7616463303565979,0.3452170491218567
1783201510565904600,0.265904541015625,0.1643427131995558,-0.1108843869954347,0.3888713072925805,-0.6613512635231018,0.6713992357254028,0.3518507182598114
1783201510575841800,0.275841796875,0.1993259099058806,-0.0833095668494701,0.0899620104759931,-0.7555983662605286,0.5618361830711365,0.3689381182193756
1783201510585779700,0.28577978515625,0.3237089531607925,-0.1423439396202564,-0.199978966987133,-0.7924879789352417,0.4324033856391907,0.4172182977199554
1783201510595716600,0.295716552734375,0.5070994811795652,-0.226118785893917,-0.4217997634261846,-0.8002419471740723,0.3301514983177185,0.4791024625301361
1783201510605653800,0.30565380859375,0.6216881295204162,-0.2705874576956033,-0.5084083718210458,-0.7826732993125916,0.2805298864841461,0.5342378616333008
1783201510615590700,0.315590576171875,0.6156631701424717,-0.3170189540028572,-0.517902760875225,-0.761831521987915,0.2694400548934936,0.5625613331794739
1783201510625527600,0.325527587890625,0.5606393481872975,-0.2902946132063865,-0.4547697206139564,-0.7336075901985168,0.3145878314971924,0.5793938040733337
1783201510635464700,0.335464599609375,0.4735913254618644,-0.2512508890628814,-0.4296662590175867,-0.6832322478294373,0.3713578581809997,0.575249969959259
1783201510645401600,0.345401611328125,0.3820997673310339,-0.2924316252350807,-0.5995370879888534,-0.6059041619300842,0.4033083319664001,0.556491494178772
1783201510655338800,0.3553388671875,0.3175966077603399,-0.3078548198163509,-0.8701946883112192,-0.5068798065185547,0.4136323034763336,0.5407590866088867
1783201510665275600,0.365275634765625,0.3242613263465464,-0.2879799065232277,-1.0819862581670283,-0.3980619609355926,0.404339998960495,0.536994993686676
1783201510675213600,0.375213623046875,0.3637704760447144,-0.3040565965771675,-1.1865583932757378,-0.2990179359912872,0.3686868250370025,0.5514985918998718
1783201510685150700,0.385150634765625,0.4175878448195755,-0.3484691542774438,-1.1837567798584698,-0.2258031219244003,0.3267673254013061,0.5598307847976685
1783201510695087600,0.395087646484375,0.4768640635222196,-0.3345703927844762,-1.0606892031162976,-0.1687047481536865,0.2777833044528961,0.5743704438209534
1783201510705024800,0.405024658203125,0.5603332048475742,-0.3268196325272322,-0.8905050704121589,-0.1187374517321586,0.2232897132635116,0.57508784532547
1783201510714961700,0.414961669921875,0.6239123814411461,-0.3209627231925726,-0.7662924152880907,-0.0601433925330638,0.188156709074974,0.5996441841125488
1783201510724898600,0.424898681640625,0.6497163925223052,-0.3442991751164198,-0.625183570420742,0.0095797618851065,0.1670990884304046,0.6241111755371094
1783201510734835700,0.434835693359375,0.6431476816564798,-0.3238163590580225,-0.4143675675988197,0.0799594894051551,0.1870769560337066,0.6293421387672424
1783201510744772600,0.444772705078125,0.512526036272943,-0.2239724215149879,-0.1646960566818714,0.1439003944396972,0.2477656006813049,0.6176213026046753
1783201510754710800,0.454710693359375,0.367484528131783,-0.130623106688261,0.1081996779561042,0.2093194872140884,0.3274068534374237,0.5975342988967896
1783201510764647700,0.464647705078125,0.288419466984272,-0.1074947445571422,0.3258049025267362,0.2623060047626495,0.4089331328868866,0.5790151953697205
1783201510774584800,0.474584716796875,0.3018994185432792,-0.1961824973136186,0.4399526752322912,0.3118780255317688,0.4673269689083099,0.5824695825576782
1783201510784521500,0.484521484375,0.4625364090926945,-0.2952431755244731,0.4722732286006212,0.3399658501148224,0.4885350465774536,0.5927107930183411
1783201510794458600,0.494458740234375,0.6485419419154524,-0.2833972549080849,0.5429752428114414,0.3476414084434509,0.482531875371933,0.6087414622306824
1783201510804395800,0.504395751953125,0.7410942611455917,-0.2532411860972642,0.625144407454133,0.3260343670845032,0.431908905506134,0.6169836521148682
1783201510814332700,0.514332763671875,0.8127811947405338,-0.2018769095629453,0.7076303829610348,0.2789375185966491,0.3507265746593475,0.6120262742042542
1783201510824269800,0.524269775390625,0.8243285708017647,-0.161837744641304,0.8190402551352978,0.2104162573814392,0.264913946390152,0.5964840650558472
1783201510834207700,0.534207763671875,0.7577638025261462,-0.1371545542836189,0.9697112935960291,0.1466753631830215,0.2184484153985977,0.5808422565460205
1783201510844144600,0.54414453125,0.7356286892160773,-0.1118453409820795,1.0975924080997703,0.1121373549103736,0.2179197818040847,0.5890218615531921
1783201510854081500,0.55408154296875,0.772022044981271,-0.1611585302054882,1.1451146222531794,0.1315763145685196,0.2499767839908599,0.6162385940551758
1783201510864018700,0.564018798828125,0.822943107792735,-0.1729062511444091,1.1086772812157868,0.1827084571123123,0.3199827969074249,0.6292492151260376
1783201510873955800,0.573955810546875,0.8073341813810169,-0.0931166751146316,1.1019055951237675,0.2385789304971695,0.4031840562820434,0.621033251285553
1783201510883892700,0.583892822265625,0.763916772197932,-0.0667278498828411,1.0342051008164883,0.2645977437496185,0.4821741878986358,0.6175762414932251
1783201510893829600,0.59382958984375,0.8058736073091626,-0.0829804810255765,0.9405594333916902,0.252928227186203,0.572889506816864,0.6317623853683472
1783201510903766500,0.6037666015625,0.8730044850349425,-0.0910147343993186,0.8563806824922561,0.1846812665462494,0.6578283309936523,0.6706405878067017
1783201510913704700,0.61370458984375,1.0227845660053192,-0.0531318707287311,0.7392115161389112,0.0872392207384109,0.7217116951942444,0.7399012446403503
1783201510923641600,0.6236416015625,1.0895489485062655,-0.069631754630804,0.5885270336747169,-0.0124612729996442,0.7654064297676086,0.8158865571022034
1783201510933578800,0.633578857421875,1.0071483131952583,-0.1198006839007139,0.2916010196298361,-0.1235398203134536,0.7635369896888733,0.8821547627449036
1783201510943516000,0.643515869140625,0.8614679226286709,-0.1770358982950449,-0.061278352305293,-0.2425087988376617,0.7030690908432007,0.9238108396530152
1783201510953452500,0.65345263671875,0.7007990756362676,-0.1971773535698652,-0.404260599604249,-0.3598930239677429,0.588786780834198,0.9585050940513612
1783201510963389700,0.6633896484375,0.6300542451970279,-0.1650309877246618,-0.7494833193063736,-0.4546482861042022,0.4473841488361358,0.9916934370994568
1783201510973326600,0.67332666015625,0.6073560911767184,-0.0748410137116909,-0.9923802215218545,-0.515158474445343,0.3260781466960907,1.021475315093994
1783201510983263700,0.683263671875,0.592016337095201,0.0279711259871721,-1.0673843168407675,-0.5370294451713562,0.2380497455596923,1.0382672548294067
1783201510993201700,0.69320166015625,0.5184709161520004,0.145326754823327,-1.1230641184866428,-0.5244195461273193,0.1591745764017105,1.0467346906661987
1783201511003138800,0.703138916015625,0.431849082949385,0.22102175501585,-1.2007383097976445,-0.4786552786827087,0.0955577865242958,1.0477594137191772
1783201511013075700,0.71307568359375,0.3605212649904191,0.2947042463421821,-1.2426970446050167,-0.3961699604988098,0.0498430207371711,1.0417392253875732
1783201511023012600,0.7230126953125,0.2918168543376028,0.3968927011847495,-1.2815811942726374,-0.2839065492153168,0.0055679697543382,1.0536723136901855
1783201511032949800,0.73294970703125,0.2826937097486108,0.391524452149868,-1.4316414073586463,-0.1592649668455124,-0.0826867073774337,1.0835851430892944
1783201511042886700,0.74288671875,0.4205035130705684,0.4216635698258876,-1.5125819069892168,-0.0536197684705257,-0.2078960239887237,1.1095647811889648
1783201511052823800,0.75282373046875,0.4800046996355056,0.4959884507089853,-1.496273746266961,0.015516860410571,-0.3276459872722626,1.1221998929977417
1783201511062761700,0.76276171875,0.5052335411772132,0.5839443820595741,-1.254611938804388,0.0595450364053249,-0.404195636510849,1.126494288444519
1783201511072698600,0.77269873046875,0.3774254919096827,0.6331728156089782,-0.9380629404008388,0.0983374640345573,-0.4874067306518554,1.1411670446395874
1783201511082635500,0.782635498046875,0.2240828961521387,0.7208376550585031,-0.1578939754515886,0.0617581456899642,-0.2096121460199356,1.1076390743255615
1783201511092572700,0.79257275390625,-0.2194359836617484,0.7816092268854379,0.6139677644014359,0.0205283761024475,0.0084095895290374,1.0441110134124756
1783201511102509800,0.802509765625,-0.59126877013091,0.7621230206489562,0.7371493229120969,-0.0282348990440368,0.1747016310691833,0.9561795592308044
1783201511112446700,0.81244677734375,-0.5671189194649457,0.8578454943478107,0.8026549375236034,-0.0950071662664413,0.3172031939029693,0.8774464130401611
1783201511122383600,0.822383544921875,-0.4847498483359813,0.9391174178898334,0.7615320690184831,-0.1523407548666,0.3744803071022033,0.8298890590667725
1783201511132321500,0.832321533203125,-0.3051587126001715,0.8261831126272677,0.5573135647654534,-0.210594356060028,0.375977873802185,0.8110277652740479
1783201511142258700,0.8422587890625,-0.1142088552430272,0.6154372524321079,0.2464741761803627,-0.2550137639045715,0.3576084673404693,0.8083140254020691
1783201511152195600,0.852195556640625,-0.0237877028226852,0.4730681783705949,0.1155325050622224,-0.2826036512851715,0.3052380383014679,0.8172110319137573
1783201511162132700,0.8621328125,0.1043280972197651,0.4196183277338743,-0.0080664020776748,-0.2881512939929962,0.2516469955444336,0.8097363710403442
1783201511172070000,0.87206982421875,0.2143950303524732,0.5115905089884996,-0.0978308441549539,-0.2700949907302856,0.2044834941625595,0.7837046384811401
1783201511182006500,0.882006591796875,0.1756073085303418,0.7650608276665211,-0.0098643914103507,-0.2380667477846145,0.1616436094045639,0.7473679184913635
1783201511191943700,0.891943603515625,0.0877098385018762,0.7774848404318094,0.1949912417024374,-0.2100645899772644,0.2176295518875122,0.7275225520133972
1783201511201880600,0.901880615234375,-0.0227598210796713,0.4939566526204347,0.4453454741865396,-0.1934930682182312,0.3597115874290466,0.7124538421630859
1783201511211818800,0.91181884765625,-0.1415036894038319,0.3346984030783176,0.5934697507739066,-0.1750346422195434,0.5132337808609009,0.6969464421272278
1783201511221755600,0.921755615234375,-0.1689548831701278,0.3347913420587778,0.5012433024972677,-0.1369610130786895,0.6315396428108215,0.691927433013916
1783201511231692800,0.93169287109375,-0.1128460424572229,0.3499462410926818,0.1549210971206426,-0.0727622136473655,0.6711300015449524,0.7055385708808899
1783201511241629700,0.941629638671875,-0.0300000105994287,0.2868757446736097,-0.378230670812726,-7.54883512854e-05,0.6440552473068237,0.6972571611404419
1783201511251566600,0.951566650390625,0.0097828506067395,0.2936883472979069,-0.8024006705015897,0.0565491691231727,0.5712077021598816,0.6703415513038635
1783201511261503700,0.961503662109375,-0.0012117138773202,0.2700239785939455,-1.021640802797675,0.0898477360606193,0.5012096762657166,0.6401583552360535
1783201511271441200,0.971441162109375,-0.0151873399987816,0.1770645398676395,-1.0298533353477717,0.1127912104129791,0.4548011422157287,0.6067236661911011
1783201511281379300,0.98137939453125,-0.0141162127690855,0.0831032306224107,-0.9332920727372168,0.1328986138105392,0.447681725025177,0.5805032849311829
1783201511291316200,0.991316162109375,-0.0004804769933223,0.000734744015336,-0.8176736429572105,0.1456455141305923,0.4708516597747803,0.5740432143211365
1783201511301253400,1.00125341796875,0.1041515716090798,-0.0245838216364383,-0.6931728185415268,0.1596651971340179,0.5070538520812988,0.5916666388511658
1783201511311190300,1.011190185546875,0.2571273798808455,-0.0261766437858343,-0.6606880145221948,0.172454297542572,0.5448566675186157,0.6097757816314697
1783201511321127400,1.02112744140625,0.3009440175145864,-0.0375204600989818,-0.6750473792642354,0.1928666234016418,0.6036890745162964,0.6191564798355103
1783201511331064300,1.031064208984375,0.3129445441707968,-0.0383756156235933,-0.6769535051465034,0.2301671206951141,0.6659386157989502,0.6382479071617126
1783201511341001200,1.041001220703125,0.3061561992049217,-0.0219698397457599,-0.7175222469002008,0.2762816548347473,0.7196686863899231,0.6506060361862183
1783201511350939400,1.050939453125,0.2637555658489465,0.0290618438333272,-0.7965928610056638,0.3246707022190094,0.784705638885498,0.6639187335968018
1783201511360876300,1.060876220703125,0.2233031439512968,0.0917810425966978,-0.8394143501222133,0.3671600818634033,0.8554264307022095,0.6813134551048279
1783201511370813400,1.0708134765625,0.2252735672414302,0.1307534550696611,-0.8645692496448755,0.4030099809169769,0.9079254865646362,0.6950181126594543
1783201511380750300,1.080750244140625,0.260531927627325,0.1321498778641223,-1.006463691931963,0.4337639212608337,0.9172399044036864,0.68562912940979
1783201511390687200,1.090687255859375,0.2576423253993503,0.1297737963825464,-1.1773059962838888,0.4672984778881073,0.8907909989356995,0.6592053174972534
1783201511400624400,1.100624267578125,0.2167176280811429,0.1103296757221221,-1.3057383149296045,0.502256453037262,0.8385322690010071,0.6312443017959595
1783201511410561300,1.110561279296875,0.1993014878506772,0.0842792886644601,-1.362245215049386,0.5451174378395081,0.779030442237854,0.6165270805358887
1783201511420499200,1.120499267578125,0.2419277466560714,0.0770575207173824,-1.32767951310277,0.591075599193573,0.7350491285324097,0.6243022084236145
1783201511430436400,1.130436279296875,0.3089648268848657,0.0856137521386146,-1.1980348960578442,0.6359493732452393,0.7001245021820068,0.6344260573387146
1783201511440373500,1.14037353515625,0.3221697608947754,0.13483984760046,-0.9902759427189828,0.6629634499549866,0.6832549571990967,0.6438014507293701
1783201511450310100,1.15031005859375,0.2935878095328808,0.2309627187937498,-0.6903133374571799,0.6679258346557617,0.6710947751998901,0.6464794874191284
1783201511460247300,1.160247314453125,0.2692354585647583,0.3385889807760715,-0.364897726508975,0.654830813407898,0.6658459901809692,0.6612634658813477
1783201511470184400,1.170184326171875,0.2780751831024885,0.3771083887845277,-0.0591126987040042,0.6159712076187134,0.6949257850646973,0.6899332404136658
1783201511480121300,1.180121337890625,0.3059218059271574,0.4173141424447298,0.3653425476670265,0.5494406223297119,0.7262664437294006,0.7224217057228088
1783201511490059300,1.190059326171875,0.2868386275336146,0.4769476501524448,0.7788064444243907,0.4589183926582336,0.7553887367248535,0.7401875257492065
1783201511499996400,1.199996337890625,0.1792261018157005,0.5739455506145954,1.06892803915143,0.3621180653572082,0.7894010543823242,0.751137375831604
1783201511509933300,1.209933349609375,0.0593999729464761,0.630211627715826,1.2421329809814692,0.2663743793964386,0.8148247599601746,0.7506808638572693
1783201511519870200,1.2198701171875,-0.0737023833368904,0.6639858870238066,1.3353764973461628,0.1820414066314697,0.8354251384735107,0.7578279972076416
1783201511529807400,1.229807373046875,-0.1597536318436264,0.7201783143669367,1.3719067773640157,0.1079785525798797,0.8551905751228333,0.7615883946418762
1783201511539744300,1.239744140625,-0.2443799986463971,0.8417080140173435,1.4077058204978703,0.0392964296042919,0.8805758357048035,0.753984272480011
1783201511549681400,1.249681396484375,-0.3564863103859126,0.9871592720031738,1.4715800345152616,-0.0209692940115928,0.9153707027435304,0.7405257225036621
1783201511559619300,1.259619384765625,-0.4801477613680064,1.1111141529738902,1.5590671793103217,-0.0738450214266777,0.9421892762184144,0.7277843952178955
1783201511569556200,1.26955615234375,-0.5775697324611246,1.2292284912228584,1.5985633233964442,-0.1300002783536911,0.9535348415374756,0.7101008892059326
1783201511579493400,1.279493408203125,-0.5954315523661673,1.3204852176845072,1.586607512664795,-0.1777385026216507,0.941943109035492,0.7194080948829651
1783201511589430300,1.28943017578125,-0.4858291680052876,1.3427291981965304,1.5140028797030447,-0.2364475727081298,0.9169758558273317,0.7508842349052429
1783201511599367400,1.299367431640625,-0.4099067887976765,1.3760814327001571,1.5164794989496468,-0.3190290331840515,0.8885356783866882,0.7730454802513123
1783201511609304300,1.30930419921875,-0.4555975862728431,1.4519740012913942,1.5248469298005105,-0.4102525413036346,0.8460198640823364,0.7742372751235962
1783201511619241200,1.3192412109375,-0.6017040932970121,1.5714116970986127,1.5359744730144738,-0.5332418084144592,0.8203510046005249,0.7469204664230347
1783201511629179100,1.32917919921875,-0.775169256965816,1.7157430111438037,1.6193647038847208,-0.6730931997299194,0.8185798525810242,0.7135593295097351
1783201511639116300,1.3391162109375,-0.8919074845559894,1.81446408213675,1.7909136952012776,-0.8249386548995972,0.855135440826416,0.6787760257720947
1783201511649053400,1.349053466796875,-0.9150332163386048,1.8488684560418127,1.9412334360063077,-0.9915892481803894,0.9236320853233336,0.64675372838974
1783201511658990300,1.358990234375,-0.8881843723796308,1.8941583810985088,1.9171546412825584,-1.1663366556167605,1.0067381858825684,0.6120330691337585
1783201511668927500,1.368927490234375,-0.8567259887985884,1.913005704909563,1.733015632984042,-1.3565789461135864,1.0642716884613037,0.5630817413330078
1783201511678864100,1.378864013671875,-0.8905430643349885,1.8825696501135825,1.339367612808943,-1.5479627847671509,1.0961138010025024,0.4958366155624389
1783201511688802300,1.38880224609375,-0.9124941993802784,1.8200813374966385,0.804915868192911,-1.7117148637771606,1.1285306215286257,0.4182269871234894
1783201511698739200,1.3987392578125,-0.9641703183427452,1.7632208016335964,0.1827542759418487,-1.8371555805206297,1.1413406133651731,0.3248312771320343
1783201511708676400,1.40867626953125,-1.048495930366963,1.696487691053748,-0.4366232385486364,-1.9182357788085935,1.149760603904724,0.2050496190786361
1783201511718613500,1.418613525390625,-1.116343139668554,1.634097578114271,-1.0786141513854264,-1.9501780271530151,1.146201252937317,0.0716327130794525
1783201511728550100,1.428550048828125,-1.0550149568721652,1.6242062986969947,-1.6836463296592237,-1.9450076818466189,1.1479523181915283,-0.0703891813755035
1783201511738487300,1.4384873046875,-0.9108370798230172,1.7775374962776898,-2.1053969932466745,-1.94014585018158,1.125245451927185,-0.2179469466209411
1783201511748424200,1.448424072265625,-0.7414785842880606,1.977883543011546,-2.347214283531904,-1.9538161754608157,1.0787843465805054,-0.3656123876571655
1783201511758362400,1.4583623046875,-0.6431292692169547,1.9954156925708053,-2.427552141094208,-1.9831613302230835,1.0331265926361084,-0.505535364151001
1783201511768299300,1.46829931640625,-0.6625840574018657,1.8079530928075316,-2.3948200843155383,-2.0276613235473637,1.007546305656433,-0.6413142681121826
1783201511778236400,1.478236328125,-0.752281717853248,1.639053154695034,-2.353411969128251,-2.061409473419189,0.9656351208686828,-0.7777037620544434
1783201511788173300,1.48817333984375,-0.8438584700495004,1.554226753541827,-2.4113912798881527,-2.0546350479125977,0.8945920467376709,-0.9027121663093568
1783201511798110200,1.498110107421875,-0.9409737132810057,1.429132054886222,-2.6561253344029185,-1.9929070472717283,0.7160025835037231,-0.95783931016922
1783201511808047400,1.50804736328125,-0.9505674710564316,1.1175140831440686,-3.2104467316150664,-1.869983792304993,0.4322238862514496,-0.9144496321678162
1783201511817985300,1.5179853515625,-0.7630776910252869,0.6059995620012283,-3.896009659674764,-1.72711443901062,0.0935403704643249,-0.8383215665817261
1783201511827922400,1.52792236328125,-0.5871538456253707,0.3323275822937488,-4.437757406517863,-1.5931564569473269,-0.3180250525474548,-0.7804097533226013
1783201511837859300,1.537859375,-0.4680401210755109,0.3079997812449931,-4.644985029458999,-1.4812426567077637,-0.7666009664535522,-0.760258138179779
1783201511847796200,1.547796142578125,-0.3844068752296268,0.4120443853482604,-4.527701881337165,-1.4136414527893066,-1.1441649198532104,-0.7694420218467712
1783201511857733400,1.5577333984375,-0.3512884494818747,0.5621969528928399,-3.9209816038459535,-1.3714226484298706,-1.4124826192855835,-0.7907808423042297
1783201511867670300,1.567670166015625,-0.3645689329460263,0.6964309435546397,-3.134154934573173,-1.357229232788086,-1.5150293111801147,-0.8350183963775635
1783201511877607400,1.577607421875,-0.3664939096592366,0.7980816382586956,-2.293588491806388,-1.3465168476104736,-1.4688751697540283,-0.8785488605499268
1783201511887545300,1.58754541015625,-0.3277517988108098,0.8497676940932869,-1.6112877804130314,-1.300434708595276,-1.3182576894760132,-0.9060685634613036
1783201511897482500,1.597482421875,-0.2174080945633351,0.8625368670344352,-1.2218851427227255,-1.2096707820892334,-1.1103193759918213,-0.9154351353645324
1783201511907419100,1.607419189453125,-0.0617271920513361,0.8813920818910003,-1.0450228474289178,-1.065116286277771,-0.9010622501373292,-0.8994118571281433
1783201511917356300,1.617356201171875,0.0367478682912886,0.9215385065793992,-1.0818594169169664,-0.8684102892875671,-0.7316412925720215,-0.8577746748924255
1783201511927293200,1.627293212890625,0.0546065463911741,0.8629954244568944,-1.2755121034920214,-0.6362936496734619,-0.6119327545166016,-0.8135434985160828
1783201511937230300,1.637230224609375,-0.0102376086369156,0.7268965167060494,-1.5133675044089554,-0.399256557226181,-0.5389626622200012,-0.7669796943664551
1783201511947168300,1.647168212890625,-0.1057682130254805,0.5961816400811076,-1.6169354309111832,-0.1801811009645462,-0.5062915086746216,-0.72627192735672
1783201511957105400,1.65710546875,-0.1576769717000424,0.522578351470828,-1.549439519265294,0.0135082192718982,-0.5149765610694885,-0.6995841264724731
1783201511967042300,1.667042236328125,-0.1714243420235812,0.5204173740446567,-1.372297237986326,0.1872501820325851,-0.5321938991546631,-0.679057776927948
1783201511976979200,1.676979248046875,-0.1728639463726431,0.5696402546361088,-1.033517118552327,0.3499596416950226,-0.533955991268158,-0.6645200848579407
1783201511986916400,1.686916259765625,-0.1937768244113773,0.6456131949871778,-0.6395639779508113,0.502914547920227,-0.514270544052124,-0.6615049839019775
1783201511996853200,1.696853271484375,-0.2392814881972968,0.7882602092072367,-0.2434486908793449,0.6573730707168579,-0.4577574729919433,-0.667597770690918
1783201512006791400,1.70679150390625,-0.3146085318602621,0.950448082460463,0.1595487569212913,0.7931376099586487,-0.3618180751800537,-0.6877257823944092
1783201512016728300,1.716728271484375,-0.3973022318337112,1.1549249453887342,0.5730716903895139,0.896606981754303,-0.2562170624732971,-0.7410683631896973
1783201512026665200,1.726665283203125,-0.5113819808043539,1.3771645517617463,0.9835977801293134,0.9523649215698242,-0.1532817482948303,-0.8289276957511902
1783201512036602400,1.736602294921875,-0.6184489284034818,1.509494754628837,1.3631798655509948,0.9589178562164308,-0.0614407621324062,-0.9445733428001404
1783201512046539300,1.746539306640625,-0.6754969496626406,1.5363330771937966,1.6647820547133685,0.9358146786689758,0.0099806860089302,-1.0492185354232788
1783201512056476400,1.756476318359375,-0.6024518063917755,1.479387493395805,1.8532500321269036,0.8770248889923096,0.0757623612880706,-1.130937933921814
1783201512066414300,1.766414306640625,-0.51290692534931,1.3750824847906826,2.0165841528058053,0.8087558150291443,0.1233377605676651,-1.187808632850647
1783201512076351500,1.7763515625,-0.4551841466337442,1.2136322781622408,2.0857582267969845,0.7424430847167969,0.1551068723201751,-1.2184104919433594
1783201512086288100,1.7862880859375,-0.3858328894447535,1.1256593956768512,2.0449556762874126,0.6908971667289734,0.1665392965078354,-1.2359346151351929
1783201512096225300,1.796225341796875,-0.2592133923746645,1.1382844839721915,1.9252450087577104,0.6649733781814575,0.185525506734848,-1.2438181638717651
1783201512106162400,1.806162353515625,-0.1100986434452235,1.2918269862160086,1.838718817949295,0.6436747312545776,0.233737051486969,-1.2633395195007324
1783201512116099300,1.816099365234375,0.0151461312055587,1.5693755150958897,1.813282178875804,0.6082083582878113,0.3237034380435943,-1.30902898311615
1783201512126037200,1.826037353515625,0.0456394691467285,1.878171122893691,1.8417595008194445,0.5560966730117798,0.4478198885917663,-1.3888580799102783
1783201512135974400,1.835974365234375,0.0039826398953795,2.1545622984319923,1.8285569048970935,0.4661933779716491,0.543188750743866,-1.5227309465408323
1783201512145911300,1.845911376953125,-0.0509742543034255,2.303709780587256,1.6688585103720426,0.3424167931079864,0.5664595365524292,-1.6763503551483154
1783201512155848200,1.85584814453125,-0.0723003893181681,2.1938673038601872,1.2965204047292471,0.2081383317708969,0.5596634149551392,-1.7944577932357788
1783201512165785300,1.865785400390625,0.055335664383322,1.9431971372947097,0.826413998773694,0.0621653869748115,0.4992419183254242,-1.860030174255371
1783201512175722200,1.87572216796875,0.2496972298800945,1.6491224210277198,0.257732652297616,-0.0659073591232299,0.3622891306877136,-1.885843634605408
1783201512185660400,1.885660400390625,0.3806280873432755,1.2948098014190792,-0.3775064481914043,-0.1969722509384155,0.1899720728397369,-1.9013725519180296
1783201512195597300,1.895597412109375,0.4994413676418364,0.96659520740211,-0.847542711520195,-0.3302426934242248,0.0019691502675414,-1.9361672401428225
1783201512205534200,1.9055341796875,0.6258825124703348,0.6277449453413486,-1.0992857680141923,-0.4632376432418823,-0.1752950996160507,-1.9735000133514404
1783201512215471400,1.915471435546875,0.771585407129675,0.2433405543297529,-1.200370061007142,-0.5829576253890991,-0.3306351602077484,-1.983480453491211
1783201512225408300,1.925408203125,0.9784640705026686,-0.2803571565598249,-1.262796998825669,-0.6552436351776123,-0.4330638945102691,-1.949118494987488
1783201512235345400,1.935345458984375,1.283686788249761,-0.7896776747897267,-1.3511480669736862,-0.6842834949493408,-0.4755977690219879,-1.8791513442993164
1783201512245283300,1.945283447265625,1.5944482892930507,-1.1355495060503482,-1.4333879587650298,-0.6724874973297119,-0.4839876592159271,-1.788095474243164
1783201512255220500,1.955220458984375,1.8655489572077988,-1.313777536739409,-1.4959201105237006,-0.6174953579902649,-0.4364345073699951,-1.6918061971664429
1783201512265157000,1.9651572265625,2.081456145688892,-1.3867434042289852,-1.5455138702541589,-0.5221908688545227,-0.3471332490444183,-1.578772783279419
1783201512275094300,1.97509423828125,2.285841969332844,-1.370820443432033,-1.6159879209280013,-0.3894173502922058,-0.2314799129962921,-1.4588260650634766
1783201512285031400,1.985031494140625,2.4563293227672576,-1.2732847828313707,-1.7023656431764362,-0.2347375750541687,-0.1178025007247924,-1.3175361156463623
1783201512294968300,1.99496826171875,2.539972651615739,-1.1395213322907685,-1.851083794003725,-0.0672037154436111,-0.059184730052948,-1.163588285446167
1783201512304906500,2.004906494140625,2.462253452119231,-1.0631433182701469,-2.072179783299565,0.1096437498927116,-0.0566668659448623,-1.0194694995880127
1783201512314843400,2.014843505859375,2.185584336422384,-1.0275503191024065,-2.27969031483531,0.2734161615371704,-0.0815080255270004,-0.8996848464012146
1783201512324780300,2.0247802734375,1.7875386658102272,-0.9375172892168164,-2.3300351851940158,0.4147528409957886,-0.108831375837326,-0.8080899715423584
1783201512334717200,2.03471728515625,1.3935726657271383,-0.7265963647156953,-2.214087085068226,0.5216819643974304,-0.1253251135349273,-0.7595235109329224
1783201512344654300,2.044654296875,1.037199021935463,-0.3911632176220417,-1.983178142288327,0.5956004858016968,-0.1224120333790779,-0.7417140007019043
1783201512354591500,2.054591552734375,0.8578083772078156,0.074555474768579,-1.7309335660129783,0.6311672925949097,-0.1340769380331039,-0.7441526651382446
1783201512364529400,2.064529296875,0.7525380307018756,0.4816831542417407,-1.5748346572846172,0.6258693933486938,-0.1770424097776413,-0.7654570937156677
1783201512374466300,2.07446630859375,0.5816694228649139,0.6946721171885728,-1.4490356097519397,0.596200704574585,-0.2496122270822525,-0.8023402690887451
1783201512384403200,2.0844033203125,0.3049535454168915,0.7173603343367576,-1.3503525326818226,0.5544776916503906,-0.3381972014904022,-0.8444340825080872
1783201512394340400,2.09434033203125,0.0174634682372212,0.6071361648157239,-1.2290730084002015,0.5255240797996521,-0.4203818142414093,-0.8897922039031982
1783201512404277200,2.10427734375,-0.2422983518004417,0.4960130006283521,-1.0777876374334097,0.5202370285987854,-0.4960455596446991,-0.939370334148407
1783201512414215400,2.11421533203125,-0.435148782081902,0.4365393596574664,-0.9398089072853326,0.5551146268844604,-0.5519322752952576,-0.9908130168914796
1783201512424152300,2.12415234375,-0.534312920667231,0.438837699727714,-0.7956447665005922,0.6242059469223022,-0.5611112117767334,-1.0199100971221924
1783201512434089500,2.13408935546875,-0.534358659505099,0.5392912936016917,-0.573759672653675,0.7088915109634399,-0.5223404169082642,-1.017215609550476
1783201512444026000,2.144026123046875,-0.4667768231414258,0.7167606148779392,-0.2838584426790476,0.7939676642417908,-0.4550248682498932,-1.0055643320083618
1783201512453963300,2.15396337890625,-0.4683776824668049,0.9419292604401708,0.0075987845659255,0.8508434891700745,-0.3694234192371368,-0.9989522099494934
1783201512463900400,2.163900390625,-0.5089401406101882,1.1281485821440815,0.2485498134106397,0.8399844765663147,-0.2725324630737304,-0.9980277419090272
1783201512473838300,2.17383837890625,-0.5624585264384746,1.2351473598778246,0.5108201091378927,0.7598195672035217,-0.1728383749723434,-0.992294192314148
1783201512483775500,2.183775390625,-0.5909373096868396,1.2754174109458922,0.70983987570405,0.6377338767051697,-0.0988108292222023,-0.9918204545974731
1783201512493712400,2.19371240234375,-0.6273851721182465,1.3002286115974186,0.7166787818133831,0.5088744163513184,-0.1126643270254135,-1.0323963165283203
1783201512503649300,2.203649169921875,-0.5849997363314032,1.5026383128628134,0.4216156390309333,0.4313456416130066,-0.2482368350028991,-1.0861003398895264
1783201512513586200,2.213586181640625,-0.4177902355238795,1.7029244461029769,-0.0219949741870164,0.42437744140625,-0.4046613276004791,-1.1362791061401367
1783201512523523300,2.2235234375,-0.3919736572220921,1.7737562241733074,-0.2296931372493505,0.4731630086898803,-0.512073814868927,-1.1940178871154783
1783201512533461200,2.233461181640625,-0.3578282265141606,1.9307316234752532,-0.1763321339398622,0.5567952990531921,-0.6008010506629944,-1.2553222179412842
1783201512543398400,2.2433984375,-0.3209659380629658,2.12989255207777,0.0530588054925203,0.6420615315437317,-0.6404470205307007,-1.345828652381897
1783201512553335600,2.25333544921875,-0.4196642127022147,2.1974477926954625,0.4976899939298629,0.7136606574058533,-0.6056355237960815,-1.455274224281311
1783201512563272200,2.263272216796875,-0.4449845319196581,2.1124317141890523,0.95574122043252,0.7561336755752563,-0.5352249145507812,-1.5653311014175415
1783201512573209300,2.273209228515625,-0.3472790677100419,1.9207196402877569,1.323561556389928,0.7695664167404175,-0.4363001585006714,-1.678049921989441
1783201512583146200,2.283146240234375,-0.3535650161117315,1.7342589110434057,1.590212259158492,0.7596077919006348,-0.3264149129390716,-1.7887204885482788
1783201512593084400,2.29308447265625,-0.2728323140129446,1.5518766832843425,1.7414847706437109,0.7345330715179443,-0.2171997725963592,-1.8874335289001465
1783201512603021300,2.303021240234375,-0.0800923583686351,1.4225734270229935,1.7911878359675406,0.6928910613059998,-0.1288680434226989,-1.9541349411010744
1783201512612958500,2.31295849609375,0.2494990769594907,1.3970216371372342,1.7691905236929657,0.6340261101722717,-0.0723355114459991,-2.003274440765381
1783201512622895400,2.322895263671875,0.5821925699561834,1.3667010254144667,1.655365991592407,0.5467378497123718,-0.0615324042737484,-2.046865940093994
1783201512632832300,2.332832275390625,0.8106295696645974,1.200621697680652,1.519711320477724,0.4463039040565491,-0.0937127023935318,-2.075618267059326
1783201512642770200,2.342770263671875,0.9309969475373624,0.8912380608618259,1.3731991552621126,0.3449381291866302,-0.1308771222829818,-2.0724294185638428
1783201512652707300,2.352707275390625,1.1287795735239985,0.5224319287374616,1.1907044070392847,0.2619689404964447,-0.1773258596658706,-2.028549671173096
1783201512662644500,2.36264453125,1.3499383989229798,0.2382505377143621,1.006060956349969,0.2072005867958068,-0.2406433224678039,-1.954549551010132
1783201512672581000,2.3725810546875,1.473037539847195,-0.009283961173892,0.8116869697630404,0.19161257147789,-0.3012683093547821,-1.8580166101455688
1783201512682518300,2.382518310546875,1.5869155557006596,-0.2206970531061291,0.5999187807828188,0.2156260907649994,-0.3360019028186798,-1.7505593299865725
1783201512692455200,2.392455078125,1.636568936663866,-0.3140294167980551,0.5215829106926918,0.2478514164686203,-0.3202479779720306,-1.6558772325515747
1783201512702393300,2.402393310546875,1.571052800658345,-0.2770499317079782,0.6025473757207394,0.2637809216976166,-0.2729720175266266,-1.614756464958191
1783201512712330200,2.412330322265625,1.3641986872047185,-0.2046931360274553,0.761218765285611,0.2547293901443481,-0.2022323459386825,-1.6170806884765625
1783201512722267400,2.422267333984375,1.1546724319323898,-0.1652075133353471,0.9000964901000261,0.2236439436674118,-0.1088892668485641,-1.629961609840393
1783201512732204300,2.432204345703125,1.0407643132016062,-0.227224701309204,1.0241069006502628,0.1760612428188324,-0.0245011486113071,-1.629069209098816
1783201512742141200,2.44214111328125,1.0963692960456013,-0.3611594167634844,0.9990320806264876,0.1317819505929947,-0.0024767266586422,-1.6017537117004397
1783201512752078300,2.452078369140625,1.2400579282730817,-0.5839686397179961,0.7578425668507814,0.0891713723540306,-0.0315717607736587,-1.5572949647903442
1783201512762016300,2.462016357421875,1.345707921746373,-0.8637471196070313,0.498228923112154,0.0463093668222427,-0.1026140600442886,-1.4996848106384275
1783201512771953400,2.471953369140625,1.4374524317249655,-1.1304334782108665,0.3268868525445461,0.0194969289004802,-0.2095852494239807,-1.4258204698562622
1783201512781890300,2.481890380859375,1.5507216680303215,-1.3827970046907665,0.1665063209742307,0.0093842642381787,-0.3144755065441131,-1.329171657562256
1783201512791827200,2.4918271484375,1.6727639933779834,-1.5614493982717397,0.1268354048430919,0.0192667227238416,-0.3918054401874542,-1.220381259918213
1783201512801764400,2.501764404296875,1.845377106794715,-1.6007523578733205,0.2018523596435785,0.0414363667368888,-0.4354235529899597,-1.1020987033843994
1783201512811702300,2.511702392578125,1.96271344640851,-1.5471923248603938,0.3613742285579442,0.0776428431272506,-0.4492464065551758,-0.986030340194702
1783201512821639400,2.521639404296875,1.95152394387424,-1.4935226939931512,0.5316577299833297,0.1208255141973495,-0.4195230007171631,-0.8889754414558411
1783201512831576300,2.531576416015625,1.829832039399445,-1.482069864347577,0.722262719425559,0.1478395611047744,-0.3642123341560364,-0.8273082971572876
1783201512841513500,2.541513427734375,1.6313210991382598,-1.4947449292644857,0.930571123340726,0.1549607813358307,-0.3058306574821472,-0.7862359285354614
1783201512851450000,2.5514501953125,1.4312854335278271,-1.5435905009761453,1.0542629694610834,0.1759848445653915,-0.250142902135849,-0.7489337921142578
1783201512861387300,2.56138720703125,1.2969094040468334,-1.6675345682919025,1.0532289502382275,0.2212414443492889,-0.2122243344783783,-0.7023817896842957
1783201512871325200,2.5713251953125,1.2596513942763208,-1.8399033515587448,0.9092442576736212,0.2944168448448181,-0.1892609596252441,-0.6470112204551697
1783201512881262300,2.581262451171875,1.2313725175142287,-1.9951023888379331,0.7816425446331501,0.3998074829578399,-0.1683125346899032,-0.5948940515518188
1783201512891199200,2.59119921875,1.2293977103099227,-2.069311826647818,0.7461965527206659,0.5221994519233704,-0.1361516714096069,-0.5611941814422607
1783201512901136400,2.601136474609375,1.2321131067484616,-1.9978008341416715,0.7783926029264926,0.6465297937393188,-0.0717715919017791,-0.5247671008110046
1783201512911073300,2.6110732421875,1.240911330232024,-1.8839111278504133,0.9621054947674272,0.7514591217041016,0.0585467331111431,-0.5110437870025635
1783201512921011200,2.62101123046875,1.2196791571110486,-1.7583321528092026,1.2466039889156817,0.8170036673545837,0.2463972717523574,-0.5298783779144287
1783201512930948400,2.6309482421875,1.2536547842100263,-1.5610785191327332,1.4967711743950842,0.8342553973197937,0.4821546673774719,-0.5320401191711426
1783201512940885200,2.64088525390625,1.4506532740816471,-1.3375889126986265,1.6682909396171568,0.8086518049240112,0.7310393452644348,-0.5145371556282043
1783201512950822400,2.650822509765625,1.7027601954519749,-1.2096908470600842,1.593655093088746,0.7409981489181519,0.973414421081543,-0.4849931001663208
1783201512960759300,2.66075927734375,1.8744041715756057,-1.2119319039851426,1.296781686013937,0.646274983882904,1.152866005897522,-0.4345996677875519
1783201512970696200,2.6706962890625,1.9806424863308667,-1.3090896711841224,0.6971732863545418,0.5539495944976807,1.2565313577651978,-0.3733291029930115
1783201512980634000,2.680634033203125,2.031090232542157,-1.4916519316852093,-0.1189607259452343,0.4584800899028778,1.2456921339035034,-0.3129069209098816
1783201512990571300,2.6905712890625,2.067019916318357,-1.6466875950962303,-0.9735802439838648,0.3776896297931671,1.1011139154434204,-0.2351466119289398
1783201513000508400,2.70050830078125,2.117579598471522,-1.7702251274377108,-1.7879490001767873,0.3048343062400818,0.8443875312805176,-0.1372964978218078
1783201513010445300,2.7104453125,2.2074171057850123,-1.9040011451989407,-2.4311837755948305,0.2427054196596145,0.5104678273200989,-0.0222585890442132
1783201513020382500,2.720382568359375,2.3437913233459,-1.980066147747636,-2.785813206067681,0.1905143857002258,0.1417136788368225,0.0956757143139839
1783201513030320400,2.7303203125,2.468494976857305,-1.9809096128344532,-2.9068548299402,0.1648481786251068,-0.2249050587415695,0.2238411456346511
1783201513040257300,2.74025732421875,2.557048581840098,-1.9243816699266432,-2.8280887517392634,0.1634408086538314,-0.5342457890510559,0.3471731841564178
1783201513050194200,2.750194091796875,2.513212654983997,-1.85418994332552,-2.497097971007228,0.1992936134338379,-0.7104282975196838,0.4637096226215362
1783201513060131300,2.76013134765625,2.3078487800881264,-1.7323074847146869,-1.9359557878643276,0.2663567364215851,-0.7519404888153076,0.5604798197746277
1783201513070068500,2.770068359375,2.0285887711152437,-1.5801248726472257,-1.3245324472486972,0.3513800203800201,-0.6929847598075867,0.6320245862007141
1783201513080006400,2.78000634765625,1.788022065412998,-1.318346452090144,-0.783783648315072,0.4419690072536468,-0.5836054086685181,0.6846168637275696
1783201513089943300,2.789943359375,1.5932257617607712,-1.027150506129861,-0.3238520148932933,0.5233818292617798,-0.4504351019859314,0.7123004198074341
1783201513099880200,2.799880126953125,1.4156661318525672,-0.7767270078018307,0.0423211383789777,0.589126706123352,-0.3106454312801361,0.7321884036064148
1783201513109817300,2.8098173828125,1.2767334619805215,-0.6302157193690539,0.3168728235304355,0.6310011744499207,-0.1649414896965026,0.7581571936607361
1783201513119754200,2.819754150390625,1.1964511339977384,-0.5443734191715717,0.5224976874500513,0.645541250705719,-0.0437966808676719,0.7890405654907227
1783201513129691400,2.82969140625,1.1161889720201492,-0.4483087079063058,0.6408183619260788,0.6482486128807068,0.026822093874216,0.8129855990409851
1783201513139629300,2.83962939453125,1.050882387112081,-0.3313727657869458,0.6769570122778416,0.6301149725914001,0.0511097200214862,0.8279162645339966
1783201513149566500,2.84956640625,0.9942287719979882,-0.2224526646018028,0.7420949626207352,0.5967631936073303,0.0536106973886489,0.8421005606651306
1783201513159503000,2.859503173828125,0.9308759515061974,-0.1139823530107736,0.8304290796339512,0.5499787926673889,0.02494802698493,0.843474268913269
1783201513169440300,2.869440185546875,0.8232207556903361,-0.0064344169616699,0.9735574476301668,0.4911844134330749,-0.0101066306233406,0.8383674025535583
1783201513179377400,2.87937744140625,0.7234285483345388,0.0335109321966767,1.1667021846830845,0.4165231883525848,-0.0374025143682956,0.8432132601737976
1783201513189315300,2.8893154296875,0.6687205143302679,0.0320350144252181,1.3989473445028069,0.3380637764930725,-0.0603088960051536,0.8567860722541809
1783201513199252500,2.89925244140625,0.6535980562612413,0.0287333425313234,1.6299755297482013,0.2386287748813629,-0.0688704028725624,0.8639039993286133
1783201513209189400,2.909189453125,0.6556231323480606,0.0198252289324998,1.9137568155378104,0.12482550740242,-0.060383167117834,0.8534579873085022
1783201513219126300,2.919126220703125,0.6169038178533315,0.0185854580044746,2.1630366967886685,0.0097149452194571,-0.0355055443942546,0.8238195776939392
1783201513229063200,2.929063232421875,0.5680868877142667,-0.0276668823435902,2.3384353492707013,-0.0838411077857017,0.0085607171058654,0.815079927444458
1783201513239001300,2.93900146484375,0.5854208843529224,-0.1353144793748855,2.4405536614865064,-0.144912302494049,0.0902658328413963,0.8281974196434021
1783201513248938200,2.948938232421875,0.6630553281754255,-0.2430138065934181,2.4366075542092323,-0.1590369194746017,0.1749751269817352,0.8621596693992615
1783201513258875400,2.95887548828125,0.7250149407431483,-0.3316363851591944,2.315001866713166,-0.1485644578933715,0.2473358511924743,0.8979884386062622
1783201513268812500,2.9688125,0.7722147910743952,-0.3650128773212432,2.2015549357533453,-0.1110490411520004,0.3117949962615967,0.9260081052780152
1783201513278749700,2.978749755859375,0.7648094832539558,-0.3148603146642446,2.1007225716948508,-0.060482520610094,0.367091417312622,0.9416985511779784
1783201513288686800,2.988686767578125,0.7178934183001517,-0.2841381364032626,2.097169847649336,-0.0111591769382357,0.4802568554878235,0.9504310488700868
1783201513298624800,2.998624755859375,0.6889587079778313,-0.2513283382132649,2.238522438144684,0.002786973491311,0.6716355085372925,0.968569815158844
1783201513308562000,3.00856201171875,0.8408587037116289,-0.077949793381989,2.434972646483778,-0.031329721212387,0.8877270221710205,1.0005452632904053
1783201513318498600,3.01849853515625,1.0609040149107576,0.1305684538915753,2.416680618467927,-0.1068267673254013,1.094282627105713,1.048333764076233
1783201513328435700,3.028435791015625,1.232444530659914,0.2183379227593541,2.130834216842055,-0.2046739757061004,1.2777459621429443,1.1038827896118164
1783201513338372600,3.03837255859375,1.303680505616963,0.2829848747149109,1.5964140364080666,-0.3107672035694122,1.3989133834838867,1.1696630716323853
1783201513348310800,3.048310791015625,1.2727259799048305,0.346273690059781,0.8248615086346864,-0.4196420013904571,1.4287317991256714,1.217871904373169
1783201513358247700,3.05824755859375,1.1228738566115497,0.4357090463131666,0.034347675281763,-0.5242725014686584,1.373447060585022,1.227368950843811
1783201513368184800,3.068184814453125,0.9176748168885708,0.5115145211428404,-0.7195347557663917,-0.6228401064872742,1.2539910078048706,1.2167264223098757
1783201513378121700,3.078121826171875,0.763455146035552,0.5593295807629823,-1.3702280304968355,-0.7030584812164307,1.0878242254257202,1.2014421224594116
1783201513388058600,3.08805859375,0.6942161901146173,0.582111321413517,-1.9430922156155108,-0.753781795501709,0.8918603658676147,1.1923778057098389
1783201513397996500,3.09799658203125,0.6331546954303979,0.5565267983019352,-2.386719195446372,-0.7668565511703491,0.6592106223106384,1.1757105588912964
1783201513407933700,3.10793359375,0.5461471508458257,0.4747556930661201,-2.714993702957034,-0.7290425896644592,0.4110484719276428,1.170684576034546
1783201513417870800,3.117870849609375,0.520032758641243,0.3620817923054099,-2.9565964737087485,-0.6620376706123352,0.1836311817169189,1.167810559272766
1783201513427807500,3.127807373046875,0.4829536125689744,0.2853057188779115,-2.9498195269197223,-0.5732694268226624,0.0120389126241207,1.1522440910339355
1783201513437744600,3.13774462890625,0.4310328711956739,0.2760737801522016,-2.6737521765083074,-0.499947041273117,-0.1005732715129852,1.1161293983459473
1783201513447682600,3.1476826171875,0.439425144226849,0.290441035939753,-2.216341585996747,-0.4303235113620758,-0.1589529663324356,1.0926719903945925
1783201513457619700,3.15761962890625,0.5178223891153931,0.2735021760985255,-1.726400598758459,-0.3747207522392273,-0.1689588129520416,1.0862876176834106
1783201513467556600,3.167556640625,0.6646890668570995,0.2085086026623845,-1.2559674450665712,-0.3176449537277221,-0.1361260414123535,1.1079617738723757
1783201513477493800,3.17749365234375,0.8090846783101558,0.0914984262630343,-0.7977455381721258,-0.2691056728363037,-0.0879267305135726,1.1383949518203735
1783201513487430700,3.1874306640625,0.9024418841823936,0.0132511112391948,-0.3822340612351894,-0.227934792637825,-0.0266849435865879,1.179027080535889
1783201513497367600,3.197367431640625,0.9595862054228782,-0.0116550742194056,-0.0294487973242998,-0.1806556731462478,0.0560727082192897,1.2320070266723633
1783201513507305700,3.2073056640625,0.9894204949334264,-0.0134063018009066,0.2822895859271287,-0.1491808444261551,0.128331184387207,1.2700899839401243
1783201513517242600,3.21724267578125,0.9676339028000832,0.0509492659926414,0.5419453152418137,-0.1369391083717346,0.1811573058366775,1.2952330112457275
1783201513527179800,3.2271796875,0.9174491914391516,0.1281646076202392,0.777298962470889,-0.1466071754693985,0.2329070568084716,1.3107733726501465
1783201513537116700,3.23711669921875,0.9129340521022676,0.1983598413527011,1.014081765720248,-0.1777420938014984,0.2614881694316864,1.319483518600464
1783201513547053600,3.247053466796875,0.9093854197099804,0.26047610578686,1.179478664147854,-0.2175744622945785,0.275940865278244,1.3235167264938354
1783201513556991500,3.256991455078125,0.8929746753960848,0.2260620872706174,1.314952133476734,-0.2572415769100189,0.290708839893341,1.3292286396026611
1783201513566928600,3.2669287109375,0.8629688287109136,0.184447051334381,1.4557178639948367,-0.2936739027500152,0.315588891506195,1.342978596687317
1783201513576865800,3.27686572265625,0.8339701132416725,0.1720809062361717,1.5907003349363802,-0.3180432319641113,0.3399406969547272,1.3534153699874878
1783201513586802700,3.286802734375,0.7857356591656803,0.1753612430810928,1.7175433385640382,-0.321167379617691,0.374877393245697,1.3710029125213623
1783201513596739800,3.29673974609375,0.7366118550345301,0.1922246995985508,1.8355004404246809,-0.3118448257446289,0.4350492060184479,1.386227011680603
1783201513606677800,3.306677734375,0.7357195823699235,0.2401391279399395,1.973304983049631,-0.2901240587234497,0.5320021510124207,1.417343020439148
1783201513616614700,3.31661474609375,0.7669418191075325,0.2909855180799961,2.155328022107482,-0.283261626958847,0.655846118927002,1.4563329219818115
1783201513626551600,3.326551513671875,0.840030436193943,0.3325350875645875,2.373004558348656,-0.2935265302658081,0.8026033639907837,1.50584876537323
1783201513636488700,3.33648876953125,0.8964128331512212,0.4091705834776163,2.530911977803707,-0.3228005170822143,0.9511387348175048,1.5528048276901243
1783201513646425600,3.346425537109375,0.8193786933094263,0.4798632453382015,2.546197809740901,-0.3303961157798767,1.0899763107299805,1.5858381986618042
1783201513656363800,3.35636376953125,0.6790855487391352,0.5200257443785667,2.365887419819832,-0.3190262019634247,1.2099649906158447,1.6051396131515503
1783201513666300700,3.36630078125,0.5827402669668197,0.6067389821916819,2.0554221252441405,-0.2855377495288849,1.3106883764266968,1.6108300685882568
1783201513676237600,3.376237548828125,0.4598430783554911,0.7329319974780082,1.7254916672199965,-0.2321755290031433,1.382519006729126,1.5986504554748535
1783201513686174700,3.3861748046875,0.3149137984171509,0.8568395321756601,1.4041121799200773,-0.1596328765153885,1.451510310173035,1.5762852430343628
1783201513696111600,3.396111572265625,0.1975117000907659,0.9364426457226276,1.1677245134681462,-0.0855956524610519,1.5452749729156494,1.5446765422821045
1783201513706049800,3.4060498046875,0.1015440194591879,0.9725310271918772,1.0207096594274043,-0.0410529561340808,1.6709141731262207,1.5093553066253662
1783201513715986700,3.415986572265625,0.1592749084159731,1.10018593172431,0.8485697164803743,-0.0456052832305431,1.7851743698120115,1.467402696609497
1783201513725923800,3.425923828125,0.3235223445475101,1.3601725004285574,0.618961919426918,-0.0912270992994308,1.8361276388168333,1.4211812019348145
1783201513735860500,3.435860595703125,0.3913163623571395,1.516453195464611,0.3268020968705415,-0.1703488677740097,1.835093140602112,1.3662134408950806
1783201513745797600,3.445797607421875,0.496954957653582,1.5582728140622375,-0.0109638770848512,-0.287841647863388,1.7889387607574463,1.3238755464553833
1783201513755735600,3.455735595703125,0.5665729760199785,1.5762550454765558,-0.2989870382279157,-0.4323944747447967,1.7221733331680298,1.2915828227996826
1783201513765672700,3.465672607421875,0.515521126435697,1.4529074827492237,-0.5785504140615463,-0.5758067965507507,1.6424620151519775,1.2812422513961792
1783201513775609900,3.47560986328125,0.456760309909284,1.219281097704172,-0.90286829290092,-0.7010858654975891,1.506090760231018,1.25569748878479
1783201513785546800,3.485546630859375,0.4355883425429463,1.0650251864939928,-1.2868588424146177,-0.7951934337615967,1.3304399251937866,1.2357670068740845
1783201513795483600,3.495483642578125,0.45777503990978,0.9876315656900404,-1.656589395907521,-0.8655856251716614,1.1548237800598145,1.2198656797409058
1783201513805421600,3.505421630859375,0.5891232460021972,1.0075199229866263,-1.914734720659256,-0.9332738518714904,0.9723828434944152,1.20155668258667
1783201513815358700,3.515358642578125,0.6412967930927872,1.0546668740868568,-2.0749562622755766,-0.995690107345581,0.7907539010047913,1.182231307029724
1783201513825295600,3.525295654296875,0.5928136249527335,1.000208138668537,-2.138570364052057,-1.0538151264190674,0.6413087248802185,1.171445608139038
1783201513835232800,3.535232666015625,0.5287988334208726,0.8266910621494055,-2.0979665509849785,-1.0785162448883057,0.551850438117981,1.1780425310134888
1783201513845169700,3.545169677734375,0.5079664732724428,0.6264771173626185,-2.0274130053341386,-1.0735284090042114,0.5174349546432495,1.1993595361709597
1783201513855106600,3.5551064453125,0.5221259315282106,0.5454249740511179,-2.0291221473395824,-1.0400774478912354,0.497075617313385,1.2188708782196045
1783201513865044500,3.56504443359375,0.5474143943026661,0.6150140585839748,-2.113306743457913,-0.9820688366889954,0.487215518951416,1.231958270072937
1783201513874981600,3.574981689453125,0.5469847707137465,0.7269882866427302,-2.212463867780566,-0.9254724979400636,0.4878480732440948,1.2344378232955933
1783201513884918800,3.584918701171875,0.5446069356665015,0.8999559125855564,-2.2287720285028216,-0.8851040601730347,0.484928697347641,1.228105902671814
1783201513894855700,3.594855712890625,0.5126777197033167,1.0456012318387626,-2.180783365881443,-0.8570196628570557,0.4602960646152496,1.214384913444519
1783201513904792800,3.604792724609375,0.3543874384105205,1.096302660550177,-2.173885423061252,-0.8217447400093079,0.4122712910175323,1.1876530647277832
1783201513914730800,3.614730712890625,0.1192518178462982,1.0323135879814624,-2.304361230233312,-0.762864887714386,0.3267100155353546,1.157462477684021
1783201513924667600,3.624667724609375,-0.0634466362550854,0.9527835396707056,-2.5046511628657577,-0.6789596080780029,0.2138756066560745,1.1227781772613523
1783201513934604500,3.6346044921875,-0.1779430762678384,0.942980523058772,-2.648465759560465,-0.560430645942688,0.097803458571434,1.091030478477478
1783201513944541700,3.644541748046875,-0.2682952551051974,0.9726967391476036,-2.6683576239883897,-0.4233084917068481,0.0100110219791531,1.0574198961257937
1783201513954478800,3.654478759765625,-0.3624605624899268,1.010956327176094,-2.511553197339177,-0.2811692953109741,-0.0429830849170684,1.0140020847320557
1783201513964416800,3.664416748046875,-0.4745873507618904,1.0284200876742602,-2.22127845787704,-0.1548364162445068,-0.0533158853650093,0.9699336886405944
1783201513974353700,3.674353759765625,-0.5493737116768956,1.0337108875587582,-1.839804275098443,-0.0527961328625679,-0.0179150998592376,0.9229643940925598
1783201513984290600,3.68429052734375,-0.5917892503410578,0.9989759665250778,-1.435575824198127,0.0194357205182313,0.0429519787430763,0.8751716017723083
1783201513994227700,3.694227783203125,-0.5882753970012068,0.9890729966700076,-1.0882803898751736,0.0795352160930633,0.0835011079907417,0.8371963500976562
1783201514004164600,3.70416455078125,-0.5067734640955924,0.954032662948966,-0.893755596640706,0.1370818614959716,0.1046993359923362,0.8137509822845459
1783201514014102800,3.714102783203125,-0.3537614154666662,0.8814335829451679,-0.7916799545228481,0.189274862408638,0.1130896061658859,0.7977181077003479
1783201514024039700,3.724039794921875,-0.3187655054092407,0.8363017710596322,-0.6741086371093988,0.2344524711370468,0.1273494958877563,0.7729608416557312
1783201514033976800,3.733976806640625,-0.3556535128235816,0.8462474110126494,-0.4974836577028035,0.2687047123908996,0.1367212384939193,0.7296431064605713
1783201514043913700,3.743913818359375,-0.4341998107939958,0.8306991287469864,-0.3139414462536573,0.2911990880966186,0.1579951047897339,0.6738307476043701
1783201514053850600,3.7538505859375,-0.4891007370218634,0.8249117775171995,-0.0687958883285522,0.2980543076992035,0.1821980625391006,0.6097894310951233
1783201514063788500,3.76378857421875,-0.5379772883936762,0.7781202157258987,0.1574035615861415,0.2937303781509399,0.2125860601663589,0.5465047359466553
1783201514073725700,3.7737255859375,-0.5245329926699399,0.6581570347398519,0.3818441851347685,0.2793224155902862,0.2466993629932403,0.5023151636123657
1783201514083662800,3.783662841796875,-0.4183317950546741,0.5311053567975759,0.5804641387283802,0.2602978646755218,0.2637811303138733,0.4665672481060028
1783201514093599700,3.793599853515625,-0.2723407311037182,0.4170411707222461,0.7080073995798826,0.2196380645036697,0.2651832699775696,0.42521733045578
1783201514103536600,3.80353662109375,-0.180526955281198,0.3111421709239482,0.836205324947834,0.168193519115448,0.2528853118419647,0.3887288272380829
1783201514113474600,3.813474609375,-0.1034329019457101,0.1577443378478288,0.96967271515131,0.1117487698793411,0.250623881816864,0.3871523141860962
1783201514123411700,3.82341162109375,0.0795259566575288,-0.082701664084196,1.1531693338930606,0.0541078448295593,0.2747132480144501,0.4305170774459839
1783201514133348600,3.8333486328125,0.2932695373639464,-0.3421533952593803,1.3695131602257489,0.0030349744483828,0.3049041330814361,0.4950395822525024
1783201514143285800,3.84328564453125,0.4358528386980295,-0.5367027384132147,1.4666402400255203,-0.0309797171503305,0.3260658681392669,0.5688362717628479
1783201514153223000,3.853222900390625,0.5342404399529099,-0.628363369500637,1.438937994107604,-0.0429001934826374,0.3402677476406097,0.6345506906509399
1783201514163160800,3.863160888671875,0.5778007647380232,-0.6339549058973789,1.4029641789287328,-0.027242936193943,0.3879876136779785,0.6882303953170776
1783201514173097700,3.87309765625,0.5901511277452111,-0.5663800837963819,1.4295505725592377,-0.0039736488834023,0.4935604035854339,0.7385716438293457
1783201514183034600,3.88303466796875,0.6384495869681239,-0.3779027540326118,1.5159668732523917,0.0109823979437351,0.623677134513855,0.7807137966156006
1783201514192971800,3.8929716796875,0.6519309998318552,-0.1611795729935169,1.56399411431849,0.0165965128690004,0.7324357032775879,0.8045834302902222
1783201514202908700,3.90290869140625,0.5595300717711449,-0.0323959566920995,1.4783628265231847,0.010270707309246,0.8306653499603271,0.8230737447738647
1783201514212846800,3.912846923828125,0.4590291316241026,0.0144026193618774,1.3108873682558535,-0.0047356458380818,0.9158573746681212,0.8379859924316406
1783201514222783700,3.92278369140625,0.3737327748715877,0.0879319659531116,1.120461827033758,-0.0272255092859268,0.9988894462585448,0.8588811159133911
1783201514232720600,3.932720703125,0.3717535837531089,0.1691343313902616,0.8825427132308482,-0.0513992384076118,1.059005618095398,0.87547367811203
1783201514242657500,3.942657470703125,0.3740370185151696,0.2758084072142839,0.6113064362376928,-0.0741972252726554,1.0902646780014038,0.8862972855567932
1783201514252594700,3.9525947265625,0.279575650793314,0.3510410505920648,0.3517138352870941,-0.0908945500850677,1.1122770309448242,0.8911370038986206
1783201514262531800,3.96253173828125,0.1437161047562956,0.3789502172589302,0.1309007545858621,-0.1075946986675262,1.1301013231277466,0.899102509021759
1783201514272470000,3.972469970703125,-0.0129474521175026,0.3899620251387357,-0.0445721321761608,-0.1255785226821899,1.123321771621704,0.9048891067504884
1783201514282407200,3.9824072265625,-0.1220671675279736,0.4457353502869606,-0.2088333045721054,-0.1507123708724975,1.1151434183120728,0.9091520309448242
1783201514292344000,3.992343994140625,-0.1531128786548972,0.5629816735297442,-0.3067816376268863,-0.1787798106670379,1.0840349197387695,0.913540780544281
1783201514302281200,4.00228125,-0.1300678108930587,0.7111819379627704,-0.4450269097566604,-0.2124099433422088,1.028154373168945,0.9092432260513306
1783201514312217900,4.0122177734375,-0.1649716587528586,0.8634171570003032,-0.5972013385176659,-0.257340520620346,0.9631266593933104,0.8893047571182251
1783201514322156000,4.022156005859375,-0.2761912690520286,0.9847983880907296,-0.6769295397490263,-0.3147564232349396,0.9264134168624878,0.8570842742919922
1783201514332093000,4.032093017578125,-0.381151234434545,1.100459487968683,-0.6741296798974276,-0.3821508288383484,0.9075087904930116,0.8199845552444458
1783201514342030000,4.042030029296875,-0.4337579122453928,1.2413637501746415,-0.6934416986107825,-0.4559747278690338,0.8910967707633972,0.7742221355438232
1783201514351967000,4.051967041015625,-0.4661360410198569,1.3827911594718694,-0.8339461478441953,-0.5348295569419861,0.8663412928581238,0.7198503017425537
1783201514361904000,4.061904052734375,-0.5087415492981672,1.554898369193077,-1.01993458340168,-0.6178722381591797,0.8243549466133118,0.6642438173294067
1783201514371842000,4.071842041015625,-0.5463245532393455,1.6792711833149194,-1.2121510996937752,-0.6927298307418823,0.7600749731063843,0.6029413938522339
1783201514381779000,4.081779052734375,-0.5757648749962448,1.7789952938705682,-1.393580849033594,-0.7554118037223816,0.6590700745582581,0.5385530591011047
1783201514391716000,4.091716064453125,-0.5949430381968617,1.8281208515673877,-1.656971673223376,-0.792171835899353,0.5609491467475891,0.4767668545246124
1783201514401653000,4.101653076171875,-0.596809416590631,1.849839931422472,-1.975192404231429,-0.8001447916030884,0.4646112024784088,0.4140067994594574
1783201514411590100,4.111590087890625,-0.6454284860700369,1.8077736445873973,-2.2610253618538376,-0.785767138004303,0.3608527481555938,0.3421306312084198
1783201514421528000,4.121528076171875,-0.7257593293696641,1.7299077300965784,-2.5315076056092978,-0.7331779599189758,0.2558978199958801,0.2824574410915375
1783201514431465200,4.13146533203125,-0.7365162857055664,1.6900088504284618,-2.820594012069702,-0.654208242893219,0.1509030610322952,0.2202955335378646
1783201514441401900,4.14140185546875,-0.7423480605989694,1.7167606637537478,-3.072683105522394,-0.5622031688690186,0.02620186842978,0.1500802338123321
1783201514451339000,4.151339111328125,-0.8587515032768249,1.712907495456934,-3.293124430301785,-0.4656858742237091,-0.1185646876692771,0.0596624799072742
1783201514461276200,4.161276123046875,-0.9833446821510792,1.670508031144738,-3.425503440746665,-0.3679129779338836,-0.2730735838413238,-0.0400489382445812
1783201514471214000,4.171214111328125,-1.0862041681230068,1.6000287197738885,-3.4587387708723543,-0.2672823071479797,-0.4324680864810943,-0.1415536254644394
1783201514481151000,4.18115087890625,-1.1406801469370722,1.455512112289667,-3.4089427665680643,-0.1723086535930633,-0.5800870656967163,-0.2418812960386276
1783201514491088100,4.191088134765625,-1.191060088609159,1.267594169974327,-3.2538322843551635,-0.0743338316679,-0.6909646391868591,-0.324161171913147
1783201514501025000,4.20102490234375,-1.0874228962630033,1.0602367831736803,-2.9546482622504238,0.0193351358175277,-0.7668614983558655,-0.3774044215679168
1783201514510962000,4.2109619140625,-0.8044301305025815,0.9685966103523967,-2.593508426970243,0.1155212596058845,-0.8330199718475342,-0.4114671945571899
1783201514520900000,4.220900146484375,-0.5395344547078013,0.962458545988798,-2.2751029870450497,0.2118041068315506,-0.8770044445991516,-0.4344744980335235
1783201514530837000,4.2308369140625,-0.3987678474068641,0.9471294594317674,-2.002796450471878,0.3037158548831939,-0.8960893154144287,-0.4537347853183746
1783201514540774100,4.240774169921875,-0.3348272901549935,0.9427174882084132,-1.7049182502686977,0.4063117206096649,-0.902128040790558,-0.4698956310749054
1783201514550711000,4.2507109375,-0.3184472332403064,0.9069552699536084,-1.4506734400868415,0.4982079565525055,-0.9002469778060913,-0.49431312084198
1783201514560648000,4.26064794921875,-0.3367787164837121,0.8637912510097027,-1.1908663196027278,0.5790705680847168,-0.9053786396980286,-0.5259048342704773
1783201514570585000,4.270585205078125,-0.3877303205639124,0.8363508708983659,-0.9383967023998498,0.6509052515029907,-0.9126893281936646,-0.5655854344367981
1783201514580523000,4.28052294921875,-0.4208212737828493,0.8068775236546992,-0.7238835986256599,0.7048739194869995,-0.928950309753418,-0.6030896306037903
1783201514590460200,4.290460205078125,-0.4552902373567223,0.7732634233444928,-0.5229617978304624,0.7526606917381287,-0.9277209639549256,-0.6344382166862488
1783201514600397000,4.30039697265625,-0.4858189388722181,0.768541070997715,-0.2897124294042587,0.8100510239601135,-0.8946260809898376,-0.6494131684303284
1783201514610334200,4.310334228515625,-0.4863894322365522,0.7570242362052202,-0.0508896447598934,0.8704825639724731,-0.837148904800415,-0.662116289138794
1783201514620270800,4.320270751953125,-0.4782572714462876,0.7784528086811303,0.1970131029188633,0.9325800538063048,-0.7565603256225586,-0.6789189577102661
1783201514630209000,4.330208984375,-0.4496718129530548,0.8457879768073558,0.4401017283141613,0.984623372554779,-0.6682520508766174,-0.697104275226593
1783201514640146000,4.34014599609375,-0.4182382715523243,0.9156886115074158,0.7122118655323982,1.0308893918991089,-0.5868962407112122,-0.725277304649353
1783201514650083000,4.3500830078125,-0.3754403094418346,0.9687146837741136,0.9181365891814232,1.0629898309707642,-0.5132690668106079,-0.7546058893203735
1783201514660020200,4.360020263671875,-0.2535427993923425,0.9346008172482252,1.1168167485296725,1.0574342012405396,-0.4193012416362762,-0.7734696269035339
1783201514669957000,4.36995703125,-0.0250530465833842,0.874074160093069,1.3010235613673924,1.000051736831665,-0.3402075171470642,-0.7752325534820557
1783201514679895000,4.37989501953125,0.2843956182956695,0.8985802403181791,1.3919500329613683,0.8906327486038208,-0.3050463199615478,-0.7719171643257141
1783201514689832000,4.38983203125,0.4601967140987515,0.850280612051487,1.408782509818673,0.7337038516998291,-0.3027794063091278,-0.7703832983970642
1783201514699769000,4.39976904296875,0.5214332730889321,0.7247165423184633,1.38353584035933,0.5709397196769714,-0.3060929179191589,-0.7533883452415466
1783201514709706000,4.4097060546875,0.5864888058453798,0.5761550433576107,1.262320613485575,0.4118213355541229,-0.2999364733695984,-0.7185133695602417
1783201514719643100,4.41964306640625,0.6099848322451115,0.5307569817513227,1.064789624172449,0.2720759510993957,-0.2743701338768005,-0.663788378238678
1783201514729581000,4.4295810546875,0.561226938816905,0.6035083297073841,0.8493623281627893,0.1458900719881057,-0.2669037878513336,-0.633825421333313
1783201514739518200,4.439518310546875,0.3307756766766309,0.6795341692894696,0.5780991631627083,0.0294777192175388,-0.2790693938732147,-0.6728258728981018
1783201514749454800,4.449454833984375,-0.0971194810152053,0.6534294216960668,0.3019529022961855,-0.0825688540935516,-0.3158214688301086,-0.7532837390899658
1783201514759392000,4.45939208984375,-0.3698872053593396,0.6723065561234951,-0.0300093538165092,-0.1667875796556472,-0.3784360885620117,-0.8360241651535034
1783201514769329200,4.4693291015625,-0.4287377459958195,0.6367880834966898,-0.3454921842932701,-0.2377346903085708,-0.4513857066631317,-0.911091446876526
1783201514779267000,4.47926708984375,-0.3878022167563438,0.4714163195103407,-0.6828507464915513,-0.2974275946617126,-0.5399121046066284,-0.9571268558502196
1783201514789204200,4.489204345703125,-0.2037085089042782,0.3625578853845596,-0.980220997172594,-0.343291699886322,-0.6450507640838623,-0.9703880548477172
1783201514799141000,4.49914111328125,0.0396910821363329,0.3723924661785364,-1.2359160061627623,-0.365623414516449,-0.7710236310958862,-0.9394934773445128
1783201514809078000,4.509078125,0.2708113295793533,0.3660585869818926,-1.432908650815487,-0.3690259754657745,-0.8720492720603943,-0.878105103969574
1783201514819015000,4.519014892578125,0.3811532802611589,0.42389702796638,-1.5076163935363291,-0.3442303538322449,-0.9354979991912842,-0.8068703413009644
1783201514828953000,4.528953125,0.3996910997316241,0.6209358498483896,-1.47650696952343,-0.3143592178821563,-0.9705021381378174,-0.7849557995796204
1783201514838890000,4.538889892578125,0.2146019511014223,0.9324655587852,-1.3350450734347103,-0.2759729325771332,-0.9838398098945618,-0.8348799347877502
1783201514848827100,4.5488271484375,-0.1809811287894845,1.1077356164515018,-1.1826643084466455,-0.227633386850357,-0.9634745717048644,-0.9138607382774352
1783201514858764300,4.558764404296875,-0.4038397438436746,1.1108119551569222,-1.0782581775546074,-0.1745952069759369,-0.9066129326820374,-0.9905661940574646
1783201514868701000,4.568700927734375,-0.4525596433490514,1.0325637633502482,-1.0063520482510329,-0.1279291659593582,-0.8524625897407532,-1.0523622035980225
1783201514878638000,4.57863818359375,-0.4248398617744445,0.950375309485197,-0.9716630121856928,-0.0836471766233444,-0.8247883319854736,-1.098268747329712
1783201514888576000,4.588575927734375,-0.3542196806281805,0.8965355827480554,-1.005622564932704,-0.0436039194464683,-0.8167983293533325,-1.1233161687850952
1783201514898513200,4.59851318359375,-0.2304521389231085,0.8900520659476518,-1.0486498057544231,0.0105535928159952,-0.8412549495697021,-1.1218469142913818
1783201514908450000,4.608449951171875,-0.0933224268198013,0.9476163661658764,-1.0937257957994937,0.0728803873062133,-0.8648727536201477,-1.0990396738052368
1783201514918387200,4.61838720703125,0.0222587396897375,1.0905968501240015,-1.0633224742293357,0.1308510154485702,-0.8814887404441833,-1.0892000198364258
1783201514928324000,4.628323974609375,0.0244736392602324,1.2824661604136227,-0.875532542207837,0.1804087460041046,-0.8839169144630432,-1.1061744689941406
1783201514938262000,4.638261962890625,-0.1165504499331116,1.4537053551286458,-0.6355453899592161,0.2184469401836395,-0.8653866052627563,-1.1618207693099976
1783201514948199000,4.648198974609375,-0.3015915216378868,1.4985738399028776,-0.3990244525164365,0.2455159425735473,-0.8209620714187622,-1.2253072261810305
1783201514958136000,4.658135986328125,-0.4058504991441964,1.476782863855362,-0.1647106697291135,0.246642455458641,-0.773589015007019,-1.2833236455917358
1783201514968073200,4.6680732421875,-0.331075828666985,1.5406699373543262,0.016738368833065,0.2009624242782592,-0.7520432472229004,-1.325251817703247
1783201514978010000,4.678010009765625,-0.1645258146815001,1.6664526182740926,0.1548351724028587,0.1011258587241172,-0.7747454047203064,-1.3734904527664185
1783201514987948300,4.6879482421875,0.0336709450639784,1.8178572317063808,0.221715582498908,-0.0708257779479026,-0.8636951446533203,-1.4165809154510498
1783201514997885000,4.697885009765625,0.2096165639042854,1.963575031673908,0.242120657145977,-0.2968088686466217,-0.9993342161178588,-1.436890721321106
1783201515007822000,4.707822021484375,0.4141857812911271,2.10274823230356,0.2075274826705455,-0.5513372421264648,-1.1524195671081543,-1.442975640296936
1783201515017759000,4.717759033203125,0.5169504285864531,2.1973121836170555,0.2384936988204717,-0.7977225184440613,-1.3154518604278564,-1.4516814947128296
1783201515027696000,4.727696044921875,0.4390178786002099,2.105387933157384,0.2769406261146068,-1.0152337551116943,-1.49825918674469,-1.4670554399490356
1783201515037634000,4.737634033203125,0.2432479076102376,1.8138792679861184,0.2674117502689361,-1.183534860610962,-1.6210469007492063,-1.4850510358810425
1783201515047571000,4.747571044921875,0.0263764041416347,1.538807066091895,0.3420563646256923,-1.3009250164031982,-1.6838507652282717,-1.5236773490905762
1783201515057508000,4.757508056640625,-0.2319337557829916,1.257120414493978,0.4727835162103176,-1.3785889148712158,-1.6922359466552734,-1.5931466817855835
1783201515067445000,4.767445068359375,-0.4062592260755598,1.0339102095231414,0.6651847414195537,-1.4333841800689695,-1.6305896043777466,-1.7129263877868652
1783201515077382100,4.777382080078125,-0.4757622397601604,0.8616507318496703,0.8630114988088607,-1.4679054021835327,-1.546115159988403,-1.8670562505722048
1783201515087319000,4.787319091796875,-0.3800093709230422,0.6731073511123656,0.9887953487724064,-1.499024748802185,-1.4334447383880615,-2.016053915023804
1783201515097257200,4.79725732421875,-0.0768770495839416,0.4940685885623097,1.077085626643896,-1.547875165939331,-1.3055088520050049,-2.111433506011963
1783201515107193900,4.80719384765625,0.4553957435578107,0.2530599843114614,1.1456535514354704,-1.5833643674850464,-1.221776247024536,-2.170098304748535
1783201515117131000,4.817131103515625,0.9643456749096512,-0.0441512764155864,1.0097428597331046,-1.5822460651397705,-1.1852238178253174,-2.196973323822021
1783201515127068200,4.827068115234375,1.429252320265025,-0.359175841730833,0.688036040174961,-1.533681035041809,-1.1563260555267334,-2.1866118907928467
1783201515137005000,4.837005126953125,1.789671001663804,-0.7087275305479764,0.4228443040430545,-1.4380431175231934,-1.099279284477234,-2.133927583694458
1783201515146943000,4.84694287109375,2.070878783703596,-1.0766969195872544,0.2680886266171932,-1.3035780191421509,-0.998341977596283,-2.0461795330047607
1783201515156880100,4.856880126953125,2.4022693774081767,-1.3286591717898846,0.2032218944311142,-1.1532570123672483,-0.8677326440811157,-1.9347814321517944
1783201515166817000,4.866817138671875,2.6250726090133187,-1.4899538955956697,0.1986830819576978,-0.9895767569541932,-0.7008428573608398,-1.8265178203582764
1783201515176754000,4.87675390625,2.7064567607581616,-1.633084455548972,0.1809177081644535,-0.8090628981590271,-0.5199721455574036,-1.7117067575454712
1783201515186691000,4.886691162109375,2.6643764453977345,-1.7863151153646408,0.0324848040193319,-0.6085762977600098,-0.3277457356452942,-1.5856765508651731
1783201515196629000,4.89662890625,2.6311554360583425,-1.8735797034502029,-0.2026747819423675,-0.3929198682308197,-0.1484449654817581,-1.4460712671279907
1783201515206566100,4.906566162109375,2.6042671368718144,-1.813436054263264,-0.4527046047776937,-0.1519855260848999,-0.0053790672682225,-1.292648196220398
1783201515216503000,4.9165029296875,2.545570325492322,-1.66629918127805,-0.7237152563214302,0.0738574415445327,0.1224928796291351,-1.1631927490234375
1783201515226440000,4.92643994140625,2.3809381278268997,-1.4649154620595275,-0.845000625821948,0.2509796321392059,0.2330454289913177,-1.0702844858169556
1783201515236377000,4.936377197265625,2.1524486672788856,-1.1788655006855726,-0.8082587488800287,0.3606123924255371,0.2943431437015533,-1.0090093612670898
1783201515246314000,4.94631396484375,1.8978204107373955,-0.942905704256892,-0.8032511498510837,0.4158303737640381,0.3000480830669403,-0.9680002331733704
1783201515256252200,4.956252197265625,1.6151738280661403,-0.8958265576958656,-0.8651526024907827,0.4268249273300171,0.2773827314376831,-0.937472403049469
1783201515266189000,4.96618896484375,1.385129685422033,-0.9748812435798346,-0.9175117352813482,0.4047810435295105,0.2263829708099365,-0.8971684575080872
1783201515276126000,4.9761259765625,1.2498523231871426,-1.001779187377542,-0.9831997207224368,0.3634799420833587,0.1289349794387817,-0.8505634069442749
1783201515286062600,4.9860625,1.1452997695617375,-1.0039891185119747,-1.085054998087883,0.3263499438762665,0.0281974300742149,-0.7979604005813599
1783201515295999700,4.995999755859375,1.0269773415200412,-1.0056659656830131,-1.1626759979069232,0.3025942742824554,-0.0579699426889419,-0.7466335296630859
1783201515305937700,5.005937744140625,0.9016635932862758,-0.9423661905527114,-1.1433259852707385,0.2880121171474457,-0.0882060378789901,-0.6911900639533997
1783201515315874800,5.015874755859375,0.8879711680203676,-0.7129935174293816,-1.0264572631686926,0.2804247736930847,-0.0987004861235618,-0.6467989087104797
1783201515325812000,5.02581201171875,0.8672880070842802,-0.3881011997029185,-0.9461965624958276,0.2929280698299408,-0.1168605014681816,-0.614913284778595
1783201515335748900,5.035748779296875,0.7450215175919235,-0.119557084403187,-0.9873474880516528,0.3229722678661346,-0.1307938992977142,-0.5951182842254639
1783201515345685800,5.045685791015625,0.6031174306936562,0.0618916618980467,-1.0073889900833368,0.3691403865814209,-0.1512229889631271,-0.568317174911499
1783201515355623700,5.055623779296875,0.428315428930521,0.2139879108563065,-1.0225076487600804,0.4169420003890991,-0.1537292897701263,-0.5522212982177734
1783201515365560800,5.065560791015625,0.2751497971750796,0.3721759008184075,-0.9371475791215896,0.4551746845245361,-0.1720597445964813,-0.554831862449646
1783201515375497700,5.075497802734375,0.0754084383361041,0.5686388225086033,-0.8851584486871957,0.4827613234519958,-0.1999534219503402,-0.5756335258483887
1783201515385435000,5.085434814453125,-0.0816015938878059,0.7173777238629758,-0.8078320479005575,0.5225309133529663,-0.2393108904361724,-0.5935470461845398
1783201515395372000,5.0953720703125,-0.2407962766744196,0.8172557098060845,-0.7379705761671066,0.5666429996490479,-0.2614851593971252,-0.6161999106407166
1783201515405308700,5.10530859375,-0.380114292602241,0.8565952020257711,-0.60610828307271,0.6217412948608398,-0.2594798505306244,-0.6310138702392578
1783201515415246800,5.115246826171875,-0.4306277975261211,0.8499825058877467,-0.4129518555819988,0.6691125631332397,-0.2357969135046005,-0.6516892910003662
1783201515425183700,5.125183837890625,-0.4758585397414863,0.9111761025190352,-0.2025233907729387,0.6869202256202698,-0.2095879912376403,-0.715878963470459
1783201515435121000,5.135120849609375,-0.5716220761030912,1.0307119980037212,-0.0059714756250381,0.6784444451332092,-0.2238755822181701,-0.8101096153259277
1783201515445057800,5.145057861328125,-0.6980722810208797,1.0247226944610477,0.0745931764304637,0.6614407300949097,-0.2416640967130661,-0.901806652545929
1783201515454995000,5.154994873046875,-0.6926024713076651,0.9607081951901316,0.0979021558254957,0.6492801904678345,-0.2673614621162414,-0.960838794708252
1783201515464932900,5.164932861328125,-0.5107176716767251,0.8599506499335169,0.0964712462395429,0.6411499381065369,-0.296783298254013,-0.9931034445762634
1783201515474869800,5.174869873046875,-0.2768596698328852,0.774738464333117,0.1087882914990186,0.6203207969665527,-0.3254562020301819,-1.0063856840133667
1783201515484806700,5.184806640625,-0.1084140513591468,0.7666603718176483,0.1748433566868305,0.5975521206855774,-0.3514842987060547,-1.006669998168945
1783201515494743800,5.194743896484375,-0.0227411163792014,0.789100751684606,0.1925771662980318,0.6000086069107056,-0.3637297749519348,-1.0075325965881348
1783201515504681000,5.204680908203125,-0.0317141119077801,0.7784355652853846,0.2000081930816173,0.6088777184486389,-0.3592159748077392,-1.0254477262496948
1783201515514619000,5.214618896484375,-0.1017031555436551,0.8345800618335604,0.2383265255600213,0.628667414188385,-0.347127616405487,-1.0713454484939575
1783201515524556000,5.22455615234375,-0.1894540658414363,0.9066922351032496,0.2608487384915351,0.6538063883781433,-0.3335449695587158,-1.1242856979370115
1783201515534492700,5.23449267578125,-0.2796083840191364,0.9087512134596704,0.2967413051277399,0.6719891428947449,-0.3095184564590454,-1.1840457916259766
1783201515544429800,5.244429931640625,-0.2842877740070224,0.9176081813931464,0.3903104001849889,0.6647825837135315,-0.3065212666988373,-1.2501338720321655
1783201515554366700,5.25436669921875,-0.2561483057156205,0.9127256700485944,0.4783458265125751,0.6416476964950562,-0.3229114115238189,-1.320345401763916
1783201515564304000,5.264303955078125,-0.2239505019441247,0.8349971182018517,0.5531581986516714,0.6003795266151428,-0.3235228359699249,-1.3752318620681765
1783201515574241800,5.27424169921875,-0.0671335080742836,0.7332558226048946,0.645853433483839,0.5548354983329773,-0.3477099537849426,-1.393256664276123
1783201515584179000,5.284178955078125,0.1708155624754726,0.5784983916133641,0.7090642151564359,0.5224824547767639,-0.3839177787303924,-1.3970556259155271
1783201515594115800,5.29411572265625,0.3408104562178254,0.3919809637457132,0.7013993796169757,0.4941663742065429,-0.4226619601249695,-1.392903208732605
1783201515604052700,5.304052734375,0.4852449383765458,0.2609714880883693,0.6999187856703997,0.4894223213195801,-0.4585529863834381,-1.3684622049331665
1783201515613990000,5.313989990234375,0.5715683000892401,0.1334367028042674,0.7133949378371238,0.5007341504096985,-0.4673486053943634,-1.3343902826309204
1783201515623927800,5.323927734375,0.5943833584874868,0.0422860670655965,0.771038148510456,0.5115364193916321,-0.4294411838054657,-1.3081703186035156
1783201515633865000,5.333864990234375,0.5781926866650581,0.023560616068542,0.9426701419353484,0.5143482089042664,-0.3705136775970459,-1.311906099319458
1783201515643801900,5.3438017578125,0.5022290986642242,0.0689829353332519,1.1382611030966043,0.4819015264511108,-0.2905775308609009,-1.3496047258377075
1783201515653738800,5.35373876953125,0.4586807565778493,0.1129842818841338,1.3005734795123338,0.4344583749771118,-0.2192181497812271,-1.3898807764053345
1783201515663676000,5.363676025390625,0.5044451672784984,0.0686690470784902,1.359009886389971,0.3687077164649963,-0.1508652418851852,-1.4266080856323242
1783201515673612800,5.37361279296875,0.6299509309530258,-0.0369236632496118,1.3350462424784897,0.2866690456867218,-0.1025387197732925,-1.4437974691390991
1783201515683550700,5.38355078125,0.7853123191870749,-0.1673217290103435,1.1780611985653635,0.2125514894723892,-0.0978228151798248,-1.4474300146102903
1783201515693487900,5.39348779296875,0.9118862966150044,-0.3318640564352274,0.9047475307762622,0.1500122249126434,-0.1185869500041008,-1.4400882720947266
1783201515703425000,5.403425048828125,0.9427560666531324,-0.5044295313179493,0.6798205850154161,0.1007891073822975,-0.1344598829746246,-1.4021365642547607
1783201515713361700,5.413361572265625,1.049870433590561,-0.6754223500564694,0.4827981297463178,0.0739239454269409,-0.1809844970703125,-1.343093752861023
1783201515723298800,5.423298828125,1.1401420945376155,-0.7574845471933483,0.2998457008838653,0.079274371266365,-0.2296011745929718,-1.258824110031128
1783201515733236700,5.43323681640625,1.1740671604931354,-0.8023015940412879,0.1899140845686197,0.0952267050743103,-0.2548974752426147,-1.1517746448516846
1783201515743174000,5.443173828125,1.2319041401728987,-0.7747650600790977,0.2317676054358482,0.1154939755797386,-0.2635610401630401,-1.0291180610656738
1783201515753110800,5.45311083984375,1.216153321072459,-0.635293753285706,0.3150251498371362,0.1414273083209991,-0.2321024239063263,-0.9233210682868958
1783201515763047700,5.463047607421875,1.053495930611342,-0.4742570958942174,0.4503992504447698,0.1214979887008667,-0.1140263676643371,-0.8821892142295837
1783201515772984800,5.47298486328125,0.8425653614990413,-0.1898456955075264,0.7079384259968996,0.0364728458225727,-1.83088704943e-05,-0.9093902111053468
1783201515782921700,5.482921630859375,0.6903855259105562,0.1648126687988639,0.6968897932380438,-0.0645425766706466,0.0372940450906753,-0.9733443260192872
1783201515792860000,5.49285986328125,0.599663783108443,0.1945557728946209,0.2346124734729528,-0.1585529595613479,0.0309248268604278,-1.0448763370513916
1783201515802796800,5.502796875,0.6665721041247248,-0.0660071343928575,-0.3696627489537,-0.2363775223493576,-0.0228826384991407,-1.0856857299804688
1783201515812734000,5.51273388671875,0.8659539820015429,-0.511341794924438,-0.9555342996835708,-0.2815428376197815,-0.154545322060585,-1.078201174736023
1783201515822670600,5.522670654296875,1.1796914301156998,-1.1234408428445457,-1.651628558629751,-0.2828738987445831,-0.3199286162853241,-1.0224716663360596
1783201515832607700,5.532607666015625,1.6655469016060231,-1.7146970092222094,-2.279808972778916,-0.2602514028549194,-0.5012432932853699,-0.9075208902359008
1783201515842545700,5.542545654296875,2.275665589363873,-2.095929199938476,-2.617780113917589,-0.2115936875343322,-0.7214561104774475,-0.7514076828956604
1783201515852482800,5.55248291015625,2.777203783154488,-2.3163977049857376,-2.8088299245178696,-0.1279754936695099,-0.910076141357422,-0.5827595591545105
1783201515862420000,5.562419921875,3.0706904704004523,-2.447808454920352,-2.728608971333504,-0.013034600764513,-1.0041205883026123,-0.3959188461303711
1783201515872356900,5.57235693359375,3.1668940056145187,-2.523353817509115,-2.4218770180672404,0.1391602605581283,-0.9907216429710388,-0.2074948847293853
1783201515882293800,5.582293701171875,3.03321881787926,-2.4902058734059334,-1.984423758435249,0.3125763535499573,-0.8902171850204468,-0.0436889491975307
1783201515892230700,5.592230712890625,2.7510955284297465,-2.283599597233534,-1.5463468139469625,0.493004709482193,-0.7313615083694458,0.0955474972724914
1783201515902168800,5.6021689453125,2.427359979522973,-1.974233788332343,-1.1156775153666734,0.6629801392555237,-0.558993399143219,0.2050738930702209
1783201515912105700,5.612105712890625,2.123835736256838,-1.620462728254497,-0.7455670226454735,0.8166522979736328,-0.3950588405132293,0.2813372313976288
1783201515922043000,5.62204296875,1.8215452725693584,-1.223000118227303,-0.4600958840727805,0.9539914131164552,-0.2468491941690445,0.3346311748027801
1783201515931979800,5.631979736328125,1.5131294578693806,-0.8679585998222231,-0.2628910579741001,1.070940613746643,-0.1239645481109619,0.3739801943302154
1783201515941916700,5.641916748046875,1.2257219444066283,-0.5938239710390567,-0.0898643953204154,1.167818546295166,-0.0422396399080753,0.3855491280555725
1783201515951853800,5.651853759765625,0.9648246905982494,-0.3741170980140567,0.0776402890413999,1.237454891204834,-0.0025273822247982,0.3819147050380707
1783201515961791700,5.661791748046875,0.7148290622934699,-0.2130482919186353,0.2386450899899005,1.263055682182312,0.0131673999130725,0.3483656346797943
1783201515971729000,5.67172900390625,0.508683243239671,-0.0386108856841921,0.4770961187124252,1.2547903060913086,-0.0032009207643568,0.2873350381851196
1783201515981665800,5.681665771484375,0.3434083637565374,0.0776432116508483,0.7254542089432477,1.2252596616744995,-0.0425039604306221,0.2200550436973571
1783201515991603000,5.69160302734375,0.2155057680733501,0.0280316240027546,0.9859235927283764,1.198314905166626,-0.0727835744619369,0.171166330575943
1783201516001539600,5.70153955078125,0.1288039284370839,-0.1572358038038015,1.24190735553205,1.1818588972091677,-0.1090676933526992,0.1438296288251876
1783201516011477800,5.711477783203125,0.1787463554747402,-0.3043082332506776,1.4599690916985273,1.1647931337356567,-0.1408306956291198,0.1366177797317505
1783201516021414700,5.72141455078125,0.3644999593630433,-0.3066957129091024,1.740561226058006,1.136799454689026,-0.1400071084499359,0.1563025116920471
1783201516031351800,5.731351806640625,0.5719754195854068,-0.2625987970292568,2.1341022787272927,1.08546781539917,-0.1063617914915084,0.1838995069265365
1783201516041289000,5.7412890625,0.716313455632329,-0.2557406016975641,2.555397599762678,1.0213288068771362,-0.026704728603363,0.2195587903261184
1783201516051225900,5.751225830078125,0.7845815206944942,-0.2963426611989736,2.9376562109172344,0.9346506595611572,0.1177690923213958,0.2662964761257171
1783201516061162800,5.761162841796875,0.8585654791854321,-0.3330331002146005,3.233372264650464,0.8403630256652832,0.3099243342876434,0.329261839389801
1783201516071100700,5.7711005859375,0.9531482813298702,-0.3421989879667759,3.3752070857048038,0.7291427254676819,0.5159414410591125,0.4118454158306122
1783201516081037800,5.781037841796875,1.0069244413115084,-0.3283645238816738,3.365754197704792,0.596164882183075,0.69551020860672,0.4970742166042328
1783201516090974700,5.790974609375,0.9908854529194532,-0.3213438314646482,3.2457752346277235,0.4328039586544037,0.8219763040542603,0.5741524696350098
1783201516100911900,5.800911865234375,0.955056453038752,-0.2810352019518614,3.0217841084122656,0.2471479624509811,0.881864070892334,0.6350434422492981
1783201516110849000,5.81084912109375,0.8928931345924734,-0.238493114298582,2.7138901256293058,0.0499190501868724,0.8771332502365112,0.6667638421058655
1783201516120785700,5.82078564453125,0.7687748797535896,-0.2302671377450227,2.3633757292598485,-0.1370332092046737,0.8321958780288696,0.677099883556366
1783201516130723800,5.830723876953125,0.6048714347541332,-0.2279337263613939,2.0061942762166263,-0.2797853052616119,0.7663364410400391,0.6678070425987244
1783201516140660700,5.84066064453125,0.4428428437158465,-0.2516623924732208,1.6426771904110908,-0.3460315465927124,0.6982913017272949,0.6503049731254578
1783201516150598000,5.850597900390625,0.341020007315278,-0.3213470463350415,1.285022859159112,-0.3307341039180755,0.6351357698440552,0.6286764144897461
1783201516160534800,5.86053466796875,0.3497847669206559,-0.394538247013092,0.9604279169440268,-0.2468449920415878,0.6071213483810425,0.6089872717857361
1783201516170472000,5.870471923828125,0.4411095901824534,-0.4690115964561701,0.7424176187038422,-0.1287630796432495,0.6317494511604309,0.5965687036514282
1783201516180408800,5.880408935546875,0.6981475382141769,-0.4678016361445188,0.6760293760389089,-0.0527933202683925,0.7183589339256287,0.6202085018157959
1783201516190346800,5.8903466796875,1.0939458682909606,-0.3063268795967102,0.7645955482423306,-0.0539177097380161,0.8108108639717102,0.6497421860694885
1783201516200283600,5.90028369140625,1.2899613384746014,-0.2103366948723793,0.8428647828370333,-0.1060621812939643,0.8698708415031433,0.6731663942337036
1783201516210220800,5.910220703125,1.2851273424468934,-0.3464689203709363,0.7195254034161567,-0.1797097623348236,0.9049926400184632,0.6960368156433105
1783201516220158000,5.920157958984375,1.2111897073157132,-0.545105825099349,0.4423474614143371,-0.2441166788339615,0.9059797525405884,0.7068483233451843
1783201516230094800,5.9300947265625,1.1552172063335775,-0.6222066004365682,0.064133741736412,-0.273642897605896,0.8537822961807251,0.7049367427825928
1783201516240033000,5.940032958984375,1.1251219277992843,-0.67762190592736,-0.3699778062522411,-0.2416794747114181,0.7720469236373901,0.6932384371757507
1783201516249969700,5.9499697265625,1.1678761968985198,-0.75355568331182,-0.8069272080153226,-0.1706484407186508,0.7116983532905579,0.6895933151245117
1783201516259906800,5.95990673828125,1.2627885232582687,-0.8270318384110927,-1.0163374356925488,-0.0832018256187439,0.7167443037033081,0.7097293734550476
1783201516269843700,5.96984375,1.4963317600645123,-0.8477046240836381,-1.0301590402960776,-0.0211357958614826,0.7543230652809143,0.7797582149505615
1783201516279780400,5.9797802734375,1.8181135445550085,-0.7535691273152828,-0.99641692969203,0.0243375562131404,0.7835151553153992,0.8727608323097229
1783201516289717200,5.98971728515625,1.9591531235784287,-0.7054279044806957,-1.072279687666893,0.0335068218410015,0.7941446304321289,0.935085952281952
1783201516299655200,5.9996552734375,1.926521312303841,-0.6713862264081836,-1.1896043368428946,0.0224266089498996,0.7879194617271423,0.9864067435264589
1783201516309592300,6.00959228515625,1.8637661654442548,-0.6223743582189083,-1.331280752465129,0.0163969453424215,0.7576355934143066,1.036218762397766
1783201516319529200,6.019529296875,1.758991493500769,-0.671079644677043,-1.522156375542283,0.0242162086069583,0.6955244541168213,1.070601463317871
1783201516329466400,6.02946630859375,1.6316940241038798,-0.7805372137397527,-1.7404332157641649,0.0710913017392158,0.6167523860931396,1.1059647798538208
1783201516339403300,6.0394033203125,1.5617437050431966,-0.885432004931569,-1.8625538670450448,0.1546318978071212,0.5521607398986816,1.1480833292007446
1783201516349340200,6.049340087890625,1.6021858978077768,-0.8904945490181445,-1.85308928860724,0.2716628909111023,0.4851891100406647,1.1906006336212158
1783201516359278000,6.059278076171875,1.6147364595621825,-0.824996533191204,-1.778410187458992,0.396738737821579,0.4255099594593048,1.2292797565460205
1783201516369215200,6.06921533203125,1.6363807206153869,-0.6799591167032718,-1.5923656378000974,0.5179487466812134,0.3950543105602264,1.2622171640396118
1783201516379152400,6.07915234375,1.627429206266254,-0.4372995303750038,-1.2826222277581691,0.6126652359962463,0.4056529402732849,1.287405014038086
1783201516389089300,6.08908935546875,1.5919211089029908,-0.228319510808587,-0.8457640114098787,0.6709418296813965,0.4711597561836242,1.3193820714950562
1783201516399026400,6.0990263671875,1.666001221244782,-0.0460235000282526,-0.4240805678397417,0.6996521949768066,0.5544736385345459,1.362091302871704
1783201516408963300,6.10896337890625,1.752722642364353,0.1325824240624904,-0.1809574556529521,0.7184693217277527,0.6165657639503479,1.3942595720291138
1783201516418900200,6.118900146484375,1.691246137138456,0.261598680076003,-0.0670844082355499,0.7482954263687134,0.6611212491989136,1.417789340019226
1783201516428838100,6.128838134765625,1.5551654956966638,0.3490986843526363,-0.0359995341420173,0.8122032880783081,0.6972086429595947,1.4316174983978271
1783201516438775300,6.138775390625,1.33803022672534,0.416989148274064,-0.0397755455493927,0.9094272255897522,0.7426368594169617,1.434849500656128
1783201516448712400,6.14871240234375,1.0768716916322707,0.5500865361213684,-0.0285433729171752,1.0273884534835815,0.8037705421447754,1.4188770055770874
1783201516458649300,6.1586494140625,0.8137896411307156,0.7436538825005292,0.0871592280149459,1.151911735534668,0.8623354434967041,1.380231499671936
1783201516468586200,6.168586181640625,0.5217119438998401,0.9317056803286076,0.278754982060194,1.2650874853134155,0.9315885305404664,1.3314043283462524
1783201516478523100,6.178523193359375,0.3385867888189852,1.084372276520729,0.5622726484775543,1.361575961112976,1.0045545101165771,1.2701537609100342
1783201516488461300,6.18846142578125,0.2015957545340061,1.270168404376507,0.8048024709463119,1.4350621700286863,1.0649787187576294,1.2067116498947144
1783201516498398200,6.198398193359375,0.1092807511910796,1.5024083034992215,1.010640685355663,1.4818764925003052,1.113322615623474,1.1497321128845217
1783201516508335400,6.20833544921875,0.0355767786853015,1.766796906554699,1.2359230204254388,1.4794085025787354,1.1871867179870603,1.0969443321228027
1783201516518272500,6.2182724609375,0.0332975817069411,2.03321029343605,1.5020879855036735,1.3605962991714478,1.3084568977355957,1.0654443502426147
1783201516528209200,6.228209228515625,0.2705053323701024,2.3626807327330117,1.9068074347913264,1.1386194229125977,1.3929438591003418,1.0523033142089844
1783201516538146300,6.238146240234375,0.2764154331967234,2.536375503906608,2.130612683045864,0.8618490695953369,1.3936350345611572,0.9919647574424744
1783201516548084200,6.248084228515625,-0.0403942619696259,2.4006156188517807,2.0284581304728984,0.5757696628570557,1.3323428630828855,0.9010908007621764
1783201516558021400,6.258021484375,-0.419415498638153,2.120532018536329,1.8116496092379093,0.3349730670452118,1.2353016138076782,0.8335540890693665
1783201516567958300,6.267958251953125,-0.599838116762042,1.84769941226244,1.433423030078411,0.1514032334089279,1.151705026626587,0.7853844165802002
1783201516577895400,6.2778955078125,-0.6180068106591701,1.708897675293684,1.0462696326196192,0.0107334619387984,1.058639645576477,0.7387125492095947
1783201516587832300,6.287832275390625,-0.5895008471429347,1.7447142540842293,0.7215466801106929,-0.1162300705909729,0.9410943984985352,0.6906845569610596
1783201516597769200,6.297769287109375,-0.4956652101039886,1.8954799850910904,0.431370140326023,-0.2464094161987304,0.7811676263809204,0.6136099100112915
1783201516607706400,6.307706298828125,-0.4667291846074163,1.9859990449279543,0.1935848820358514,-0.3667648732662201,0.5868628621101379,0.5162686705589294
1783201516617644300,6.317644287109375,-0.5186022874467074,1.805273644465208,-0.0455944609612226,-0.3986894190311432,0.0292667020112276,0.2766829431056976
1783201516627581400,6.32758154296875,-1.3150007949240503,1.1405869156956672,-0.6620896980136632,-0.6506766676902771,-0.2839700281620025,0.0883572474122047
1783201516637518300,6.337518310546875,-0.8123559550657868,0.9594342297315596,0.2177402491271495,-1.0314950942993164,-0.1250158101320266,0.0301309637725353
1783201516647455200,6.347455322265625,-0.3294705854274332,1.225333237349987,1.2828466841638086,-1.340015172958374,0.0353115424513816,0.0492404736578464
1783201516657392400,6.357392333984375,-0.4306374421373009,1.0252139851093292,1.1958090367019176,-1.6086986064910889,0.2532183825969696,0.1017091944813728
1783201516667329300,6.367329345703125,-0.467852635679394,0.6092576870143414,0.9354033658027648,-1.8505054712295528,0.4118003249168396,0.2074819654226303
1783201516677267200,6.37726708984375,-0.1597749668926,0.504842203772068,0.5257260018467903,-2.072584629058838,0.3699043393135071,0.3764101266860962
1783201516687204400,6.387204345703125,0.7044923771962524,0.4600397699713707,-0.2072527573823928,-2.1730048656463623,0.3673769831657409,0.5231450200080872
1783201516697141500,6.3971416015625,0.8397035423271357,0.0869078836023807,-1.8383815488189457,-2.0536129474639893,0.031908094882965,0.6150190830230713
1783201516707078100,6.407078125,1.128310933098942,-0.2725567119419574,-3.368465210229158,-1.7732456922531128,-0.3144378662109375,0.7469278573989868
1783201516717015300,6.417015380859375,1.6317743958637116,-0.3813268832623958,-3.946104354664683,-1.426621675491333,-0.2741929888725281,0.925483763217926
1783201516726952200,6.4269521484375,1.502388722015917,-0.1951286043465137,-3.9511891105830665,-1.0265398025512695,-0.151779443025589,1.108330488204956
1783201516736889300,6.436889404296875,1.2650057609163223,-0.4723737663656472,-3.8773704256564376,-0.6057222485542297,-0.0385810211300849,1.2590540647506714
1783201516746827300,6.4468271484375,0.9468654016681016,-0.7381137840300798,-3.762888890951872,-0.2468134015798568,0.1114729270339012,1.3566341400146484
1783201516756764400,6.456764404296875,0.6470411819636821,-0.6760889972716569,-3.3627772277206183,0.0031445184722542,0.2470658719539642,1.3968600034713743
1783201516766701300,6.466701416015625,0.4584264895558357,-0.4161567891031503,-2.8170827890783547,0.1481629610061645,0.3494164645671844,1.3850667476654053
1783201516776638200,6.47663818359375,0.3018653701432049,-0.1499871478497982,-2.1977111198067663,0.1880677640438079,0.4577776193618774,1.3549531698226929
1783201516786575400,6.486575439453125,0.23296251430884,-0.0096299981325864,-1.5621259823590516,0.1358290612697601,0.5744421482086182,1.3418759107589722
1783201516796512300,6.49651220703125,0.2324798453584313,0.0687631551027297,-1.002127708554268,0.020510084927082,0.6824986338615417,1.3731329441070557
1783201516806449400,6.506449462890625,0.2957211682997643,0.090182375228405,-0.6346329512894153,-0.119726113975048,0.7198971509933472,1.433045744895935
1783201516816386300,6.51638623046875,0.2855493183754384,-0.0399888960391283,-0.4550198959827423,-0.2662663757801056,0.6379061937332153,1.4993244409561155
1783201516826324200,6.52632421875,0.2809929702453315,-0.0073649758100509,-0.5031435831606388,-0.3979807198047638,0.4501698315143585,1.5506550073623655
1783201516836261400,6.536261474609375,0.3859203485324978,0.2880336825370788,-0.6554448531717062,-0.5021505355834961,0.2364998757839203,1.5905638933181765
1783201516846198300,6.5461982421875,0.4657083171270787,0.5471142423123121,-0.5926099190741777,-0.5554470419883728,0.0178657993674278,1.5997709035873413
1783201516856135400,6.556135498046875,0.4479039264976978,0.7835755585223436,-0.5203320338487625,-0.5509331226348877,-0.1804728806018829,1.583348274230957
1783201516866072300,6.566072265625,0.3791575763992965,1.0099497804820536,-0.4268821812570095,-0.5106445550918579,-0.2874970734119415,1.5805559158325195
1783201516876009200,6.57600927734375,0.2325853515595197,1.1989479192495345,-0.0934820012956857,-0.4604902267456054,-0.3117919266223907,1.5625662803649902
1783201516885946400,6.5859462890625,0.0430612892217934,1.3916963504612443,0.4041729213207959,-0.4211678504943847,-0.2550154626369476,1.5245245695114136
1783201516895883300,6.59588330078125,-0.2616512870460749,1.4894506222486494,1.0049486111938952,-0.4052568674087524,-0.1184727698564529,1.478671669960022
1783201516905821400,6.605821533203125,-0.5933801727943122,1.566196592798829,1.6202701282918452,-0.415825605392456,0.0616274923086166,1.411049246788025
1783201516915758300,6.61575830078125,-0.8798350617073476,1.6639257301449777,2.1698136435776947,-0.4434934854507446,0.2611942291259765,1.346043348312378
1783201516925695500,6.625695556640625,-1.164844720248133,1.7220201917171478,2.552041859593987,-0.4807884097099304,0.4810493588447571,1.2649873495101929
1783201516935632100,6.635632080078125,-1.3868610392592846,1.86808344412148,2.64455939977169,-0.5278688073158264,0.7246936559677124,1.213861107826233
1783201516945569300,6.6455693359375,-1.5047627576708793,2.025793295177817,2.547626381239295,-0.5885127186775208,0.9546818137168884,1.1858373880386353
1783201516955506400,6.65550634765625,-1.629532462155819,2.1301047335237264,2.2602239823430774,-0.6651326417922974,1.143701672554016,1.164123773574829
1783201516965443300,6.665443359375,-1.796973579762131,2.180678736463189,1.8033967446774244,-0.7563799619674683,1.2524439096450806,1.1316648721694946
1783201516975380500,6.67538037109375,-1.9432501826561983,2.2627286586403845,1.1846838315755128,-0.8585024476051331,1.301200032234192,1.0699313879013062
1783201516985318400,6.685318359375,-2.146179523881525,2.390299976542592,0.5129588747322559,-0.948553502559662,1.296865701675415,0.9599418044090272
1783201516995255300,6.69525537109375,-2.401658259772509,2.5991198371112345,-0.1849415568530559,-1.0188803672790527,1.2707775831222534,0.7979345917701721
1783201517005192200,6.705192138671875,-2.635408709588647,2.7543121523886915,-0.7905284464001655,-1.0598573684692385,1.2252376079559326,0.594700276851654
1783201517015129300,6.71512939453125,-2.870393815766275,2.7952812916368246,-1.3433476223558187,-1.0785759687423706,1.1339349746704102,0.3675063550472259
1783201517025066500,6.72506640625,-2.994474661204219,2.7042244716614485,-1.9159248072266577,-1.0747196674346924,0.9924944639205932,0.139838308095932
1783201517035003400,6.73500341796875,-2.903462264892459,2.549046769431233,-2.5417723945140835,-1.0690861940383911,0.6418192982673645,-0.1216637417674064
1783201517044940300,6.744940185546875,-2.98345057836473,2.021384831085801,-3.1421219679296013,-1.1518863439559937,0.5014179944992065,-0.3009456098079681
1783201517054877200,6.754877197265625,-2.808295963771641,1.6683347787588834,-3.334657048651576,-1.2350823879241943,0.2554258108139038,-0.4412462711334228
1783201517064814300,6.764814453125,-2.3538261028870937,1.4968676205068825,-3.6988165240138766,-1.2879235744476318,-0.0971492081880569,-0.5699607729911804
1783201517074752300,6.774752197265625,-2.0069915640741587,1.3373501355066897,-4.018039710062742,-1.3178648948669434,-0.4617598354816437,-0.6992079019546509
1783201517084689400,6.784689453125,-1.6688504731960594,1.3893670307308434,-4.04629783629775,-1.327209711074829,-0.7614114880561829,-0.8151459693908691
1783201517094626300,6.794626220703125,-1.364520466504991,1.4948986585214734,-3.781491884613037,-1.285114288330078,-0.9779192209243774,-0.9090463519096376
1783201517104563200,6.804563232421875,-1.1350786006029694,1.490516497914493,-3.463095212516188,-1.1789648532867432,-1.0945219993591309,-0.9788888096809388
1783201517114500400,6.814500244140625,-0.924867943263054,1.3998241273373364,-3.0799826148808003,-1.026982307434082,-1.1044615507125854,-1.0211915969848633
1783201517124437200,6.824437255859375,-0.7557837346248328,1.2827552064880727,-2.648696645706892,-0.8382254838943481,-1.0066419839859009,-1.0368752479553225
1783201517134374400,6.83437451171875,-0.6220867734491825,1.0876122813552618,-2.261502331715822,-0.619827389717102,-0.8817090392112732,-1.05271577835083
1783201517144311600,6.8443115234375,-0.5545359167456626,0.8096507877603173,-2.055520324921608,-0.4016132950782776,-0.7748441100120544,-1.0291292667388916
1783201517154248200,6.854248291015625,-0.5002044609688222,0.5698538973867893,-1.912746177190542,-0.2276161164045334,-0.6651132106781006,-0.9766183495521544
1783201517164185300,6.864185302734375,-0.3858811125006526,0.54905777759552,-1.6798644730329513,-0.0880851298570633,-0.5852851867675781,-0.9267943501472472
1783201517174123300,6.874123291015625,-0.3806255300600081,0.6865402486592531,-1.5247247647255655,0.0290500931441783,-0.5331486463546753,-0.9045643210411072
1783201517184060400,6.884060302734375,-0.4590238709270954,0.9214166337653994,-1.4395622634857892,0.1418349593877792,-0.5118361711502075,-0.933118224143982
1783201517193997300,6.893997314453125,-0.5645220348395407,1.1124114993080496,-1.3782307196885346,0.2522817254066467,-0.5360650420188904,-0.9881041646003724
1783201517203934500,6.9039345703125,-0.6745038469720631,1.1933812250331044,-1.3192208968371153,0.3554139733314514,-0.5574710369110107,-1.0347715616226196
1783201517213871400,6.913871337890625,-0.705439448788017,1.3194216801062226,-1.1823685403704642,0.4417230188846588,-0.578069806098938,-1.0665442943572998
1783201517223808300,6.923808349609375,-0.6736005414567887,1.5146978762298822,-1.01221304923892,0.5065962672233582,-0.5760876536369324,-1.090853571891785
1783201517233745400,6.933745361328125,-0.6526923395931721,1.63787621987015,-0.78447747579813,0.5449174046516418,-0.5949330925941467,-1.1290440559387207
1783201517243682300,6.943682373046875,-0.6860398248564451,1.621023869268596,-0.6626186903238296,0.5574288964271545,-0.6338402628898621,-1.174522876739502
1783201517253619200,6.953619140625,-0.7505033100038766,1.5127254071131349,-0.569033813175559,0.5540773272514343,-0.6931918263435364,-1.2388405799865725
1783201517263556400,6.963556396484375,-0.8119085766244679,1.4291487137600778,-0.4570125311046839,0.5412680506706238,-0.7400080561637878,-1.3116910457611084
1783201517273494800,6.973494873046875,-0.8321146215680986,1.277778879380226,-0.3158271138697862,0.5407741069793701,-0.7821850776672363,-1.368320345878601
1783201517283431700,6.983431640625,-0.7124538575947285,1.161354101653397,-0.1674953320115804,0.563953161239624,-0.8144119381904602,-1.401347517967224
1783201517293368600,6.99336865234375,-0.5199018257379532,1.132441018640995,0.045392216387391,0.5904573798179626,-0.800146222114563,-1.4068396091461182
1783201517303305700,7.0033056640625,-0.3660563950248062,1.1379080518752336,0.362844301110506,0.5992133021354675,-0.7505286335945129,-1.4398213624954224
1783201517313242600,7.01324267578125,-0.3215183112487196,1.1147168536409735,0.7129682368576526,0.5868695378303528,-0.6856042146682739,-1.5097154378890991
1783201517323179800,7.0231796875,-0.3020194647263735,1.069349771694839,1.0084434675723313,0.5431231260299683,-0.601842999458313,-1.5819870233535769
1783201517333116700,7.03311669921875,-0.1664712496608495,1.0170172346502542,1.2941484149008988,0.4743820130825043,-0.5029363632202148,-1.6387460231781006
1783201517343053600,7.043053466796875,0.0914344211161136,0.8812082497566938,1.5589987902492284,0.3935510814189911,-0.415088027715683,-1.6815557479858398
1783201517352990700,7.05299072265625,0.3972235405743122,0.6814885182276368,1.702200808003545,0.3111898899078369,-0.3470657765865326,-1.7075626850128174
1783201517362927600,7.062927734375,0.6961279420200734,0.4617275769278406,1.7623790901124476,0.2186865806579589,-0.2597284913063049,-1.7019098997116089
1783201517372864800,7.07286474609375,0.935659167194739,0.1980488757073879,1.8358365405112504,0.1303103566169738,-0.1753102391958236,-1.660355567932129
1783201517382801700,7.0828017578125,1.2296547538109124,-0.0676554861217737,1.8128835349470376,0.054515466094017,-0.1287877559661865,-1.6015665531158447
1783201517392739800,7.09273974609375,1.4275219893410802,-0.3492392618671059,1.6437299143344164,0.0203254166990518,-0.154038667678833,-1.5364290475845337
1783201517402676500,7.102676513671875,1.5393495024055242,-0.6209905026450753,1.387712249261141,-0.0061320234090089,-0.1423593759536743,-1.4731425046920776
1783201517412613600,7.112613525390625,1.7047857099302113,-0.7666638789489865,1.1700620165050029,0.0029973238706588,-0.1295046061277389,-1.4083397388458252
1783201517422550800,7.12255078125,1.8955432595856487,-0.829315857695043,0.8845102139115333,0.050533153116703,-0.1584249287843704,-1.3347169160842896
1783201517432487700,7.13248779296875,2.0507862821370364,-0.8784344011291861,0.666416913563013,0.1174118518829345,-0.1981795579195022,-1.245601773262024
1783201517442424800,7.1424248046875,2.1825876388244327,-0.9194713449165224,0.5716185689717531,0.1769934147596359,-0.2186227887868881,-1.1333825588226318
1783201517452361500,7.152361572265625,2.32483323263675,-0.935612040117383,0.6489806255936622,0.2127553522586822,-0.1976779401302337,-1.01372230052948
1783201517462298600,7.162298583984375,2.4009610712885854,-0.9550687279984356,0.8464321199297904,0.2172252088785171,-0.1358252316713333,-0.906193733215332
1783201517472235800,7.17223583984375,2.3921904664643105,-0.9701818337172268,1.051212349718809,0.2041098326444625,-0.0682941749691963,-0.8219271898269653
1783201517482172700,7.182172607421875,2.2679664131633936,-1.0312783997148274,1.2026970426499843,0.1765690296888351,0.0071609024889767,-0.7646723985671997
1783201517492109800,7.19210986328125,2.139920609617233,-1.1389607757985591,1.2872002031981944,0.1244668141007423,0.1045638397336006,-0.7133931517601013
1783201517502046500,7.20204638671875,2.0754285559624432,-1.258203825816512,1.3303285663068294,0.0680347010493278,0.1916412115097046,-0.6486479640007019
1783201517511983600,7.211983642578125,2.0388765025042,-1.391164143280685,1.2485311575859783,0.0234490428119897,0.199650764465332,-0.5848464965820312
1783201517521921500,7.221921630859375,1.990257140763849,-1.4905188360020518,1.0684083991914988,-0.0410029180347919,0.240946277976036,-0.5211330056190491
1783201517531858700,7.231858642578125,2.033367529824376,-1.5555246843978765,0.9527437921822072,-0.1093013957142829,0.2641963064670563,-0.4359489381313324
1783201517541795800,7.2417958984375,2.1065951169900594,-1.5628160104498263,0.84736560138762,-0.1595001071691513,0.2082451432943344,-0.3170939087867737
1783201517551732700,7.251732666015625,2.129345439589024,-1.5405296521008014,0.6773147396743298,-0.2052417546510696,0.1390811502933502,-0.1896539330482483
1783201517561669600,7.261669677734375,2.151311333812028,-1.4785092492565513,0.5615729757755994,-0.2508888840675354,0.094739519059658,-0.0587601028382778
1783201517571606500,7.2716064453125,2.089722454252839,-1.3792945495277642,0.5169681103736162,-0.2772555351257324,0.057595394551754,0.0492210574448108
1783201517581543700,7.281543701171875,1.8525686257340013,-1.284739073781669,0.4407084620356559,-0.3021225333213806,0.0360722579061985,0.1114865615963935
1783201517591480800,7.291480712890625,1.6348272075630723,-1.198488485044241,0.3947083428829908,-0.3322853744029999,0.0389159247279167,0.1573221534490585
1783201517601417700,7.301417724609375,1.4701063087008892,-1.1174345881670713,0.3358382207632064,-0.3526609539985657,0.0561532340943813,0.1948090642690658
1783201517611354600,7.311354736328125,1.3781924335047602,-1.071608364276588,0.2130722573161125,-0.3580234050750732,0.064550906419754,0.2415559291839599
1783201517621291500,7.32129150390625,1.3232352470450102,-1.0501692704066634,0.0532809238106012,-0.3488983511924743,0.0909308493137359,0.292657196521759
1783201517631228700,7.331228759765625,1.242980683851987,-0.9917688116252422,-0.1068266360372304,-0.3269474506378174,0.1119739413261413,0.337158054113388
1783201517641165800,7.341165771484375,1.1775503264337777,-0.872813346377015,-0.2999988456189632,-0.2864980101585388,0.099966824054718,0.3740201890468597
1783201517651102700,7.351102783203125,1.1231652407735586,-0.7593158542737364,-0.4644207615345716,-0.2429588884115219,0.0713453218340873,0.414334625005722
1783201517661039600,7.36103955078125,1.0575533893086015,-0.6800541015103458,-0.5766507179200648,-0.1987826228141784,0.0316389240324497,0.4585790336132049
1783201517670977500,7.3709775390625,0.98341774738729,-0.6027522506430745,-0.5658627819240093,-0.166323035955429,-0.0004428247921168,0.5118631720542908
1783201517680914700,7.380914794921875,0.8915501955509185,-0.5314373652309179,-0.4842997664809226,-0.1346924006938934,-0.0485200732946395,0.5612102150917053
1783201517690851600,7.3908515625,0.8112060543783008,-0.4226777153044939,-0.4151572566717862,-0.1244506314396858,-0.0904703214764595,0.6179128885269165
1783201517700788700,7.400788818359375,0.7322406542129815,-0.274027076755464,-0.2870399953246116,-0.1351434886455536,-0.1272738873958587,0.6753221154212952
1783201517710726000,7.410725830078125,0.649894817829132,-0.0700973263159394,-0.1244002866506576,-0.1705896258354187,-0.1453175991773605,0.7275336384773254
1783201517720662500,7.42066259765625,0.4916816934257745,0.0984150737836957,-0.0201999074637889,-0.2118249535560608,-0.1495442986488342,0.7684624791145325
1783201517730599700,7.430599609375,0.2458969608142971,0.2445727264732122,0.0002004910081624,-0.2619266211986542,-0.1526814252138137,0.7897788286209106
1783201517740536600,7.44053662109375,-0.0622974662199616,0.3967977163776755,-0.0266249720752239,-0.3212615847587585,-0.1385040879249572,0.7943307161331177
1783201517750473700,7.4504736328125,-0.4502078195258975,0.6225526373952627,-0.0829337192744016,-0.3768113851547241,-0.1075329780578613,0.755892276763916
1783201517760411000,7.460410888671875,-0.9577398469038308,0.8746329630196094,-0.187253925448656,-0.4085725247859955,-0.0706007927656173,0.680351734161377
1783201517770347500,7.470347412109375,-1.4966811580240726,1.0765645253792404,-0.3805266727954149,-0.4051073491573334,-0.0482035540044307,0.5555965900421143
1783201517780284700,7.48028466796875,-1.88473398854062,1.2763202050045133,-0.6365326474308968,-0.3655884265899658,-0.063774786889553,0.4058227837085724
1783201517790221600,7.4902216796875,-2.085481455682218,1.480794437584281,-0.9656465283751487,-0.2915752232074737,-0.1244257390499115,0.256543755531311
1783201517800158700,7.50015869140625,-2.1435301784165204,1.6352330118849872,-1.30074883607924,-0.1814923733472824,-0.179564893245697,0.1118550151586532
1783201517810095900,7.510095947265625,-2.1782516554467377,1.7132769132912158,-1.4991764819711446,-0.0543891973793506,-0.2221165299415588,-0.0232505910098552
1783201517820032500,7.520032470703125,-2.198698231147975,1.7226584896206856,-1.573658599242568,0.0846688225865364,-0.2656887769699096,-0.1493344902992248
1783201517829969700,7.5299697265625,-2.200783366858959,1.6953087104022502,-1.5665765320271252,0.2250898778438568,-0.3030338883399963,-0.2675806283950805
1783201517839906800,7.53990673828125,-2.1597063833221792,1.6703820666775109,-1.449126210644841,0.3436298370361328,-0.322559654712677,-0.3708849251270294
1783201517849843700,7.54984375,-2.0988145461164414,1.62683518589586,-1.2164882521152496,0.4351339340209961,-0.3292904198169708,-0.4514098167419433
1783201517859780900,7.55978076171875,-1.974171098359674,1.5766858381092548,-0.9260790726184844,0.481690764427185,-0.3140214383602142,-0.533255398273468
1783201517869717500,7.569717529296875,-1.8586305561214684,1.55818425899595,-0.6030062254041433,0.4908797442913055,-0.2802428305149078,-0.6179253458976746
1783201517879655700,7.57965576171875,-1.7372057781502603,1.5423951537117362,-0.3287082227528095,0.4576474726200104,-0.2579233944416046,-0.6955360174179077
1783201517889592600,7.589592529296875,-1.6556398400977252,1.4700006563693284,-0.1728507215648889,0.3993992209434509,-0.2328114509582519,-0.7779316306114197
1783201517899529700,7.59952978515625,-1.5718126791149376,1.317186760661006,-0.0672328767955303,0.3339083790779114,-0.2095314264297485,-0.8689454793930054
1783201517909466600,7.609466552734375,-1.4855053917542098,1.2012246320098638,-0.0635106414020061,0.2711865305900574,-0.2238791435956955,-0.9593580365180968
1783201517919403800,7.61940380859375,-1.3299921739593148,1.1053586581870911,-0.1539198111236095,0.2198783308267593,-0.2502806782722473,-1.0268367528915403
1783201517929340700,7.629340576171875,-1.073862134552747,0.9750769122824072,-0.2309206332176923,0.1896665394306183,-0.2919419109821319,-1.0749359130859375
1783201517939277600,7.639277587890625,-0.7874062227264046,0.7950354024305939,-0.3035638446241617,0.1662847846746444,-0.3514728844165802,-1.099553108215332
1783201517949214700,7.649214599609375,-0.4789207037910818,0.6027963820457458,-0.3087701810956001,0.1410280168056488,-0.3990474045276642,-1.0947468280792236
1783201517959151900,7.65915185546875,-0.1920472972050309,0.4004132765263318,-0.1785106470227241,0.1111545488238334,-0.4246960282325744,-1.0803191661834717
1783201517969088800,7.6690888671875,0.0616087533034384,0.2022162245199084,-0.0042342765688896,0.0755167603492736,-0.4329273998737335,-1.0554747581481934
1783201517979025700,7.679025634765625,0.3055482964396476,0.022070377510786,0.1857908671587705,0.0497277714312076,-0.4201990664005279,-1.0263009071350098
1783201517988962600,7.688962646484375,0.5136139776401222,-0.0986708021104335,0.354608387684822,0.0349570624530315,-0.3780906200408935,-1.0026999711990356
1783201517998899700,7.698899658203125,0.6851863498322666,-0.1842266865819692,0.4911024322330951,0.036742977797985,-0.3239932954311371,-0.9750758409500122
1783201518008836900,7.7088369140625,0.8369258943073451,-0.2716021876960993,0.5559539668500423,0.0527899675071239,-0.2536661922931671,-0.9399240612983704
1783201518018773800,7.718773681640625,0.9937512176141142,-0.3507306694686413,0.5657113907545804,0.0701758861541748,-0.1860032528638839,-0.8981009721755981
1783201518028710700,7.728710693359375,1.1507518974877893,-0.4480257993116974,0.5523159026086331,0.0884588062763214,-0.1290134936571121,-0.8550387620925903
1783201518038647600,7.7386474609375,1.2781655406102537,-0.541500786344707,0.5277694903731346,0.108465276658535,-0.084761343896389,-0.8026996850967407
1783201518048584700,7.748584716796875,1.3953785461053252,-0.663890025433898,0.4981704709231853,0.1245753914117813,-0.0580703169107437,-0.7355299592018127
1783201518058521900,7.75852197265625,1.4915755054481326,-0.7748755347162485,0.4970312377601861,0.1447341740131378,-0.0375269576907157,-0.6570373177528381
1783201518068458800,7.768458740234375,1.57038147726804,-0.8712792686775326,0.5448942281752824,0.1457014977931976,-0.0257695186883211,-0.5819846987724304
1783201518078395600,7.778395751953125,1.5924248206414282,-0.9265124955996872,0.5998837094694376,0.1356858760118484,-0.0170716326683759,-0.50968998670578
1783201518088332500,7.78833251953125,1.5933943963259458,-0.9644050038814544,0.6209732592493296,0.1227520406246185,-0.015625862404704,-0.4418592154979706
1783201518098269700,7.798269775390625,1.6054153812482952,-0.98132866615355,0.6547872660458087,0.1054835692048072,-0.0063841613009572,-0.3789034187793731
1783201518108206800,7.808206787109375,1.615529655766487,-0.9577133972883224,0.6980769571959972,0.0931936651468277,0.0147500038146972,-0.3060484826564789
1783201518118143700,7.818143798828125,1.6061350738249718,-0.9369628702044488,0.701270200279355,0.07927917689085,0.0214350707828998,-0.239926740527153
1783201518128080600,7.82808056640625,1.59197415426448,-0.9254539264574646,0.6363602134734392,0.0638018324971199,0.0072251833043992,-0.175578087568283
1783201518138017500,7.838017578125,1.5350037282861768,-0.9129019033983348,0.5936567977786064,0.041213434189558,-0.0013810880482196,-0.1152745261788368
1783201518147954700,7.84795458984375,1.463777105679363,-0.9389303708851336,0.6309411110341548,0.0080594923347234,-0.0007166899740695,-0.0529424957931041
1783201518157891800,7.857891845703125,1.3916609868869183,-0.9673696989059448,0.7146142504990101,-0.0225546099245548,0.0039784628897905,0.0076172561384737
1783201518167828700,7.867828857421875,1.3215592766568065,-0.9478487136170268,0.7957453042656183,-0.0598679706454277,0.0115716392174363,0.061687983572483
1783201518177765600,7.877765625,1.2570305442534386,-0.8837164331853389,0.8546335465639829,-0.101614624261856,0.0278771091252565,0.1178969219326973
1783201518187702500,7.88770263671875,1.227556904748827,-0.7690332384288311,0.9052560648202896,-0.1463878154754638,0.033778291195631,0.1662811040878296
1783201518197639700,7.8976396484375,1.154899518686533,-0.6884995660334825,0.8917506865590811,-0.1946608126163482,0.0422956123948097,0.2170958071947097
1783201518207576800,7.907576904296875,1.0920549399778243,-0.6434843662649393,0.8792407490760088,-0.2451639771461486,0.0599766336381435,0.2703308463096618
