time,seconds_elapsed,ax,ay,az,gx,gy,gz
1783196501877436200,0.097436279296875,0.612381225862354,0.3709069037958979,0.1296422789573669,-0.0393043309450149,0.2543650269508362,0.2022999376058578
1783196501887373300,0.107373291015625,0.5815474039204418,0.5552645232811569,-0.0864180542588233,0.0250011514872312,0.3274246156215668,0.179142415523529
1783196501897309200,0.11730908203125,0.4478115720391273,0.5815019573435187,-0.1311059217691421,0.0750034973025322,0.318913847208023,0.168752446770668
1783196501907246000,0.12724609375,0.597083557356894,0.3219868055433034,-0.2266834340393543,0.1088719815015792,0.2709468603134155,0.1758564263582229
1783196501917182200,0.13718212890625,0.7331437405325472,0.1936611621424555,-0.1995528505295515,0.1195263117551803,0.2611899673938751,0.1953238397836685
1783196501927118000,0.1471181640625,0.7675958991020917,0.2763961439743638,-0.0362923796087503,0.0941932573914527,0.3120957612991333,0.2339777648448944
1783196501937055200,0.15705517578125,0.738671125651896,0.4256088003203273,0.1694470506012439,0.0329366400837898,0.4115036129951477,0.3109866082668304
1783196501946991000,0.1669912109375,0.7400877144515514,0.4993830615833401,0.3582435293167829,-0.0594159252941608,0.5302262902259827,0.4157156944274902
1783196501956928300,0.17692822265625,0.7659777963809669,0.551176377184689,0.5753063175737857,-0.1472940891981125,0.6156388521194458,0.5262950658798218
1783196501966864100,0.186864013671875,0.8428117374755442,0.6377405619159341,0.7787655278921127,-0.2188007682561874,0.5911449790000916,0.6304052472114563
1783196501976801300,0.19680126953125,1.0105120905399323,0.7454726223602891,0.8764712843626737,-0.2946481704711914,0.4754437506198883,0.7643714547157288
1783196501986737200,0.206737060546875,1.2388567357897755,0.8228077909752726,1.097213053393364,-0.4091310501098633,0.3606878817081451,0.9188276529312134
1783196501996673000,0.216673095703125,1.5425868768915534,0.8476748134672641,1.587403631478548,-0.6332823038101196,0.2662898898124695,1.1060676574707031
1783196502006610200,0.226610107421875,1.840013972326368,0.781650143417716,2.441457916849852,-1.017310380935669,-0.0680750682950019,1.2657734155654907
1783196502016546300,0.23654638671875,1.9071055409550663,0.8612702080994844,2.656923206782341,-1.4143534898757937,-0.7009350657463074,1.3600294589996338
1783196502026483000,0.24648291015625,1.960919256468117,0.6742530140161513,2.568113873472809,-1.7416554689407349,-1.4775292873382568,1.3786512613296509
1783196502036419000,0.256419189453125,1.5057494306206702,0.0266015911996364,2.625606862020492,-2.006564855575561,-1.929595708847046,1.3002896308898926
1783196502046356200,0.266356201171875,0.7330174838043749,-0.5261190928176045,3.670578856045008,-2.308053970336914,-2.297112464904785,1.138328194618225
1783196502056292000,0.2762919921875,0.1372368257395923,-0.5397559885039925,3.899108794733882,-2.6934170722961426,-2.646848440170288,0.90912526845932
1783196502066228200,0.286228271484375,-0.0408671401783823,0.0823953746140003,3.88005221208632,-3.074497938156128,-2.820610284805298,0.7582478523254395
1783196502076165000,0.2961650390625,-0.039063451757282,-0.3663249828331172,4.299429132279753,-3.201601028442383,-1.7865934371948242,0.5167077779769897
1783196502086101200,0.306101318359375,-4.832772623392939,-0.3504116666473448,2.382123684349656,-1.6613999605178833,1.4226655960083008,-0.8109129071235657
1783196502096038100,0.3160380859375,-13.864502665013074,0.7274626261562108,-10.94288690379262,-1.500156283378601,-0.6548734307289124,-1.5428297519683838
1783196502105974300,0.325974365234375,-5.398963322097063,-0.9365103041313588,-5.736092751714587,-1.5042964220046997,-0.9617976546287536,-1.712337613105774
1783196502115911200,0.3359111328125,0.2454674833558499,-1.704799153933674,2.9389760613441465,-1.5244890451431274,-0.9804105162620544,-1.406302571296692
1783196502125847000,0.345846923828125,1.0982210613921284,-2.583105690899491,2.092577259162068,-1.379041314125061,-0.8200730085372925,-0.8909422755241394
1783196502135783200,0.355783203125,2.995766454580426,-2.2493961527280506,0.9177981510072946,-1.3411757946014404,-0.1754839718341827,-0.6718143820762634
1783196502145720300,0.36572021484375,2.313868332638592,-1.7106633697919549,1.405983234488964,-1.247942328453064,0.1499122381210327,-0.2994610071182251
1783196502155656200,0.37565625,1.6876970663547517,-1.8836938318379224,0.2738128494828939,-1.177991509437561,0.1023570448160171,0.2211831659078598
1783196502165593000,0.385593017578125,1.883830171568692,-1.8665949591293929,-0.3967822265475988,-1.1838641166687012,-0.1146671399474144,0.7181236743927002
1783196502175529200,0.395529296875,2.3045699045479298,-1.7911242692120373,-0.5873433768481016,-1.169422626495361,-0.3924770653247833,1.1320390701293943
1783196502185466400,0.40546630859375,2.42870964056626,-1.5034779785573482,-0.6813374193191528,-1.193000078201294,-0.5423150062561035,1.4303815364837646
1783196502195402200,0.41540234375,2.271350064252317,-1.0348277627594769,-0.0966869348168373,-1.278217911720276,-0.64912348985672,1.5730631351470947
1783196502205338000,0.425338134765625,1.524974355572462,-0.5311385649474337,0.5503273591399193,-1.2736316919326782,-0.3575901687145233,1.560966730117798
1783196502215275300,0.435275146484375,0.8370458674252033,-0.5683766279084608,0.4143167141944169,-1.0292997360229492,0.2124695628881454,1.5180925130844116
1783196502225211100,0.445211181640625,0.5359793925747275,-0.6443694785363971,-0.2877811690807342,-0.6136553883552551,0.7052624821662903,1.3557560443878174
1783196502235148300,0.455148193359375,0.8447339377097784,-0.0955976234764792,-1.1705156054913997,-0.0561917722225189,0.9445508122444152,1.196130394935608
1783196502245084200,0.465084228515625,1.3620308416463434,0.4703488364093005,-2.1873206586956977,0.627600371837616,1.0438337326049805,1.0503596067428589
1783196502255020000,0.47502001953125,1.198370703883469,0.7058585509829223,-2.851547953259945,1.3318052291870115,1.2623997926712036,0.913600206375122
1783196502264957200,0.484957275390625,0.6333045522298664,0.7659189788658172,-3.140820822203159,1.5198888778686523,1.5606975555419922,0.8485386371612549
1783196502274893300,0.494893310546875,-0.0875301071539521,0.4964847828585654,-3.840779939883947,1.3340504169464111,1.6835803985595703,0.9613649249076844
1783196502284830200,0.504830322265625,-0.6257100785128772,-0.1930615157488733,-4.074048597532511,1.289528489112854,1.6842187643051147,1.0816301107406616
1783196502294766000,0.51476611328125,-0.7290597591545432,0.1552149655006826,-3.271401258793473,1.3600430488586426,1.4242911338806152,1.0684460401535034
1783196502304703200,0.524703125,-0.3873343069836497,1.4033561008557676,-3.649281800994277,1.4736963510513306,1.1697442531585691,0.853615403175354
1783196502314639000,0.53463916015625,-0.4992145000834018,2.201035295793414,-3.796978792080283,1.6438474655151367,1.0214154720306396,0.5380807518959045
1783196502324575200,0.5445751953125,-1.0924901165246963,2.6313305003643035,-3.070817311650514,1.8616859912872317,1.0578908920288086,0.2507813274860382
1783196502334512000,0.55451220703125,-1.5903814782455563,2.5605817244023084,-2.372423543590307,2.0585238933563232,1.1526496410369873,0.0832873061299324
1783196502344448000,0.564447998046875,-1.5550757715865968,2.123827845211327,-2.1069804630458355,2.167541265487671,1.131544589996338,0.0123239159584045
1783196502354385200,0.57438525390625,-1.0377750682577491,1.952435798022151,-1.7729104209989308,2.113288640975952,0.8738594651222229,-0.0289166867733001
1783196502364321300,0.5843212890625,-0.8465079616449773,2.0850820811010897,-1.7039970437705516,1.890555739402771,0.3922209739685058,0.0302760638296604
1783196502374258200,0.594258056640625,-0.6497859506271779,1.5830596109248696,-2.0187614968448875,1.6344321966171265,-0.0756591856479644,0.1461560279130935
1783196502384194000,0.604194091796875,-0.5454869333714246,0.801009654534608,-1.9713404049783945,1.4403756856918335,-0.4633845388889313,0.2363338619470596
1783196502394130200,0.614130126953125,-0.904807078943774,0.9892226342737674,-1.6252268739163875,1.255160570144653,-0.7294204831123352,0.201658695936203
1783196502404067300,0.6240673828125,-1.3127619299560784,1.6905875270992516,-0.8936696719229221,1.0787439346313477,-0.9076908826828004,0.0589271076023578
1783196502414003200,0.634003173828125,-1.434320563440025,2.0571543558642267,-0.0921504604309797,0.8963652849197388,-0.9559655785560608,-0.1229347884654998
1783196502423939600,0.643939697265625,-1.413588741056621,2.082575212846696,0.6495061107724904,0.7224310040473938,-0.9121392965316772,-0.3016017377376556
1783196502433875700,0.653875732421875,-1.446901228071749,1.8764277863577008,1.1426765814512967,0.5368223190307617,-0.7963888645172119,-0.4571320414543152
1783196502443812900,0.663812744140625,-1.5182793879784642,1.630694199411571,1.5518056638747453,0.3622995615005493,-0.7323057651519775,-0.5533850789070129
1783196502453748700,0.673748779296875,-1.458412948297709,1.532794089412689,1.5734189452677965,0.224187284708023,-0.6283336877822876,-0.6039345264434814
1783196502463684900,0.683684814453125,-1.0881938075702635,1.1940955107823013,1.561371949121356,0.1668102741241455,-0.4801676571369171,-0.5644947290420532
1783196502473621800,0.693621826171875,-0.1552017406929284,0.6848699773594736,1.6871867787450552,0.2287468463182449,-0.2444889992475509,-0.4404311776161194
1783196502483557600,0.7035576171875,0.3064654112845659,0.1944812463536858,1.7160621600955723,0.32578045129776,0.0057575805112719,-0.3012408018112182
1783196502493494800,0.713494873046875,0.0906747983878478,-0.1040495725393295,1.607920349806547,0.3841399252414703,0.2176713198423385,-0.1848669499158859
1783196502503431000,0.723430908203125,-0.2187579017370939,-0.0779442404240369,1.5585644904851912,0.3850603103637695,0.3860267996788025,-0.1246534064412117
1783196502513367800,0.733367919921875,-0.3814849233683198,0.1161976909726858,1.5616846683323382,0.3671579658985138,0.5178099870681763,-0.1436462849378585
1783196502523303700,0.7433037109375,-0.4611691393274814,0.2365191838771104,1.5415145714849232,0.351040244102478,0.6294326782226562,-0.2077736109495163
1783196502533240800,0.75324072265625,-0.4257989160649478,0.2703466346770525,1.483032571899891,0.342069536447525,0.7240968346595764,-0.27554851770401
1783196502543177000,0.763177001953125,-0.3567014144413173,0.1161333935648202,1.3309808927357196,0.3738053739070892,0.791144847869873,-0.3133350610733032
1783196502553112800,0.77311279296875,-0.2221634723968803,-0.1101911440342664,0.9072440237671135,0.375062495470047,0.6350431442260742,-0.3415068387985229
1783196502563049700,0.7830498046875,0.0153099525982979,-0.2885980384215712,0.064232525935769,0.3061489462852478,0.3997043967247009,-0.3518569469451904
1783196502572985900,0.79298583984375,0.2846956241555511,-0.4686214280948043,-0.1245218672037124,0.2036974728107452,0.1803111433982849,-0.3525135219097137
1783196502582922800,0.8029228515625,0.3830417243562639,-0.5942851588100194,0.0195072490245103,0.0648525059223175,-0.0251101851463317,-0.3247362077236175
1783196502592859000,0.81285888671875,0.3798480428814887,-0.804893656361103,-0.1731920823484659,-0.0788228064775466,-0.193998709321022,-0.2947579026222229
1783196502602795800,0.822795654296875,0.390975147704035,-0.9777513921886682,-0.1674468166947364,-0.2067536115646362,-0.2763313949108124,-0.2614899575710296
1783196502612731600,0.832731689453125,0.3777617381267249,-0.9534101471364498,0.0498439350992441,-0.2694156765937805,-0.283467024564743,-0.2072348892688751
1783196502622668800,0.842668701171875,0.3352528220906853,-0.9411930551201104,-0.0028279169023036,-0.253275603055954,-0.2498832494020462,-0.1616215854883194
1783196502632605000,0.85260498046875,0.3776172150894999,-0.9161109285727144,-0.1876689359903335,-0.192047968506813,-0.2169923186302185,-0.1197306886315345
1783196502642540800,0.862540771484375,0.3960920523263513,-0.8006739928394555,-0.3088333094596862,-0.1255728006362915,-0.1759058684110641,-0.0774008110165596
1783196502652477700,0.872477783203125,0.3031216538146138,-0.5691185688495636,-0.3298626534849405,-0.0532788559794425,-0.124586597084999,-0.0619085617363452
1783196502662413800,0.882413818359375,0.1152381982907652,-0.3035515696644782,-0.3545814996778965,0.0402106121182441,-0.0781778246164321,-0.0668979957699775
1783196502672351000,0.89235107421875,-0.0227710731260478,-0.0986746015027165,-0.4916460375905037,0.1423599272966385,-0.0461477972567081,-0.0931281819939613
1783196502682286800,0.902286865234375,-0.0351266968302428,0.0770019911378622,-0.564583848029375,0.220902144908905,-0.0288332551717758,-0.1178513765335083
1783196502692223700,0.9122236328125,-0.0165220957338809,0.1884372900143265,-0.5676894128292799,0.2752004563808441,-0.0265720561146736,-0.1297357082366943
1783196502702160000,0.922159912109375,0.0122581638122443,0.2146536812886595,-0.5620867705166339,0.2956980168819427,-0.0562990605831146,-0.1301279813051223
1783196502712096800,0.9320966796875,0.0042092882581055,0.2290668220445513,-0.519566310173273,0.2692462503910064,-0.1132381707429885,-0.1357238888740539
1783196502722033000,0.942032958984375,-0.0092485884664114,0.2686991597309708,-0.4182838642597198,0.2185268849134445,-0.1677903681993484,-0.143857717514038
1783196502731968800,0.95196875,0.0370056424446404,0.2545823715731501,-0.2521551444262266,0.1582221984863281,-0.2248767167329788,-0.1465443521738052
1783196502741905700,0.96190576171875,0.0879220290809869,0.2332163429394364,-0.0671603960812091,0.1010883450508117,-0.2583238780498504,-0.1403596848249435
1783196502751841800,0.971841796875,0.094911029451806,0.1882294924825429,0.1487929696291685,0.2006696909666061,-0.1018525958061218,-0.1260666400194168
1783196502761779000,0.981779052734375,0.1940633132025599,-0.2946042930990457,2.108456380817294,0.2351981103420257,0.2482715845108032,-0.0742223486304283
1783196502771714600,0.991714599609375,0.099616412397474,-0.2148950888291001,2.377216623085737,0.1875075250864029,0.4141384065151214,0.0036307559348642
1783196502781651700,1.001651611328125,-0.3426410326458513,-0.2816059875771403,1.82988786123991,0.1433816105127334,0.424067735671997,0.0585057213902473
1783196502791587800,1.011587890625,-0.2465367200225591,-0.0895858706399798,0.9991378790885208,0.0917888954281807,0.3111855685710907,0.0072183944284915
1783196502801525000,1.02152490234375,0.0457721601822646,0.3306342223793268,0.527735003581643,-0.0029876818880438,0.1367485225200653,-0.0867805406451225
1783196502811460600,1.031460693359375,0.0599056026473641,0.4787783727109432,0.4273351857215166,-0.1476506143808365,-0.0305059254169464,-0.1575669646263122
1783196502821397800,1.041397705078125,-0.036237872942537,0.3342068201690912,0.3863783214330673,-0.2850215435028076,-0.1619166731834411,-0.1897123754024505
1783196502831334000,1.051333984375,-0.0131460434295237,0.1429179401159286,0.1970493432760238,-0.3943257927894592,-0.2850178778171539,-0.211174339056015
1783196502841269800,1.061269775390625,0.140796710178256,-0.0549228457987308,-0.0557119503498077,-0.4804558753967285,-0.3866499662399292,-0.2053143233060836
1783196502851206700,1.07120654296875,0.3548557865746319,-0.3324246129274368,-0.1190951659798622,-0.5215615034103394,-0.3745368123054504,-0.1662728786468505
1783196502861142800,1.081142822265625,0.4114633705899119,-0.5722697263568639,0.1736643760353326,-0.5177281498908997,-0.2625863254070282,-0.1106295734643936
1783196502871079700,1.09107958984375,0.4911369190245866,-0.7889616354748606,0.3015390607982873,-0.4551956951618194,-0.1111860573291778,-0.0621675997972488
1783196502881015800,1.101015869140625,0.6445471731908619,-0.9719511814773082,0.2207061131954193,-0.3502032458782196,0.0373898334801197,-0.0009473857935518
1783196502890952700,1.11095263671875,0.8888784921236336,-1.1263953087359666,0.0052373161315917,-0.2407684028148651,0.1523932367563247,0.0754110440611839
1783196502900888800,1.120888916015625,1.1700684462457895,-1.2202478969097137,-0.228701788124442,-0.168274238705635,0.1984850913286209,0.1442364454269409
1783196502910825700,1.13082568359375,1.3573852077975868,-1.2282383111417292,-0.4491349295973778,-0.1508779674768448,0.1759582608938217,0.2082437425851822
1783196502920761900,1.140761962890625,1.5190031722083688,-1.1969313187301158,-0.6485720447927713,-0.166395679116249,0.0924383327364921,0.2602640688419342
1783196502930698800,1.15069873046875,1.6670770337827503,-1.2025737085312604,-0.8525701842933893,-0.2038304954767227,-0.01791313290596,0.2946851253509521
1783196502940634600,1.160634521484375,1.7473315969757734,-1.285449852399528,-0.9868050517380236,-0.2453595697879791,-0.1249501034617424,0.3361047506332397
1783196502950571800,1.17057177734375,1.8595371495723725,-1.4395172553002833,-1.0187199469149113,-0.2767910361289978,-0.1839091777801513,0.3884153366088867
1783196502960508000,1.1805078125,2.01177324539274,-1.610742421489954,-0.9699901105374096,-0.2909579873085022,-0.2217588275671005,0.4510528743267059
1783196502970443800,1.19044384765625,2.1999720504760742,-1.7360639146387575,-0.9616782092660664,-0.2800806760787964,-0.2499942481517791,0.5309257507324219
1783196502980380700,1.200380615234375,2.347691107263416,-1.8130626909062264,-0.9673872345626352,-0.2529846131801605,-0.2554113864898681,0.6190531849861145
1783196502990316800,1.21031689453125,2.4541271365478634,-1.8374732018023727,-0.9585007482737302,-0.2859857976436615,-0.3915750980377197,0.6597568392753601
1783196503000254000,1.22025390625,2.739132118913531,-1.641378675033152,-1.340040397503972,-0.2600327432155609,-0.3817493617534637,0.6852864623069763
1783196503010189800,1.23018994140625,2.741256271460652,-1.50010850212425,-0.9178501734554768,-0.1642893403768539,-0.4267085492610931,0.7186226844787598
1783196503020126700,1.240126708984375,2.653370482736826,-1.5060551355689764,-0.8961270019471644,-0.0915078148245811,-0.4057984948158264,0.7814924716949463
1783196503030062800,1.250062744140625,2.585222829183936,-1.3937322402030228,-0.7186591419756412,-0.0329016335308551,-0.3703688979148865,0.8325681090354919
1783196503039999700,1.259999755859375,2.561999774506688,-1.0175012187749146,-0.3658779697179794,-0.0686806663870811,-0.1544912010431289,0.7142787575721741
1783196503049936000,1.269935791015625,2.759011123859882,-0.2624725403010845,-0.0271557179510593,-0.0861981585621833,-0.0730602294206619,0.5359843969345093
1783196503059872800,1.279872802734375,2.517374450838566,0.0307736161872744,0.1232253976523876,-0.0711651444435119,-0.0804941803216934,0.4050713777542114
1783196503069808600,1.28980859375,2.050394360210001,0.0995294647663831,0.2320399926364421,-0.0499278455972671,-0.1560252904891967,0.40595743060112
1783196503079745800,1.299745849609375,1.4229782084316014,0.1889139676153659,0.4489157338887453,-0.0142137873917818,-0.2722949385643005,0.5334341526031494
1783196503089682000,1.309681884765625,0.7942487820975482,0.132838736911118,0.8402239129394292,0.0344337001442909,-0.337304025888443,0.7342038750648499
1783196503099618800,1.319618896484375,0.2535186147991567,-0.014645780467987,1.265139762559533,0.0712372586131095,-0.2424608618021011,0.8689044713973999
1783196503109554700,1.3295546875,0.2385722439493983,0.0897021904960274,1.7506833916217088,0.1085414886474609,-0.0783364623785018,0.9625961780548096
1783196503119491800,1.339491943359375,0.318998875773698,0.3652604223415255,2.0483166771531103,0.1373624801635742,0.1296204626560211,1.0168371200561523
1783196503129428000,1.349427978515625,0.3060864949695766,0.6968889164552092,2.2697733164548874,0.1475968956947326,0.3571244776248932,1.0332610607147217
1783196503139363800,1.35936376953125,0.2477924191720783,0.9665566289573908,2.4333985290348528,0.1393714547157287,0.6232643127441406,0.997678518295288
1783196503149300700,1.36930078125,0.2540207191023975,1.1827557861223816,2.5337287887901065,0.1752969473600387,0.7927474975585938,1.036194920539856
1783196503159236900,1.37923681640625,-0.0148554046306759,1.216222586916387,2.455695116516948,0.1804387122392654,0.999562680721283,0.9992153644561768
1783196503169173800,1.389173828125,-0.0658550125710666,1.2827239345669743,2.537451024183631,0.1646210104227066,1.1625041961669922,0.9480477571487428
1783196503179110000,1.39910986328125,0.0836767196614295,1.3176593466088176,2.2931974466621874,0.1496388614177703,1.2305846214294434,0.9194741249084472
1783196503189046800,1.409046875,0.1946943045824766,1.1118453898578882,1.9572768083125351,0.0923721492290496,1.2284293174743652,0.9142462015151978
1783196503198982700,1.418982666015625,0.2897500580009073,0.8216939845144748,1.6856255207777022,-0.0117262853309512,1.194978952407837,0.9421263337135316
1783196503208919800,1.428919921875,0.5598806387744844,0.6832555279001593,1.3824416153818369,-0.1600594222545623,1.1508336067199707,0.9747650027275084
1783196503218856000,1.43885595703125,0.7128131193611771,0.6314134047210216,1.041919036194682,-0.3297885358333587,1.0932608842849731,1.0213110446929932
1783196503228792800,1.448792724609375,0.8350485561281442,0.5731698900669813,0.5809545525938272,-0.4927118122577667,1.026777744293213,1.0718674659729004
1783196503238728700,1.458728759765625,0.860280612540245,0.5710127120330929,0.0627986937403678,-0.6306319236755371,0.944185733795166,1.102085828781128
1783196503248665900,1.468665771484375,0.8014981687039137,0.609845716035366,-0.4982850372135639,-0.7164601683616638,0.8712335824966431,1.100185751914978
1783196503258602000,1.47860205078125,0.7437060510791837,0.5790551487132907,-1.0154542231172323,-0.746932864189148,0.7938439846038818,1.0804764032363892
1783196503268538600,1.48853857421875,0.7517370165172964,0.488469161120057,-1.5418892500162125,-0.7172155380249023,0.6753760576248169,1.0501184463500977
1783196503278474800,1.498474853515625,0.7370757462192327,0.3921107276052236,-2.0860645162671805,-0.6351203918457031,0.5530938506126404,1.0214273929595947
1783196503288412000,1.508411865234375,0.7175984539415687,0.2534744103312492,-2.4249837519109247,-0.5203336477279663,0.457137256860733,1.0078171491622925
1783196503298347800,1.51834765625,0.6963356664866208,0.0129787240386009,-2.510883335253596,-0.4217351973056793,0.4163203239440918,1.018091320991516
1783196503308284700,1.52828466796875,0.7908280138686299,-0.2703909122101962,-2.4051819038540123,-0.3513611555099487,0.4088949263095855,1.0569218397140503
1783196503318220800,1.538220703125,1.0136604715682564,-0.4728901914551854,-2.3182483012884854,-0.2957346439361572,0.4069670736789703,1.1168047189712524
1783196503328158000,1.548157958984375,1.205597367201373,-0.6074765026859938,-2.3782523958742616,-0.2315782755613327,0.3902498483657837,1.1876410245895386
1783196503338093800,1.55809375,1.257467620496452,-0.7189478957891464,-2.4526029957205058,-0.1674443036317825,0.3702247142791748,1.2548216581344604
1783196503348030700,1.56803076171875,1.2513581977054475,-0.694416388861835,-2.458915247607231,-0.09413942694664,0.3312554359436035,1.2957072257995603
1783196503357966800,1.577966796875,1.0952603118903934,-0.5553752901792526,-2.442984103503824,-0.0147178396582603,0.3001393377780914,1.2994595766067505
1783196503367903700,1.58790380859375,0.8861922487143427,-0.4618186162121593,-2.2850106330752373,0.060251735150814,0.2929223179817199,1.2771073579788208
1783196503377839900,1.59783984375,0.7508841990802436,-0.4157739272654056,-2.0115198551535607,0.1161573454737663,0.3012904822826385,1.2552034854888916
1783196503387776800,1.60777685546875,0.797088170241937,-0.4544155003488063,-1.7584768219769,0.1387951523065567,0.3198639750480652,1.264784812927246
1783196503397712600,1.617712646484375,0.9848465380813926,-0.5356368627473712,-1.5880559579074385,0.1314980834722519,0.3044000566005707,1.3071112632751465
1783196503407649800,1.62764990234375,1.2039384940784423,-0.6106101245366037,-1.5107324797302484,0.1093617603182792,0.2461899518966674,1.383320450782776
1783196503417586000,1.6375859375,1.3637794388793407,-0.6605716946661472,-1.4832470914334055,0.1029834821820259,0.1533457636833191,1.4671449661254885
1783196503427522800,1.647522705078125,1.3220260173857212,-0.6056235682956874,-1.4236398872107268,0.103020466864109,0.0639078244566917,1.528221845626831
1783196503437459000,1.657458984375,1.1462021252289414,-0.4418582165926694,-1.170787408170104,0.10237517952919,0.0196130648255348,1.554674744606018
1783196503447396000,1.66739599609375,0.9558042026661336,-0.2552672850973904,-0.7815963674038648,0.104915089905262,0.0329571366310119,1.5588821172714231
1783196503457332000,1.67733203125,0.7856392130538821,-0.112151192060858,-0.4356207835078239,0.1088272705674171,0.0786426067352294,1.5442949533462524
1783196503467268900,1.687268798828125,0.6969664386708289,-0.0417266796171665,-0.1799970861881971,0.1029396280646324,0.1357521116733551,1.5312188863754272
1783196503477205000,1.697205078125,0.717482791672647,0.0482217407248914,0.0259019184976816,0.1008005812764167,0.2116761803627014,1.5296859741210938
1783196503487142000,1.707141845703125,0.8288814118005334,0.1525514453798532,0.1260533145546913,0.1008692160248756,0.2779109477996826,1.5340924263000488
1783196503497078000,1.717078125,0.9327362654853611,0.2530243284761905,0.2194242566913366,0.0961074829101562,0.3317126631736755,1.549394965171814
1783196503507015000,1.727014892578125,0.9416643989589064,0.2776481898620724,0.2851502360552549,0.0899237468838691,0.3743957877159118,1.563549280166626
1783196503516950800,1.73695068359375,0.9052332684665918,0.1883050419367849,0.3846902222156524,0.0864344760775566,0.4152880907058716,1.5952198505401611
1783196503526888000,1.746887939453125,0.9061937109965832,0.1452992822945117,0.4143623069018125,0.1164732798933982,0.4402087032794952,1.6425964832305908
1783196503536824000,1.756823974609375,0.9799934720270336,0.2463449968427419,0.262576000675559,0.1783222705125808,0.4035628139972687,1.7031328678131104
1783196503546761000,1.766760986328125,0.961843044438958,0.349698842202872,0.1846563101708888,0.2249053716659546,0.3728902637958526,1.7500001192092896
1783196503556696800,1.77669677734375,0.7645802776079624,0.4860714523285627,0.4415601104289293,0.2421759665012359,0.3885770738124847,1.781575322151184
1783196503566634000,1.786634033203125,0.5220115113683045,0.638777503748238,0.8590607153564691,0.2237409353256225,0.4542088806629181,1.7844877243041992
1783196503576570000,1.796570068359375,0.2418685820810496,0.7448445535898208,1.195959258827567,0.1896972060203552,0.5502120852470398,1.7644767761230469
1783196503586506800,1.8065068359375,0.0387261826269328,0.8128472457140684,1.4062310717701911,0.1414478719234466,0.6466774344444275,1.730652093887329
1783196503596443000,1.81644287109375,-0.0924581381406635,0.8578793966174125,1.5062076957821846,0.1004743427038192,0.7125059962272644,1.687192440032959
1783196503606380000,1.826380126953125,-0.123780401186645,0.8666817117542028,1.462104934683442,0.0771398693323135,0.7536435127258301,1.6399916410446167
1783196503616316000,1.83631591796875,-0.081013857127726,0.8468523911684751,1.40791157220304,0.054973054677248,0.7495819330215454,1.6059843301773071
1783196503626252800,1.846252685546875,-0.0422848980218172,0.7868070877894758,1.4191396531820295,-0.0082994503900408,0.7160595059394836,1.5830978155136108
1783196503636189000,1.85618896484375,-0.0655291507507208,0.7147898993268609,1.576368442723155,-0.1075597256422042,0.6857529878616333,1.5629420280456543
1783196503646126000,1.8661259765625,-0.0937801805246621,0.6801058316975832,1.7729712112754583,-0.2226113677024841,0.6619148850440979,1.5557918548583984
1783196503656062000,1.87606201171875,-0.0853219295851886,0.654462271875143,1.9393091899454595,-0.3533975780010223,0.672602653503418,1.5571393966674805
1783196503665998800,1.885998779296875,-0.0330927067846059,0.7313929513424634,2.1061171242147685,-0.4891752302646637,0.734262228012085,1.5506958961486816
1783196503675935000,1.89593505859375,-0.0275809576258063,0.9166127406150102,2.171616309085488,-0.628015398979187,0.8214719891548157,1.5455182790756226
1783196503685871900,1.905871826171875,-0.0232280413796193,1.1087516616262494,2.00344585429132,-0.7259524464607239,0.9008129835128784,1.528939127922058
1783196503695808000,1.91580810546875,-0.0370676748301833,1.2554663636766374,1.6492220820099115,-0.7874813079833984,0.9454345107078552,1.4895997047424316
1783196503705745000,1.925744873046875,-0.0978776059061288,1.4375532617509363,1.2193944949507711,-0.7834963202476501,0.966059148311615,1.4433029890060425
1783196503715680800,1.9356806640625,-0.0988349431635811,1.5725548757843673,0.7520838571935892,-0.7214766144752502,0.9645523428916932,1.37883722782135
1783196503725618000,1.945617919921875,-0.1452531415978446,1.5968746396571396,0.364595528692007,-0.6540990471839905,0.9564796686172484,1.3106322288513184
1783196503735554000,1.955553955078125,-0.1353754157818854,1.6325198074035343,0.128676064273715,-0.6069813370704651,0.9316797852516174,1.2539018392562866
1783196503745491000,1.965490966796875,-0.0332971433155238,1.6394947609826922,-0.0211766435414552,-0.6046725511550903,0.9259337186813354,1.222967505455017
1783196503755426800,1.9754267578125,0.2464449500858783,1.6206629270017143,-0.0904056625902652,-0.6610647439956665,0.9135425686836244,1.23246967792511
1783196503765364000,1.985364013671875,0.4635810958400368,1.608074517454952,-0.2252542780190706,-0.736393928527832,0.8902524709701538,1.2752125263214111
1783196503775300000,1.995300048828125,0.607121332572773,1.4989225072100758,-0.466799765625596,-0.8087408542633057,0.8587294220924377,1.33447265625
1783196503785236700,2.00523681640625,0.5874915531471371,1.4172365960396824,-0.7741402061790228,-0.8701817393302917,0.8203923106193542,1.3774608373641968
1783196503795174000,2.015173828125,0.3703603027638047,1.336010119074583,-1.0412784002035855,-0.8835622668266296,0.7764443159103394,1.3926759958267212
1783196503805110000,2.025110107421875,0.0336554552339017,1.1923657643802463,-1.3992489577978848,-0.8355494737625122,0.7322272658348083,1.3820980787277222
1783196503815047000,2.035046875,-0.2300981378536671,1.1389185440920293,-1.7059961086332798,-0.776902973651886,0.7071871757507324,1.3458240032196045
1783196503824982800,2.044982666015625,-0.4008925114106386,1.1962835223458708,-1.8536568593621248,-0.7040752172470093,0.662041425704956,1.2823030948638916
1783196503834920000,2.054919921875,-0.5321399605423212,1.1760622798331082,-2.0553116506069897,-0.6442001461982727,0.607574999332428,1.217939019203186
1783196503844856000,2.06485595703125,-0.4766158609148114,1.106312744041532,-2.214635951122641,-0.6190129518508911,0.5380657911300659,1.1595462560653689
1783196503854793000,2.07479296875,-0.4000327527761459,1.0676971821822223,-2.3066946416169403,-0.6206004619598389,0.4517729878425598,1.1001495122909546
1783196503864728800,2.084728759765625,-0.3781830322787165,0.9226927911810576,-2.4120073659598824,-0.629369854927063,0.3617347180843353,1.0485172271728516
1783196503874666000,2.094666015625,-0.4172995293974876,0.6028806993283331,-2.4593267510175703,-0.6424683928489685,0.2814814448356628,1.0009369850158691
1783196503884601900,2.104601806640625,-0.5201805696140974,0.1944857033330947,-2.45621300291121,-0.6404708623886108,0.2359289526939392,0.9633498191833496
1783196503894538800,2.114538818359375,-0.6522169771663844,-0.1597013901997357,-2.4616291827410457,-0.6124802231788635,0.2169509977102279,0.9365453720092772
1783196503904475000,2.124474853515625,-0.6949842518776654,-0.4050806838154792,-2.406764789131284,-0.5629870295524597,0.2271763086318969,0.9189093708992004
1783196503914412000,2.134412109375,-0.6475140601724386,-0.5448917439572513,-2.385422725895047,-0.4714992046356201,0.2343782931566238,0.9266567826271056
1783196503924348000,2.144347900390625,-0.4633046169862151,-0.6391230292502791,-2.489436058077216,-0.3526892960071563,0.2042920887470245,0.9489110112190248
1783196503934284800,2.154284912109375,-0.3692855862043798,-0.665412193499878,-2.570674079349637,-0.2369946837425232,0.1448998749256134,0.9716392755508424
1783196503944221000,2.164220947265625,-0.3963873820111155,-0.6792132667720318,-2.553693133932352,-0.1314047425985336,0.0929668322205543,1.0021133422851562
1783196503954157800,2.17415771484375,-0.4062023813217878,-0.6740022541254759,-2.420729017075896,-0.0213155224919319,0.058990228921175,1.0296941995620728
1783196503964094000,2.184093994140625,-0.4266042410984635,-0.5959083760976791,-2.220909624564648,0.0732678472995758,0.0574888996779918,1.0597087144851685
1783196503974030800,2.19403076171875,-0.4529031960897147,-0.5062900644928217,-1.9558955830872056,0.1495511680841446,0.0644067227840423,1.100324630737305
1783196503983968000,2.203968017578125,-0.4639414535850286,-0.3995242917973547,-1.7293746461331845,0.2144695222377777,0.0611426569521427,1.1459977626800537
1783196503993903900,2.21390380859375,-0.5545708419285714,-0.3587005523692816,-1.535578751695156,0.2733783721923828,0.0600281208753585,1.2092899084091189
1783196504003841000,2.223841064453125,-0.6055651161067187,-0.30866547861211,-1.3532885861337185,0.3420556485652923,0.0434618405997753,1.2765178680419922
1783196504013777000,2.23377685546875,-0.7502598566368222,-0.2118174349494278,-1.1247545557916163,0.4194646775722503,0.0201261565089225,1.3324453830718994
1783196504023713800,2.2437138671875,-0.995617742138356,-0.0766902948401868,-0.850634832316637,0.50395667552948,-0.0029348442330956,1.35725736618042
1783196504033650000,2.25364990234375,-1.266380118009448,0.0993821652501821,-0.5380547375440597,0.5917912125587463,-0.0140271773561835,1.3549031019210815
1783196504043587000,2.263587158203125,-1.4598808288931846,0.3760262926362455,-0.1989835262089967,0.6718209981918335,0.0079266931861639,1.3301887512207031
1783196504053523000,2.27352294921875,-1.564610346520692,0.7775681348010898,0.1563970148921012,0.7491970658302307,0.0400947481393814,1.2887758016586304
1783196504063459800,2.2834599609375,-1.7614491157859562,1.0743082708850502,0.4596370343893766,0.8344383239746094,0.0807603001594543,1.2357804775238037
1783196504073396000,2.29339599609375,-1.9660095653444527,1.2849664527967573,0.7270750881433486,0.9131054282188416,0.1283680200576782,1.1748102903366089
1783196504083333000,2.3033330078125,-2.1050569476373493,1.4774353364147246,0.982677158153057,0.9705537557601928,0.1434850096702575,1.1118288040161133
1783196504093269000,2.31326904296875,-2.200573523500561,1.6418758109003304,1.2439379845768213,1.0053458213806152,0.1462618857622146,1.0478434562683103
1783196504103206000,2.323205810546875,-2.239741312415153,1.7986695700250566,1.5407850881665943,1.007537841796875,0.143164113163948,0.9820581078529358
1783196504113143000,2.33314306640625,-2.292878443840891,1.974019122668356,1.869589757031202,0.977210819721222,0.1624046564102172,0.909848928451538
1783196504123079000,2.343078857421875,-2.182844390064478,2.314303801446408,2.175949369853735,0.9098492860794068,0.2125681042671203,0.8345523476600647
1783196504133015800,2.353015869140625,-2.0501551446266477,2.722352833548188,2.4142653740197417,0.8051910400390625,0.2602013945579529,0.7560575604438782
1783196504142952000,2.362951904296875,-2.0974013183176514,2.905891537865996,2.5528268724918366,0.695361316204071,0.3146266639232635,0.6749141216278076
1783196504152889000,2.37288916015625,-2.1771621066443623,2.9995103172838684,2.5623586709469555,0.5813186168670654,0.3701589107513428,0.5715137124061584
1783196504162825000,2.382824951171875,-2.2246102326482533,3.110604547637701,2.530054484191537,0.4478603601455688,0.4303882420063019,0.4599077701568603
1783196504172761900,2.392761962890625,-2.1477102405801416,3.152804397724569,2.361504674690962,0.2815012037754059,0.4234877228736877,0.3550034463405609
1783196504182698000,2.402697998046875,-2.033084328968823,3.150848879742622,2.075118759360909,0.088065467774868,0.3787988424301147,0.234086737036705
1783196504192635000,2.412634765625,-1.9049720360577105,3.17547069530189,1.8197674492418765,-0.1068502217531204,0.3061142563819885,0.1022253856062889
1783196504202571000,2.422571044921875,-1.7622396816417574,3.1297119836896656,1.4928502015590668,-0.2747870087623596,0.2324548363685608,-0.0233605839312076
1783196504212508000,2.4325078125,-1.6681047693952915,2.995165566077828,1.1902274371773005,-0.3864139318466186,0.1786366105079651,-0.1490034610033035
1783196504222445000,2.442445068359375,-1.6350073864355683,2.7802105637550354,0.9123866473525762,-0.450048416852951,0.1645706743001938,-0.2757495641708374
1783196504232381000,2.452380859375,-1.5458089076779782,2.5984692642480134,0.7389847216457128,-0.5028378367424011,0.1912715286016464,-0.4130701422691345
1783196504242317800,2.46231787109375,-1.3923340638428925,2.378769259355217,0.6092623631894588,-0.5518069267272949,0.2270269244909286,-0.5438888072967529
1783196504252254000,2.47225390625,-1.1891402264624833,1.9276010703645643,0.4113981963992119,-0.611859917640686,0.2619982361793518,-0.648552417755127
1783196504262190800,2.48219091796875,-0.9832378607757388,1.2916858241796492,0.158719320359826,-0.6762130260467529,0.279480516910553,-0.7194229364395142
1783196504272127000,2.492126953125,-0.7765466827988624,0.5867515484347939,-0.1832856063395738,-0.7436128854751587,0.2342043668031692,-0.7629445791244507
1783196504282064000,2.50206396484375,-0.5935426698796451,-0.1056887180484831,-0.589215015938878,-0.8196932077407837,0.1567212790250778,-0.7631264925003052
1783196504291999700,2.511999755859375,-0.3170934805437922,-0.6055566405393182,-0.9878554375737904,-0.8896815776824951,0.0600277595221996,-0.7252585291862488
1783196504301937000,2.52193701171875,0.0767509389862418,-0.8519662270508707,-1.3939134419888255,-0.9590336680412292,-0.0695921927690506,-0.655269205570221
1783196504311873000,2.531873046875,0.3717535837531089,-0.9758484811767936,-1.78137897413671,-1.0048668384552002,-0.1874365359544754,-0.5696131587028503
1783196504321810000,2.541809814453125,0.6078264851674438,-1.0384164349012075,-2.1386218019783496,-0.984985888004303,-0.2629373967647552,-0.4746784567832947
1783196504331746800,2.551746826171875,0.6903695976890624,-1.0268266810029745,-2.408316110226512,-0.9053078293800354,-0.291118174791336,-0.3846268653869629
1783196504341683000,2.561682861328125,0.5872286644272506,-1.0700181724756956,-2.6105688673645258,-0.7530151605606079,-0.2757310271263122,-0.2966056168079376
1783196504351619800,2.571619873046875,0.4602234559752047,-1.1011505389727652,-2.825180170816183,-0.5619668960571289,-0.2327641397714615,-0.2060102075338363
1783196504361555700,2.5815556640625,0.3916505627475679,-1.106398961020261,-2.952190932226181,-0.3728640675544739,-0.1798849105834961,-0.1051811724901199
1783196504371492900,2.591492919921875,0.4515004896849393,-0.9860812675081192,-2.980517447522282,-0.2150467187166214,-0.1500455141067505,0.0120639605447649
1783196504381429000,2.601428955078125,0.528135985597968,-0.6883002440690994,-3.0652427263885733,-0.0758216083049774,-0.1503477096557617,0.1259971857070922
1783196504391366000,2.611365966796875,0.3527266655914485,-0.4495332812651991,-3.1324241652578118,0.0845134705305099,-0.1457753330469131,0.2266721278429031
1783196504401301800,2.6213017578125,0.1712472318910062,-0.087402535251528,-3.194561764740944,0.2784484028816223,-0.1469679325819015,0.2757408916950226
1783196504411239000,2.631239013671875,-0.055142626029253,0.3232980342723429,-3.138374598094821,0.4750764966011047,-0.139761671423912,0.2794751822948456
1783196504421175800,2.64117578125,-0.3113040834873914,0.6364397084504365,-2.9487188722014426,0.6379747986793518,-0.1363923996686935,0.2398383021354675
1783196504431112000,2.65111181640625,-0.5017082896605134,0.8647248785980045,-2.6307804652661084,0.7430444955825806,-0.1440481841564178,0.17057666182518
1783196504441048800,2.661048828125,-0.6153701785452663,0.9853712195426224,-2.3325299246191977,0.8102666735649109,-0.1828898936510086,0.0883429646492004
1783196504450984700,2.670984619140625,-0.6571569177865981,0.9599057927660644,-2.0784657317012547,0.8429457545280457,-0.2447298169136047,0.0135084008798003
1783196504460921900,2.680921875,-0.6370517028689384,0.86390815538764,-1.7700392494767905,0.8330602049827576,-0.3095661103725433,-0.0332072675228118
1783196504470858000,2.69085791015625,-0.4937281045615673,0.8234665471449494,-1.4295914890915156,0.7831535935401917,-0.3878180384635925,-0.0580681413412094
1783196504480795000,2.700794921875,-0.3844773101173341,0.7907352210186421,-1.073102109965682,0.7041680216789246,-0.4484638273715973,-0.0562941841781139
1783196504490731800,2.710731689453125,-0.1972768684215843,0.840136819177866,-0.7192156068146228,0.6018744111061096,-0.4910547137260437,-0.0295376721769571
1783196504500668000,2.72066796875,0.0188799109064042,1.0413635942690074,-0.4783458265125751,0.4999828636646271,-0.5504031777381897,0.000268391566351
1783196504510604800,2.730604736328125,0.0292900996312499,1.1741967782221734,-0.3693488606989383,0.4222547709941864,-0.6229569911956787,0.0314651951193809
1783196504520540700,2.740540771484375,-0.055666649903357,1.2656326606430113,-0.2820370724707842,0.3801116943359375,-0.7062464356422424,0.0471378378570079
1783196504530477800,2.750477783203125,-0.2075887844037264,1.395776020990312,-0.1829261253774166,0.3700838387012481,-0.7824599742889404,0.0468515492975711
1783196504540414000,2.7604140625,-0.4315589408963918,1.5611400400616229,0.0456716178506612,0.3786922395229339,-0.8297781944274902,0.0271398946642875
1783196504550350800,2.770350830078125,-0.6093539869956672,1.7312033228650687,0.389127912402153,0.3855940997600555,-0.8380369544029236,-0.0154776060953736
1783196504560286700,2.78028662109375,-0.662697527713701,1.9853322515822944,0.7926911773920059,0.3696789741516113,-0.8002389073371887,-0.0662918090820312
1783196504570223900,2.790223876953125,-0.6783383836336433,2.221155562149733,1.1752338661849495,0.3423775732517242,-0.7304342985153198,-0.1237162202596664
1783196504580160800,2.800160888671875,-0.7523327173881232,2.2934328628532588,1.3985463624864816,0.3248354196548462,-0.6442110538482666,-0.1831063777208328
1783196504590096600,2.8100966796875,-0.8769743385139852,2.1940135804630816,1.457767197740078,0.3143931627273559,-0.5979056358337402,-0.2357807755470276
1783196504600033800,2.82003369140625,-0.9981766328409314,2.086735985787958,1.4214409158617258,0.3071794211864471,-0.5743951797485352,-0.2822794318199157
1783196504609970000,2.829969970703125,-1.0070122657254337,2.101047127474099,1.3852905750721691,0.3157025873661041,-0.5713785886764526,-0.3226255476474762
1783196504619906800,2.83990673828125,-0.9614856093034148,2.205843572857976,1.367914492857456,0.3241985142230987,-0.5804044604301453,-0.3787815868854522
1783196504629842700,2.8498427734375,-0.98783037619777,2.310546640869975,1.456431565222144,0.3398096859455108,-0.5715377330780029,-0.4426990747451782
1783196504639779800,2.85977978515625,-1.0467178147785363,2.3631410437211398,1.6224971566915511,0.3496221005916595,-0.5257308483123779,-0.5248539447784424
1783196504649716700,2.869716796875,-1.0783084464371204,2.3848659687951206,1.8539970511019228,0.3311695754528045,-0.4469853937625885,-0.6190773844718933
1783196504659652600,2.879652587890625,-0.9912644422996788,2.401805120897293,2.073632904717326,0.2865206897258758,-0.3771610856056213,-0.7040358781814575
1783196504669589800,2.88958984375,-0.8973055442072451,2.3014430046990517,2.2088205428421497,0.2202551066875457,-0.3212477564811706,-0.7644312977790833
1783196504679526000,2.89952587890625,-0.7926967303499579,2.092145589746534,2.2880782039523124,0.1551254540681839,-0.2545550465583801,-0.8094683885574341
1783196504689462800,2.909462890625,-0.6775270672507584,1.9239500005111096,2.3216683388650416,0.0768250524997711,-0.199250265955925,-0.8506485819816589
1783196504699398700,2.919398681640625,-0.6353344506222754,1.8127537710875272,2.289270628607273,0.0058375387452542,-0.1379271149635315,-0.8930245637893677
1783196504709335800,2.929335693359375,-0.5678291135609149,1.6620289566129445,2.168805927839875,-0.0758272260427475,-0.0930347368121147,-0.9326209425926208
1783196504719273000,2.93927294921875,-0.4499620280712842,1.6020280768975614,2.0146312651723624,-0.1609663665294647,-0.0554636381566524,-0.9672548174858092
1783196504729208800,2.949208740234375,-0.2565295053192414,1.5694000650152564,1.8431600152671337,-0.2391977906227111,-0.0416389033198356,-0.9975067377090454
1783196504739145700,2.959145751953125,-0.0729699591428041,1.3992010270029305,1.5390946508616208,-0.3264542520046234,-0.0642248168587684,-1.0182284116744995
1783196504749081900,2.969081787109375,0.0827425075512379,1.2471022938266396,1.2554244242310524,-0.4106380939483642,-0.0876659601926803,-1.0319170951843262
1783196504759019000,2.97901904296875,0.1719612619118765,1.1602049316182732,0.9964362189143896,-0.474063903093338,-0.1146589890122413,-1.0561193227767944
1783196504768955000,2.988954833984375,0.173072912948206,1.025382035152614,0.7845376815527677,-0.5102242827415466,-0.1112450808286666,-1.0789185762405396
1783196504778891800,2.998891845703125,0.1615268155286088,0.8749082728296518,0.6048854632794857,-0.5179211497306824,-0.0853692516684532,-1.098663330078125
1783196504788829000,3.008828857421875,0.2358247718721628,0.7621998852774501,0.4885200145244598,-0.5046482086181641,-0.025452921167016,-1.1148310899734497
1783196504798764800,3.018764892578125,0.3299101824210956,0.6709210931144655,0.4129237985312938,-0.479943186044693,0.0545442141592502,-1.123461127281189
1783196504808701700,3.02870166015625,0.4691193311469629,0.5523705554053187,0.2495195352256297,-0.4387014508247375,0.1275206953287124,-1.122412919998169
1783196504818637800,3.038637939453125,0.5573516317535191,0.3776524325333535,0.0111707978338003,-0.3886208236217499,0.1755067110061645,-1.1063669919967651
1783196504828575000,3.048574951171875,0.5975292187651619,0.1980417153142392,-0.2208668567150831,-0.3437716066837311,0.1985768675804138,-1.0746676921844482
1783196504838510800,3.0585107421875,0.6342468745812774,0.0330988442644476,-0.4460469004541635,-0.2947655618190765,0.1989709138870239,-1.041670799255371
1783196504848447700,3.06844775390625,0.6216060041949153,-0.0916378347337245,-0.61763388569355,-0.2443431317806244,0.1968832612037658,-1.0065311193466189
1783196504858385000,3.078385009765625,0.5826335186567158,-0.1868552815198898,-0.7446604291945695,-0.2000352293252945,0.1843015849590301,-0.9617509245872498
1783196504868320800,3.08832080078125,0.5929588055770844,-0.20137392847687,-0.8305366316616535,-0.1774462908506393,0.1764737665653228,-0.922278106212616
1783196504878257700,3.098257568359375,0.5986612550023943,-0.1854398617640137,-0.9213923761069774,-0.1671014130115509,0.1496564000844955,-0.8853620290756226
1783196504888193800,3.10819384765625,0.5857427367184311,-0.1634276441812515,-1.0134177488535645,-0.1789679229259491,0.116855040192604,-0.8541681170463562
1783196504898131000,3.118130859375,0.5896367484822869,-0.0586615939356386,-1.0917062726706266,-0.2120296657085418,0.0911896005272865,-0.8390763401985168
1783196504908066800,3.12806689453125,0.6073777184866368,0.0300002937272191,-1.1731570599108934,-0.2413902133703231,0.0717218890786171,-0.8228129148483276
1783196504918003700,3.138003662109375,0.6314918037194758,0.1143342351883649,-1.322474345675111,-0.2582088112831116,0.0551329627633094,-0.811702311038971
1783196504927940900,3.14794091796875,0.613613617201522,0.2371715103060007,-1.4966455021888017,-0.2505727112293243,0.0402150005102157,-0.8114676475524902
1783196504937876700,3.157876708984375,0.570955209692195,0.3264867473110556,-1.6420885768681763,-0.2119175642728805,0.0395985804498195,-0.8186432719230652
1783196504947813600,3.167813720703125,0.5558227416858077,0.3734970664195716,-1.792695902442932,-0.1627327054738998,0.0231407769024372,-0.8282517194747925
1783196504957749800,3.177749755859375,0.6025508828520775,0.4128751370839774,-1.937821581736207,-0.1141961216926574,-0.0222639292478561,-0.8245537877082825
1783196504967687000,3.18768701171875,0.7280194563213735,0.4259817252859473,-2.018667388820648,-0.0825298130512237,-0.0826106220483779,-0.806816041469574
1783196504977623800,3.197623779296875,0.8542107180420309,0.4610394485332071,-2.053656284615397,-0.0502899512648582,-0.1495104879140854,-0.7831584215164185
1783196504987559700,3.2075595703125,0.915998188913241,0.5540015176080167,-2.026363204020261,-0.0228045284748077,-0.2168085724115371,-0.761959969997406
1783196504997496800,3.217496826171875,0.8775645594920962,0.6213932382270694,-1.95857327786386,0.0243028849363327,-0.2564508318901062,-0.7486028075218201
1783196505007432700,3.2274326171875,0.786754115493223,0.653786126179248,-1.866840750584006,0.0855278894305229,-0.2831405103206634,-0.7423188090324402
1783196505017369900,3.237369873046875,0.7376943165089934,0.7085182717114686,-1.781820872685313,0.1621938645839691,-0.3138134181499481,-0.7400649189949036
1783196505027306800,3.247306640625,0.7423246797233819,0.7490868673346937,-1.6850158644467592,0.2316584289073944,-0.3494201600551605,-0.7269166707992554
1783196505037243000,3.257242919921875,0.7077633616909385,0.7429403274036943,-1.5404139167666435,0.2976468503475189,-0.388617992401123,-0.7046002149581909
1783196505047179800,3.2671796875,0.6107279056973755,0.7359661044768989,-1.3260095340639353,0.3391575515270233,-0.413839727640152,-0.6940115094184875
1783196505057116000,3.277115966796875,0.4927427467860281,0.7534357101939618,-1.066344452399015,0.355491429567337,-0.4342796504497528,-0.698090672492981
1783196505067052800,3.287052734375,0.3607582155514508,0.7716327534027397,-0.8404659050017594,0.3602645993232727,-0.4539470970630646,-0.7212072014808655
1783196505076988700,3.29698876953125,0.2759822294112294,0.7707702913545071,-0.6283329743623733,0.3577895760536194,-0.4680211842060089,-0.7377095818519592
1783196505086925800,3.30692578125,0.2880442039310932,0.7614546198680996,-0.4063146095246076,0.3500613570213318,-0.5004057884216309,-0.7491289377212524
1783196505096862700,3.31686279296875,0.3357707084849476,0.7362424372002482,-0.2023684924721717,0.3366280198097229,-0.5486912131309509,-0.7445782423019409
1783196505106798800,3.326798828125,0.3767896782241761,0.709736269199103,0.0116349082142114,0.3008705377578735,-0.6099258065223694,-0.7410982847213745
1783196505116735700,3.33673583984375,0.3409896852422505,0.704556382343173,0.3172235366642475,0.2568422853946686,-0.6569693684577942,-0.735499918460846
1783196505126672000,3.346671875,0.297592186336033,0.6949472808681428,0.6543173104465008,0.2112686783075332,-0.6805498003959656,-0.7268065810203552
1783196505136608800,3.35660888671875,0.2781852558808401,0.7174095803059637,0.93880645224452,0.1623396128416061,-0.6895549297332764,-0.7239938974380493
1783196505146546000,3.3665458984375,0.2835475135663524,0.7539074193589389,1.1717372562408446,0.1218414455652237,-0.6743256449699402,-0.7158473134040833
1783196505156481800,3.376481689453125,0.2590639009013772,0.7973403183721005,1.3757605301827192,0.0908803045749664,-0.6290297508239746,-0.7035648822784424
1783196505166418700,3.386418701171875,0.1827016689717769,0.802088828073442,1.5373586208492516,0.0793176591396331,-0.5591467618942261,-0.6911697387695312
1783196505176354800,3.396354736328125,0.0772539931375533,0.852105343260616,1.626350324988365,0.0798641294240951,-0.4933251440525055,-0.6832203269004822
1783196505186291700,3.406291748046875,-0.0422797103900462,0.9111610510803758,1.6694406941741704,0.089509293437004,-0.4070349931716919,-0.6861497759819031
1783196505196228900,3.416228759765625,-0.1739042492058128,0.9062535514250396,1.7159674675494432,0.1023658737540245,-0.3365841805934906,-0.6965184211730957
1783196505206164700,3.426164794921875,-0.1953098791975528,0.9773290751233696,1.7239748329162596,0.1079675629734993,-0.2711540162563324,-0.7190775275230408
1783196505216102000,3.436101806640625,-0.1078909773331135,1.072501513724029,1.7881261103093624,0.0939739421010017,-0.209716722369194,-0.7500593066215515
1783196505226038800,3.446038818359375,0.0095222269091755,1.0507795112594962,1.8037620708584785,0.0522653795778751,-0.1826094686985016,-0.7680095434188843
1783196505235975000,3.455974853515625,0.1046956153579056,0.968528367421776,1.8031337098270652,-0.0197028629481792,-0.1593049019575119,-0.7742979526519775
1783196505245911800,3.465911865234375,0.0467633586101233,0.8738777607381343,1.8374200103104112,-0.0841124802827835,-0.1340821087360382,-0.7792048454284668
1783196505255847700,3.47584765625,-0.0154025901846587,0.8192796168491244,1.7515999219447371,-0.1350395381450653,-0.1028632298111915,-0.7976071834564209
1783196505265784800,3.485784912109375,-0.0262858763139694,0.8736597340732812,1.6516916869938372,-0.1785143166780471,-0.0633515119552612,-0.8342142105102539
1783196505275721700,3.4957216796875,-0.0200947665888816,0.9004191461831331,1.55371763497591,-0.2020297199487686,-0.0259842127561569,-0.8694377541542053
1783196505285657900,3.505657958984375,-0.0096257603488862,0.8001537683576345,1.415678699073195,-0.2279289662837982,0.0160721596330404,-0.8944323062896729
1783196505295594800,3.5155947265625,-0.0162057232610881,0.663645695284009,1.3237205463439226,-0.2464289665222168,0.0738109126687049,-0.9101672768592834
1783196505305531000,3.52553076171875,0.0127224111899733,0.5680424640506505,1.1641191824525594,-0.2486457824707031,0.1353214085102081,-0.9226556420326232
1783196505315467800,3.5354677734375,0.0528960892114788,0.5380461158461869,0.9375491456598044,-0.2213088572025299,0.2176761031150818,-0.9398787021636964
1783196505325405000,3.545405029296875,0.0844947215134278,0.559946689748019,0.6318406902223825,-0.1792801916599273,0.2868788838386535,-0.9533268213272096
1783196505335340800,3.5553408203125,0.1305761257413774,0.5260946890287101,0.2577969497054815,-0.1204714179039001,0.3277082741260528,-0.9589531421661376
1783196505345277700,3.565277587890625,0.1558816857811063,0.3295978650689125,-0.1048433532655239,-0.0687773376703262,0.3341331481933594,-0.9508054852485656
1783196505355213800,3.5752138671875,0.1399357459673658,0.1326147188968956,-0.3942746276408433,-0.0258506089448928,0.3190545737743377,-0.9306243658065796
1783196505365150700,3.585150634765625,0.1929305828455835,0.0408301691688597,-0.5799708022534847,-0.012531871907413,0.291881799697876,-0.9088668823242188
1783196505375087600,3.595087646484375,0.331936719812639,0.0486254992201924,-0.6936550491005182,-0.0300505086779594,0.2685547769069671,-0.8890347480773926
1783196505385023700,3.605023681640625,0.4394007039053365,0.1375783326536417,-0.7911234896838665,-0.0644103437662124,0.2405769079923629,-0.8763301372528076
1783196505394961000,3.6149609375,0.5442658671438694,0.2099536869041621,-0.9383031788975,-0.1171025857329368,0.2113361954689026,-0.8694052696228027
1783196505404897800,3.624897705078125,0.5957633416038006,0.2293136364124715,-1.1128729793399572,-0.1697407662868499,0.1872036904096603,-0.8531157970428467
1783196505414833700,3.634833740234375,0.6173099875014275,0.2147993733696639,-1.3663421289741993,-0.1948518007993698,0.1390333175659179,-0.841253399848938
1783196505424771300,3.644771240234375,0.6120396458830684,0.2043628811597824,-1.725523815923929,-0.1936310082674026,0.0785590559244155,-0.8337728381156921
1783196505434707500,3.65470751953125,0.5749759896408766,0.3021174452081323,-2.0082816038846967,-0.1835789829492569,0.0166624784469604,-0.8391724824905396
1783196505444644400,3.664644287109375,0.5774887031141668,0.4583706677153706,-2.185950539386272,-0.1580453962087631,-0.0257606133818626,-0.8653002381324768
1783196505454581200,3.674581298828125,0.5404342530917376,0.5195744934797286,-2.314349540284276,-0.1202538460493087,-0.0540071576833725,-0.9090384840965272
1783196505464517400,3.684517333984375,0.5664364901587366,0.4879653032511472,-2.39921802701354,-0.0776352807879448,-0.0934709459543228,-0.954774796962738
1783196505474454500,3.69445458984375,0.6783294696748257,0.3830653974927961,-2.458641106840968,-0.0392206162214279,-0.1456309407949447,-0.9717389941215516
1783196505484390100,3.70439013671875,0.8494418231397867,0.1649348338738083,-2.465047466751933,-0.0057377545163035,-0.1939577311277389,-0.965335726737976
1783196505494327300,3.714327392578125,1.000112130948156,-0.0160433723062276,-2.4041414548903703,0.0326582640409469,-0.2339497804641723,-0.9364277124404908
1783196505504264400,3.724264404296875,1.070479214116186,-0.1434716284759342,-2.2908897542417046,0.0754877477884292,-0.2650845348834991,-0.8900482058525085
1783196505514200600,3.73420068359375,1.1361201455451548,-0.2255602752283215,-2.163382149225473,0.1136003360152244,-0.2836602032184601,-0.8464930653572083
1783196505524137200,3.74413720703125,1.2015852820158004,-0.2488432433992624,-1.9974059896051883,0.1392910480499267,-0.3037731945514679,-0.8015679121017456
1783196505534074400,3.754074462890625,1.2514436840318142,-0.2699171572186052,-1.8737474612325429,0.148156002163887,-0.3512286841869354,-0.7538671493530273
1783196505544010500,3.764010498046875,1.2389331620268522,-0.2837359853431582,-1.791365530622005,0.1448563337326049,-0.4163251221179962,-0.7186306118965149
1783196505553947400,3.773947509765625,1.101087410608679,-0.2620445241473615,-1.717349861818552,0.1511419266462326,-0.4831563234329223,-0.7078360319137573
1783196505563883300,3.78388330078125,1.0090941135007887,-0.1777792640082538,-1.638327178508043,0.1690458357334137,-0.5517423152923584,-0.7108699083328247
1783196505573820400,3.7938203125,0.9347361340656876,-0.0835693868294358,-1.4678893633037804,0.1839946210384369,-0.5959433317184448,-0.7181575298309326
1783196505583757300,3.80375732421875,0.8877231846086681,-0.1073268406443297,-1.1991349662542343,0.1939423233270645,-0.6152421832084656,-0.7282796502113342
1783196505593693200,3.813693115234375,0.9126192870646714,-0.1227602643586695,-0.9464163427263498,0.1937516331672668,-0.6323981881141663,-0.7321271300315857
1783196505603630300,3.82363037109375,1.016671489952505,-0.1758417200744152,-0.7275935590595006,0.1713930666446685,-0.6460317373275757,-0.7301660180091858
1783196505613567200,3.833567138671875,1.1745063556279989,-0.2886618974380195,-0.5762655179947614,0.1342778950929641,-0.6952384114265442,-0.7117405533790588
1783196505623503400,3.84350341796875,1.394368200019002,-0.4127376283094287,-0.4774707972437143,0.0694235265254974,-0.7786760330200195,-0.6827874779701233
1783196505633440300,3.853440185546875,1.6432967836141583,-0.5428869800060987,-0.332224706441164,-0.030192082747817,-0.9009187817573548,-0.6478525400161743
1783196505643376400,3.86337646484375,1.8765294931665064,-0.6627773880168795,-0.1570265449672937,-0.1540772765874862,-1.0620930194854736,-0.5954476594924927
1783196505653313300,3.873313232421875,2.137796457070112,-0.7599401236519217,0.0002507598906755,-0.2891882658004761,-1.2551308870315552,-0.5170254111289978
1783196505663250400,3.88325048828125,2.330518877057731,-0.8258839835502206,0.2649012287527322,-0.4408728778362274,-1.4253367185592651,-0.4089793860912323
1783196505673186300,3.893186279296875,2.246272906140983,-0.9060840400770306,0.6721510733008385,-0.5648517608642578,-1.5561885833740234,-0.2797011137008667
1783196505683123500,3.90312353515625,1.808297230070084,-0.843676391480863,1.0708598839968442,-0.6109426021575928,-1.5694454908370972,-0.1741816103458404
1783196505693060400,3.913060302734375,1.322436351752281,-0.52993675140962,1.41264853759706,-0.5722298622131348,-1.4889345169067385,-0.1229780986905098
1783196505702996200,3.922996337890625,0.8522926094610244,-0.0991182536169886,1.6532172891259191,-0.4678131937980652,-1.3387311697006226,-0.1244404390454292
1783196505712933400,3.932933349609375,0.475199272115156,0.2742247912846505,1.795088350537419,-0.3302085697650909,-1.1399825811386108,-0.1677866876125335
1783196505722870300,3.942870361328125,0.3786385209612548,0.5295229099117219,1.9051123213112355,-0.1931444406509399,-0.96327143907547,-0.2193542718887329
1783196505732806400,3.952806396484375,0.4413431066773831,0.5239882182687521,1.952534582221508,-0.0889826267957687,-0.8333470225334167,-0.2290348410606384
1783196505742743300,3.962743408203125,0.5037013631738722,0.3985604882664978,2.101410553959012,-0.016761690378189,-0.7152203917503357,-0.2074927985668182
1783196505752679400,3.972679443359375,0.615498627230525,0.1956836078807711,2.230076096838713,0.0165928937494754,-0.6171677112579346,-0.1642448455095291
1783196505762616300,3.9826162109375,0.7483422595124691,0.0662201926216483,2.4175749369591477,-0.0106949191540479,-0.5410735011100769,-0.115164116024971
1783196505772553500,3.992553466796875,0.8836004786554723,0.1133016772702336,2.5559037957191464,-0.0953566581010818,-0.5057172179222107,-0.0695058479905128
1783196505782489300,4.0024892578125,0.87094148809053,0.2165846493512392,2.652031343087554,-0.2114190757274627,-0.4773239493370056,-0.0372203513979911
1783196505792426200,4.01242626953125,0.6857079625535756,0.3157932116001844,2.720284795102477,-0.3186202347278595,-0.4250632524490356,-0.0346983522176742
1783196505802363400,4.02236328125,0.4364800306856632,0.4680857137829065,2.733826998242736,-0.418777734041214,-0.3303700387477875,-0.0759113058447837
1783196505812299300,4.03229931640625,0.178397980428487,0.6956713573589921,2.713310864436626,-0.5065842866897583,-0.2097149193286895,-0.1456988900899887
1783196505822236400,4.042236328125,-0.0425990785375237,0.8330703148577362,2.5668203265309333,-0.5502774715423584,-0.0864316150546073,-0.230702206492424
1783196505832173300,4.05217333984375,-0.2085904357269406,0.8397351065091788,2.2992770588368177,-0.5641753673553467,0.0314091220498085,-0.3198187947273254
1783196505842109400,4.062109375,-0.2654977333411574,0.8079235986415296,2.007746181833744,-0.5526848435401917,0.1403158903121948,-0.4038087725639343
1783196505852046300,4.07204638671875,-0.3071796970337629,0.7044721381258219,1.8010335226774217,-0.5339165925979614,0.2598591446876526,-0.4692833125591278
1783196505861982500,4.081982421875,-0.2182045787032693,0.5468808719478547,1.576127619704604,-0.5118623971939087,0.3506321907043457,-0.5095407366752625
1783196505871919400,4.09191943359375,-0.037503874290362,0.3974086148176342,1.2124275785475969,-0.4899272322654724,0.3992108702659607,-0.5326187014579773
1783196505881856500,4.1018564453125,0.0846849468559026,0.2454459291111677,0.8543710962355137,-0.4758271276950836,0.4358445107936859,-0.5569021701812744
1783196505891792400,4.11179248046875,0.1931766665611416,0.1447432558469474,0.5272340683221817,-0.4477869570255279,0.4644255340099334,-0.5635958909988403
1783196505901729300,4.121729248046875,0.3127829969335347,0.0196301447518169,0.1926215899616479,-0.4126619696617126,0.4849422574043274,-0.550842821598053
1783196505911666400,4.13166650390625,0.4414368493754416,-0.0668367170847952,-0.0896773483157157,-0.3817919790744781,0.5231705904006958,-0.5216472148895264
1783196505921602300,4.141602294921875,0.4642220240920782,-0.1081907639972865,-0.317071560972929,-0.3494835793972015,0.5647329092025757,-0.494730681180954
1783196505931539200,4.151539306640625,0.3882775791831314,-0.1397574302583932,-0.5229273110389709,-0.3142404854297638,0.6120803952217102,-0.4738294780254364
1783196505941476400,4.161476318359375,0.3385422190248966,-0.0386082553356885,-0.6834405290782452,-0.2983531355857849,0.6851974725723267,-0.4688522815704345
1783196505951412500,4.17141259765625,0.3639225978665054,0.1504626564070582,-0.9376070133268832,-0.2947072386741638,0.7327979803085327,-0.4728356301784515
1783196505961349400,4.181349365234375,0.4628892411183565,0.374773954487592,-1.36954881606102,-0.3027292191982269,0.7084234356880188,-0.4833023846149444
1783196505971286300,4.191286376953125,0.5205092901118099,0.532537435427308,-1.887697660651803,-0.30922532081604,0.6150999069213867,-0.4940314888954162
1783196505981222400,4.201222412109375,0.5028844938330352,0.5637519272498787,-2.3373773646503686,-0.3068479001522064,0.4817352294921875,-0.5002667307853699
1783196505991159600,4.21115966796875,0.4720064674232155,0.508282991875708,-2.6196821481466293,-0.2907973229885101,0.3359636664390564,-0.499375581741333
1783196506001096200,4.22109619140625,0.4517054742051288,0.4963163674890994,-2.775227514645457,-0.2544742226600647,0.1999459117650985,-0.4922928810119629
1783196506011032300,4.2310322265625,0.3998229824829846,0.4954596410619095,-2.7921102603852748,-0.2000618427991867,0.0948122814297676,-0.4970175623893738
1783196506020969500,4.240969482421875,0.3666428896758705,0.5328749968186021,-2.6548008078008887,-0.151545450091362,0.035452015697956,-0.5243112444877625
1783196506030905300,4.2509052734375,0.373985544056259,0.5713535978926345,-2.4510844078511,-0.1128208339214325,-0.0045191990211606,-0.5652626752853394
1783196506040842200,4.26084228515625,0.4055410313362255,0.4996066046735271,-2.3224147733181715,-0.0815838202834129,-0.0552625395357608,-0.591597318649292
1783196506050779400,4.270779296875,0.5161616528289392,0.3573800443552434,-2.276773550605774,-0.0544844940304756,-0.1234357878565788,-0.58221834897995
1783196506060715500,4.280715576171875,0.6413236080344766,0.261267365762405,-2.203452293807268,-0.0377497151494026,-0.201155886054039,-0.5490103363990784
1783196506070652200,4.290652099609375,0.6751309658944606,0.2625488934729248,-2.030405757409334,-0.0265629347413778,-0.2430872768163681,-0.510768711566925
1783196506080589300,4.30058935546875,0.6784473239008337,0.341594628865458,-1.7948866904854774,-0.0204054433852434,-0.2571394443511963,-0.482904314994812
1783196506090525400,4.310525390625,0.6534979568876326,0.4372491153620183,-1.5510516306370496,-0.0332599766552448,-0.2565475106239319,-0.4723177552223205
1783196506100462300,4.32046240234375,0.5789085798494518,0.4753145325252786,-1.3850181878715753,-0.0488277524709701,-0.2633881270885467,-0.4786603450775146
1783196506110399200,4.330399169921875,0.5103608210630715,0.4780135988835245,-1.3263058866620063,-0.0729801058769226,-0.2833898365497589,-0.5036013126373291
1783196506120335400,4.34033544921875,0.477435689397715,0.4496995412101969,-1.2973363972872496,-0.1005358397960662,-0.3348727524280548,-0.5320561528205872
1783196506130272500,4.3502724609375,0.5142427405303344,0.411457160044834,-1.2710773359149694,-0.1209347918629646,-0.3920753896236419,-0.5660869479179382
1783196506140209400,4.36020947265625,0.5993159195188432,0.3265133430570364,-1.1654191591352223,-0.1403391063213348,-0.4379254281520843,-0.602488100528717
1783196506150145300,4.370145263671875,0.7657937450509518,0.301264445107989,-0.9811112240105868,-0.1658588796854019,-0.4786796867847442,-0.6391450762748718
1783196506160082400,4.38008251953125,1.0200807869393378,0.3038278293225914,-0.7958516872495413,-0.2030467391014099,-0.5308595895767212,-0.6780746579170227
1783196506170019300,4.390019287109375,1.328926590554416,0.2882206564765423,-0.6225970610588789,-0.2446552813053131,-0.5893654227256775,-0.7068464159965515
1783196506179955200,4.399955078125,1.6678136774942278,0.2233810314930975,-0.4566904595434665,-0.2831076085567474,-0.6806516647338867,-0.7212269306182861
1783196506189892400,4.409892333984375,2.0007067847162485,0.1253666109321639,-0.3166851920038461,-0.3018146753311157,-0.791940450668335,-0.6939298510551453
1783196506199829200,4.419829345703125,2.187534301446378,-0.0754932305427268,-0.1693371604859828,-0.3045372366905212,-0.9029529690742492,-0.6061840653419495
1783196506209765400,4.429765380859375,2.088558817300945,-0.3462569581206888,0.0317225874751806,-0.279191792011261,-0.9721296429634094,-0.4709345996379852
1783196506219702300,4.439702392578125,1.7112635276421904,-0.5102867694461718,0.3141992204070091,-0.2008368074893951,-0.9477044343948364,-0.3620691001415252
1783196506229639200,4.44963916015625,1.2700434628225865,-0.4260068597272038,0.6920984673082828,-0.074350818991661,-0.8235743045806885,-0.2967382073402405
1783196506239575300,4.4595751953125,1.0207108284711837,-0.1311096115635708,1.0517810895174742,0.0747182965278625,-0.6456269025802612,-0.2709864974021911
1783196506249512400,4.469512451171875,0.8353811490833759,0.1247714580506086,1.282799337890744,0.2029611319303512,-0.4598405361175537,-0.2782229483127594
1783196506259449300,4.479449462890625,0.7861512542292475,0.2840924706306308,1.4590262578904627,0.2719788253307342,-0.326293408870697,-0.3067323565483093
1783196506269385200,4.48938525390625,0.851966373181343,0.3711791083334013,1.5421569610416888,0.2780087292194366,-0.2649996876716614,-0.3484174907207489
1783196506279322400,4.499322265625,0.9172253195554018,0.2652398861225694,1.6084779836893082,0.2224088609218597,-0.2613527476787567,-0.3880652785301208
1783196506289259500,4.509259521484375,0.8428890404954552,-0.044522667011246,1.6949053902983664,0.1167700439691543,-0.2888533473014831,-0.4213627874851227
1783196506299195400,4.5191953125,0.8270525889381766,-0.35110728422869,1.7980232349455356,-0.0105207962915301,-0.334551066160202,-0.4202996492385864
1783196506309132300,4.52913232421875,0.8823542049214244,-0.4904838254107162,1.8382120374709368,-0.1281611919403076,-0.3613863289356231,-0.4025724828243255
1783196506319069400,4.5390693359375,0.7673658897385001,-0.6646795683763921,1.893424806126952,-0.2147967517375946,-0.3520631194114685,-0.3895653486251831
1783196506329005300,4.54900537109375,0.6000893150441349,-0.7989765412718057,1.943414871698618,-0.2529480457305908,-0.2924688756465912,-0.3885503709316253
1783196506338942200,4.558942138671875,0.4095759494081139,-0.8939143673989921,1.9540707057476043,-0.254767507314682,-0.1847158074378967,-0.3968221545219421
1783196506348879400,4.56887939453125,0.2862830394774675,-0.993504037920013,1.938741034668684,-0.2318573892116546,-0.0485403425991535,-0.4021489918231964
1783196506358815500,4.5788154296875,0.3258092864409089,-1.028317869408801,1.9051877246350049,-0.2130879610776901,0.0908122211694717,-0.4042875170707702
1783196506368752000,4.588752197265625,0.4416457428857684,-1.034453522619605,1.799016337636113,-0.1968340724706649,0.2121547758579254,-0.3963040709495544
1783196506378689300,4.598689208984375,0.5314730210661888,-1.084282114019245,1.561521002203226,-0.1920853853225708,0.3036591112613678,-0.3889423012733459
1783196506388625400,4.60862548828125,0.6102396837890148,-1.2105313895374537,1.2856138107895851,-0.2149693518877029,0.3539987206459045,-0.3777613639831543
1783196506398562300,4.618562255859375,0.7866833152793348,-1.3013237133577464,0.8999106121391057,-0.2524754405021667,0.3124861717224121,-0.3541596531867981
1783196506408499200,4.628499267578125,0.8538248605296015,-1.4527993461996316,0.4781096796691417,-0.276938796043396,0.2405444234609604,-0.3131912350654602
1783196506418435300,4.638435302734375,0.8129697030499577,-1.5950971085906027,0.1291653090953826,-0.2629683911800384,0.1630834490060806,-0.2848474681377411
1783196506428372000,4.6483720703125,0.7958709764719009,-1.5440649866200982,-0.1071674122989177,-0.2200551331043243,0.1219158694148063,-0.2560465037822723
1783196506438308600,4.65830859375,0.7874301881238818,-1.380822489747405,-0.0990998411774635,-0.1660595387220382,0.1375353038311004,-0.226072609424591
1783196506448244700,4.66824462890625,0.7101430964343249,-1.2806146873280406,-0.0031657705545425,-0.0990250557661056,0.2137079536914825,-0.1798325777053833
1783196506458182000,4.678181884765625,0.5550006116479634,-1.2453124878004194,0.0525906034588813,-0.0317019373178482,0.323397159576416,-0.128355011343956
1783196506468118800,4.688118896484375,0.3845354700453579,-1.177932749880105,-0.0296148015409708,0.0309250354766845,0.4229804873466491,-0.0960563197731971
1783196506478054700,4.6980546875,0.3257075796321034,-0.9850529473736882,-0.2331429854422807,0.061426218599081,0.5003631711006165,-0.0754245445132255
1783196506487991800,4.70799169921875,0.3648261225774884,-0.744880647816509,-0.4685246897220611,0.0624374412000179,0.5342981815338135,-0.060596652328968
1783196506497929000,4.717928955078125,0.4245335723042487,-0.61964814812541,-0.7578197704970836,0.0441053062677383,0.5363093614578247,-0.0505147241055965
1783196506507864800,4.72786474609375,0.5363876080494374,-0.4459863293733447,-1.0173445669084786,-0.0097212716937065,0.5106746554374695,-0.035709224641323
1783196506517801700,4.7378017578125,0.661837330687791,-0.300518302915804,-1.2455138555914165,-0.0804566964507103,0.4588732421398163,-0.0198666080832481
1783196506527739000,4.74773876953125,0.7566809026602656,-0.2029676639417186,-1.5351000282675027,-0.1546554565429687,0.3641174137592315,0.002457691822201
1783196506537675000,4.757675048828125,0.719632590117678,-0.1996787967304699,-1.878016224592924,-0.2304998934268951,0.2448378801345825,0.0245834998786449
1783196506547611600,4.767611572265625,0.5834888933770358,-0.244601075784862,-2.1405893026590346,-0.2803416550159454,0.1250939220190048,0.025063132867217
1783196506557548800,4.777548828125,0.4701273026131093,-0.2191197938520461,-2.371284310427308,-0.2956524193286896,0.0196588411927223,0.0211424268782138
1783196506567485000,4.78748486328125,0.4478609641388058,-0.1427401723962277,-2.487780107563734,-0.2768928408622741,-0.0569589883089065,0.015753474086523
1783196506577421800,4.797421875,0.487990876083821,-0.0525306442994158,-2.5142308921158314,-0.230674460530281,-0.1027397960424423,0.0214052349328994
1783196506587358700,4.807358642578125,0.5534282477647066,0.0313187924472615,-2.509447164970636,-0.1517583280801773,-0.1243124157190322,0.0425877571105957
1783196506597294800,4.817294921875,0.5847958112571389,0.0724654162873048,-2.4857202524244784,-0.0402594991028308,-0.1400277316570282,0.0674070864915847
1783196506607231700,4.827231689453125,0.5763379256438463,0.0881489697046577,-2.446397126817703,0.092387244105339,-0.1409497857093811,0.0887240320444107
1783196506617169000,4.8371689453125,0.5030514478977769,0.0753763626974075,-2.3524580294042825,0.2212328314781189,-0.1328005194664001,0.1116495877504348
1783196506627105800,4.847105712890625,0.4695351819388568,0.1065964805431664,-2.150619113764167,0.3374831974506378,-0.1265223026275634,0.1297859102487564
1783196506637042000,4.8570419921875,0.4582925609778612,0.1361698723615147,-1.9288281279414887,0.4159034192562103,-0.12722909450531,0.1439355462789535
1783196506646978800,4.866978759765625,0.5077493233904242,0.1731158022418618,-1.7102455827713012,0.448662519454956,-0.1481299400329589,0.151977851986885
1783196506656916000,4.876916015625,0.602740633270517,0.2063995746191591,-1.550979734444618,0.4541600942611694,-0.1953373998403549,0.1645165383815765
1783196506666851800,4.886851806640625,0.6492027439117432,0.1391636290837079,-1.3934008162915703,0.442499965429306,-0.2454387545585632,0.1741597056388855
1783196506676788700,4.896788818359375,0.7289731768496334,0.1890568466847762,-1.1922896304041146,0.4120019674301147,-0.2940768897533417,0.1769038140773773
1783196506686726000,4.906725830078125,0.818876442875713,0.3164063019972294,-0.96361122315526,0.3772625625133514,-0.3276543021202087,0.1829151958227157
1783196506696661800,4.916661865234375,0.8037135066658257,0.3260695813449099,-0.7135404837876558,0.3540155589580536,-0.3418553471565246,0.1990598142147064
1783196506706598700,4.9265986328125,0.7726163576126098,0.2754129050906747,-0.4856149407327175,0.3627924919128418,-0.3190975189208984,0.2294071465730667
1783196506716535800,4.936535888671875,0.6343022580303251,0.1637133657874539,-0.2681377264559269,0.4039766788482666,-0.2633980214595794,0.2610252797603607
1783196506726472000,4.946471923828125,0.4782371054410934,0.1150929811337962,-0.0672796385467052,0.4522576332092285,-0.1891167014837265,0.2931200563907623
1783196506736408800,4.956408935546875,0.3961249316826462,0.1956506919918581,0.1589005221456289,0.49118772149086,-0.1085073500871658,0.3104247450828552
1783196506746345700,4.966345703125,0.388193554161489,0.3395984500795602,0.2860615056812763,0.5271060466766357,-0.0493242070078849,0.3134969174861908
1783196506756281900,4.97628173828125,0.3933116278275847,0.4782297258522361,0.3262754426479339,0.5486577153205872,-0.029339849948883,0.2983680367469787
1783196506766219000,4.986218994140625,0.3747076112531125,0.4906170598689466,0.3578103985965252,0.5561015009880066,-0.0630607455968856,0.2878775894641876
1783196506776155600,4.99615576171875,0.3748080028876662,0.4400543820410966,0.342006680265069,0.5533848404884338,-0.1212388277053833,0.2621967196464538
1783196506786091800,5.006091796875,0.3679663202993571,0.4221529607780278,0.4171656738847494,0.5497779250144958,-0.1906923502683639,0.2204168140888214
1783196506796029000,5.01602880859375,0.3340320481240749,0.326948154277727,0.5699772315055132,0.5401817560195923,-0.2385669350624084,0.1707083731889724
1783196506805965800,5.0259658203125,0.3656815703630447,0.2731741862531751,0.8424655543863773,0.5251399874687195,-0.2715648114681244,0.1187384352087974
1783196506815902700,5.03590283203125,0.3893636208541691,0.1672174649182707,1.0917553725093605,0.5091412663459778,-0.2960805594921112,0.085377812385559
1783196506825838800,5.0458388671875,0.5096754691474139,-0.0423734530881047,1.367260412862897,0.4829693138599396,-0.2913706004619598,0.0751841440796852
1783196506835775700,5.055775634765625,0.7132746724583208,-0.1460480548352003,1.6746937923967835,0.4417853951454162,-0.2729974389076233,0.0794212371110916
1783196506845713000,5.065712890625,0.887124634193629,-0.1915484808374196,1.9642741198539733,0.3929976224899292,-0.2487909942865371,0.0955484881997108
1783196506855648800,5.075648681640625,0.9644660864189266,-0.2853630020231008,2.171871745151281,0.3377207815647125,-0.2225327491760254,0.1151642650365829
1783196506865586000,5.0855859375,0.9659878891587256,-0.3774021110340952,2.318755081766844,0.2746017873287201,-0.191355749964714,0.1375405639410019
1783196506875522800,5.095522705078125,0.9424382328756152,-0.4019548068799078,2.406530980375409,0.2127458602190017,-0.1731200218200683,0.1585124284029007
1783196506885458700,5.105458740234375,0.7551102192774415,-0.5342977230980992,2.411924363851547,0.1601643115282058,-0.1483713835477829,0.1841197609901428
1783196506895395800,5.115395751953125,0.5935296642675996,-0.6808367763206362,2.3969003977209327,0.1203588321805,-0.1100010871887207,0.2127969563007354
1783196506905332700,5.125332763671875,0.5942813594177365,-0.6767886699736118,2.4729618931382893,0.0664109215140342,-0.0624302476644516,0.2490584403276443
1783196506915268900,5.135268798828125,0.6387053152948617,-0.6128013509705662,2.5712626928925517,0.0110922744497656,-0.0213294159621,0.2961364686489105
1783196506925205800,5.145205810546875,0.7103299973085522,-0.5345281708531081,2.567065241202712,-0.0538380481302738,0.0300473310053348,0.3472501337528229
1783196506935142700,5.155142578125,0.7885457481503486,-0.3329585736736655,2.502444008210301,-0.1129823178052902,0.0667611360549926,0.3959074318408966
1783196506945078800,5.165078857421875,0.8038242735639214,-0.140121952721849,2.375329201903939,-0.1585026383399963,0.0891492441296577,0.4504249393939972
1783196506955016000,5.175015869140625,0.8168234558686613,-0.0369638491295278,2.2345149560689923,-0.2040530741214752,0.0883734673261642,0.5182604789733887
1783196506964952800,5.184952880859375,0.7506332199938595,0.1469082518611103,2.1268910321742296,-0.2334257364273071,0.0945819765329361,0.5787163376808167
1783196506974889700,5.1948896484375,0.5650622791960835,0.2410626725256442,1.9792425564050675,-0.2262072414159774,0.1154750064015388,0.6380590200424194
1783196506984825900,5.204825927734375,0.4073344540916383,0.4808619740519672,1.8482225593537087,-0.2114012539386749,0.1786639988422393,0.6524654030799866
1783196506994763000,5.214762939453125,0.1819083266369998,0.7198808657903224,1.832539837053418,-0.19901143014431,0.2763135731220245,0.6362097263336182
1783196507004699600,5.22469970703125,-0.0482911526992917,0.6411918714135885,1.7461077542692425,-0.205832690000534,0.3651241660118103,0.6167576313018799
1783196507014635800,5.2346357421875,-0.1940126059286296,0.4585691128969192,1.5243050780087708,-0.2349639534950256,0.4093299806118011,0.5913521647453308
1783196507024573000,5.244572998046875,-0.2771719506524503,0.2678664352338761,1.1713812824100256,-0.2840673625469208,0.4139266312122345,0.5669291615486145
1783196507034509800,5.254509765625,-0.2514236152812838,0.1315983083959668,0.788460992476344,-0.3343515694141388,0.3722196519374847,0.5500468015670776
1783196507044445700,5.26444580078125,-0.2310796231716871,0.0955588075697422,0.360546545562148,-0.3654456436634063,0.3160568177700043,0.5233317017555237
1783196507054382800,5.2743828125,-0.2738581499293446,0.1288969404827803,0.0197545017838478,-0.3814466893672943,0.2774553596973419,0.487552672624588
1783196507064319700,5.28431982421875,-0.3530655421569943,0.0686709467746317,-0.21067104139328,-0.381448358297348,0.2528908848762512,0.4601434767246246
1783196507074257000,5.2942568359375,-0.4254007105275988,-0.0905764891125261,-0.3761386669695377,-0.3978765904903412,0.2592017650604248,0.4269338548183441
1783196507084192800,5.30419287109375,-0.4850426938027143,-0.1840783641524613,-0.4395037624210119,-0.4343177080154419,0.2846496403217315,0.3893244862556457
1783196507094130000,5.3141298828125,-0.5337642007432878,-0.2699993921419605,-0.5639128169000148,-0.4818258285522461,0.3055802285671234,0.3588278293609619
1783196507104066800,5.32406689453125,-0.5622998287454247,-0.4163958585560322,-0.8273018875241279,-0.5278819799423218,0.3148318827152252,0.3370008766651153
1783196507114002700,5.334002685546875,-0.564221298327297,-0.4994976644063368,-1.153500173282623,-0.550724446773529,0.3150870203971863,0.3223934471607208
1783196507123939800,5.34393994140625,-0.4752181960113346,-0.4580687986919656,-1.489203369489312,-0.5546579360961914,0.3028939962387085,0.3106747269630432
1783196507133876700,5.353876708984375,-0.3812133398853242,-0.3511977389911189,-1.8615064038187263,-0.5398097634315491,0.2784309983253479,0.3022322356700897
1783196507143812900,5.363812744140625,-0.3501581302776932,-0.2708333587480709,-2.184655238878727,-0.4956924617290497,0.2543759346008301,0.2993510067462921
1783196507153749800,5.373749755859375,-0.3175739575371146,-0.1752141262279823,-2.4411270774602887,-0.4496945738792419,0.235965758562088,0.3033723831176758
1783196507163686700,5.383686767578125,-0.2607346105925738,-0.1461677722247317,-2.5971125889420508,-0.3612107038497925,0.2027870267629623,0.3115140497684479
1783196507173623800,5.393623779296875,-0.3054796151176094,-0.1240711277615278,-2.8318168323516844,-0.2550006508827209,0.1719430834054947,0.3306832313537597
1783196507183560000,5.403559814453125,-0.2920703176420182,-0.0896399389147758,-2.9348446606278418,-0.1329717487096786,0.1299120783805847,0.361710250377655
1783196507193496800,5.413496826171875,-0.2480930095538497,-0.0900121149617247,-2.982407206791639,-0.0037005739286541,0.0824225842952728,0.394542783498764
1783196507203433700,5.423433837890625,-0.2610444071941077,-0.0399122506063431,-2.8988386967450377,0.1234929859638214,0.0425902791321277,0.414760559797287
1783196507213369900,5.433369873046875,-0.3089203301560133,0.02625867777979,-2.716573081102967,0.2365601509809494,0.0354322344064712,0.4252494275569916
1783196507223307000,5.44330712890625,-0.287431405794993,0.1308556185361929,-2.419785598745942,0.3281072080135345,0.0426320284605026,0.4187362492084503
1783196507233243600,5.45324365234375,-0.2484912881564348,0.1887389215757139,-2.110351400783658,0.383659154176712,0.0372748151421546,0.4232601821422577
1783196507243179800,5.4631796875,-0.1375529059514403,0.15466372482609,-1.8670026631474492,0.416066437959671,0.0051595401018857,0.4263808131217956
1783196507253117000,5.473116943359375,-0.0419433911077678,0.131732492702268,-1.801566022118926,0.4590458571910858,-0.0729264691472053,0.4433459341526031
1783196507263053800,5.4830537109375,0.0661437663845717,0.0812835409145802,-1.8453180700838565,0.497218906879425,-0.1858357787132263,0.4754784405231476
1783196507272990700,5.49299072265625,0.1681165326498448,0.1043368285154923,-1.7543261320382355,0.5264204144477844,-0.2721533477306366,0.4935708940029144
1783196507282926800,5.5029267578125,0.1967583244401961,0.1971722755359485,-1.4733049586117266,0.5573134422302246,-0.3259468674659729,0.4978968501091003
1783196507292863700,5.51286376953125,0.1478735166966915,0.2561974055543541,-1.1746247943758965,0.5652651190757751,-0.3413758873939514,0.4867736101150512
1783196507302801000,5.52280078125,0.1484597921520471,0.3203197491139173,-0.8379992226272821,0.559847891330719,-0.3247176706790924,0.4718614816665649
1783196507312736800,5.53273681640625,0.0951027343653142,0.1909309334609657,-0.5576227768450975,0.5486658215522766,-0.2854285836219787,0.4769420027732849
1783196507322674000,5.542673828125,0.1846716538704931,0.0124276660270988,-0.3556523437798023,0.5049147605895996,-0.2337255775928497,0.4925978481769562
1783196507332610800,5.55261083984375,0.3362133376859128,-0.0201696584559977,-0.2549076580047607,0.45840585231781,-0.2150850445032119,0.516171395778656
1783196507342548000,5.5625478515625,0.4237476826235651,-0.0524661733616143,-0.3089227413088083,0.4250190854072571,-0.2185470908880233,0.5336804986000061
1783196507352483800,5.57248388671875,0.4728858075410127,-0.1273468614965677,-0.3945294791847467,0.4094028174877167,-0.2384209334850311,0.5517013072967529
1783196507362420700,5.582420654296875,0.4876802026994526,-0.2130277605872601,-0.4534358416616916,0.4165144264698028,-0.268372893333435,0.5648055672645569
1783196507372358000,5.59235791015625,0.477752098403126,-0.2650157950431108,-0.4479489346832037,0.4348196387290954,-0.3125925660133362,0.5795162916183472
1783196507382293800,5.602293701171875,0.4638682422183454,-0.31666159193255,-0.3829489315062761,0.4651139080524444,-0.3491269648075104,0.598609209060669
1783196507392230700,5.612230712890625,0.462554967662692,-0.3185669871624559,-0.191273097962141,0.4996750652790069,-0.3653024733066559,0.6169213652610779
1783196507402167800,5.622167724609375,0.4429888280577957,-0.2854660970713943,0.0438180989384651,0.5295048952102661,-0.3467311859130859,0.638586699962616
1783196507412105000,5.63210498046875,0.4875917937636375,-0.1538460152350366,0.3473445341616868,0.573078989982605,-0.3136230111122131,0.6588136553764343
1783196507422040800,5.642040771484375,0.512025247143954,-0.0350794236224144,0.5588754072546959,0.6125383973121643,-0.2642917931079864,0.6831576824188232
1783196507431978000,5.65197802734375,0.4627496134519577,0.0176128135800361,0.8032885592520237,0.6472689509391785,-0.1954064518213272,0.6909649968147278
1783196507441915100,5.6619150390625,0.3731251643672585,0.0263735545974224,1.0557581764549016,0.6427424550056458,-0.1193929389119148,0.6818169951438904
1783196507451851000,5.67185107421875,0.2991829991914331,-0.1056605148673057,1.2688672586500644,0.5868000984191895,-0.0549305863678455,0.6683110594749451
1783196507461788000,5.681787841796875,0.3366932301573455,-0.2510491559457034,1.3996136994570494,0.4768404066562652,-0.0560147315263748,0.6556215286254883
1783196507471725000,5.69172509765625,0.3791346339151263,-0.3751595197390764,1.414209795564413,0.336954116821289,-0.101465567946434,0.6594242453575134
1783196507481661200,5.7016611328125,0.5060198692493141,-0.4552851958554237,1.4268793075233697,0.1821009069681167,-0.1643033772706985,0.6809090375900269
1783196507491597800,5.711597900390625,0.6150730952948331,-0.4494728563148528,1.3920757051676511,0.0609038956463336,-0.2371799796819687,0.7206506133079529
1783196507501535000,5.721534912109375,0.6236182208001613,-0.4719718345012516,1.3063123154252767,0.0049717864021658,-0.2784593999385834,0.7784201502799988
1783196507511471900,5.731471923828125,0.6081885964781045,-0.4143918252572417,1.28920394423604,-0.0029268842190504,-0.2739701271057129,0.8320758938789368
1783196507521408000,5.741407958984375,0.510965070566535,-0.2701381064929068,1.3013672602385282,0.029888741672039,-0.2249689400196075,0.8757244944572449
1783196507531345000,5.751344970703125,0.385160031684488,-0.1446479787789285,1.3208072892457243,0.087633267045021,-0.1439262926578521,0.9106881022453308
1783196507541282000,5.761281982421875,0.3015912293769419,0.0272250568602234,1.2222294261157511,0.1624340265989303,-0.0802701115608215,0.9304369688034058
1783196507551218000,5.771218017578125,0.1951815035775303,0.0554343755174428,1.096257944625616,0.2220235913991928,-0.0424353778362274,0.9443581104278564
1783196507561155000,5.781155029296875,0.1007696740858256,-0.0091252634808421,1.050664068186283,0.2451212257146835,-0.0164320282638072,0.9452874660491944
1783196507571092000,5.791092041015625,0.064302522432059,0.0011222820281982,1.1115350087344646,0.2424492686986923,-0.004621441476047,0.9469380974769592
1783196507581028900,5.80102880859375,0.0978302596330642,-0.0338747970730066,1.1831897936254738,0.2203360199928283,-0.0040803952142596,0.954541563987732
1783196507590965000,5.810965087890625,0.1297108141489326,-0.1004397845443338,1.2401608041256666,0.1924854815006256,-0.0045360615476965,0.9676557779312134
1783196507600902100,5.820902099609375,0.1493099792405962,-0.1818782968249171,1.287029522806406,0.1501605063676834,0.0054501807317137,0.974465548992157
1783196507610838800,5.8308388671875,0.1604481899790465,-0.2628084942571819,1.3241291271448137,0.0992840006947517,0.0270100682973861,0.9808244109153748
1783196507620775000,5.84077490234375,0.1803385931022465,-0.3944254342883825,1.3231126435786484,0.0448725521564483,0.0540054552257061,0.9994130730628968
1783196507630712000,5.850712158203125,0.2581795192822814,-0.507156618194282,1.2996464277952908,-0.0045490618795156,0.0821635872125625,1.0350569486618042
1783196507640649000,5.86064892578125,0.3435048098683357,-0.5519192314412444,1.139300383016467,-0.0102414777502417,0.0820126384496688,1.083223819732666
1783196507650585900,5.8705859375,0.3399769280031323,-0.5483308515604585,0.8686240779936313,0.0228008944541215,0.0871967524290084,1.1331652402877808
1783196507660522000,5.88052197265625,0.3070169076874852,-0.4501764014743268,0.7718658315062522,0.0792855992913246,0.1392444819211959,1.173953890800476
1783196507670459100,5.890459228515625,0.2823746338620782,-0.2276483335487544,0.8627800281405449,0.1418275237083435,0.2307049036026001,1.197195529937744
1783196507680396000,5.90039599609375,0.2224834981314837,-0.029917803075537,0.9635755673199892,0.2052265703678131,0.351451963186264,1.2186201810836792
1783196507690332000,5.910331787109375,0.1460077228248119,0.0382069810584187,1.0031237338542938,0.2433619499206543,0.4727048873901367,1.2254860401153564
1783196507700269000,5.92026904296875,0.1407373812064528,0.1122663428731262,0.9812053320348262,0.2504032552242279,0.5645708441734314,1.2317626476287842
1783196507710206000,5.9302060546875,0.1646943031162023,0.2221959133617579,0.8693523922681808,0.2186139076948166,0.6091814637184143,1.2321646213531494
1783196507720143000,5.94014306640625,0.1524384865246713,0.282003754723072,0.7253928341448307,0.1536378562450409,0.6215829253196716,1.2205690145492554
1783196507730079000,5.950078857421875,0.178423261000216,0.4062571802489459,0.5781681367456912,0.0602703616023063,0.6003745794296265,1.1998469829559326
1783196507740015900,5.960015869140625,0.2287264841742813,0.5722589127019048,0.4020838400870561,-0.0305455476045608,0.5457336902618408,1.176110029220581
1783196507749953000,5.969953125,0.1912530780874192,0.6383643198374659,0.1654956826269626,-0.1061111465096473,0.4833550155162811,1.1532678604125977
1783196507759890200,5.97989013671875,0.1131117076560854,0.6461665910862386,-0.0177700499683618,-0.1509560942649841,0.4225717484951019,1.1280488967895508
1783196507769826000,5.989825927734375,0.0354616278730332,0.6766091486882418,-0.1677607049494981,-0.1597805023193359,0.3785123825073242,1.1000065803527832
1783196507779763000,5.999762939453125,-0.046462768228352,0.7365171624884009,-0.300941094905138,-0.1406841427087783,0.3676358461380005,1.0729734897613523
1783196507789700000,6.0097001953125,-0.0999490053527057,0.8158110639557242,-0.3860065655112266,-0.1170235574245452,0.3716007471084595,1.0389742851257324
1783196507799636000,6.019635986328125,-0.1155763442039489,0.847359756168723,-0.4448439544051885,-0.099030777812004,0.375807374715805,1.009947419166565
1783196507809572900,6.02957275390625,-0.0888251154005527,0.8456756024740636,-0.5489069709479808,-0.0929134935140609,0.3737985491752624,0.9847389459609984
1783196507819510000,6.039510009765625,-0.0561468346357345,0.7706460804529488,-0.7009142264485358,-0.0972227603197097,0.344546377658844,0.974604308605194
1783196507829447000,6.049447021484375,-0.0506644577018916,0.6892848711922764,-0.8534814539194107,-0.0890079736709594,0.2998082041740417,0.97911274433136
1783196507839382800,6.0593828125,-0.070710635908693,0.5495256143029779,-0.9804209036588668,-0.0616678223013877,0.2673886120319366,1.005784034729004
1783196507849320000,6.06931982421875,-0.1175011747866869,0.4234323330640792,-1.0168974076628683,-0.030003372579813,0.2463757693767547,1.0372599363327026
1783196507859257000,6.079257080078125,-0.1990577604889869,0.349531084420532,-0.9697428577780725,-0.0040951836854219,0.2365008443593979,1.0653016567230225
1783196507869193000,6.08919287109375,-0.2907709985464811,0.3134688603058457,-0.9052063804596662,0.0145290996879339,0.2335953265428543,1.0908193588256836
1783196507879129900,6.0991298828125,-0.3809546889491379,0.3238891320332884,-0.8980535860955715,0.0307693518698215,0.2286624461412429,1.0993348360061646
1783196507889067000,6.10906689453125,-0.4964338563889264,0.3715012894924729,-0.9088409375697374,0.0440537333488464,0.2126384675502777,1.0997188091278076
1783196507899004000,6.11900390625,-0.6141255853116512,0.4304715840511023,-0.9476268875598908,0.0617472678422927,0.2034890502691269,1.0822503566741943
1783196507908940000,6.12893994140625,-0.7582200218610465,0.4765520018983632,-0.9990455246299504,0.0651222914457321,0.1931629031896591,1.047923564910889
1783196507918877000,6.138876953125,-0.8672437295511365,0.4989890938296913,-1.0483335794121027,0.0717079788446426,0.1713774055242538,1.0046671628952026
1783196507928813800,6.148813720703125,-0.9374870402090252,0.4929487907521426,-1.1732932535111904,0.0710427239537239,0.1398610323667526,0.964348554611206
1783196507938750000,6.15875,-0.9480138410508632,0.5344469588430598,-1.2682073334366082,0.0736441984772682,0.105415441095829,0.9261499643325806
1783196507948687000,6.16868701171875,-0.9574604454405604,0.5174645886536687,-1.390078393870592,0.079541228711605,0.0552092604339122,0.8942791223526001
1783196507958624000,6.1786240234375,-0.9381118941091,0.4491332125643268,-1.4681395386725664,0.0841411277651786,-0.0034538432955741,0.8710644841194153
1783196507968561000,6.188560791015625,-0.9791390471547842,0.3786275246432051,-1.481414030787349,0.0855619236826896,-0.044929914176464,0.8437089920043945
1783196507978497000,6.1984970703125,-1.0417102157495914,0.3159730251464993,-1.407761350077391,0.0820789784193039,-0.0723128318786621,0.8185605406761169
1783196507988434200,6.20843408203125,-1.080758616068214,0.2572220358943566,-1.321184890386462,0.0893432796001434,-0.0738438814878463,0.7878479361534119
1783196507998370800,6.218370849609375,-1.1127869084917008,0.2169300652554258,-1.2708961341291665,0.1046889498829841,-0.0738979429006576,0.7548020482063293
1783196508008307000,6.228306884765625,-1.1185945718571544,0.1866600146761164,-1.2826122908860444,0.1235609054565429,-0.0695274323225021,0.7255432605743408
1783196508018244000,6.238244140625,-1.1058696764491498,0.1667102460484951,-1.3002046461999417,0.1459555923938751,-0.0595359057188034,0.6986714005470276
1783196508028181000,6.248180908203125,-1.0742907352283595,0.1504273658979684,-1.2854314399600029,0.1541823595762252,-0.0523046217858791,0.6694874167442322
1783196508038118000,6.258117919921875,-1.076004991800338,0.1215870558608323,-1.2877502382963897,0.1596181243658065,-0.0579227358102798,0.641970694065094
1783196508048054000,6.268053955078125,-1.117582472205162,0.0511541774475947,-1.3470686887055634,0.1753571480512619,-0.0581128895282745,0.6324514746665955
1783196508057991000,6.277990966796875,-1.1793667282059788,-0.0046764308458194,-1.366864691543579,0.2108452022075653,-0.0532386526465415,0.6321662664413452
1783196508067928000,6.287927978515625,-1.201051029008627,0.0951281610675156,-1.3687012593209742,0.2629531323909759,-0.0365736559033393,0.6232588291168213
1783196508077864000,6.297864013671875,-1.2672963560715318,0.2805786903560161,-1.3373720550775527,0.3314666152000427,-0.0051454938948154,0.6009244322776794
1783196508087801000,6.307801025390625,-1.344278911856562,0.4299239601057023,-1.2771306446045636,0.4140270054340362,0.0399263761937618,0.5577929615974426
1783196508097738000,6.317738037109375,-1.3599505282409488,0.5402864421188831,-1.2277326997071505,0.4993737041950226,0.0764440298080444,0.5024101138114929
1783196508107673900,6.327673828125,-1.3480631065703927,0.5743440484128892,-1.126875785729289,0.5715107321739197,0.1046623513102531,0.4355863928794861
1783196508117611000,6.337611083984375,-1.2932742624148723,0.5743431716300547,-0.958161725577712,0.6185812950134277,0.1186466738581657,0.3564314246177673
1783196508127548000,6.3475478515625,-1.1751733681693672,0.5508738871067762,-0.806283064892888,0.6279984712600708,0.1067335531115531,0.2836874425411224
1783196508137485000,6.357485107421875,-1.026831064917147,0.4349677994918078,-0.6505424680829047,0.6084802746772766,0.0746724531054496,0.2203932851552963
1783196508147421000,6.3674208984375,-0.8490048930272459,0.3011977730799466,-0.4763695580035448,0.5646576881408691,0.0172232743352651,0.174369603395462
1783196508157357800,6.37735791015625,-0.6639809185877442,0.2196769162781536,-0.2770996160686016,0.5031657814979553,-0.0356116704642772,0.1438322812318802
1783196508167295000,6.387294921875,-0.5072974879696965,0.1612162517420947,-0.0192348618239164,0.4401679039001465,-0.0704884305596351,0.1263558268547058
1783196508177231000,6.397231201171875,-0.4280515172973275,0.0938560222398489,0.2073304987937211,0.4039388298988342,-0.0833774134516716,0.1234440878033638
1783196508187168000,6.40716796875,-0.4233735886141657,0.0571416908919811,0.3365811480849981,0.3945458531379699,-0.0719215646386146,0.1106510683894157
1783196508197105000,6.41710498046875,-0.3963803677484392,0.0643437312252819,0.4006961851209402,0.4032352864742279,-0.0448416620492935,0.0963812842965126
1783196508207041000,6.427041015625,-0.370756535539776,0.0367768021248281,0.507395395386219,0.4157246947288513,-0.0109907574951648,0.0907327234745025
1783196508216978200,6.436978271484375,-0.3194343445815146,-0.0728435562841594,0.5888970360308885,0.4268484115600586,0.0127348713576793,0.0984086319804191
1783196508226914800,6.446914794921875,-0.2423345921576023,-0.1520757906921208,0.6508452504217624,0.4236781597137451,0.0231164060533046,0.1095068231225013
1783196508236852000,6.45685205078125,-0.1689814789161086,-0.2584516142219304,0.7705044800251721,0.4003374576568603,0.0264014452695846,0.1334462016820907
1783196508246788000,6.4667880859375,-0.0533155567325651,-0.3709802612930536,0.8830506627529859,0.3501392602920532,0.0094506898894906,0.175005629658699
1783196508256725000,6.47672509765625,0.0969594681479036,-0.3637120238557457,1.0114800587892532,0.2715799212455749,-0.0150127615779638,0.2247086614370346
1783196508266662000,6.486661865234375,0.193166072101891,-0.3017525574184954,1.158601295813918,0.1886767745018005,-0.0359928794205188,0.2695943713188171
1783196508276598000,6.496597900390625,0.2011030025810003,-0.2747477922454476,1.210495149180293,0.1291065514087677,-0.0538963638246059,0.3082062005996704
1783196508286535000,6.506534912109375,0.1243447570711374,-0.2538432436436414,1.1966764671862125,0.1080723702907562,-0.0461028888821601,0.340143084526062
1783196508296472000,6.51647216796875,0.0600356587678194,-0.2001357649840414,1.219039105641842,0.1093969270586967,-0.0178344901651144,0.3654011487960815
1783196508306408000,6.526407958984375,0.0356032283008098,-0.1455474118366837,1.3041805640935895,0.1263367533683776,0.0179149843752384,0.3864257633686065
1783196508316345000,6.536344970703125,-0.0220215699329972,-0.1670354594148695,1.3728057720303537,0.146516740322113,0.0507253482937812,0.4090419113636017
1783196508326282000,6.546281982421875,-0.0998240637987852,-0.2048093097530305,1.4610633166760203,0.1682697236537933,0.0788600444793701,0.4334788024425506
1783196508336219100,6.55621923828125,-0.1939855717912316,-0.2511740244343877,1.58633687902987,0.1895786523818969,0.1064326837658882,0.4545691013336181
1783196508346155000,6.566155029296875,-0.2654905729480087,-0.2240723747581243,1.754291645246744,0.1887365579605102,0.1561288684606552,0.4700380563735962
1783196508356092000,6.576091796875,-0.1407505329489707,-0.0007587094128131,1.997363319507241,0.1314698308706283,0.2344073951244354,0.4846159219741821
1783196508366029000,6.586029052734375,-0.1321880179174244,0.1700423861458897,2.216892205616832,0.0723199546337127,0.2873092293739319,0.4929835796356201
1783196508375965000,6.59596484375,-0.1993092510320246,0.2435084582425653,2.195643665882945,0.0177299231290817,0.332724928855896,0.4844164848327636
1783196508385901800,6.60590185546875,-0.2276582704208791,0.259386849245429,2.1071458827406166,-0.0594452917575836,0.3697164952754974,0.4672561287879944
1783196508395839000,6.6158388671875,-0.2286323761500418,0.4303840518981218,2.030424462109804,-0.157705470919609,0.3906932473182678,0.4543740749359131
1783196508405775000,6.625775146484375,-0.1496346811503172,0.6283920110732316,1.8388199402362104,-0.2438763082027435,0.3946216702461242,0.4393759369850158
1783196508415712000,6.6357119140625,-0.215638454542309,0.6841033769011498,1.5625065061092376,-0.2778198719024658,0.4001158773899078,0.4230429530143738
1783196508425649200,6.645649169921875,-0.3346927039898932,0.6376088983602821,1.2247235810190438,-0.2512476444244385,0.3982895016670227,0.384911298751831
1783196508435585000,6.6555849609375,-0.4799688976697623,0.5743222749724984,0.9348112451285124,-0.1827540546655655,0.3872346878051758,0.3339359164237976
1783196508445522200,6.665522216796875,-0.6097957394137978,0.4026265686616301,0.7102233220636844,-0.081254057586193,0.3544287979602813,0.2962806820869446
1783196508455459000,6.675458984375,-0.7559129139624535,0.1027722460798919,0.5765788217276334,0.0407643876969814,0.3271648585796356,0.2577240169048309
1783196508465395000,6.68539501953125,-0.8792213137231767,-0.1579541812062263,0.618050065279007,0.1486072391271591,0.355301946401596,0.2080493867397308
1783196508475332000,6.69533203125,-0.7312664754185825,-0.1980145350463688,0.8755372183829545,0.1728586256504058,0.4713206887245178,0.1616982221603393
1783196508485269000,6.70526904296875,-0.2554891842197627,0.2864066658571362,1.134852755957842,0.1118586435914039,0.5688378810882568,0.1091506034135818
1783196508495205000,6.715205078125,0.0191485717799514,0.5509764706984162,1.0289116705834864,0.0680507570505142,0.6330589056015015,0.0648565366864204
1783196508505142000,6.72514208984375,0.0857038415748625,0.4919741005010902,0.7257090604871511,0.0386625081300735,0.6799814105033875,-0.0002833209000527
1783196508515079000,6.735078857421875,0.1920436439432203,0.5520886697240174,0.3999491661459207,0.0186571069061756,0.6842080950737,-0.068026416003704
1783196508525015000,6.74501513671875,0.196001368593052,0.5235284918025136,0.0543061752051115,-0.0057965721935033,0.6647792458534241,-0.1221290603280067
1783196508534952200,6.7549521484375,0.2525504273541271,0.4236104661099612,-0.173410109013319,-0.0600370205938816,0.6674377918243408,-0.1584865450859069
1783196508544889000,6.76488916015625,0.3917444515760988,0.5522307085432112,-0.2949158432662487,-0.1309958845376968,0.6611013412475586,-0.1899541914463043
1783196508554825000,6.774824951171875,0.4292087975736707,0.6276781637154519,-0.426125809931755,-0.1962281018495559,0.6693653464317322,-0.2095407843589782
1783196508564762000,6.78476220703125,0.4977922852605581,0.63704878025949,-0.5988847615599632,-0.2497986555099487,0.6710630655288696,-0.2230352759361267
1783196508574699300,6.79469921875,0.5909400861658155,0.698852179352194,-0.8346335455864667,-0.310375839471817,0.6480188965797424,-0.2220954746007919
1783196508584635100,6.80463525390625,0.6857930835537612,0.7078006249614059,-1.0723948384791613,-0.3799818158149719,0.5727878212928772,-0.1950492113828659
1783196508594572000,6.814572021484375,0.6527215656876564,0.579837823523581,-1.3014210362523793,-0.4422334432601928,0.4625995457172394,-0.149074301123619
1783196508604509200,6.82450927734375,0.4795545812478288,0.4860688950452953,-1.4672522344440222,-0.4860722422599792,0.3693487048149109,-0.1165658831596374
1783196508614445000,6.834445068359375,0.2647712456975132,0.5712620836842804,-1.4536463184177877,-0.5098093748092651,0.319905012845993,-0.113463744521141
1783196508624382000,6.8443818359375,0.0785567097665742,0.7284114513136446,-1.381370771279931,-0.5161617994308472,0.3091234862804413,-0.1313021332025528
1783196508634319000,6.854319091796875,-0.0879147225573658,0.7337055391337722,-1.3516595236271618,-0.5095625519752502,0.3028656840324402,-0.1649858653545379
1783196508644255200,6.864255126953125,-0.2457422451766207,0.5529056851953268,-1.3752636865764856,-0.4885216951370239,0.2848304808139801,-0.2034384459257125
1783196508654191900,6.87419189453125,-0.3750016257636249,0.3248193255554884,-1.4590490542441603,-0.4634748697280884,0.24969482421875,-0.2328761368989944
1783196508664129000,6.88412890625,-0.4979768480472266,0.0091378307014703,-1.4682044206023217,-0.428164005279541,0.2260334342718124,-0.2348340898752212
1783196508674065200,6.894065185546875,-0.6045734747208654,-0.3054593760471791,-1.4020657687842846,-0.3873088359832763,0.2468240410089492,-0.2366078048944473
1783196508684002000,6.904001953125,-0.6995762558430433,-0.532589750136435,-1.3286796300560235,-0.3355231285095215,0.2852934002876282,-0.2324865609407425
1783196508693939000,6.91393896484375,-0.7368947636291384,-0.7632524630703031,-1.372981713119149,-0.2870838940143585,0.3189255893230438,-0.206964835524559
1783196508703875000,6.923875,-0.7216876960165798,-1.0524039706561714,-1.5373720648527145,-0.2436754405498504,0.3134165704250335,-0.1713192164897918
1783196508713812200,6.933812255859375,-0.7157588904894888,-1.3157248714148997,-1.733110910052061,-0.187480553984642,0.2954370379447937,-0.1119939684867858
1783196508723749000,6.9437490234375,-0.7106267152328044,-1.5100065035432575,-1.8796867881536483,-0.103480190038681,0.2812480032444,-0.0487255156040191
1783196508733685000,6.95368505859375,-0.6548408959291875,-1.4576310041397809,-1.87007900185287,-0.0389462225139141,0.2787265479564667,0.0083175431936979
1783196508743622100,6.9636220703125,-0.660509589215368,-1.2408639839589597,-1.759399782040715,-0.0197059512138366,0.2793755531311035,0.0501358285546302
1783196508753559000,6.97355908203125,-0.6598837854672223,-0.9651048957791178,-1.6972066529780625,-0.0183086656033992,0.2730713486671448,0.0742163062095642
1783196508763495000,6.983494873046875,-0.7095246722750366,-0.6723070675801486,-1.7739707437068224,-0.0051886020228266,0.2422149181365966,0.0771529749035835
1783196508773432000,6.99343212890625,-0.8123079512055963,-0.4657861316036433,-1.9336954417169088,0.0322077572345733,0.1922095119953155,0.0680982619524002
1783196508783369000,7.003368896484375,-0.911947817543894,-0.3514539422418922,-2.00711898984611,0.0892132520675659,0.1324383169412613,0.0425377748906612
1783196508793305000,7.01330517578125,-0.960753057245165,-0.2412834756694734,-2.0047025763541457,0.1696812063455581,0.0745210573077201,0.0137183228507637
1783196508803242000,7.023241943359375,-0.8806785267941654,-0.1737548307977616,-1.8578361908733845,0.2429727166891098,0.0285964496433734,-0.0028971387073397
1783196508813179100,7.03317919921875,-0.7727962442241608,-0.1802361556410789,-1.6020114180237053,0.3198742866516113,-0.0122485999017953,0.0056233955547213
1783196508823115000,7.043114990234375,-0.6086730920594186,-0.2606720667503774,-1.4334545942604542,0.3907718956470489,-0.0546762198209762,0.0276645142585039
1783196508833052200,7.05305224609375,-0.4050822547180578,-0.2685285524044186,-1.2293436420351267,0.4492680132389068,-0.0956170856952667,0.0621512793004512
1783196508842988000,7.062988037109375,-0.1414044120141304,-0.1977490159779787,-1.0021171871602534,0.4745393097400665,-0.1265851259231567,0.1226764023303985
1783196508852925200,7.07292529296875,0.2073182968992739,0.0356947059765458,-0.7266700144737959,0.4662530124187469,-0.1513316184282302,0.1955538392066955
1783196508862862000,7.082862060546875,0.3188626091081649,0.3425052043717354,-0.4488502674371004,0.466654360294342,-0.1634647250175476,0.2583428919315338
1783196508872798000,7.0927978515625,0.2392589110393077,0.4906302846767008,-0.227310626026988,0.475075364112854,-0.1387892812490463,0.3016310930252075
1783196508882735000,7.102735107421875,0.1204967764060944,0.6477506454072892,0.0409253001064062,0.476526528596878,-0.0874651074409484,0.3115822374820709
1783196508892672000,7.112672119140625,-0.0285705166524276,0.8286949493177235,0.250572843670845,0.4771174192428589,-0.0307463370263576,0.2942791879177093
1783196508902608100,7.122608154296875,-0.1391914304060861,0.8928856819383799,0.3594996668577194,0.4900984764099121,-0.0008454285562038,0.257916122674942
1783196508912545000,7.132544921875,-0.1578944869082421,0.9890252120055256,0.3223649912059307,0.4915832877159118,-0.0153488656505942,0.2019170820713043
1783196508922482000,7.14248193359375,-0.1371578787518665,1.0287580874569713,0.3360936568289995,0.4763630628585815,-0.0810176208615303,0.1544939130544662
1783196508932418000,7.15241796875,-0.0194533634128049,0.8968132306456565,0.4192050707578659,0.4365917146205902,-0.1697363257408142,0.1164217665791511
1783196508942355200,7.162355224609375,0.0684156979385064,0.6899588249310851,0.6000234102010726,0.3776282668113708,-0.2514503598213196,0.099816158413887
1783196508952291800,7.172291748046875,0.1429575414739549,0.4495028861269354,0.8970382715731858,0.3044541776180267,-0.2907831072807312,0.1125964745879173
1783196508962228000,7.18222802734375,0.2920430277762934,0.3376712814092636,1.1812860058307646,0.228459283709526,-0.2776564061641693,0.145688384771347
1783196508972165000,7.1921650390625,0.42342634171471,0.4905792851418256,1.3720634292304514,0.1533598750829696,-0.240344300866127,0.1652389019727707
1783196508982101000,7.20210107421875,0.4255533072734251,0.6284612769171595,1.427003810685873,0.0935889407992363,-0.1784931719303131,0.1707548350095749
1783196508992038000,7.212037841796875,0.4449848972458392,0.7728022355735301,1.359689685347676,0.031956672668457,-0.134687602519989,0.1541280746459961
1783196509001975000,7.22197509765625,0.4131916922198608,0.9982412225097416,1.1874895366460083,-0.0246983524411916,-0.1200487241148948,0.1102849841117858
1783196509011911200,7.2319111328125,0.3292447042496875,1.0811287645548582,0.9128735540866852,-0.0658953264355659,-0.1481107175350189,0.0546994879841804
1783196509021848000,7.24184814453125,0.2278630357453599,1.0263216540902853,0.6479992133408784,-0.0830266401171684,-0.1980673670768737,-0.0158915948122739
1783196509031785000,7.251784912109375,0.1875685808883979,0.9838660756766796,0.4247673810601234,-0.073256216943264,-0.2355834245681762,-0.0918682739138603
1783196509041721000,7.26172119140625,0.1708267231903038,0.8613271989837288,0.3805687583714723,-0.0452847704291343,-0.2629319429397583,-0.1621437668800354
1783196509051658200,7.271658203125,0.2081388925671577,0.6529091972142458,0.3802022631466388,-0.0009474391117691,-0.270843893289566,-0.2114904820919037
1783196509061595000,7.281594970703125,0.2623130388904363,0.3678578914888203,0.4099959283858537,0.0560830906033515,-0.2690257430076599,-0.2359012812376022
1783196509071531000,7.291531005859375,0.2787781437400728,0.0802989868566393,0.5273252537369728,0.1249110698699951,-0.2486303448677063,-0.2361067235469818
1783196509081468200,7.30146826171875,0.3336490766884759,-0.151871061900258,0.6687853962600231,0.19761723279953,-0.2036623358726501,-0.2080071717500686
1783196509091404000,7.311404052734375,0.361873885175772,-0.3842001006111502,0.8458148648142814,0.2573643624782562,-0.1448396742343902,-0.1699291169643402
1783196509101341000,7.3213408203125,0.3943090048344805,-0.5879146008647977,0.994201007208228,0.3022386431694031,-0.0769549012184143,-0.1299643814563751
1783196509111278000,7.331278076171875,0.4399062422746792,-0.7239553486876189,1.1223019019424916,0.3289759755134582,-0.0021134382113814,-0.0977297946810722
1783196509121214200,7.341214111328125,0.5538816540880128,-0.8792056777626276,1.2749883718788624,0.3167078495025635,0.0627822056412696,-0.052275501191616
1783196509131150800,7.35115087890625,0.7146626196853816,-0.9837148306377232,1.3684960921376943,0.2417830973863601,0.1523860543966293,0.0021295461338013
1783196509141088000,7.361087890625,1.0263859514981508,-0.7498410467028618,1.3783324264973402,0.120994359254837,0.2053773701190948,0.0680483728647232
1783196509151024000,7.371024169921875,1.0733259818494318,-0.5522806851647794,1.160054417231679,-0.0035304212942719,0.2025921493768692,0.1232946142554283
1783196509160961000,7.3809609375,0.9092410428032278,-0.4877135204471647,0.7901841630071401,-0.0929867997765541,0.1597267091274261,0.1493150442838668
1783196509170898000,7.39089794921875,0.7750214459929615,-0.307944982317835,0.387300112453103,-0.1520078778266906,0.0959744453430175,0.1461471766233444
1783196509180834000,7.400833984375,0.5389871595559641,-0.2462871291756629,0.1671960568040609,-0.1748713850975036,0.0602798387408256,0.1276403367519378
1783196509190771200,7.410771240234375,0.2745849663665518,-0.2999272416874766,0.0511900890111923,-0.1395183801651001,0.0497618615627288,0.0999236404895782
1783196509200707000,7.42070703125,0.1202323533162474,-0.3518897763758897,-0.0771650727450847,-0.076925054192543,0.0626342520117759,0.0728920251131057
1783196509210644000,7.43064404296875,0.1296605270001105,-0.4264582567565143,-0.1694371137291193,-0.0040909061208367,0.0646245032548904,0.0627187490463256
1783196509220581000,7.4405810546875,0.2900744311170652,-0.5277672984160483,-0.2188712989836931,0.0480828173458576,0.0509867183864116,0.0753141716122627
1783196509230517200,7.450517333984375,0.4832495267756283,-0.6924341290034354,-0.2525660633146763,0.0836149603128433,0.0360962375998497,0.1184928193688392
1783196509240454000,7.460453857421875,0.7163298953104764,-0.7545083078615367,-0.1844645869910716,0.1025729328393936,0.0195233840495347,0.1846023201942443
1783196509250391000,7.47039111328125,0.796233526173979,-0.7399917067311703,-0.1292868896484375,0.1318695545196533,0.0132878795266151,0.2534818351268768
1783196509260327200,7.4803271484375,0.7444846342362463,-0.6470873591929673,-0.0359802449196577,0.1650067269802093,0.0675740242004394,0.3028629720211029
1783196509270264000,7.49026416015625,0.6483509493879973,-0.4223169191680848,0.153202602764964,0.1990403980016708,0.1417752206325531,0.3196250200271606
1783196509280201000,7.500200927734375,0.4451140765834599,-0.2911567829936742,0.2057259862065315,0.2374216169118881,0.1997269392013549,0.312019020318985
1783196509290137000,7.51013720703125,0.2802271004393696,-0.2729357743874192,0.1395236215025186,0.2819486558437347,0.2374723553657531,0.2840898334980011
1783196509300074000,7.520073974609375,0.1595161880922503,-0.2828006041891873,0.0672644409775733,0.3344004154205322,0.2388747781515121,0.2550280690193176
1783196509310009900,7.530009765625,0.1599566070698201,-0.3341948374703526,-0.0078197338402271,0.3678490221500397,0.2048528790473938,0.2469885349273681
1783196509319947000,7.539947021484375,0.3121994248919189,-0.4124170180529355,0.0101607440084218,0.3763290643692016,0.1525097787380218,0.2701646983623504
1783196509329884200,7.54988427734375,0.4112455631207674,-0.4341245536006987,0.1473228970766067,0.3649477958679199,0.1174497231841087,0.3044896721839905
1783196509339820000,7.559820068359375,0.4620122756207361,-0.4155136688940227,0.3889724295794963,0.3207401037216186,0.120217815041542,0.3504031002521515
1783196509349757000,7.5697568359375,0.6002451631929725,-0.3268848067179322,0.656155631789565,0.2348505407571792,0.162494882941246,0.4068274199962616
1783196509359694000,7.579694091796875,0.689719317086786,-0.1529533041790127,0.8365320726841687,0.128337413072586,0.2061555534601211,0.4540444612503052
1783196509369630200,7.589630126953125,0.7216490445066243,-0.042085576057434,0.8488684071660041,0.0151281999424099,0.2553376257419586,0.4839943051338196
1783196509379567000,7.599567138671875,0.6268365983247757,0.0409409360669553,0.7432312731742858,-0.0692684426903724,0.2778890132904053,0.4845945835113525
1783196509389504000,7.60950390625,0.466975122192502,0.1138942363359034,0.5300228222578763,-0.1222841516137123,0.289674699306488,0.4521474838256836
1783196509399440100,7.619440185546875,0.2871596396489069,0.1575336177065968,0.3248439485400915,-0.17021544277668,0.2705670595169067,0.3971204459667206
1783196509409377000,7.629376953125,0.2045238073425367,0.0984846318885684,0.1160106439679861,-0.2300204932689666,0.2104143053293228,0.337863028049469
1783196509419313000,7.63931298828125,0.2742787864942103,-0.0520896681994199,-0.1091881044715642,-0.3137862384319305,0.1174281761050224,0.3065336048603058
1783196509429250600,7.64925048828125,0.4879097371390089,-0.2472377078987657,-0.2230254960536956,-0.4132231175899505,0.003445940092206,0.3330042064189911
1783196509439187500,7.6591875,0.7998297971002757,-0.4349243256762624,-0.278275674110651,-0.4988003075122833,-0.0865159109234809,0.4091492891311645
1783196509449123300,7.669123291015625,0.9792677881009876,-0.4932065649054944,-0.294984232327342,-0.5398597717285156,-0.1192534118890762,0.5053347945213318
1783196509459060500,7.679060546875,0.9044414605017752,-0.3804739196948707,-0.2589835291415452,-0.5193473100662231,-0.0780897289514541,0.5813243389129639
1783196509468997400,7.688997314453125,0.5820487775713205,-0.2143738414339721,-0.2138122620284557,-0.4348852932453155,0.034049142152071,0.6110385656356812
1783196509478933200,7.698933349609375,0.2987383606964722,-0.0726781365893781,-0.28327567435503,-0.3038186132907867,0.1589402109384536,0.6242344975471497
1783196509488870400,7.708870361328125,0.1041737103756517,-0.0903033712595701,-0.4053688531070947,-0.18228380382061,0.2457967102527618,0.6225953102111816
1783196509498807600,7.7188076171875,0.1493249941466376,0.015281740283966,-0.5146738619565964,-0.0769973322749137,0.2722109854221344,0.6188048720359802
1783196509508743400,7.728743408203125,0.2078031212741509,0.0846511907167732,-0.549842790493369,0.0029145432636141,0.2813475430011749,0.6277863383293152
1783196509518680300,7.738680419921875,0.3048593643274158,0.1436656897433102,-0.4800204817265271,0.0443048626184463,0.2714027464389801,0.6369854211807251
1783196509528616400,7.748616455078125,0.4234030704369768,0.4088857751868665,-0.3622042496412992,0.0429446287453174,0.2484959959983825,0.6380797624588013
1783196509538553600,7.7585537109375,0.4017361226279288,0.5377985708259045,-0.2530214058667421,0.0140242977067828,0.2204217463731765,0.6227902770042419
1783196509548490500,7.768490478515625,0.3383831925382837,0.6074667119443417,-0.2394242576688527,-0.0261787623167037,0.1678498387336731,0.5752025246620178
1783196509558426400,7.77842626953125,0.2941006909584626,0.6515861319169401,-0.2512391986250877,-0.0716064348816871,0.1084445714950561,0.5283085107803345
1783196509568363500,7.788363525390625,0.2395077347012236,0.5558826551795005,-0.2200660617262125,-0.1116176098585128,0.0572131723165512,0.4929606318473816
1783196509578300400,7.798300537109375,0.1878483842104673,0.425719274957478,-0.1852595367610454,-0.1399680376052856,0.0175051726400852,0.4746484756469726
1783196509588236300,7.808236328125,0.1585944884037599,0.3612567396581173,-0.1074912374258041,-0.1617386788129806,0.0227556936442852,0.4595189988613128
1783196509598173400,7.81817333984375,0.1848294382480904,0.4084174270227551,-0.0008697685718536,-0.1806947886943817,0.0473031140863895,0.4360954463481903
1783196509608110300,7.8281103515625,0.2433037659833207,0.5519365479022265,0.0237391875058412,-0.2034300863742828,0.0761583670973777,0.4051543474197387
1783196509618046500,7.83804638671875,0.2327813125230372,0.6271706525847316,-0.0494265864700078,-0.2178356647491455,0.0849827527999877,0.370510071516037
1783196509627983400,7.8479833984375,0.1888725396264344,0.5862536819152534,-0.20050679025352,-0.2135105580091476,0.0836102738976478,0.3432204127311706
1783196509637920300,7.857920166015625,0.1675903533512726,0.4682509873472154,-0.3522258764624595,-0.1782796084880828,0.0736812129616737,0.3233287334442138
1783196509647856400,7.8678564453125,0.1349993490111082,0.3899973887130618,-0.4118862721771001,-0.1113171279430389,0.0839405432343483,0.3107949197292328
1783196509657793500,7.87779345703125,0.1066068192740902,0.3553634438358247,-0.3417605965495109,-0.0331799760460853,0.1350093185901641,0.2825454473495483
1783196509667730400,7.88773046875,0.0941489773044362,0.343732627274841,-0.2552443426132202,0.0576274469494819,0.1855140328407287,0.2605157494544983
1783196509677666300,7.897666259765625,0.0886225055005401,0.2620584065422415,-0.2607639828175306,0.1357800364494323,0.233779028058052,0.2386937886476516
