time,seconds_elapsed,ax,ay,az,gx,gy,gz
1783201329999073800,0.08907373046875,0.3245879279524087,-0.5682023307874798,-0.3788859198510647,-0.1503301262855529,0.0377142876386642,0.1085947006940841
1783201330009010400,0.099010498046875,0.4315732616826891,-0.5716159386232494,-0.5634510446071624,-0.1271160989999771,0.001478714402765,0.1359621584415435
1783201330018946600,0.108946533203125,0.5361586946643888,-0.4730857140272855,-0.6415835010796785,-0.0849950015544891,-0.0347786247730255,0.1466441005468368
1783201330028883700,0.1188837890625,0.5550590638369322,-0.4119350797548889,-0.6060539225369691,-0.0333999842405319,-0.064432144165039,0.1609416157007217
1783201330038820900,0.12882080078125,0.5508331897702068,-0.4137894754499197,-0.4964338563889264,0.0175034068524837,-0.0596155561506748,0.181548610329628
1783201330048757500,0.138757568359375,0.5193177422396839,-0.4329661773458123,-0.3097971860557794,0.066911444067955,-0.0292222015559673,0.2212164998054504
1783201330058694700,0.148694580078125,0.4678237018458545,-0.4524167277470231,-0.1840010611325502,0.1151032075285911,-0.0099624879658222,0.2612731158733368
1783201330068631600,0.158631591796875,0.3912819486308843,-0.383827467906475,-0.1648199753224849,0.1484364867210388,-0.0211100503802299,0.2953748404979706
1783201330078568700,0.168568603515625,0.3227083978161215,-0.2354842878714203,-0.0985620810389518,0.164892166852951,-0.0377007462084293,0.3145000636577606
1783201330088505900,0.178505859375,0.2631507318235934,-0.1031172601252794,0.0432142878264188,0.1539146900177002,-0.0401506498456001,0.3238793611526489
1783201330098442000,0.18844189453125,0.1761475711531937,-0.0399795436888933,0.2412088029980659,0.1110122203826904,-0.0088164312765002,0.3246921598911285
1783201330108379100,0.198379150390625,0.1117886058261617,-0.0135138538286089,0.3988917660474777,0.059846494346857,0.0218400247395038,0.321801096200943
1783201330118316000,0.20831591796875,0.091909016357921,0.0230082428827881,0.4582645769923925,0.0085478881374001,0.0406344830989837,0.3283476829528808
1783201330128253000,0.2182529296875,0.0662036798782646,0.0495072504907846,0.463366284045577,-0.0393858700990676,0.0479180254042148,0.3426336050033569
1783201330138190000,0.228190185546875,0.0275241128720343,0.0973451064646244,0.4312222562879323,-0.0834734365344047,0.0380400940775871,0.3498310446739197
1783201330148127000,0.238126953125,-0.0403548432746902,0.1854790247306227,0.3987514807939529,-0.1174743250012397,0.0285925641655921,0.3451426029205322
1783201330158064000,0.248064208984375,-0.1187722541684284,0.2734220965996384,0.4129226294875144,-0.1387561559677124,0.02773342654109,0.3291681706905365
1783201330168001000,0.2580009765625,-0.2496351244293153,0.3597650397956371,0.4468307443082332,-0.1481618285179138,0.0523276217281818,0.2929386496543884
1783201330177937200,0.267937255859375,-0.3637454877339303,0.4669420967057347,0.4836328270047902,-0.1436975747346878,0.0976439714431762,0.2519161105155945
1783201330187874000,0.2778740234375,-0.4310714496403932,0.5706348186314105,0.535262476477027,-0.1327841877937317,0.1587754935026168,0.208682045340538
1783201330197811200,0.287811279296875,-0.4895391284391284,0.6435644457638263,0.5671656812161207,-0.123816542327404,0.2158526182174682,0.1638642400503158
1783201330207747800,0.297747802734375,-0.5058420284643769,0.6963961645022034,0.5796048915505408,-0.1312457472085952,0.2744116187095642,0.1235209628939628
1783201330217685000,0.30768505859375,-0.517191251605004,0.7148615032583475,0.5997738193541765,-0.1555580198764801,0.3342986702919006,0.0878527089953422
1783201330227622100,0.3176220703125,-0.5547508746705949,0.7144447391510009,0.5440636225700378,-0.1853514313697815,0.3782363831996918,0.0481259450316429
1783201330237559000,0.32755908203125,-0.5700760157048702,0.7110007361769676,0.4415712163448334,-0.2190577387809753,0.4074496626853943,0.0117394402623176
1783201330247496200,0.33749609375,-0.6057660455062985,0.7266390348136424,0.3259083629012108,-0.2506231367588043,0.4289264678955078,-0.0290078278630971
1783201330257432800,0.347432861328125,-0.6823335907496512,0.7629653166919946,0.273491946965456,-0.2946377396583557,0.4462769627571106,-0.0809655636548996
1783201330267369000,0.357368896484375,-0.7576249785773456,0.760458010046184,0.2448170566231012,-0.3370318710803985,0.4578894972801208,-0.1307642757892608
1783201330277306000,0.36730615234375,-0.7626059818603098,0.6644757163673639,0.0947369697928428,-0.3589473068714142,0.4444495737552643,-0.1588787287473678
1783201330287243000,0.377242919921875,-0.7104002130005508,0.566191575486958,-0.2060539029866457,-0.3569564521312713,0.3986782431602478,-0.1867573410272598
1783201330297180000,0.387179931640625,-0.6475628677502274,0.5964753623306751,-0.458757913467288,-0.3468683958053589,0.3313271701335907,-0.2372825741767883
1783201330307117000,0.397116943359375,-0.6333803939450532,0.6951341817423701,-0.5979641395837069,-0.3404603898525238,0.2591944634914398,-0.3071244955062866
1783201330317054000,0.407053955078125,-0.6289386121053249,0.7331719437137245,-0.5362848052620888,-0.3394284248352051,0.2240186482667923,-0.3846288621425628
1783201330326991000,0.4169912109375,-0.6433120784379541,0.7268225746870041,-0.3217535813093185,-0.3308570981025696,0.2503882646560669,-0.4637802541255951
1783201330336928300,0.42692822265625,-0.6521648085877298,0.6888540785595775,-0.0566372485011816,-0.317370057106018,0.3371370136737823,-0.5311022996902466
1783201330346863900,0.43686376953125,-0.627692046110332,0.609599632319808,0.1427127729326486,-0.2869870662689209,0.4326573312282562,-0.5847470760345459
1783201330356801000,0.446801025390625,-0.5514493489071727,0.5342331334292888,0.182539171886444,-0.2375180274248123,0.5094048380851746,-0.6222797632217407
1783201330366738200,0.45673828125,-0.384232249315083,0.3721902216047048,0.0263601836591958,-0.1672577112913131,0.5497056245803833,-0.6208343505859375
1783201330376675000,0.466675048828125,-0.1964405637279152,0.0044014498293399,-0.3485270219445228,-0.0850267559289932,0.5693959593772888,-0.5846920609474182
1783201330386612000,0.476612060546875,0.0210987559996545,-0.385140596331656,-0.7629682393014431,-0.0186162833124399,0.5477215647697449,-0.5189199447631836
1783201330396548900,0.486548828125,0.3621028350934386,-0.703597766444087,-1.0955465814858674,0.0270057953894138,0.456590861082077,-0.4353382289409637
1783201330406486000,0.496486083984375,0.7018123443320393,-0.9359446330726148,-1.371176709523797,0.0565666407346725,0.3414658308029175,-0.3352802395820617
1783201330416423200,0.506423095703125,0.9504207560621202,-1.0558858944877982,-1.5046072748482229,0.067692793905735,0.2502512335777282,-0.224411278963089
1783201330426360000,0.516360107421875,1.075285883745551,-1.143601295080781,-1.540558293673396,0.0876717716455459,0.1579464077949524,-0.1231682822108268
1783201330436296000,0.5262958984375,1.14464700474143,-1.191692249032855,-1.662240553537011,0.133172407746315,0.0313075073063373,-0.0262262877076864
1783201330446233000,0.536233154296875,1.1492597592338918,-1.0720943942278622,-1.7202432451725005,0.2061580568552017,-0.103101834654808,0.0521294213831424
1783201330456170000,0.546169921875,1.050937478300184,-0.8444812781229615,-1.638268141797185,0.2849034965038299,-0.222744882106781,0.1123837083578109
1783201330466107100,0.556107177734375,1.0324502199731769,-0.7987234432935715,-1.5440800380587576,0.3675210475921631,-0.338438332080841,0.1760188043117523
1783201330476044000,0.5660439453125,1.1128889075614512,-0.882686797876656,-1.4053507818043232,0.440750777721405,-0.4589279890060425,0.253371387720108
1783201330485981000,0.57598095703125,1.1703759047597646,-0.8834142353683709,-1.1680576909452676,0.4935122430324554,-0.546518862247467,0.3155013620853424
1783201330495918000,0.58591796875,1.0656937334053218,-0.8225883030056953,-0.8875766157448292,0.5495957136154175,-0.5778642892837524,0.3617649972438812
1783201330505855000,0.59585498046875,0.8709028365805744,-0.6770283239483833,-0.6458078407764435,0.6196951866149902,-0.5783510208129883,0.3848369419574737
1783201330515792100,0.605792236328125,0.7122462061934173,-0.4613283484771847,-0.4455553175449371,0.7057586908340454,-0.5686579346656799,0.3837117552757263
1783201330525728000,0.61572802734375,0.5571301710225641,-0.1730067889094352,-0.2161550257623195,0.7825602293014526,-0.5405418276786804,0.3754428029060364
1783201330535665200,0.6256650390625,0.4349253485895693,-0.0136105922013521,0.0704395638823509,0.8227686285972595,-0.495354950428009,0.3868208825588226
1783201330545602000,0.63560205078125,0.330851956783235,-0.0009793664261698,0.3160936558514833,0.8120001554489136,-0.4650116264820099,0.4081973135471344
1783201330555539200,0.645539306640625,0.2631106920741498,0.0620627806812524,0.5341816955029964,0.7562961578369141,-0.4916616380214691,0.413529485464096
1783201330565475800,0.655475830078125,0.2430976124193519,0.267005507555604,0.7056833405464887,0.6654013395309448,-0.5415474772453308,0.4046270251274109
1783201330575413000,0.6654130859375,0.1952485774643719,0.4208391017004847,0.8886848692476749,0.5488134622573853,-0.5788873434066772,0.3846357464790344
1783201330585350100,0.67535009765625,0.0690972093626856,0.4942769706159829,1.0877777010500431,0.4380209445953369,-0.5765962600708008,0.3622093796730041
1783201330595287000,0.685287109375,-0.0382544734619557,0.5564259682759642,1.2401491136878728,0.3216562569141388,-0.5730851888656616,0.3416535258293152
1783201330605224000,0.695223876953125,-0.1414629190020263,0.6385729210868477,1.424483936819434,0.2164398729801178,-0.5355687141418457,0.3037016987800598
1783201330615160800,0.705160888671875,-0.2533643740855157,0.7533756505697965,1.557212491354346,0.1222425326704979,-0.4545636475086212,0.2581435441970825
1783201330625097000,0.715096923828125,-0.4022891899334266,0.7941498517677188,1.6396172183185815,0.0355436839163303,-0.32396200299263,0.2232439517974853
1783201330635034000,0.7250341796875,-0.5599877524107695,0.729511959901452,1.613773167487979,-0.0248711891472339,-0.1720976531505584,0.1880833059549331
1783201330644971000,0.734970947265625,-0.6581390606917441,0.6677335491195321,1.3765823679596183,-0.0473918914794921,-0.0530104786157608,0.1518347561359405
1783201330654908000,0.744907958984375,-0.702367786257714,0.706686087848246,1.045137998241186,-0.044906098395586,0.0471302345395088,0.1076667681336402
1783201330664845000,0.754844970703125,-0.7415836520977318,0.7798711510464549,0.7718027031421661,-0.0397025570273399,0.1354715079069137,0.0458403006196022
1783201330674782000,0.764781982421875,-0.8035539321899413,0.8095937968760728,0.6252075358182192,-0.0575164444744586,0.2214311510324478,-0.0145103884860873
1783201330684719000,0.774718994140625,-0.7515091260455549,0.8153723802775145,0.6656921064198017,-0.107373259961605,0.3154821395874023,-0.0783734172582626
1783201330694656000,0.784656005859375,-0.7652255167089402,0.8393237492293119,0.7903717945337295,-0.174872413277626,0.4310590624809265,-0.1486808657646179
1783201330704593000,0.794593017578125,-0.7985261671558022,0.7804410598888993,0.7835135992020368,-0.2396227270364761,0.5299346446990967,-0.204385906457901
1783201330714530000,0.804530029296875,-0.7793295915156603,0.6982090591430664,0.7077069553285836,-0.2971081435680389,0.6063745617866516,-0.244953840970993
1783201330724466200,0.814466064453125,-0.7348730485431849,0.7067322650775313,0.596208820348978,-0.3493100702762604,0.6443602442741394,-0.2877691686153412
1783201330734402800,0.82440283203125,-0.6734091105379164,0.7713201803222298,0.4005459629952907,-0.3868153691291809,0.6453863382339478,-0.3389338254928589
1783201330744340000,0.834340087890625,-0.6215941676266491,0.8361407352790236,0.1801192512631416,-0.3971863985061645,0.610588014125824,-0.3999814391136169
1783201330754276900,0.84427685546875,-0.5519286568567157,0.845103209413588,-0.117280810034275,-0.373164415359497,0.5507728457450867,-0.4434487521648407
1783201330764214000,0.854214111328125,-0.4301579880572855,0.7853942983821034,-0.3065273706048727,-0.3434238731861114,0.4765263497829437,-0.4490469396114349
1783201330774151200,0.864151123046875,-0.2479638302162289,0.5710825623989105,-0.2777794150263071,-0.3362074792385101,0.4008784592151642,-0.421393483877182
1783201330784087800,0.874087890625,-0.1619181164011359,0.1281219375222921,-0.2193178737074136,-0.3722657561302185,0.3812899589538574,-0.3725126087665558
1783201330794025000,0.88402490234375,-0.1662997655514627,-0.224986859254539,-0.2441045244395732,-0.4337741136550903,0.3745750784873962,-0.3229778110980987
1783201330803962000,0.893962158203125,-0.0976763842456042,-0.3820440916210412,-0.480132709929347,-0.4928136765956878,0.337023377418518,-0.2969582676887512
1783201330813899000,0.90389892578125,0.0372615169018507,-0.4111614650338888,-0.8411620705723762,-0.5180463194847107,0.2563887238502502,-0.2976847887039184
1783201330823835000,0.9138349609375,0.1847000031821429,-0.40741058806777,-1.22775198892951,-0.4846268892288208,0.1628748029470443,-0.305223137140274
1783201330833772000,0.92377197265625,0.3590621522232889,-0.4592477428108453,-1.6025310579836367,-0.3972605466842651,0.0366255268454551,-0.3026500046253204
1783201330843709000,0.933708984375,0.5482211806409061,-0.4758104628160595,-1.64519647975564,-0.2773527801036834,-0.06616822630167,-0.2802499830722809
1783201330853646000,0.94364599609375,0.5648911604128778,-0.6690604138091206,-1.5476029514878988,-0.1419318467378616,-0.0991967469453811,-0.2280632108449936
1783201330863583000,0.9535830078125,0.5287091093108057,-1.051850063100457,-1.593667952570319,-0.0129767665639519,-0.0634712725877761,-0.1528248637914657
1783201330873519900,0.963519775390625,0.6237215350441634,-1.145387886236608,-1.6673779164254665,0.0957880616188049,-0.0880850106477737,-0.0763157084584236
1783201330883457000,0.97345703125,0.8353526536412537,-0.9875754515886306,-1.5232424172133203,0.1719204783439636,-0.1319933980703354,-0.0185621865093708
1783201330893394000,0.983393798828125,0.9203263543106616,-0.8707333252325653,-1.342382576715946,0.2382784634828567,-0.1682182401418686,0.0156764779239892
1783201330903331000,0.9933310546875,0.8173036406010389,-0.8691206293389201,-1.3680091854035854,0.3351302742958069,-0.2018564790487289,0.0527941100299358
1783201330913268000,1.00326806640625,0.7604232309937476,-0.9221382260382176,-1.555774567505717,0.4691343903541565,-0.263738751411438,0.1170556545257568
1783201330923203800,1.013203857421875,0.8557292328462004,-0.9130871968373656,-1.639914739960432,0.6227207183837891,-0.4326503574848175,0.1942804902791977
1783201330933141000,1.02314111328125,0.8876378444127738,-0.7248696870535611,-1.0995528945177793,0.7172224521636963,-0.4011605978012085,0.2535677850246429
1783201330943078100,1.033078125,0.6644527008179575,-0.6759928434208035,-0.6112929922342301,0.7742211818695068,-0.2974564433097839,0.3109317719936371
1783201330953015000,1.04301513671875,0.6017835517413914,-0.8645473300740122,-0.5688993731409311,0.8054869771003723,-0.3030906319618225,0.3757483065128326
1783201330962952000,1.052951904296875,0.8250118768908083,-0.9769894679054616,-0.7680792987048626,0.8098719120025635,-0.3801060616970062,0.4804567694664001
1783201330972888800,1.062888916015625,1.027471554777771,-0.974995371478796,-1.0447586435347795,0.7885112166404724,-0.5290886163711548,0.58408123254776
1783201330982826000,1.072825927734375,0.9374711119875312,-0.765540135616064,-0.9358464333951472,0.7290763258934021,-0.6468492746353149,0.6504111886024475
1783201330992763100,1.08276318359375,0.7213286534458399,-0.3561816283509135,-0.5755471405923366,0.6503855586051941,-0.727165937423706,0.6565332412719727
1783201331002700000,1.092699951171875,0.4774766424626112,0.0110816582456231,-0.0584592032313346,0.5428160429000854,-0.7498411536216736,0.6264752149581909
1783201331012637000,1.102636962890625,0.2664650805359706,0.2629813666060567,0.5811661495178938,0.4179132878780365,-0.6859926581382751,0.589032769203186
1783201331022573800,1.11257373046875,0.1496175473524257,0.3408110407397151,1.0636340243965388,0.2956406772136688,-0.5768412947654724,0.561301052570343
1783201331032510000,1.122510009765625,0.1091881044715642,0.2333499061912298,1.2584592618823052,0.2205978780984878,-0.4245804250240326,0.5587260127067566
1783201331042447000,1.132447021484375,0.1737757274553179,0.2346899226233363,1.2762053464531895,0.1830548048019409,-0.2917977273464203,0.5668255686759949
1783201331052384000,1.142384033203125,0.1916848571008071,0.3530129351869225,1.2393085712105034,0.1773902624845504,-0.1928410679101944,0.5804771780967712
1783201331062321000,1.15232080078125,0.2054608689969405,0.4232344724044203,1.0703910974413156,0.1971277892589569,-0.133703738451004,0.5941013693809509
1783201331072258000,1.162258056640625,0.2671737037293613,0.458093896600604,0.8883908547371625,0.2543458044528961,-0.1205152422189712,0.62794429063797
1783201331082195000,1.17219482421875,0.3869540754944086,0.4332917560383677,0.6669821462303399,0.3105180561542511,-0.1798883974552154,0.6837084889411926
1783201331092131300,1.18213134765625,0.4687592291302979,0.3716130062386393,0.647949528980255,0.3062729835510254,-0.2071277350187301,0.7443116307258606
1783201331102068500,1.192068359375,0.419002387792617,0.3634606794431805,0.9439853161871432,0.2313136458396911,-0.1952355653047561,0.767176628112793
1783201331112005400,1.20200537109375,0.1825160832718014,0.4361813400000333,1.3133961362063884,0.102796696126461,-0.1547312885522842,0.7491108179092407
1783201331121942500,1.211942626953125,-0.066110160942492,0.5338312746301294,1.5905080272346734,-0.054693192243576,-0.076507844030857,0.7076597213745117
1783201331131879400,1.22187939453125,-0.2768415496543049,0.5916536412626504,1.7512047851473092,-0.201454147696495,0.0186439715325832,0.6423978805541992
1783201331141816300,1.23181640625,-0.4604733390830457,0.6498875113055109,1.780461274769902,-0.3425106108188629,0.1329251676797866,0.5685241222381592
1783201331151752400,1.24175244140625,-0.5897735266044736,0.6769090814828872,1.750361904582381,-0.4630580544471741,0.2647702991962433,0.4856223165988922
1783201331161689600,1.251689697265625,-0.636798897151649,0.707784696739912,1.7030074482113122,-0.5591162443161011,0.3970898687839508,0.4081253111362457
1783201331171626200,1.261626220703125,-0.6233265443772077,0.7553340911611914,1.662903985881805,-0.6301938891410828,0.5275144577026367,0.3427510857582092
1783201331181563400,1.2715634765625,-0.5894165298603474,0.7583069694921374,1.559699047473073,-0.6595152020454407,0.6521362662315369,0.2939648628234863
1783201331191500500,1.28150048828125,-0.5863144721917808,0.7342226218104362,1.2599006928622722,-0.6490157246589661,0.7381907105445862,0.2671090364456177
1783201331201437400,1.2914375,-0.568059269054979,0.7019257415786385,0.8326432485520839,-0.5929503440856934,0.7823324799537659,0.2499582469463348
1783201331211374600,1.30137451171875,-0.5051790345109999,0.6992512616723775,0.3247375655561685,-0.532743513584137,0.7777017951011658,0.2263948768377304
1783201331221311200,1.311311279296875,-0.5169203257091343,0.7576908834204077,0.0520142648756504,-0.4953164458274841,0.7485188841819763,0.1753297448158264
1783201331231248400,1.321248291015625,-0.530306169243902,0.8276245436072349,-0.0265443080544471,-0.4891741275787353,0.7026917338371277,0.1195444986224174
1783201331241185500,1.331185546875,-0.5542553462386131,0.8437357204526662,0.0098602997571229,-0.5193079113960266,0.6643953919410706,0.0486311502754688
1783201331251122400,1.341122314453125,-0.6142850136570632,0.8531234342619777,0.0587824438363313,-0.5842911601066589,0.6306536793708801,-0.0237397216260433
1783201331261059600,1.3510595703125,-0.6509742836289107,0.882929082199931,0.0438473250329494,-0.6645230054855347,0.5965957045555115,-0.1001703366637229
1783201331270995500,1.360995361328125,-0.6667400080375373,0.9457304062888026,-0.0232037654548883,-0.7407426834106445,0.5450102686882019,-0.1871662139892578
1783201331280932400,1.370932373046875,-0.5996639292389154,1.0454641614556313,-0.1355044489890337,-0.7968577146530151,0.4689953625202179,-0.2698204815387726
1783201331290869500,1.380869384765625,-0.4574131477948278,1.033384724344313,-0.2448684945493936,-0.8159999847412109,0.4200866818428039,-0.3148931562900543
1783201331300806400,1.390806396484375,-0.3647632864743471,0.7542246686145663,-0.4042915792644023,-0.7801360487937927,0.4269176721572876,-0.3142370581626892
1783201331310743300,1.400743408203125,-0.4053032405249774,0.4110942450165748,-0.6461649836510419,-0.7104581594467163,0.4500131607055664,-0.2983563840389251
1783201331320680400,1.410680419921875,-0.4295820878654718,0.2360889757663011,-0.9241507349044084,-0.6219615936279297,0.448794960975647,-0.2819124162197113
1783201331330617300,1.420617431640625,-0.3849395208016037,0.2252928564637899,-1.1542062757253646,-0.5367121696472168,0.4066392481327057,-0.284812331199646
1783201331340554500,1.430554443359375,-0.3619438451394438,0.2821644982427359,-1.2411848864763977,-0.4724924266338348,0.3521382808685303,-0.3145186305046081
1783201331350491600,1.44049169921875,-0.3977247680947184,0.3400301194950938,-1.1898843228280545,-0.4178315699100494,0.3206357359886169,-0.3625972270965576
1783201331360428300,1.45042822265625,-0.492214192867279,0.3933168885245919,-1.047721000471711,-0.3733900189399719,0.3095368444919586,-0.4175976514816284
1783201331370365400,1.460365478515625,-0.5110378435418009,0.4101125405028462,-0.8568243346065282,-0.3336042761802673,0.3188784122467041,-0.473521888256073
1783201331380302300,1.47030224609375,-0.4084399311155081,0.4120101908177137,-0.6538549536317586,-0.290213406085968,0.3373299837112427,-0.5229055881500244
1783201331390239500,1.480239501953125,-0.2886149164911359,0.4022936834454536,-0.4364923056453466,-0.2421617060899734,0.3454014956951141,-0.5476990938186646
1783201331400175400,1.49017529296875,-0.1068461444552987,0.1782283229500055,-0.3694961602151393,-0.1818228960037231,0.3406673371791839,-0.5092620253562927
1783201331410112300,1.5001123046875,0.1474513457618653,-0.2477101477161049,-0.5625403595030307,-0.1094959676265716,0.3248321712017059,-0.4054720401763916
1783201331420049400,1.51004931640625,0.2905579403176903,-0.6893389394670725,-0.9039654404878616,-0.0491730235517025,0.2859042584896087,-0.2632728517055511
1783201331429986600,1.519986572265625,0.3636614627122879,-0.8802128089785576,-1.1812211239010095,-0.0262927412986755,0.1931008100509643,-0.1485119313001632
1783201331439923500,1.52992333984375,0.4035658953383564,-0.8295338843598962,-1.3563041345626117,-0.0388913676142692,0.0581187084317207,-0.097046822309494
1783201331449860400,1.5398603515625,0.4218222675189376,-0.6914438027918338,-1.4444196403890848,-0.0721454620361328,-0.086855262517929,-0.089276522397995
1783201331459797500,1.549797607421875,0.3784529352612793,-0.5684346782386303,-1.4473533557534215,-0.1008938997983932,-0.1925594210624694,-0.1012899056077003
1783201331469734400,1.559734375,0.2599462366938591,-0.5415972324565053,-1.3790315146774053,-0.0684038698673248,-0.2399469017982483,-0.1182824745774269
1783201331479671600,1.569671630859375,0.199139593553543,-0.5840460888683796,-1.4576479552745818,0.0376415289938449,-0.2920483946800232,-0.1219018921256065
1783201331489608400,1.5796083984375,0.2761452379532158,-0.5167942151114344,-1.5609183601349592,0.1864786744117736,-0.3357039988040924,-0.1230664923787117
1783201331499545300,1.58954541015625,0.3325802418805658,-0.4070739034593105,-1.3936001382559535,0.3424206376075744,-0.3414734005928039,-0.1397626847028732
1783201331509482500,1.599482421875,0.3381315193321556,-0.3896607041046023,-1.1318734478861092,0.4935259819030761,-0.3133712112903595,-0.1429936289787292
1783201331519419400,1.60941943359375,0.3538463903363794,-0.450189991608262,-0.8740361661702394,0.6284435987472534,-0.2507917284965515,-0.1337165683507919
1783201331529355500,1.61935546875,0.3539168252240866,-0.5856871340736747,-0.7765987052470446,0.7528377175331116,-0.1742104142904281,-0.0931078791618347
1783201331539292400,1.62929248046875,0.3730674428306519,-0.6709563105583191,-0.8359411210536957,0.8622300028800964,-0.1217068210244178,-0.051782451570034
1783201331549229300,1.639229248046875,0.4165703383401036,-0.5896481466591358,-0.8021253606915474,0.9432292580604552,-0.0826267972588539,-0.0259575098752975
1783201331559166500,1.64916650390625,0.4251151715844869,-0.4542763841390609,-0.716361970949173,1.0032548904418943,-0.0567411296069622,-0.0074821906164288
1783201331569103400,1.659103271484375,0.4682322826467454,-0.3537985326066613,-0.6018868659853935,1.0514380931854248,-0.0405328646302223,0.0247380621731281
1783201331579040500,1.66904052734375,0.5441190060190856,-0.3186111916303634,-0.3896241714864969,1.0818150043487549,-0.0055748592130839,0.0659322440624237
1783201331588977400,1.678977294921875,0.5065577755182982,-0.2870341501057147,-0.1731254468530416,1.0861825942993164,0.0254770666360855,0.1132073476910591
1783201331598914300,1.688914306640625,0.4415431592941284,-0.2306616900205612,-0.0078436992377042,1.067304611206055,0.0354616940021514,0.1468879431486129
1783201331608851500,1.6988515625,0.4495893953666091,-0.161421857316792,0.1343663848698139,1.0225262641906738,0.0274234749376773,0.1998952329158783
1783201331618788600,1.70878857421875,0.5807895712904632,-0.2788233711212873,0.1202355681866407,0.9880494475364684,0.0029019499197602,0.2820221483707428
1783201331628725500,1.7187255859375,0.6609764760747552,-0.3989087171822786,-0.0324555779248476,0.9478769898414612,-0.0596871264278888,0.3573760390281677
1783201331638662400,1.728662353515625,0.6305738851569592,-0.2616986333191394,-0.0333820451200008,0.8858171105384827,-0.1462904661893844,0.4020428359508514
1783201331648599300,1.738599365234375,0.5405284341812133,-0.0287502936661243,0.1688771417587995,0.8047371506690979,-0.2211825549602508,0.4216445088386535
1783201331658536400,1.748536376953125,0.378804598243162,0.1477405379667878,0.4463718946248293,0.7128546237945557,-0.2515829801559448,0.4144799709320068
1783201331668472600,1.75847265625,0.1877845982592552,0.2395969838872551,0.6745189714759587,0.6219795942306519,-0.2679166793823242,0.4047250747680664
1783201331678409200,1.7684091796875,0.0955745896607637,0.2884823030874133,0.8568962307989597,0.5296765565872192,-0.2639374434947967,0.3934519588947296
1783201331688346400,1.778346435546875,0.0481725678209215,0.3523091708317399,1.0159522357672452,0.430687665939331,-0.2532925009727478,0.3804861009120941
1783201331698283500,1.788283447265625,0.0256225170344114,0.4145639669537544,1.1819932773172854,0.3342809379100799,-0.229573905467987,0.3695003390312195
1783201331708220400,1.798220458984375,0.0395775387592613,0.3863081788063049,1.3210066112101078,0.2436189502477646,-0.1855731606483459,0.3694148659706116
1783201331718157600,1.808157470703125,0.0170266111899167,0.347569867350161,1.3835264880090952,0.1571533530950546,-0.1272429972887039,0.3662948608398437
1783201331728094500,1.818094482421875,-0.0153719027854502,0.3977168770492076,1.396406427848339,0.0815720409154892,-0.068462498486042,0.3548887968063354
1783201331738031400,1.82803125,-0.0394231519151479,0.4647130224794149,1.3886580056786535,0.0082012489438056,-0.0174334440380334,0.3333214819431305
1783201331747968500,1.837968505859375,-0.1021032607771456,0.5421165801554918,1.41160399698019,-0.0688938051462173,0.0508603937923908,0.3018032312393188
1783201331757905400,1.847905517578125,-0.2008187788121402,0.6079109485805034,1.4540356099963188,-0.1476427614688873,0.1237154677510261,0.2649016678333282
1783201331767842600,1.857842529296875,-0.2917177778773009,0.6551707124054431,1.4485492875397203,-0.2156074345111847,0.1803177595138549,0.220930203795433
1783201331777779500,1.867779541015625,-0.3385717373803257,0.7094008997648954,1.402560858824849,-0.2849789261817932,0.2405235767364502,0.1801523864269256
1783201331787716400,1.87771630859375,-0.3964608856387436,0.7537205184847116,1.3745622603088616,-0.3558906614780426,0.299753338098526,0.1399863213300705
1783201331797653500,1.887653564453125,-0.4568795523747802,0.7849389558300376,1.3448504281342029,-0.431716650724411,0.3687191307544708,0.0889360979199409
1783201331807589600,1.897589599609375,-0.5478982322968542,0.7807257220491767,1.2688023767203092,-0.5037099123001099,0.428630918264389,0.064039796590805
1783201331817526300,1.9075263671875,-0.6075533673144876,0.6620964200153946,0.9920856224894524,-0.5635523796081543,0.4686478078365326,0.0536896474659442
1783201331827463400,1.91746337890625,-0.6046542848721146,0.5059563024938106,0.5683136822074651,-0.6194412112236023,0.4600162506103515,0.0609736591577529
1783201331837400300,1.927400390625,-0.5086782748036086,0.4286158731818199,0.0494400304734706,-0.6611581444740295,0.3825919926166534,0.0602268278598785
1783201331847337500,1.93733740234375,-0.38455490539819,0.4244061465322971,-0.3719803782463073,-0.7055240273475647,0.2518393099308014,0.0539452247321605
1783201331857274600,1.947274658203125,-0.3237750771995634,0.4245712739661336,-0.6339765332072973,-0.7577141523361206,0.1141363754868507,0.0284388363361358
1783201331867211300,1.957211181640625,-0.3149788995426148,0.422599097110331,-0.7870265757590532,-0.8054412007331848,-0.0258468277752399,-0.0025449115782976
1783201331877148400,1.9671484375,-0.3294888517364859,0.4115367280870676,-0.8549737383037805,-0.8392268419265747,-0.1210089176893234,-0.0320247672498226
1783201331887085300,1.977085205078125,-0.3387751509979367,0.3635048108458519,-0.8659598272204398,-0.8466416001319885,-0.1842043995857238,-0.0607392340898513
1783201331897022500,1.9870224609375,-0.3737253222174942,0.3326651436850428,-0.8643804490745067,-0.821915328502655,-0.2031577229499817,-0.0873389765620231
1783201331906959600,1.996959716796875,-0.4067831038191914,0.3355059200689196,-0.899205094218254,-0.7528933882713318,-0.2063106447458267,-0.1188178062438964
1783201331916896300,2.006896240234375,-0.4241429655514657,0.3902291516423225,-0.9539198502242564,-0.6524659991264343,-0.1923158913850784,-0.1622341275215149
1783201331926833400,2.01683349609375,-0.4914439391471445,0.4688754028558731,-0.8975649257957935,-0.5320969820022583,-0.1397770494222641,-0.2214431166648864
1783201331936770600,2.0267705078125,-0.6030204731252045,0.5678118701651692,-0.7072147878974676,-0.4089130759239197,-0.0490328110754489,-0.2998780310153961
1783201331946707500,2.03670751953125,-0.7141860151495784,0.6821601338788866,-0.4800251579016447,-0.2782267034053802,0.0722270384430885,-0.3918886482715606
1783201331956644600,2.04664453125,-0.7906633248262107,0.8047235604912042,-0.2580488786399364,-0.1365063339471817,0.2133028358221054,-0.4892023205757141
1783201331966580500,2.05658056640625,-0.7848907327741385,0.8780912867799401,-0.0790548320144414,-0.0023219007998704,0.3570927679538727,-0.5752482414245605
1783201331976517400,2.066517333984375,-0.7762284106299281,0.9313973450317978,0.0722732090502977,0.1338823735713958,0.4999158084392547,-0.6544983983039856
1783201331986454500,2.07645458984375,-0.8113339185416698,0.9689145902603864,0.2061363205730915,0.2445005029439926,0.6164177060127258,-0.7112631797790527
1783201331996391400,2.086391357421875,-0.7996532714895903,0.8274377888634801,0.1866641428619623,0.3226430714130401,0.6910793781280518,-0.721464216709137
1783201332006328300,2.096328369140625,-0.6330404214009642,0.4996767838329076,-0.0027466683596372,0.3433153331279754,0.7071142196655273,-0.6867448091506958
1783201332016265500,2.106265380859375,-0.3842198282249272,0.2021177325814962,-0.2609241418153047,0.2926780581474304,0.6331880688667297,-0.6220211386680603
1783201332026202400,2.116202392578125,-0.1056507241256535,0.0026268413722515,-0.4970791685551404,0.1664210706949234,0.4915528893470764,-0.5576983094215393
1783201332036139500,2.126139404296875,0.081936086539179,-0.0896542597010731,-0.6444073263287544,0.0033379513770341,0.3347476422786712,-0.5005266070365906
1783201332046076400,2.136076416015625,0.1741759788192808,-0.2482917469963431,-0.7721049009591341,-0.1463769823312759,0.1608416140079498,-0.4649034142494201
1783201332056013300,2.146013427734375,0.2904460043758153,-0.3703939858376979,-0.9996341381728648,-0.2496169507503509,0.0119005851447582,-0.4347712099552154
1783201332065950500,2.155950439453125,0.3948028892986476,-0.4874544311195611,-1.2592787615716456,-0.2730357348918915,-0.1136413589119911,-0.403907835483551
1783201332075887400,2.165887451171875,0.5326331508867442,-0.6203825998798013,-1.5102940883129834,-0.2158382833003997,-0.2238172143697738,-0.3643870055675506
1783201332085824500,2.175824462890625,0.691241119826585,-0.7102665766835212,-1.6221704089552162,-0.1123071014881134,-0.3010850846767425,-0.3114572167396545
1783201332095761700,2.18576171875,0.8121740226276218,-0.826926916731894,-1.5691905139178035,0.0263447612524032,-0.3244016468524933,-0.2421880811452865
1783201332105698800,2.19569873046875,0.9318358825795352,-0.942021907159686,-1.371350312525034,0.1661482006311416,-0.3125346004962921,-0.1570803821086883
1783201332115636000,2.205635986328125,1.012439405340701,-1.0183666034325958,-1.1175012236624955,0.2940898239612579,-0.283623993396759,-0.0777268707752227
1783201332125571800,2.21557177734375,1.0053066308513283,-0.9882494053274392,-0.8486153091877698,0.3985142409801483,-0.2368711233139038,-0.0052047348581254
1783201332135508700,2.2255087890625,0.9459487252146004,-0.9197124601960182,-0.6389794560611247,0.4853014945983886,-0.178369328379631,0.0503124073147773
1783201332145446000,2.23544580078125,0.8602155844800173,-0.8554986389607191,-0.592130026602745,0.5757022500038147,-0.1465842425823211,0.0844695791602134
1783201332155382800,2.2453828125,0.7299087041340768,-0.7195002689749002,-0.5556763189524412,0.6655289530754089,-0.1298149228096008,0.1056457459926605
1783201332165319700,2.255319580078125,0.5668826264910399,-0.5646089824706315,-0.4680985732644796,0.7501043081283569,-0.1125126332044601,0.1128101795911789
1783201332175256800,2.2652568359375,0.4439233324289321,-0.4323433692723512,-0.397266795194149,0.8245245218276978,-0.1181757077574729,0.1176582053303718
1783201332185193700,2.27519384765625,0.3593130582444369,-0.3193517808645963,-0.2707967165321111,0.8747581839561462,-0.1160632893443107,0.1202678382396698
1783201332195131000,2.285130859375,0.2621796948343515,-0.2256038221091031,-0.1038759695380926,0.8863217830657959,-0.1174826100468635,0.1192599162459373
1783201332205067800,2.29506787109375,0.233787713086605,-0.1971405286908149,0.1167009643197059,0.8417497873306274,-0.1300631165504455,0.1278371661901474
1783201332215004700,2.305004638671875,0.3705399701796472,-0.2086252147793769,0.3580103050827979,0.7570264935493469,-0.1605497896671295,0.1535176187753677
1783201332224941800,2.31494189453125,0.5178406554244458,-0.2623699567094445,0.5426064094990491,0.6405677795410156,-0.1986327171325683,0.193016305565834
1783201332234878700,2.324878662109375,0.5938613804399967,-0.2630576467126608,0.7116916410505771,0.5104020833969116,-0.2400038987398147,0.2421904653310775
1783201332244816000,2.33481591796875,0.5722397696100175,-0.2674626036733388,0.8499497726619243,0.3817551434040069,-0.2689149081707001,0.2964864671230316
1783201332254752800,2.344752685546875,0.4837129065036773,-0.3021612843498587,0.8873989210903644,0.2603279054164886,-0.2839356064796448,0.3482736349105835
1783201332264689700,2.354689697265625,0.4053512443851679,-0.2236965271830558,0.8811515511333942,0.1472476869821548,-0.3063881695270538,0.3797410130500793
1783201332274626800,2.364626708984375,0.3796025436878204,-0.0313163447618484,0.8773176720589398,0.0521182902157306,-0.3278919160366058,0.3947409987449646
1783201332284563700,2.374563720703125,0.3206156633205712,0.0972293711304664,0.9383230526417492,-0.0235708802938461,-0.3189080059528351,0.4062874019145965
1783201332294499800,2.384499755859375,0.2626248082533479,0.138851421329379,0.9900766207545996,-0.070272222161293,-0.2851004302501678,0.4175940155982971
1783201332304436700,2.394436767578125,0.1955772248968482,0.2017632200554013,1.0320295103430748,-0.1137501820921897,-0.2365462183952331,0.4179998636245727
1783201332314373600,2.40437353515625,0.1112253824528306,0.3266232331722974,1.1000754570871591,-0.153237760066986,-0.1791938245296478,0.4079329371452331
1783201332324310800,2.414310791015625,0.0043504502944648,0.458069638942182,1.1391712036788464,-0.1922770291566848,-0.1163461655378341,0.3796054422855377
1783201332334248000,2.424248046875,-0.1118795355126261,0.5730941944822668,1.1913240002423524,-0.2398616224527359,-0.0400903820991516,0.3495436906814575
1783201332344184800,2.434184814453125,-0.2508995183419436,0.6072051383987068,1.2116244454711675,-0.2947815954685211,0.0228193420916795,0.3154059648513794
1783201332354121700,2.444121826171875,-0.3457880984999239,0.5124652459964156,1.0933569624871016,-0.3533283770084381,0.0707484185695648,0.2943823039531708
1783201332364058600,2.45405859375,-0.3847555425368249,0.4256994012132287,0.904356485632062,-0.417033314704895,0.0971272960305213,0.2790566086769104
1783201332373995800,2.463995849609375,-0.4010024015258997,0.4471443403020501,0.6707324386745691,-0.476713478565216,0.0828702077269554,0.2537209093570709
1783201332383933000,2.473932861328125,-0.4311258832413703,0.5215872946068644,0.5045744927465915,-0.5444936156272888,0.0550122112035751,0.214371383190155
1783201332393869800,2.483869873046875,-0.4996105136636644,0.5666971869215369,0.4054302279055118,-0.6108235120773315,0.0404080338776111,0.16569185256958
1783201332403806700,2.493806640625,-0.5468354253709315,0.5440639148309826,0.3502285651654004,-0.6640180349349976,0.034693956375122,0.1252152919769287
1783201332413743600,2.50374365234375,-0.515288925115019,0.5225625693798065,0.3023100451707839,-0.7135067582130432,0.0329838916659355,0.0908014178276062
1783201332423680800,2.5136806640625,-0.4836554772280156,0.5281207880288362,0.2792483185350894,-0.7485268115997314,0.0384545587003231,0.0674018189311027
1783201332433618000,2.523617919921875,-0.4264985887669026,0.5116285029113292,0.2124059023618698,-0.7760574221611023,0.033850185573101,0.0451939478516578
1783201332443554800,2.533554931640625,-0.3544762857377529,0.5001496620416641,0.137051678431034,-0.7921882271766663,0.0260029155761003,0.0325673669576644
1783201332453491700,2.54349169921875,-0.2635305979866534,0.4674067916080355,0.100749361950159,-0.8056155443191528,0.0214798785746097,0.0269749481230974
1783201332463428600,2.5534287109375,-0.2245256714835762,0.4433201058387756,0.1210264263033866,-0.8129666447639465,0.0368737503886222,0.0165872890502214
1783201332473364700,2.56336474609375,-0.2302678683973848,0.3965630308389663,0.1091360820233821,-0.8148956894874573,0.0464672558009624,0.0097462078556418
1783201332483302000,2.573302001953125,-0.2119873846888542,0.3632672026976943,0.1357026019096374,-0.829936683177948,0.0640033781528472,0.0025508790276944
1783201332493238800,2.58323876953125,-0.191391975101456,0.3762482648238539,0.2051601690173149,-0.8503288626670837,0.0698543563485145,-0.0129091721028089
1783201332503175700,2.59317578125,-0.1682945195652544,0.4050488273724913,0.2462415364682674,-0.8673339486122131,0.0631671547889709,-0.0216691084206104
1783201332513112800,2.60311279296875,-0.1111200954474508,0.4018307421088218,0.2533440619498491,-0.8862236142158508,0.0404367633163929,-0.024046154692769
1783201332523049700,2.6130498046875,-0.0815304283477365,0.3908776786789298,0.2953969047814607,-0.9048553109169006,0.0286123268306255,-0.0275652557611465
1783201332532987000,2.62298681640625,-0.1228241233751177,0.4211135347276926,0.3515443239390849,-0.928525984287262,0.010973272845149,-0.0365892015397548
1783201332542923800,2.632923828125,-0.1639763641051948,0.4082622364610433,0.3506961826771497,-0.962901532649994,0.0061236564069986,-0.0558667592704296
1783201332552860700,2.642860595703125,-0.2476205697365105,0.4136503592401743,0.4132295034795999,-1.010999321937561,0.0169000588357448,-0.0976948961615562
1783201332562797800,2.6527978515625,-0.3333157896135002,0.4404363670960068,0.5037000479996204,-1.05845046043396,0.0833752229809761,-0.1516585350036621
1783201332572734700,2.662734619140625,-0.567615982266888,0.2627764916837215,0.3848386907756328,-1.0653823614120483,0.1914203763008117,-0.1906096637248993
1783201332582672000,2.672671875,-0.7366050599675625,-0.0658072279065847,-0.1966115363806486,-1.013247013092041,0.2512349784374237,-0.2194516956806183
1783201332592608800,2.68260888671875,-0.6233003870226442,-0.1658311981916427,-0.9342945277780292,-0.9187200665473938,0.2167416512966156,-0.2468067109584808
1783201332602545700,2.692545654296875,-0.4001074985127896,-0.1519403277441859,-1.6367045457422733,-0.7989364266395569,0.1035698354244232,-0.2742284834384918
1783201332612482800,2.70248291015625,-0.1285410397171974,-0.1661032931312918,-2.1166689133673904,-0.6699868440628052,-0.0557358749210834,-0.2984735369682312
1783201332622419700,2.712419677734375,0.0855026929795742,-0.2175277754202485,-2.277605909776688,-0.5452758073806763,-0.1849692314863205,-0.3119890987873077
1783201332632356900,2.72235693359375,0.1623162488732487,-0.3047571460619568,-2.185970413130521,-0.4328988492488861,-0.2567411065101623,-0.303253710269928
1783201332642293800,2.732293701171875,0.1913758276842534,-0.4047942680895328,-1.9575860203921795,-0.326917827129364,-0.2727669477462768,-0.2840475142002105
1783201332652230700,2.742230712890625,0.2180064988479018,-0.4138482198998331,-1.7005296599209307,-0.2161575108766555,-0.2516689896583557,-0.2624764144420624
1783201332662167800,2.752167724609375,0.3050786331012844,-0.3723112176358699,-1.473050691589713,-0.0947613194584846,-0.2113561779260635,-0.2330945283174514
1783201332672104000,2.76210400390625,0.4038531147819012,-0.3753782039910555,-1.2632371438086032,0.0440385527908802,-0.1491053402423858,-0.1943252235651016
1783201332682040600,2.77204052734375,0.446157302026078,-0.4155827886074781,-1.0904255852103233,0.1871128976345062,-0.075363740324974,-0.150474414229393
1783201332691977700,2.781977783203125,0.4591720472261309,-0.4088657553121447,-0.9035223728954792,0.3209322392940521,-0.0072529972530901,-0.105437733232975
1783201332701915000,2.791914794921875,0.4309316027782857,-0.2995946487322449,-0.728456313368678,0.4286704361438751,0.0396926738321781,-0.0744180306792259
1783201332711851800,2.801851806640625,0.3386133114997297,-0.1704585657313466,-0.5181313089340925,0.5050542950630188,0.0886402279138565,-0.061649102717638
1783201332721788700,2.81178857421875,0.1871479808561503,-0.0968126070231199,-0.3116571347087621,0.567659854888916,0.1340695023536682,-0.0567984208464622
1783201332731725600,2.8217255859375,0.0899671250425279,-0.1068921024888753,-0.2257002682209014,0.6157528162002563,0.1571444123983383,-0.0446307100355625
1783201332741662700,2.831662841796875,0.0375780355051159,-0.0926937735274434,-0.1418582019299268,0.6325472593307495,0.1808603852987289,-0.0399155840277671
1783201332751599900,2.841599853515625,0.0455281907919794,-0.0970411550819873,-0.0491056839525699,0.6345986127853394,0.1982408165931701,-0.0315742492675781
1783201332761536800,2.851536865234375,0.098704923575744,-0.1695467115834355,-0.0942377880990505,0.6371371746063232,0.1912255138158798,-0.011833569034934
1783201332771473700,2.8614736328125,0.2494916973706334,-0.2233463985711336,-0.1849333735466003,0.6318216919898987,0.1730301827192306,0.0262310393154621
1783201332781410800,2.871410888671875,0.4659234942477196,-0.2833475705474615,-0.2103232508689165,0.6124570369720459,0.1461399793624878,0.0846834331750869
1783201332791347700,2.88134765625,0.6257747412469238,-0.4029179528236389,-0.1738935086160898,0.5878309011459351,0.1348318010568618,0.1588952988386154
1783201332801284900,2.891284912109375,0.6256605402827262,-0.5456693042010069,-0.1867886460244655,0.5635830760002136,0.1306357234716415,0.2271691709756851
1783201332811221800,2.9012216796875,0.5168213223140686,-0.5609791015356779,-0.2802536961853504,0.5487311482429504,0.0984491258859634,0.279215544462204
1783201332821158700,2.91115869140625,0.3963871628154068,-0.4393488641202449,-0.4773357726871967,0.564453661441803,0.0345660224556922,0.3052079975605011
1783201332831095800,2.921095703125,0.2647617472168058,-0.287514919359982,-0.6669657796174288,0.5985121726989746,-0.0266363583505153,0.3122503757476806
1783201332841032700,2.93103271484375,0.0475798626247793,-0.1940624364197254,-0.7703396448522806,0.648918628692627,-0.0699907541275024,0.3050734400749206
1783201332850969900,2.940969970703125,-0.1416805803406983,-0.126148883883655,-0.8728776437848806,0.7036880850791931,-0.109997808933258,0.277620404958725
1783201332860906800,2.95090673828125,-0.1937009096309542,0.0129848615184426,-0.9323153366595506,0.7591257691383362,-0.1614322364330291,0.2463477402925491
1783201332870843600,2.96084375,-0.153085771452263,0.1418766143694519,-0.8828998561054467,0.8045244812965393,-0.2050537765026092,0.2103143781423568
1783201332880780800,2.97078076171875,-0.1309472240760922,0.2381219428986311,-0.6710439888417721,0.8220462203025818,-0.2187946140766143,0.1779769361019134
1783201332890716700,2.980716552734375,-0.1188622340068221,0.2917117865279316,-0.3637888884842395,0.8207761645317078,-0.2021212130784988,0.1519135981798172
1783201332900653800,2.99065380859375,-0.0811120568051934,0.3322580241888761,-0.1066144545912742,0.8075615763664246,-0.1836428791284561,0.1387663632631302
1783201332910590700,3.0005908203125,-0.0070584671441465,0.3527288575485348,0.122023620647192,0.7801403403282166,-0.1685407310724258,0.1331321895122528
1783201332920527600,3.010527587890625,0.0504953116800636,0.3324254897102713,0.272277895000577,0.7415860295295715,-0.1735309511423111,0.1423746943473816
1783201332930464800,3.02046484375,0.1249659577094018,0.2572071671187877,0.3277110284090042,0.6922995448112488,-0.2079865336418151,0.1668359935283661
1783201332940402000,3.03040185546875,0.2443440322838723,0.1907625180914998,0.3374123382121324,0.6398080587387085,-0.2668972611427307,0.2137201428413391
1783201332950338800,3.0403388671875,0.3330510742627084,0.1769324379205703,0.4258896630883216,0.56000816822052,-0.3292261958122253,0.2446340322494506
1783201332960275700,3.050275634765625,0.2533549486700445,0.2709489844843745,0.6494792227655649,0.4652097523212433,-0.3677408397197723,0.2631683051586151
1783201332970212600,3.060212646484375,0.0936447906419634,0.3713707219153642,0.9083277273505924,0.3554922342300415,-0.3713084459304809,0.2608788609504699
1783201332980149800,3.070149658203125,-0.0600368278115987,0.4576321243077516,1.1675286986351012,0.2390817254781723,-0.3490233719348907,0.2397826462984085
1783201332990087000,3.0800869140625,-0.1709823338771239,0.5539288907632232,1.389170631375909,0.1202224865555763,-0.2942308187484741,0.2188978195190429
1783201333000023800,3.09002392578125,-0.2316675060622394,0.6129796301469207,1.5741607035458087,0.002542994916439,-0.2247294932603836,0.1931527704000473
1783201333009960700,3.099960693359375,-0.2586395380094647,0.589515460190177,1.6283429601103063,-0.1040739938616752,-0.1650983095169067,0.1767224073410034
1783201333019897600,3.109897705078125,-0.2199339597791433,0.545613190099597,1.5376573115348815,-0.209754079580307,-0.1264595687389373,0.165374681353569
1783201333029834800,3.119834716796875,-0.1753473972188308,0.5689776990741491,1.4313029691845178,-0.3071110248565674,-0.1068067401647567,0.1449679881334304
1783201333039772000,3.12977197265625,-0.144124831687659,0.5927788459002972,1.2751052762567996,-0.3878450393676758,-0.1025009453296661,0.124736487865448
1783201333049708800,3.139708740234375,-0.1135791790373623,0.5433391076877713,1.1160025095373391,-0.4556717574596405,-0.0912213027477264,0.0998724177479744
1783201333059645700,3.149645751953125,-0.1383009478397667,0.4989385326862335,1.0513742622822522,-0.5212326645851135,-0.067338079214096,0.0780179798603057
1783201333069582600,3.15958251953125,-0.1998273200893774,0.4593710769295692,1.0444172827512026,-0.5837581753730774,-0.0183536745607852,0.0470380373299121
1783201333079519700,3.169519775390625,-0.2180057681955397,0.3935077349215746,1.0802198330163957,-0.6548944115638733,0.051281064748764,0.0151538774371147
1783201333089457000,3.179456787109375,-0.20011033828184,0.3353098129749298,1.10824239692986,-0.7285886406898499,0.1274666488170623,0.0004293122328817
1783201333099393800,3.189393798828125,-0.142739953200519,0.1910749450415372,1.0004781877815725,-0.7786456942558289,0.1943492740392685,0.0149744339287281
1783201333109329700,3.19932958984375,-0.086135474457778,-0.0068625792458653,0.6742793175011873,-0.8099944591522217,0.2296273112297058,0.0390956625342369
1783201333119266800,3.209266845703125,-0.0001934767454862,-0.0466825484588742,0.3450385953068733,-0.8364449739456177,0.2126885503530502,0.0584371350705623
1783201333129203700,3.21920361328125,0.0716566845871508,0.0336228681385517,0.1304167704612016,-0.8615593910217285,0.1681582778692245,0.0646556168794632
1783201333139140900,3.229140869140625,0.0610270078927278,0.0915603855833411,0.0621247400015592,-0.8918637633323669,0.1394693702459335,0.0523265078663826
1783201333149077800,3.239077880859375,-0.0040901919230818,0.0970408628210425,0.0428226581603288,-0.9111230969429016,0.1267216950654983,0.0393320173025131
1783201333159014700,3.2490146484375,-0.038837826307863,0.0422565487101674,-0.0946720878630876,-0.9053858518600464,0.0879444703459739,0.0303976442664861
1783201333168951800,3.258951904296875,-0.0467246340349316,0.0549637623310089,-0.2588216165781021,-0.8914861083030701,0.0568879470229148,0.0065401112660765
1783201333178888700,3.268888671875,-0.0949205096662044,0.1110644197374582,-0.3177197957485914,-0.8719867467880249,0.039757166057825,-0.0346896164119243
1783201333188825900,3.278825927734375,-0.1898226434255018,0.1525032223239541,-0.30420097348392,-0.841619074344635,0.0569658614695072,-0.087705560028553
1783201333198762800,3.2887626953125,-0.2534602356754243,0.1887377342656254,-0.2328881338983774,-0.787368893623352,0.1146262288093566,-0.1414231210947036
1783201333208699600,3.29869970703125,-0.2773889544039964,0.2310086037620902,-0.1430909585952758,-0.7225231528282166,0.196530133485794,-0.191579133272171
1783201333218636800,3.30863671875,-0.2700586845811456,0.2491384269535541,-0.0503057073920965,-0.6419771909713745,0.3013044893741607,-0.2211878895759582
1783201333228573700,3.31857373046875,-0.2214461909729987,0.0684007515311241,-0.1046539681732654,-0.5458924770355225,0.4080044329166412,-0.2074185758829116
1783201333238510800,3.3285107421875,-0.1571720178525894,-0.2149637701511383,-0.3683919983655214,-0.4553380906581878,0.4672080874443054,-0.1692155301570892
1783201333248447700,3.33844775390625,-0.0785650757361203,-0.196903505064547,-0.6235995160996913,-0.3836272656917572,0.4677988588809967,-0.1341015994548797
1783201333258384600,3.348384521484375,-0.0158596863023936,-0.0725593325152993,-0.7957032186895608,-0.3297019898891449,0.4323606789112091,-0.1277744621038437
1783201333268321800,3.35832177734375,-0.021282953460142,0.0113563835337758,-0.8895932162642478,-0.2895598411560058,0.3860757350921631,-0.1401811093091964
1783201333278258700,3.3682587890625,-0.019663097173348,0.0802729756325483,-0.9118822049617766,-0.2529546916484833,0.3374221622943878,-0.1508526653051376
1783201333288195800,3.37819580078125,-0.0424958373587578,0.1092220067411661,-0.9174357474356888,-0.213214099407196,0.2979175746440887,-0.1667390316724777
1783201333298132700,3.3881328125,-0.092908877582848,0.1154974337488412,-0.8818769427984953,-0.1742600500583648,0.2660397887229919,-0.1885085105895996
1783201333308069600,3.398069580078125,-0.1763563915982842,0.078787120988965,-0.9052905516117812,-0.1168694496154785,0.2506938874721527,-0.1938241869211197
1783201333318006800,3.4080068359375,-0.2126716406259685,-0.0260971488088369,-0.997356840890646,-0.0541831739246845,0.2337966412305832,-0.1785128712654113
1783201333327943700,3.417943603515625,-0.1667116342879831,-0.0882438083812594,-1.0713006135016678,0.0057547600008547,0.2006590068340301,-0.1631438136100769
1783201333337880800,3.427880859375,-0.1196535305149853,-0.0943926863998174,-1.101431547871232,0.0505312867462635,0.1612889617681503,-0.1461661607027053
1783201333347817700,3.437817626953125,-0.037926702812314,-0.1523538769811391,-1.0580728831380606,0.0860530659556388,0.1209456995129585,-0.1230627074837684
1783201333357753900,3.44775390625,0.0345545960307121,-0.2133952056601643,-1.017687096735835,0.1197196841239929,0.0844931453466415,-0.095554381608963
1783201333367690800,3.457690673828125,0.068130044830963,-0.187718328090012,-0.9744044198483228,0.1577539443969726,0.0373015590012073,-0.0778643861413002
1783201333377628000,3.4676279296875,0.0399665380768477,-0.0743158207938075,-0.8982470628410577,0.1950477808713913,-0.0107501242309808,-0.0813627168536186
1783201333387564500,3.477564453125,-0.0124715782340615,0.0256798001796007,-0.834946264797449,0.2414972186088562,-0.0507382228970527,-0.0987245664000511
1783201333397501700,3.487501708984375,-0.0844176742218434,0.0836368991076946,-0.7702630724847316,0.2991991341114044,-0.0649035796523094,-0.1262536644935608
1783201333407438800,3.49743896484375,-0.0748687054362148,0.0796609812140464,-0.6706956137955188,0.3694493174552917,-0.0446691699326038,-0.1366908550262451
1783201333417375700,3.507375732421875,0.0882409588370472,-0.0609925211012363,-0.5931032555490732,0.4493590593338012,-0.0156801305711269,-0.1261963993310928
1783201333427313000,3.51731298828125,0.2546482033509761,-0.2077490164667367,-0.4988327342242002,0.5217503309249878,0.0255775637924671,-0.0901190117001533
1783201333437249500,3.52724951171875,0.3861356717836111,-0.379933383077383,-0.4554787456661462,0.5916202068328857,0.0674139633774757,-0.0354842692613601
1783201333447186700,3.537186767578125,0.4703838346574455,-0.5031102654129267,-0.4966986448049545,0.651925265789032,0.085171453654766,0.0231706649065017
1783201333457123800,3.547123779296875,0.5139478857696056,-0.494966998706758,-0.4830798692971467,0.7012952566146851,0.0984856635332107,0.0759625136852264
1783201333467060700,3.557060791015625,0.4643503997121005,-0.4298384007140994,-0.4321756114900112,0.7462770938873291,0.1081149205565452,0.1138253584504127
1783201333476998000,3.566997802734375,0.3735677205029875,-0.357555254791677,-0.395047365579009,0.7844409942626953,0.12396951764822,0.1433800607919693
1783201333486934800,3.576934814453125,0.299584273468703,-0.2347390224620699,-0.281630829757452,0.8072534799575806,0.1278660893440246,0.1551983505487442
1783201333496871700,3.58687158203125,0.2728676045220345,-0.1312248719736933,-0.1849871495604515,0.8187295794487,0.1358478516340255,0.157972827553749
1783201333506808800,3.596808837890625,0.217187291419506,-0.0819490921512246,-0.1428103880882263,0.8293209075927734,0.1317880004644394,0.1634914726018905
1783201333516745700,3.606745849609375,0.162793949387595,-0.0201730194568634,-0.1246603988915681,0.8406201601028442,0.1048858165740966,0.1720743030309677
1783201333526683000,3.616682861328125,0.1061642266057431,0.0327580680027604,-0.1278004504829645,0.8436866998672485,0.0818811431527137,0.1795139163732528
1783201333536619800,3.626619873046875,0.0192389534771442,0.0608902297705411,-0.0862181477725505,0.8223174810409546,0.0507269501686096,0.1786031275987625
1783201333546556700,3.636556640625,-0.0085028937987983,0.1026326914787292,-0.0155015205144882,0.7792497873306274,0.0120704416185617,0.1739632338285446
1783201333556493800,3.646493896484375,0.0059238370910286,0.1072197270080447,0.0510346061885356,0.713680624961853,-0.032008871436119,0.1698630303144455
1783201333566430700,3.6564306640625,0.0833994370900094,0.0511506337836384,0.1076730237334966,0.6336861848831177,-0.0811339914798736,0.1865482777357101
1783201333576367900,3.666367919921875,0.1968701873168349,-0.0415010541677474,0.1615133349925279,0.542658805847168,-0.1269808411598205,0.2192063629627227
1783201333586304800,3.6763046875,0.2803739615641534,-0.132476917861402,0.2171861223757266,0.4474454224109649,-0.1649111211299896,0.2598001360893249
1783201333596241700,3.68624169921875,0.2941271771065891,-0.169894502107799,0.2533633511722087,0.3644733130931854,-0.1942551732063293,0.285834401845932
1783201333606178800,3.6961787109375,0.2224041492849588,-0.1321446171671152,0.1932750854343175,0.3105986714363098,-0.2277099937200546,0.2983906269073486
1783201333616115000,3.706114990234375,0.1870325377829372,-0.0210568165540695,0.0921761793941259,0.2970538139343261,-0.2590242326259613,0.293355643749237
1783201333626051600,3.716051513671875,0.0893691591493785,0.0660427902281284,0.031676994767785,0.3057608008384704,-0.2591165900230407,0.2813515067100525
1783201333635988700,3.72598876953125,0.0110004097029566,0.1019014545947313,0.0099462244749069,0.3249725699424743,-0.2655113637447357,0.266744315624237
1783201333645926000,3.73592578125,0.0237251589804887,0.0805535461395978,0.0286573546856641,0.3372112512588501,-0.2536448538303375,0.256968230009079
1783201333655862800,3.74586279296875,0.0628352263584733,0.118396077799797,0.102998602181673,0.3384975492954254,-0.2441813051700592,0.2496954053640365
1783201333665800000,3.755800048828125,0.0716247550789266,0.1802738573029637,0.231105926656723,0.3365991711616516,-0.2223264575004577,0.2286059260368347
1783201333675736600,3.765736572265625,0.0180055392246693,0.257210381989181,0.39978257740736,0.3288810551166534,-0.1640913784503936,0.2137777060270309
1783201333685673700,3.775673828125,-0.0852067057076841,0.3312123145282268,0.580080107846856,0.3156834244728088,-0.0937367379665374,0.1955129951238632
1783201333695611000,3.78561083984375,-0.1495937646180391,0.4060112426638603,0.7389543265074491,0.2955683171749115,-0.0128288436681032,0.1743706911802292
1783201333705547800,3.7955478515625,-0.168389358241856,0.479899485695362,0.8836427834272385,0.2616501450538635,0.0652410313487052,0.1548885256052017
1783201333715485000,3.80548486328125,-0.1667127302665263,0.5316445782408118,0.9995902990311384,0.2190784364938736,0.1346480697393417,0.1427562236785888
1783201333725421600,3.815421630859375,-0.2199152550786733,0.5785419384941458,1.0711802019923924,0.1605923026800155,0.1866926699876785,0.1329029649496078
1783201333735358700,3.825358642578125,-0.2859391944758593,0.6288157894432544,1.0883125385791064,0.0866522938013076,0.2136049717664718,0.1135969161987304
1783201333745296000,3.8352958984375,-0.3578970539666712,0.7107900160357356,1.0899679045706987,-0.0084705045446753,0.2211814820766449,0.0809399560093879
1783201333755232800,3.845232666015625,-0.4528143487624824,0.8004410608664154,1.0901064362585544,-0.1164366528391838,0.2111237943172454,0.0441047102212905
1783201333765170000,3.855169921875,-0.4655245580580085,0.7961474553257226,1.024061307942867,-0.2246843576431274,0.1800498068332672,0.0217520333826541
1783201333775106600,3.8651064453125,-0.3689978553041815,0.6604927842110395,0.8432190031021833,-0.3247126936912536,0.1353622376918792,0.0251158736646175
1783201333785043700,3.875043701171875,-0.3000479454576969,0.567114827811718,0.7099860061764717,-0.4359697699546814,0.1005916967988014,0.0179829020053148
1783201333794980900,3.88498095703125,-0.3221184690989553,0.5349503417879343,0.660713733485341,-0.544340968132019,0.0759545266628265,0.0040194154717028
1783201333804917800,3.894917724609375,-0.3575004558645188,0.4790384849518537,0.6199491768985986,-0.6408423185348511,0.0594339445233345,-0.0116784442216157
1783201333814855000,3.90485498046875,-0.3771659641906619,0.4271411244541406,0.5611585497558117,-0.7310361266136169,0.04761803150177,-0.0271772425621747
1783201333824791600,3.91479150390625,-0.3721845225162803,0.4375257403463125,0.5363081861376762,-0.816769003868103,0.038295991718769,-0.0429622009396553
1783201333834728700,3.924728759765625,-0.399138288154453,0.467023637509346,0.483693032759428,-0.8888229727745056,0.0311280954629182,-0.0810493975877761
1783201333844665900,3.934665771484375,-0.4580111867532134,0.4934326287463307,0.3890992708295583,-0.9333314895629884,0.031313307583332,-0.1267738342285156
1783201333854602800,3.944602783203125,-0.4799767156500369,0.4852358782872557,0.2183931600779294,-0.9411726593971252,0.0433012582361698,-0.1753174066543579
1783201333864540000,3.954539794921875,-0.4872255907997488,0.4840045829266309,0.056953474843502,-0.9100792407989502,0.0683653876185417,-0.232461616396904
1783201333874476500,3.9644765625,-0.4805608722135424,0.4186626344442367,-0.1383364575445652,-0.8475461006164551,0.0852218642830848,-0.2850766181945801
1783201333884413700,3.97441357421875,-0.4040076477564871,0.3457768464535474,-0.3121183224797249,-0.770758867263794,0.1095225363969802,-0.3285671472549438
1783201333894350800,3.984350830078125,-0.3089765173226594,0.3047387336224317,-0.3857891233682632,-0.6876826286315918,0.1407774090766906,-0.3742211759090423
1783201333904287700,3.994287841796875,-0.2789266853652894,0.2667079859137535,-0.4061760778367519,-0.6110014915466309,0.1892244815826416,-0.4166097939014435
1783201333914223600,4.0042236328125,-0.2777206705763936,0.1900230979010462,-0.4336901077061891,-0.5213994383811951,0.2436019629240036,-0.4408096671104431
1783201333924161800,4.014161865234375,-0.232797898331657,0.1095937626630067,-0.5058300457656383,-0.4415624439716339,0.2806799113750458,-0.4512790739536285
1783201333934097700,4.02409765625,-0.1219412030607461,0.0751917268455028,-0.5650532191067934,-0.3811880350112915,0.2915442883968353,-0.442609965801239
1783201333944034800,4.034034912109375,0.0911862915739417,-0.0472545031279325,-0.5484451986551284,-0.3387566208839416,0.3068559467792511,-0.3953222036361694
1783201333953972000,4.043971923828125,0.3549627540804445,-0.2866813911452889,-0.5582143129974604,-0.3162888586521148,0.2930775582790375,-0.3008822500705719
1783201333963908600,4.05390869140625,0.6036366322621702,-0.513779251204431,-0.6360591847002506,-0.3138107061386108,0.2471534162759781,-0.1833130568265915
1783201333973845800,4.063845703125,0.7072977900058031,-0.5740732686474919,-0.6599047551900148,-0.3389354944229126,0.1737084984779358,-0.0754907131195068
1783201333983782700,4.07378271484375,0.6441968984484672,-0.5014110602796077,-0.6200391932696103,-0.3804026246070862,0.0923998951911926,-0.0063189715147018
1783201333993719800,4.0837197265625,0.4767167640060186,-0.317825009688735,-0.5292693735420704,-0.4195939600467682,0.0314707607030868,0.0286611169576644
1783201334003657000,4.093656982421875,0.2257940839841961,-0.1654988974973559,-0.4094447242438793,-0.4343422949314117,0.0129520203918218,0.0308829955756664
1783201334013593600,4.103593505859375,-0.028752631753683,-0.0376955244049429,-0.3942395563274621,-0.4028306901454925,0.0101477112621068,0.0017762426286935
1783201334023530800,4.11353076171875,-0.1733459577359259,0.1077443354040384,-0.5727946270138025,-0.3249743282794952,0.0284999534487724,-0.0531428977847099
1783201334033467600,4.123467529296875,-0.3874878901101649,0.1354892514199018,-0.6783703862071037,-0.2148379683494568,0.073310300707817,-0.1287311315536499
1783201334043404800,4.13340478515625,-0.4412145118616521,0.1086181956291198,-0.7654974655181169,-0.0851864069700241,0.122959554195404,-0.1873276978731155
1783201334053342000,4.143342041015625,-0.294780088057369,-0.1028983566775918,-0.9116174165457488,0.0510185733437538,0.1702509075403213,-0.1908473223447799
1783201334063278600,4.153278564453125,-0.0020918577127158,-0.4341533413037657,-1.1126964537292718,0.1711238324642181,0.1727300286293029,-0.1641396731138229
1783201334073215700,4.1632158203125,0.2492687753349542,-0.5411155864194035,-1.2506985647529365,0.2593056261539459,0.1406285464763641,-0.1288706213235855
1783201334083153000,4.17315283203125,0.3587783668458461,-0.512488626872003,-1.2547007861316204,0.3174697756767273,0.0861213281750679,-0.1076944023370742
1783201334093089300,4.18308935546875,0.3571731236062944,-0.5083686243325471,-1.1837924356937408,0.3603421449661255,0.0347835682332515,-0.0808609277009964
1783201334103026400,4.1930263671875,0.3842071148738264,-0.5021960731774568,-1.0625286935031413,0.3941424190998077,-0.0026452741585671,-0.048915259540081
1783201334112963000,4.202963134765625,0.4194878332220018,-0.4989499308630823,-0.9209428787738084,0.4321443736553192,-0.0178495272994041,-0.0208071917295455
1783201334122900200,4.212900146484375,0.4291664928019046,-0.4977808870837092,-0.8138128758758306,0.4895229637622833,-0.0172866992652416,0.0019095609895884
1783201334132837400,4.22283740234375,0.5015241652652621,-0.497967641827464,-0.7473328632742167,0.5638566017150879,-0.0126117886975407,0.0471225790679454
1783201334142774300,4.232774169921875,0.6472109855726361,-0.5613906049460172,-0.6973731928408146,0.6467384696006775,-0.0091931875795125,0.0991311967372894
1783201334152711400,4.24271142578125,0.7569950101107359,-0.6199021228864788,-0.5741121393531561,0.7165148854255676,0.0054755029268562,0.1745316684246063
1783201334162648300,4.2526484375,0.7132011688306927,-0.6019789281830191,-0.383260481673479,0.7716687917709351,0.0443381108343601,0.2337284982204437
1783201334172585200,4.262585205078125,0.5463305445887148,-0.5622840466544031,-0.2596732649713754,0.8201140761375427,0.0898603200912475,0.2891206443309784
1783201334182522400,4.2725224609375,0.3559665242955088,-0.4999976863503456,-0.2897802339434623,0.8694135546684265,0.1156632080674171,0.3151114583015442
1783201334192459300,4.282459228515625,0.1973356128714978,-0.2840563033387064,-0.3715776426643133,0.9051723480224608,0.1021519228816032,0.3128451108932495
1783201334202396400,4.292396484375,0.0746130501747131,-0.0242836696460843,-0.3725058634251356,0.921319842338562,0.0780330374836921,0.2798677682876587
1783201334212333300,4.302333251953125,-0.0349573316127061,0.1445522633194923,-0.283038942989707,0.915623903274536,0.0507329776883125,0.2447185665369033
1783201334222270200,4.312270263671875,-0.0814626238085329,0.1798854425072669,-0.1670253764122724,0.8868148922920227,0.0166167449206113,0.2235723286867141
1783201334232207400,4.322207275390625,-0.0153968910962343,0.1615942912742495,-0.048540451285243,0.8347730040550232,-0.0294567421078681,0.2200388461351394
1783201334242144300,4.332144287109375,0.0918108532130718,0.1525520299017429,0.0446451974123716,0.7597191333770752,-0.0997457578778266,0.2385878413915634
1783201334252081400,4.342081298828125,0.2337321835070848,0.0899511968210339,0.1145674594223499,0.6663321852684021,-0.1762085705995559,0.2710941135883331
1783201334262017300,4.352017333984375,0.3309728066839277,-0.0002045826613903,0.2217997536510229,0.5620830655097961,-0.2315891981124878,0.3110972046852112
1783201334271954200,4.3619541015625,0.3298869111433625,-0.00448532872051,0.346381826609373,0.4596610367298126,-0.2878298163414001,0.3357783257961273
1783201334281891300,4.371891357421875,0.3132821055620908,0.0191828393757343,0.4527519510507583,0.3661160171031952,-0.3194583058357239,0.3563228845596313
1783201334291828500,4.381828369140625,0.2490790979817509,0.0017886369824409,0.5412462270617485,0.2866872251033783,-0.310555636882782,0.3656745553016662
1783201334301765000,4.39176513671875,0.1402386379040777,0.0199152453035116,0.592070405369997,0.2295507788658142,-0.2977878153324127,0.3619947135448456
1783201334311702300,4.401702392578125,0.0987527813054621,0.0858180425390601,0.5826847373872995,0.1985326707363128,-0.2800293266773224,0.3493423163890838
1783201334321639400,4.411639404296875,0.0734546008545905,0.1450552444055676,0.5607984842717647,0.18607759475708,-0.2516009211540222,0.3247379958629608
1783201334331576300,4.421576416015625,0.0446283924080431,0.1853074675559997,0.5543085377305745,0.1868081092834472,-0.2183132767677307,0.3065728545188904
1783201334341513500,4.431513427734375,0.018097966748476,0.210471427167952,0.6055658467590809,0.1909493952989578,-0.1787415891885757,0.2915248274803161
1783201334351450000,4.4414501953125,-0.0265540987960994,0.2480664138078689,0.7030109064668416,0.1831985265016555,-0.1323088407516479,0.2669800519943237
1783201334361387300,4.45138720703125,-0.0680916855819523,0.3142123721495271,0.8083090177625417,0.1596321016550064,-0.0820773690938949,0.2466650754213333
1783201334371324400,4.461324462890625,-0.0956885714292526,0.3754161979138851,0.9518786997854708,0.12067112326622,-0.0201751217246055,0.2260301113128662
1783201334381261300,4.47126123046875,-0.1160292025379836,0.4097469220608473,1.10249830031991,0.066154345870018,0.0432512387633323,0.2122460603713989
1783201334391198500,4.481198486328125,-0.1080963637121021,0.3962450509309768,1.1848808154523371,-0.0003176229074597,0.1040221825242042,0.206690713763237
1783201334401135000,4.491135009765625,-0.1223266952469945,0.4065285445362329,1.179903611561656,-0.0866890177130699,0.142065092921257,0.2051924020051956
1783201334411072300,4.501072265625,-0.1326530781459063,0.4380754831835627,1.1417407619059086,-0.1775515526533126,0.1579367369413375,0.2019420266151428
1783201334421009400,4.511009521484375,-0.0940817207545042,0.4421627524971961,1.0696166059374808,-0.2688814997673034,0.1696998029947281,0.2038804143667221
1783201334430946300,4.5209462890625,-0.0904632379963994,0.4149576424464583,0.9301520211458204,-0.3531420528888702,0.1673738062381744,0.2105689495801925
1783201334440883500,4.530883544921875,-0.0861896523304283,0.4291401893168687,0.8127250806391239,-0.433379590511322,0.1619245558977127,0.2128913402557373
1783201334450820000,4.540820068359375,-0.1717532817170023,0.4208089988231658,0.7076853280186652,-0.5070713758468628,0.1602656692266464,0.2115842550992965
1783201334460757200,4.55075732421875,-0.2571820326775312,0.4044871018365025,0.5852659860521554,-0.5859143137931824,0.1438243240118026,0.2076831012964248
1783201334470694400,4.5606943359375,-0.3164192345440387,0.4458113381326198,0.4952735804378986,-0.672833263874054,0.1292334049940109,0.1869045794010162
1783201334480631300,4.57063134765625,-0.3723145786367356,0.4797963175818324,0.4141004410952329,-0.7559037208557129,0.1103353723883628,0.1645812094211578
1783201334490568400,4.580568359375,-0.409197179223597,0.5014414554178714,0.3367442296922207,-0.8177252411842346,0.0933204367756843,0.1337149143218994
1783201334500505000,4.590505126953125,-0.4479262844599783,0.5523296388730407,0.2690706233918666,-0.8658342361450195,0.0901229977607727,0.0987436473369598
1783201334510442200,4.600442138671875,-0.5145832610636949,0.6178232707858086,0.1899018096089363,-0.8792674541473389,0.0972163304686546,0.0532467365264892
1783201334520379400,4.61037939453125,-0.5400596476256847,0.615118103480339,-0.0367389543324708,-0.847602367401123,0.06740203499794,0.0193618256598711
1783201334530316300,4.62031640625,-0.4722603691190481,0.510086534166336,-0.3856196120202541,-0.7996366620063782,0.0153569430112838,0.0188465043902397
1783201334540253400,4.63025341796875,-0.3731833973605185,0.3572711771532893,-0.6382780297935009,-0.766393780708313,-0.0534582957625389,0.017373614013195
1783201334550190300,4.6401904296875,-0.2794361692573875,0.2978568651542067,-0.7365706462413072,-0.7494363784790039,-0.1347195953130722,0.0038380972109735
1783201334560127200,4.650127197265625,-0.2320570899017155,0.3072381492227315,-0.6664630907922983,-0.7451475262641907,-0.176941692829132,-0.0148547776043415
1783201334570064400,4.660064453125,-0.2895587001472711,0.2685463072568178,-0.5166694196879863,-0.7411935329437256,-0.1713173538446426,-0.0320694521069526
1783201334580001300,4.670001220703125,-0.3442196070741862,0.2540387662157416,-0.4309907856196164,-0.7211225628852844,-0.1379190534353256,-0.0538120605051517
1783201334589938400,4.6799384765625,-0.3518655187174677,0.2871118915170431,-0.3916489553123712,-0.6929684281349182,-0.094251736998558,-0.0800394043326377
1783201334599875300,4.689875244140625,-0.3627618835240602,0.3546995730996131,-0.3694996673464775,-0.6558545827865601,-0.0493822954595088,-0.1182954907417297
1783201334609812200,4.699812255859375,-0.4182909515876323,0.4117115001320838,-0.3495131103724241,-0.6058624982833862,0.0039853202179074,-0.170912891626358
1783201334619749400,4.709749267578125,-0.425431982448697,0.4431877116307616,-0.3054237932771444,-0.5443550944328308,0.0709973871707916,-0.2123012244701385
1783201334629686300,4.719686279296875,-0.3781465727258473,0.377232891947031,-0.3217939133197069,-0.4585397839546203,0.1369103491306305,-0.2388614565134048
1783201334639623400,4.72962353515625,-0.3279359962712973,0.2707359262555837,-0.4121042988419532,-0.3639554977416992,0.1806276589632034,-0.2575616538524627
1783201334649560300,4.739560302734375,-0.2879472463626414,0.2264505020663142,-0.536086652341485,-0.2674662470817566,0.1958652138710022,-0.2743102610111236
1783201334659497200,4.749497314453125,-0.2387292611420154,0.2009638863712549,-0.6871808846503495,-0.1794750392436981,0.1790861785411834,-0.2883661985397339
1783201334669433300,4.759433349609375,-0.2143981721576303,0.1993693106561899,-0.7347451843798161,-0.1137383729219436,0.1492971181869506,-0.3083750605583191
1783201334679370500,4.76937060546875,-0.2489129476346075,0.1700508617132902,-0.6803063227057456,-0.0791211798787117,0.1452471911907196,-0.3291520476341247
1783201334689307100,4.77930712890625,-0.2814281467922032,0.13084873213768,-0.5126888256192207,-0.0725093483924865,0.1451089829206466,-0.3441203534603119
1783201334699244300,4.789244384765625,-0.2848471614554524,0.1258466860666871,-0.4066518786549568,-0.0813988968729972,0.1453049778938293,-0.3710624277591705
1783201334709181200,4.79918115234375,-0.2476594404421746,0.1601321097671985,-0.3752408413469791,-0.0864240154623985,0.149737536907196,-0.390898734331131
1783201334719118300,4.809118408203125,-0.2680755479399114,0.1534101080358028,-0.3379886767953634,-0.0815839394927024,0.1609892845153808,-0.4104455113410949
1783201334729055500,4.819055419921875,-0.2744680254559963,0.1629910063296556,-0.3756125972688198,-0.0449204631149768,0.1717559248208999,-0.4337673485279083
1783201334738992000,4.8289921875,-0.2276695224672555,0.2233423069179058,-0.4275613956928253,0.0047974437475204,0.173731654882431,-0.4466941058635711
1783201334748929300,4.83892919921875,-0.131087509329617,0.1659837584048509,-0.4365472507029772,0.064760111272335,0.1825970411300659,-0.4383509457111358
1783201334758866400,4.848866455078125,-0.0148538702607154,-0.0123702367514371,-0.5893786820679903,0.1249880716204643,0.1524388343095779,-0.4151240587234497
1783201334768803300,4.85880322265625,0.1416508427895605,-0.1091492337659001,-0.6727344261467456,0.1625407636165619,0.1235051825642585,-0.3878258466720581
1783201334778740500,4.868740478515625,0.2932619385793805,-0.2650765853196382,-0.6969108360260725,0.2069167792797088,0.1311883628368377,-0.3407633900642395
1783201334788677000,4.878677001953125,0.3133868811108172,-0.4973772747188806,-0.7653758849650621,0.2695106565952301,0.1654331535100937,-0.2990423142910003
1783201334798614300,4.8886142578125,0.2789639486357569,-0.5841808211639523,-0.9152110571235418,0.3586246073246002,0.1937626153230667,-0.2739814221858978
1783201334808551400,4.898551513671875,0.3209416804045438,-0.5777776761233806,-1.1179004521131517,0.476584255695343,0.2063063681125641,-0.256933182477951
1783201334818488300,4.90848828125,0.3616149054460227,-0.5181301398903131,-1.2289824075073004,0.6066136360168457,0.2305128127336502,-0.2462063878774643
1783201334828425500,4.918425537109375,0.4272141896903514,-0.4870382515341043,-1.2031366031110289,0.745631217956543,0.2661965191364288,-0.2336258739233017
1783201334838362000,4.928362060546875,0.5250877039432525,-0.575152880577743,-1.144787289994955,0.8807946443557739,0.2842651903629303,-0.1946534067392349
1783201334848299300,4.93829931640625,0.6457885515540838,-0.6876844502583146,-1.095343752390146,1.003645420074463,0.2992827594280243,-0.1268431991338729
1783201334858236400,4.948236328125,0.8100767580874264,-0.7100839135929942,-0.9997931281268596,1.098573923110962,0.2740032076835632,-0.0479949638247489
1783201334868173300,4.95817333984375,0.9020734892614184,-0.6581786620497703,-0.8263426871031522,1.1566179990768433,0.2315777391195297,0.0405090674757957
1783201334878110500,4.9681103515625,0.8989324147567153,-0.6159650756984949,-0.594987169599533,1.1697815656661987,0.1915273964405059,0.117384098470211
1783201334888047000,4.978047119140625,0.7609308882549405,-0.5589829592823982,-0.3967693670660257,1.1557669639587402,0.154532641172409,0.1864952594041824
1783201334897984300,4.987984375,0.6107958563670516,-0.4348538907885551,-0.2214595619112253,1.105735421180725,0.1109249368309974,0.2276983112096786
1783201334907921400,4.99792138671875,0.4704238013416528,-0.2702370368227362,-0.037260932379961,1.0339102745056152,0.0636892542243003,0.249239832162857
1783201334917858300,5.0078583984375,0.3284050020225346,-0.1648585537672042,0.1294575700402259,0.9488080739974976,0.0235521141439676,0.2613303661346435
1783201334927795500,5.01779541015625,0.2777196476630866,-0.1316796300038695,0.184756847935915,0.8721742630004883,-0.0359788574278354,0.2829563021659851
1783201334937732000,5.027732177734375,0.3080627634786069,-0.1380722536504268,0.1719131484538316,0.793978214263916,-0.1073566600680351,0.3141844272613525
1783201334947669200,5.037669189453125,0.2865963432103395,-0.0813008573755621,0.2263870814412832,0.7115576267242432,-0.1766222864389419,0.336862564086914
1783201334957606400,5.0476064453125,0.2234934058263897,-0.0079985975384712,0.3288075914740562,0.6256402730941772,-0.229346826672554,0.3457822799682617
1783201334967543300,5.057543212890625,0.1754394228838384,0.0745756407737731,0.4160650191664695,0.544729471206665,-0.273152619600296,0.34347864985466
1783201334977480400,5.06748046875,0.1089969658136367,0.2046051654830575,0.544499675899744,0.4665981233119964,-0.2934972643852234,0.329190731048584
1783201334987417300,5.077417236328125,0.0205018130198121,0.2471265026092529,0.6336193903326988,0.3930568099021911,-0.2864773869514465,0.3126730024814605
1783201334997354200,5.087354248046875,0.0001022913306951,0.1716477755159139,0.626447891268134,0.3248099386692047,-0.2775916457176208,0.3054992258548736
1783201335007291400,5.09729150390625,0.0865787977784872,0.1583455186113715,0.6102578039675951,0.2683080434799194,-0.2867310643196106,0.3053777813911438
1783201335017228300,5.107228271484375,0.2532552146226167,0.1826242198213934,0.5346797081530094,0.2262644469738006,-0.3127600252628326,0.314134269952774
1783201335027165400,5.11716552734375,0.3023229777175933,0.1591267321169376,0.5701636939883232,0.1877436935901641,-0.3041140735149383,0.330723375082016
1783201335037102300,5.127102294921875,0.2204233507312834,0.1408604230642318,0.7071814701497554,0.1417460590600967,-0.2626616656780243,0.341479629278183
1783201335047039200,5.137039306640625,0.1063578494817018,0.1452095581844449,0.8492138596028089,0.1003379002213478,-0.2065240740776062,0.3421720564365387
1783201335056976400,5.146976318359375,0.0138676357023417,0.166168175061047,0.8970335953980684,0.0506752505898475,-0.1499864012002945,0.3361597657203674
1783201335066913300,5.156913330078125,-0.0357853068694472,0.2113029095560312,0.9355752152383326,-0.0026151314377784,-0.1058681979775428,0.3282240927219391
1783201335076850400,5.166850341796875,-0.0496834838405251,0.2292027233839035,0.93645667424798,-0.0548032373189926,-0.070409208536148,0.3262974619865417
1783201335086787300,5.176787353515625,-0.0379400737505406,0.1920584031209349,0.8744406553179025,-0.1027441322803497,-0.0428777150809764,0.3245251476764679
1783201335096724700,5.186724853515625,-0.0546942246746271,0.2170730173900723,0.7926941000014543,-0.146643117070198,-0.0269221030175685,0.3182209134101867
1783201335106662000,5.196661865234375,-0.1092670149266719,0.3305062120854854,0.7544628612846136,-0.1896060407161712,-0.0144675625488162,0.2918010354042053
1783201335116598800,5.206598876953125,-0.2107224793195724,0.448731609493494,0.7820271600365638,-0.2346925139427185,0.0143360923975706,0.2499509900808334
1783201335126535700,5.21653564453125,-0.3109298433475196,0.5415133535653353,0.8346469895899296,-0.2790082991123199,0.0538605973124504,0.2037060111761093
1783201335136472600,5.22647265625,-0.3740126147262751,0.5681389101624489,0.8466565763354301,-0.3286103308200836,0.0893290191888809,0.1588204354047775
1783201335146409700,5.23640966796875,-0.3750048406340182,0.5000216517478228,0.7692793221443891,-0.3804253339767456,0.1126921325922012,0.1347896605730056
1783201335156347000,5.246346923828125,-0.2800003059461712,0.3688099315166473,0.636677608859539,-0.4529445469379425,0.095741756260395,0.1246252357959747
1783201335166283800,5.25628369140625,-0.1216934388447552,0.2608168820485472,0.4877922847718,-0.5320774912834167,0.0462117567658424,0.1355127692222595
1783201335176220700,5.266220703125,0.0098118575055152,0.174383630220592,0.3863683845609426,-0.6245371103286743,-0.030078237876296,0.1634769588708877
1783201335186157800,5.27615771484375,0.0862541689340025,0.1461617443427443,0.4020043451100588,-0.7266057133674622,-0.0943530946969986,0.1913522630929947
1783201335196094700,5.2860947265625,0.0682122432217001,0.1531733766704797,0.5340343959867954,-0.8379865884780884,-0.1315741688013076,0.2117544263601303
1783201335206032000,5.296031982421875,-0.0179455526657402,0.187559922657907,0.6524900950193405,-0.9477782845497132,-0.15009805560112,0.2262116521596908
1783201335215968800,5.30596875,-0.0834458335150033,0.2246858304813504,0.7044879932820797,-1.051714301109314,-0.1524683535099029,0.2319314032793045
1783201335225904600,5.315904541015625,-0.1603532051719725,0.2389870352953672,0.6923959889501333,-1.134519100189209,-0.1395506858825683,0.2286024540662765
1783201335235841800,5.325841796875,-0.2780466145951301,0.2553089322820305,0.5040139362543821,-1.1685588359832764,-0.1409965902566909,0.2150906175374984
1783201335245778700,5.33577880859375,-0.2778751304857432,0.3224468242704868,0.137029466599226,-1.156342625617981,-0.1798771321773529,0.1980280131101608
1783201335255715800,5.3457158203125,-0.2182452760398388,0.3656073360830545,-0.1019686746120452,-1.1261497735977173,-0.2012472599744796,0.1758612692356109
1783201335265652700,5.35565283203125,-0.2292606641162186,0.3661562021374702,-0.2036164467066526,-1.0930050611495972,-0.2085970491170883,0.1417349874973297
1783201335275589600,5.365589599609375,-0.2708861483812332,0.361419529004395,-0.2159785001516342,-1.0627745389938354,-0.1983444392681121,0.1095444038510322
1783201335285526800,5.37552685546875,-0.2979837064042687,0.3662140698045492,-0.1526999139398336,-1.0399597883224487,-0.1641633063554763,0.0777265504002571
1783201335295463700,5.385463623046875,-0.3313599063053727,0.3663850424572825,-0.1049053125858306,-1.0246901512145996,-0.1229692697525024,0.0505294129252433
1783201335305400800,5.39540087890625,-0.3142743314698338,0.3269645939558744,-0.0699491500169038,-1.0190231800079346,-0.0887159556150436,0.0442611314356327
1783201335315337700,5.405337646484375,-0.2789632179833948,0.2393319032102823,-0.1145715510755777,-1.0172983407974243,-0.0485607236623764,0.0453967079520225
1783201335325274600,5.415274658203125,-0.2355362372543662,0.18483137447685,-0.2566442725390195,-1.0105993747711182,-0.0466400533914566,0.0392605178058147
1783201335335211800,5.425211669921875,-0.2206597898356616,0.1919043816030025,-0.4338157799124717,-0.972124457359314,-0.0464713610708713,0.0293253790587186
1783201335345149000,5.43514892578125,-0.2238479914177209,0.2193117362275719,-0.6568330926597118,-0.8992659449577332,-0.056278720498085,0.0137235168367624
1783201335355085800,5.4450859375,-0.2873611170377582,0.2185027579322457,-0.7776227875977754,-0.8211794495582581,-0.062159564346075,-0.0129357539117336
1783201335365022700,5.455022705078125,-0.3419541463602334,0.2657902865469455,-0.821846544727683,-0.7412270903587341,-0.0852848589420318,-0.0585743449628353
1783201335374959600,5.464959716796875,-0.3405897261392325,0.3248310890585184,-0.7887474082022905,-0.6667757034301758,-0.0837113410234451,-0.1041733473539352
1783201335384896800,5.474896728515625,-0.3595234861247241,0.3503983687743544,-0.6647802522718906,-0.6037544012069702,-0.0607535615563392,-0.1443780362606048
1783201335394834000,5.484833984375,-0.351696153499931,0.3115221101522445,-0.5026923322618008,-0.5462327599525452,-0.0157091580331325,-0.1713608056306839
1783201335404770800,5.494770751953125,-0.3145380239073187,0.2149091173544526,-0.3866325884550809,-0.5014200210571289,0.0406941957771778,-0.1792909055948257
1783201335414707700,5.504707763671875,-0.2673766058903187,0.1053907580152153,-0.4359919549077749,-0.4433866441249847,0.0678687021136283,-0.1752012521028518
1783201335424644600,5.51464453125,-0.1728979947727173,0.0499845126137137,-0.6538871023356914,-0.3725945055484772,0.0601106509566307,-0.1629413962364196
1783201335434581800,5.524581787109375,-0.0901452580884099,0.0580674274347722,-0.762886406236887,-0.3073742687702179,0.0445444546639919,-0.1633004546165466
1783201335444519000,5.534518798828125,-0.0752107968721538,0.0626272826962173,-0.7718687541157007,-0.2446677386760711,0.036898523569107,-0.1694251894950866
1783201335454455800,5.544455810546875,-0.0881006735835224,0.0738810826383531,-0.7553846523046494,-0.1822450906038284,0.0382213294506073,-0.1838213801383972
1783201335464392700,5.554392822265625,-0.0838129863269627,0.0678017627246677,-0.7860778967320918,-0.1053492277860641,0.0462688729166984,-0.1884917616844177
1783201335474329600,5.56432958984375,-0.1301844960752874,0.0678308426886796,-0.8465618837893009,-0.0119276773184537,0.0651954934000969,-0.2068473994731903
1783201335484266800,5.574266845703125,-0.1660990553475916,0.1019581532180309,-0.916978651317954,0.0829607546329498,0.0672831460833549,-0.235500618815422
1783201335494204000,5.584203857421875,-0.1635832000691443,0.1245697979986667,-0.9694915133655072,0.1809611320495605,0.0650537312030792,-0.2713184058666229
1783201335504140800,5.594140869140625,-0.171842567435652,0.1233554537728428,-0.9324854325294494,0.2666483521461487,0.0673128962516784,-0.3002802729606628
1783201335514077700,5.60407763671875,-0.1642435636740177,0.0612815671756863,-0.7823258507221936,0.3312603831291199,0.0852458178997039,-0.3239914774894714
1783201335524014600,5.6140146484375,-0.1103524720758199,-0.0118223936103284,-0.6186380943000316,0.3807190060615539,0.105397954583168,-0.3262069523334503
1783201335533951700,5.62395166015625,-0.0081721274744719,-0.0828296743780374,-0.4711082764744758,0.4114812016487121,0.1249471232295036,-0.3145607411861419
1783201335543889000,5.633888916015625,0.0806556182745844,-0.1626204194515943,-0.4141828586816787,0.4556609094142914,0.1345717906951904,-0.2888670861721039
1783201335553825800,5.64382568359375,0.1144875991191714,-0.2147507119223475,-0.4209837708681821,0.4989917278289795,0.1426313817501068,-0.2651526629924774
1783201335563762700,5.6537626953125,0.1498791574306786,-0.2198123792260885,-0.4802449381321668,0.5558001399040222,0.1412523984909057,-0.2434415221214294
1783201335573699800,5.663699951171875,0.1596128351334482,-0.1925251438498497,-0.5132394452393054,0.614368736743927,0.1414234191179275,-0.2305103838443756
1783201335583636700,5.67363671875,0.1421300046086311,-0.1443020879507064,-0.4778945756137371,0.6714195013046265,0.1548952907323837,-0.2302451282739639
1783201335593574000,5.683573974609375,0.1253540071789175,-0.0543783636584877,-0.3924310456007718,0.7258753180503845,0.1680260002613067,-0.2460274249315261
1783201335603510800,5.6935107421875,0.1038815955612808,0.0130228554412722,-0.2777554496288299,0.766707181930542,0.2153913825750351,-0.2510472238063812
1783201335613447700,5.70344775390625,0.1972591866344213,-0.014860300001502,-0.1335164900422096,0.7914990186691284,0.2689239382743835,-0.2413191348314285
1783201335623384800,5.713384765625,0.3159914375860244,-0.1385463009029627,-0.0704407329261302,0.8264756202697754,0.3236353695392608,-0.2072605043649673
1783201335633321700,5.72332177734375,0.4792537351377308,-0.3059846420302987,-0.1056798040896654,0.8608092665672302,0.3694884479045868,-0.142796903848648
1783201335643259000,5.7332587890625,0.6179479200787842,-0.4723267123535275,-0.179907654339075,0.8985505104064941,0.4069561958312988,-0.0574577674269676
1783201335653195800,5.74319580078125,0.6146842421077191,-0.5466740973293781,-0.3065162646889686,0.9376860857009888,0.4170880913734436,0.0193575210869312
1783201335663132700,5.753132568359375,0.5163089888777583,-0.5079109436929226,-0.4155225828528404,0.9779629707336426,0.3956288695335388,0.0760330483317375
1783201335673069800,5.76306982421875,0.4406579739574343,-0.3695668873637914,-0.5023346048653126,1.007815957069397,0.3516253232955932,0.1098566353321075
1783201335683006700,5.7730068359375,0.2914088580586016,-0.178540749900043,-0.4701309558749199,1.0165297985076904,0.3156457543373108,0.110493391752243
1783201335692944000,5.78294384765625,0.0955491629585623,-0.0423795905679464,-0.351193610805273,1.0041608810424805,0.2889488041400909,0.0969865769147872
1783201335702880800,5.792880859375,0.0065912149585783,0.0227384860306978,-0.2329226206898689,0.9779855012893676,0.2648975253105163,0.0811176002025604
1783201335712817700,5.802817626953125,0.0202335174724459,0.0386848277032375,-0.1807119564592838,0.9559391736984252,0.245934322476387,0.0720893517136573
1783201335722754800,5.8127548828125,0.0358674321949481,0.0245861597239971,-0.1878594901263713,0.9371026754379272,0.2116778194904327,0.0725577995181083
1783201335732691700,5.822691650390625,0.0444574197553098,0.0298708221286535,-0.2047825678765773,0.9276015758514404,0.1711863875389099,0.0791741609573364
1783201335742628900,5.83262890625,0.0553935320504009,0.0766921945363283,-0.1904085900872945,0.914724349975586,0.1286714226007461,0.0810860469937324
1783201335752565800,5.842565673828125,0.0748066730506718,0.1202437514930963,-0.1118283898472786,0.8928177952766418,0.0951144993305206,0.088882140815258
1783201335762502700,5.852502685546875,0.0753676679342985,0.1291600483983755,0.0387520477205514,0.8572810888290405,0.0806633904576301,0.0925314649939537
1783201335772439800,5.862439697265625,0.0784122963272035,0.1269756900966167,0.1734720683336257,0.8139243721961975,0.072962962090969,0.1027754247188568
1783201335782376700,5.872376708984375,0.1068072006843984,0.0896504603087902,0.2433767946869134,0.7562320232391357,0.0580969341099262,0.1270602643489837
1783201335792313900,5.88231396484375,0.1826613369613886,-0.0093698858916759,0.2728758608937263,0.6938809156417847,0.0448155403137207,0.1687606573104858
1783201335802250800,5.892250732421875,0.1990896169319748,-0.052345104265213,0.2637479670643806,0.627497673034668,0.0108993863686919,0.2012384384870529
1783201335812187600,5.902187744140625,0.208921567377448,-0.0007005494847893,0.221765851381421,0.5604559779167175,-0.0314179807901382,0.2240112721920013
1783201335822124800,5.912124755859375,0.178913674865663,0.0618488456696271,0.2211988651484251,0.4976820349693298,-0.0762751996517181,0.2411404699087143
1783201335832061700,5.922061767578125,0.1448480313956737,0.071166709113121,0.2050204682856798,0.4432611763477325,-0.113005056977272,0.2481747269630432
1783201335841998800,5.931998779296875,0.0807264184884727,0.1094435405373573,0.2302116081655025,0.386105477809906,-0.1374728381633758,0.2479968070983886
1783201335851934700,5.941934814453125,0.036901889809221,0.1611743122965097,0.276173733395338,0.3316899240016937,-0.155725672841072,0.2368082553148269
1783201335861871600,5.95187158203125,0.0162751352354884,0.1957709939032793,0.3136053461670875,0.2866068482398987,-0.1565046459436416,0.2196295261383056
1783201335871808800,5.961808837890625,-0.0233745919771492,0.1956494133502244,0.3426180901616811,0.2544096112251282,-0.1413966566324234,0.2056236565113067
1783201335881746000,5.971745849609375,-0.0405472605742514,0.1814732962206006,0.3637725218713283,0.234470784664154,-0.1190306320786476,0.1975729167461395
1783201335891682800,5.981682861328125,-0.0110609077185392,0.1116284833610057,0.3539735969126224,0.2209242433309555,-0.095131516456604,0.1923865526914596
1783201335901619700,5.99161962890625,0.0207112179867923,0.068374740307033,0.3504045062541961,0.1990085542201995,-0.0914544910192489,0.1871521174907684
1783201335911556600,6.001556640625,0.0623915742442011,0.0187830264031887,0.3478203349798917,0.1568788886070251,-0.1120371669530868,0.1960531920194625
1783201335921493800,6.01149365234375,0.1245911330476403,-0.050728024457395,0.4453238468766212,0.0715834349393844,-0.1476135402917862,0.2072991877794265
1783201335931431000,6.021430908203125,0.1947407740727066,-0.0755950469493866,0.5963461829930543,-0.0295711178332567,-0.1738871783018112,0.217473417520523
1783201335941367800,6.031367919921875,0.2469426704749464,-0.1364876148074865,0.6466764403045178,-0.1151086539030075,-0.2200107425451278,0.2435612231492996
1783201335951304700,6.0413046875,0.3118379711683839,-0.1486114755824208,0.6308797362357378,-0.1910455673933029,-0.2530094981193542,0.2680220007896423
1783201335961241600,6.05124169921875,0.2846371719665825,-0.0868371564537286,0.660480509251356,-0.2562706470489502,-0.2681807279586792,0.2855344414710998
1783201335971178800,6.0611787109375,0.2324507653944194,-0.0062324646487832,0.7514087344110012,-0.3099784851074219,-0.2601172626018524,0.2919537723064422
1783201335981116000,6.071115966796875,0.1915738344743847,0.0808668498724698,0.8688730843186377,-0.360025942325592,-0.2299012690782547,0.2936414182186126
1783201335991052800,6.081052734375,0.1419686765670776,0.1353875446110963,0.9920686713546514,-0.4053167402744293,-0.1702660024166107,0.2852772176265716
1783201336000989700,6.09098974609375,0.0608715250700712,0.1440256090968847,1.0517232218503951,-0.4410670101642608,-0.094756856560707,0.2789895236492157
1783201336010926800,6.1009267578125,0.0104433603420853,0.1884171240091323,1.0359013833403588,-0.4727796912193298,-0.0382247120141983,0.2755142748355865
1783201336020863700,6.11086376953125,-0.019569500605762,0.2547805244937539,0.9915835181862116,-0.5083837509155273,0.0066365059465169,0.2735555171966553
1783201336030801000,6.12080078125,-0.0791522279743105,0.2658735809162258,0.8729641530245542,-0.5528202056884766,0.0288117174059152,0.2739239633083343
1783201336040737800,6.13073779296875,-0.0846279559716582,0.2782499551475048,0.7849024232119322,-0.6213060617446899,0.0085245547816157,0.2716720104217529
1783201336050674700,6.1406748046875,-0.0651889498777687,0.2826853072464466,0.7109516363382339,-0.7243577837944031,-0.048384889960289,0.2828952074050903
1783201336060611800,6.15061181640625,-0.0420290235646069,0.2652911048531532,0.7266974870026112,-0.8651753067970276,-0.1235270500183105,0.2955851852893829
1783201336070548700,6.160548828125,-0.018136106801778,0.2810276031672954,0.8236907112896442,-1.0341181755065918,-0.206428974866867,0.3073400557041168
1783201336080486000,6.17048583984375,0.0294569806307554,0.2927437599241733,0.950209305268526,-1.2029786109924316,-0.272786408662796,0.3204193711280823
1783201336090422800,6.1804228515625,0.0092817692168056,0.2550087802916765,0.9858563727110624,-1.34747314453125,-0.2905219495296478,0.342208594083786
1783201336100360200,6.190360107421875,-0.0392873236410319,0.2677940275847911,0.966645476284623,-1.4551024436950684,-0.2751083672046661,0.3590187430381775
1783201336110297000,6.200297119140625,-0.1355668832333758,0.3476756658121943,0.8220768463522196,-1.5039680004119873,-0.2568128407001495,0.3488339483737945
1783201336120234200,6.210234130859375,-0.2190231650771573,0.442974361141026,0.5470534520357847,-1.512661337852478,-0.2337035089731216,0.3293518722057342
1783201336130171400,6.22017138671875,-0.2833738740324973,0.5115113062724471,0.3031178544223308,-1.4829365015029907,-0.2020992338657379,0.2855684161186218
1783201336140108300,6.2301083984375,-0.3990551399156451,0.5597895994901657,0.065083005285263,-1.4307485818862915,-0.1633933782577514,0.2220131456851959
1783201336150045200,6.240045166015625,-0.4754720611745491,0.6230298995181918,-0.1069312654554843,-1.3528177738189695,-0.1198636889457702,0.15751613676548
1783201336159982000,6.249982177734375,-0.5329648670591414,0.6404334542617202,-0.2127963629841804,-1.2582273483276367,-0.0538255535066127,0.0971342846751213
1783201336169919200,6.259919189453125,-0.599078092174977,0.582889027787745,-0.3199497467577457,-1.166204810142517,0.013015879318118,0.0462532639503479
1783201336179856400,6.2698564453125,-0.6339151584088802,0.5047317291349173,-0.4212403759777545,-1.0828404426574707,0.0725039690732956,-0.0022945613600313
1783201336189793300,6.279793212890625,-0.6240302356671542,0.4318418494910001,-0.5559013598799705,-1.0197906494140625,0.0795457512140274,-0.0410933047533035
1783201336199730200,6.289730224609375,-0.4438215160222724,0.3342228945210576,-0.752186733046174,-0.9734070897102356,0.0338139496743679,-0.0460851341485977
1783201336209667300,6.299667236328125,-0.1462139494540169,0.1717164568379521,-0.8953612782716751,-0.9487042427062988,-0.0118935573846101,-0.019890995696187
1783201336219604200,6.309604248046875,-0.0064385086148977,-0.0449473952293396,-1.0069991139829158,-0.9251866936683656,-0.061735413968563,0.0251704882830381
1783201336229541400,6.319541259765625,0.0065618427336215,-0.1937552701666951,-1.1788035413652658,-0.891547679901123,-0.1277633160352707,0.0509420745074749
1783201336239478300,6.329478271484375,-0.0012829524826258,-0.1543449046678841,-1.27982295242846,-0.845976710319519,-0.1812595576047897,0.0451472997665405
1783201336249415200,6.339415283203125,-0.0488722405228763,-0.0783037213861942,-1.3158721709311008,-0.7624071836471558,-0.2036369740962982,0.0201702732592821
1783201336259352300,6.349352294921875,-0.1237039749495685,-0.030520810469985,-1.3329355339348314,-0.6458664536476135,-0.1844233274459839,-0.0078959809616208
1783201336269289200,6.359289306640625,-0.1786512976024299,-0.0639579467780888,-1.3158575578838585,-0.5026618838310242,-0.1260388195514679,-0.0252673476934433
1783201336279226400,6.369226318359375,-0.1779626577511429,-0.1345266899980604,-1.3393348795831204,-0.3390489518642425,-0.0937418714165687,-0.0432170517742633
1783201336289163300,6.379163330078125,-0.0635064036183059,-0.1437950152114033,-1.43417121809721,-0.1790863573551178,-0.104715809226036,-0.0541162341833114
1783201336299100200,6.38910009765625,0.0890655365603044,-0.1179198385901749,-1.4594196411222218,-0.0343097299337387,-0.1196308434009552,-0.0528930462896823
1783201336309037300,6.399037353515625,0.1726927910568192,-0.1517602950021624,-1.3135112870186567,0.0871759876608848,-0.1311997324228286,-0.041122555732727
1783201336318974200,6.40897412109375,0.1573716320779174,-0.1676988917596638,-1.0743582475066185,0.1847270429134369,-0.1174975112080574,-0.0267018061131238
1783201336328911400,6.418911376953125,0.1001704660836607,-0.0953039560258388,-0.8349030101776123,0.2594029903411865,-0.1049201637506485,-0.0262208171188831
1783201336338848300,6.42884814453125,0.0174590112578123,0.0292699336260557,-0.6390951913952827,0.3214543759822845,-0.0922539010643959,-0.0339722149074077
1783201336348785200,6.43878515625,-0.0618287161970511,0.1698167606964707,-0.5019698632061481,0.3568477034568786,-0.0851713716983795,-0.0599357075989246
1783201336358722300,6.448722412109375,-0.1775456379154697,0.2109327610693872,-0.3733475749462843,0.3712926805019378,-0.0798109620809555,-0.0939959436655044
1783201336368659200,6.4586591796875,-0.2659584827207029,0.2147517348356545,-0.2761357394725084,0.3750082850456238,-0.093183197081089,-0.1262529045343399
1783201336378596400,6.468596435546875,-0.2626617061976343,0.2559976451985538,-0.2184714860111475,0.3690550327301025,-0.1163090243935585,-0.1644077599048614
1783201336388533200,6.478533203125,-0.2171654814464971,0.2664404210187495,-0.2248386829555034,0.3712736666202545,-0.1363263130187988,-0.1849950551986694
1783201336398470100,6.48847021484375,-0.1398635940466076,0.2186332524441182,-0.2400947042763233,0.3927792012691498,-0.1494311988353729,-0.1998805254697799
1783201336408407300,6.4984072265625,-0.0446649980913847,0.1532528716474771,-0.2874345476001501,0.4199715852737427,-0.1518443524837494,-0.1879002600908279
1783201336418344200,6.50834423828125,0.0897081087801605,0.0457958287522196,-0.2123591406106948,0.4370397925376892,-0.1258825212717056,-0.1554033160209655
1783201336428281300,6.51828125,0.2153285118103027,-0.1200859305828809,-0.0931739582598209,0.4477595686912536,-0.0635053887963295,-0.102718636393547
1783201336438218200,6.52821826171875,0.2948096064127981,-0.2454904258400201,-0.0134931033015251,0.4581994414329529,0.0028107815887778,-0.0541146136820316
1783201336448155100,6.538155029296875,0.3144737995646894,-0.2635056827411055,-0.0083142393589019,0.4870183765888214,0.0688640400767326,-0.0200107917189598
1783201336458092300,6.54809228515625,0.2545465513410977,-0.2195423301130533,-0.0960883844017982,0.5517867207527161,0.1271475851535797,0.0087438896298408
1783201336468029200,6.558029296875,0.2040232739418745,-0.1469090555787086,-0.2925660652697086,0.6382318735122681,0.1547272950410843,0.0260828826576471
1783201336477966300,6.56796630859375,0.1454121680844575,-0.0629790187433362,-0.4110802164912223,0.7220276594161987,0.1868274509906768,0.026187278330326
1783201336487903200,6.5779033203125,0.0688271602496504,-0.0332227629050612,-0.4534498701870441,0.7907158732414246,0.2121245115995407,0.0133892688900232
1783201336497840000,6.587840087890625,0.0394860610835254,-0.027146950122714,-0.4702683185189962,0.8443990349769592,0.2283373177051544,0.0007331287488341
1783201336507777300,6.59777734375,0.0778112251615151,-0.0272153391838073,-0.4715858308583497,0.8954181671142578,0.2410038113594055,-0.0020889453589916
1783201336517714200,6.607714111328125,0.1030279744066298,-0.0710392833411693,-0.5173410353392363,0.9500163793563844,0.2409353703260421,-0.0012617674656212
1783201336527651300,6.6176513671875,0.0731454618401825,-0.0724029729098081,-0.5248562332749367,0.9963300824165344,0.241221010684967,0.0109125543385744
1783201336537588500,6.62758837890625,0.0619214725144207,-0.0291056829750537,-0.4844809682667255,1.018923282623291,0.2341630905866623,0.0262510310858488
1783201336547525000,6.637525146484375,0.1100868068769574,-0.0146381816834211,-0.3985924908399582,1.0224353075027466,0.2202218323945999,0.0465744882822036
1783201336557462300,6.647462158203125,0.1960975955091416,-0.008692717282474,-0.3461047632336616,1.006406545639038,0.1878170222043991,0.0691658183932304
1783201336567399200,6.657399169921875,0.2376056639395654,-0.0358227162703871,-0.3022498394161462,0.9740105867385864,0.1517126411199569,0.0921384617686271
1783201336577336300,6.66733642578125,0.1879027447462082,-0.0433230088979005,-0.2251215915501117,0.9443408250808716,0.1219558119773864,0.1123156398534774
1783201336587273500,6.6772734375,0.1201823766946792,-0.0256917828783392,-0.2009779148966073,0.9113980531692504,0.0851919874548912,0.1262548863887787
1783201336597210000,6.687210205078125,0.0790400363041087,0.0442544445291161,-0.2135217546492815,0.8827831745147705,0.0320528671145439,0.1342161446809768
1783201336607147300,6.697147216796875,0.0323307825013995,0.1459285201087594,-0.2073404356658458,0.8608214855194092,-0.0215874873101711,0.1266362071037292
1783201336617084200,6.707084228515625,-0.0183877434752881,0.2386731470406055,-0.1254173547387123,0.8311769962310791,-0.0617535486817359,0.1104524433612823
1783201336627021300,6.717021240234375,-0.0624465193018317,0.2927326540082693,0.0517126515805721,0.7883889675140381,-0.0765134394168853,0.0967186167836189
1783201336636958500,6.72695849609375,-0.0548824041904881,0.2604363582983612,0.2754536024272441,0.7377710938453674,-0.0626159980893135,0.0848046988248825
1783201336646895000,6.73689501953125,-0.061353901759535,0.2112631620675325,0.4401274472773074,0.6838744282722473,-0.0261142868548631,0.072122648358345
1783201336656832300,6.746832275390625,-0.0119658937342464,0.1850321577459573,0.533561517778039,0.6406819820404053,0.0099845947697758,0.0732012242078781
1783201336666769200,6.75676904296875,0.0824967526292428,0.1253890054270625,0.5612023888975382,0.59916752576828,0.0390760451555252,0.092587798833847
1783201336676706300,6.766706298828125,0.1272916241779923,0.0723918669939041,0.5265940168529749,0.5682817697525024,0.0636501014232635,0.1202071756124496
1783201336686643500,6.7766435546875,0.1311626203924417,0.0499137854650616,0.447998619043827,0.5407049059867859,0.0659091472625732,0.1491688340902328
1783201336696580000,6.786580078125,0.1587010540507733,0.0775157858788967,0.3644195876032113,0.5047090649604797,0.0509640201926231,0.1662697792053222
1783201336706517200,6.796517333984375,0.1521297128364443,0.1467915666788816,0.3945937765926122,0.4617899656295776,0.0478865653276443,0.1832222640514373
1783201336716454100,6.8064541015625,0.1220206980377435,0.1941039374738931,0.5024368961960077,0.4057711660861969,0.0466314181685447,0.201627105474472
1783201336726391300,6.816391357421875,0.0874393601305782,0.2443365796297788,0.6090016664266586,0.3308369517326355,0.0513596758246421,0.2068224400281906
1783201336736328400,6.826328369140625,0.0370231781013309,0.2935568298727273,0.7254688219904899,0.2415270507335662,0.0543549321591854,0.1981312185525894
1783201336746265000,6.83626513671875,0.0099574399886652,0.294031169386208,0.7832096478193998,0.1438563615083694,0.0506437458097934,0.2006513029336929
1783201336756202200,6.8462021484375,-0.0354027372926473,0.2388818213552236,0.8024813345223665,0.0377467051148414,0.0304551236331462,0.2157479673624038
1783201336766139400,6.856139404296875,-0.048613224260509,0.2135778687506914,0.774117409825325,-0.0815446823835372,-0.0232295840978622,0.2239924520254135
1783201336776076300,6.866076171875,-0.0432702557973563,0.2758124988675117,0.7723767036378383,-0.2075465619564056,-0.0923798978328704,0.2186970114707946
1783201336786013400,6.876013427734375,-0.0712090869501233,0.3591673661634326,0.838307265663147,-0.3262690901756286,-0.142797440290451,0.2053733468055725
1783201336795949300,6.88594921875,-0.1395126982497051,0.4154959871068596,0.9477876310795544,-0.4285368919372558,-0.1495285779237747,0.1782618314027786
1783201336805887200,6.89588720703125,-0.2211154246486723,0.4305903881251812,1.031350295907259,-0.5011869072914124,-0.1265391707420349,0.1499664783477783
1783201336815823400,6.9058232421875,-0.2544771576330065,0.4559013549923896,1.0809434711158274,-0.569867730140686,-0.0899406895041465,0.1288934201002121
1783201336825760300,6.91576025390625,-0.2736667190104723,0.4730892211586237,1.1588707604050636,-0.6389424204826355,-0.0383191369473934,0.0965088903903961
1783201336835697200,6.925697265625,-0.2041695505447685,0.4406149385333061,1.1793079837560654,-0.7104719877243042,0.0050392551347613,0.0818399339914321
1783201336845634300,6.93563427734375,-0.050899581632018,0.3703545306101441,1.1941443183600902,-0.7807130217552185,0.042492676526308,0.0859779193997383
1783201336855571200,6.9455712890625,0.019628098925203,0.2660582898333669,1.1752443875789642,-0.8673355579376221,0.0748514160513877,0.1090765818953514
1783201336865508400,6.95550830078125,-0.0074808572746813,0.1125052661955356,1.065423830422759,-0.965688705444336,0.1089162826538086,0.1326291263103485
1783201336875445200,6.9654453125,-0.0465228278525173,0.0102618662953376,0.7963193047612905,-1.0413085222244265,0.0851078927516937,0.1520872414112091
1783201336885382100,6.975382080078125,0.0328726342931389,0.0492027145862579,0.3754407478332519,-1.0889065265655518,0.0012977705337107,0.1672099977731704
1783201336895319300,6.9853193359375,0.1040381378298625,0.1204787292927503,0.0776999102741479,-1.1276389360427856,-0.0845508277416229,0.176506295800209
1783201336905256200,6.995256103515625,0.0665595075786113,0.1450175427436828,-0.0326923092901706,-1.1548951864242554,-0.1421853899955749,0.1739121973514557
1783201336915193300,7.005193359375,-0.0106041038617491,0.1506225231438875,-0.0447299530863761,-1.1791599988937378,-0.1685773134231567,0.1682708263397216
1783201336925130200,7.015130126953125,-0.0832629694950766,0.1505146788552403,-0.0179290399223566,-1.2019455432891846,-0.1750491261482238,0.1595722287893295
1783201336935067100,7.025067138671875,-0.121684013429284,0.1807633943855762,0.0192734402686357,-1.2249555587768557,-0.1643821001052856,0.1394829452037811
1783201336945004300,7.03500439453125,-0.159846716954559,0.2334422606498002,0.059458151140809,-1.2306241989135742,-0.1383557617664337,0.1104784905910492
1783201336954941200,7.044941162109375,-0.2012921136786229,0.2890843606337904,0.0121001876384019,-1.2033848762512207,-0.1123848855495452,0.0820479169487953
1783201336964878300,7.05487841796875,-0.2678409354664385,0.3288672127068042,-0.0712350981742143,-1.152613878250122,-0.080921784043312,0.0527750588953495
1783201336974815500,7.0648154296875,-0.3397420963339507,0.2809364177525043,-0.2653121476411819,-1.083064079284668,-0.0603507347404956,0.033961959183216
1783201336984752000,7.074752197265625,-0.3690720895841717,0.255768658748269,-0.4663865086495876,-1.0087919235229492,-0.0535467453300952,0.0076191276311874
1783201336994689300,7.084689208984375,-0.4132987693235277,0.3437646298483014,-0.6097042617380619,-0.9419483542442322,-0.0754589736461639,-0.0339557453989982
1783201337004626200,7.094626220703125,-0.4349465375080704,0.4534562999278306,-0.636052754959464,-0.8785809278488159,-0.0849353447556495,-0.0840670838952064
1783201337014563300,7.104563232421875,-0.4743761191640049,0.5174120547488331,-0.5705658450484276,-0.8205261826515198,-0.0565873309969902,-0.1297978162765503
1783201337024500500,7.11450048828125,-0.4921528911340981,0.5239999087065458,-0.4223702567905187,-0.7701412439346313,0.0155401453375816,-0.1580099612474441
1783201337034437000,7.12443701171875,-0.4903890232667326,0.5089613295286893,-0.2953518965959549,-0.7124750018119812,0.1159924492239952,-0.1861305385828018
1783201337044374300,7.134374267578125,-0.5109431509956717,0.4946278298802674,-0.4152180469483137,-0.628527820110321,0.1959214955568313,-0.209258571267128
1783201337054311200,7.144311279296875,-0.4637712846498936,0.4700839018628001,-0.6638175447195768,-0.5424696803092957,0.2322262376546859,-0.2263989448547363
1783201337064248300,7.154248291015625,-0.3835767080157995,0.4212658026799559,-0.9034458005279302,-0.4566403031349182,0.2490374743938446,-0.2228366583585739
1783201337074185500,7.164185546875,-0.2692070544541813,0.2610525905005633,-1.0724608894526957,-0.3771313428878784,0.2362308651208877,-0.1908691376447677
1783201337084122000,7.1741220703125,-0.1560511971291154,0.0509765923909842,-1.248934477689862,-0.3060362339019775,0.1751944571733474,-0.1678462922573089
1783201337094058500,7.18405859375,-0.0381476520866155,0.0593269259765744,-1.3861381318122148,-0.2404982447624206,0.1037740781903266,-0.1524707973003387
1783201337103995400,7.193995361328125,-0.0675496876597404,0.151744220650196,-1.380779235127568,-0.166706308722496,0.0599506944417953,-0.1610839962959289
1783201337113932300,7.203932373046875,-0.183955249229446,0.1694942507438361,-1.4369330840259789,-0.0579558536410331,0.0307781659066677,-0.1912211179733276
1783201337123869400,7.213869384765625,-0.2449176674533635,0.2178749814227223,-1.5848849266558884,0.0793434381484985,0.0066017578355968,-0.2296871244907379
1783201337133806600,7.223806640625,-0.2177325407447293,0.2352272443704307,-1.6429413943052291,0.2216830104589462,-0.002164036501199,-0.2616994082927704
1783201337143743500,7.233743408203125,-0.1406857240844518,0.1368108554124832,-1.607767205071449,0.3597623407840729,0.002883804263547,-0.2853243052959442
1783201337153680400,7.243680419921875,-0.0944834699558094,-0.0010658756658434,-1.5227502497822043,0.4808203279972076,0.0097675435245037,-0.3032883703708648
1783201337163617300,7.2536171875,-0.0445475822567939,-0.0955330886065959,-1.360419168666005,0.5899139046669006,0.0232324600219726,-0.3120192289352417
1783201337173554400,7.263554443359375,0.0150618869882076,-0.1474471079781651,-1.245208735165,0.7062833905220032,0.0346675403416156,-0.3215051293373108
1783201337183491600,7.27349169921875,0.0703922541419044,-0.1861465487286448,-1.1633300779014826,0.8249057531356812,0.0391077324748039,-0.324440449476242
1783201337193428500,7.283428466796875,0.1683065387966111,-0.2164145534813404,-1.0995277600765228,0.9554890990257264,0.041468359529972,-0.323844701051712
1783201337203365400,7.293365478515625,0.275706554275006,-0.2177320658206939,-1.0411123959869146,1.0795084238052368,0.0380826294422149,-0.3162120282649994
1783201337213302300,7.30330224609375,0.3353472954411059,-0.2160574106067418,-0.8468728494346142,1.181560754776001,0.0446449220180511,-0.3036853075027466
1783201337223239400,7.313239501953125,0.3669190762687474,-0.2601815067544579,-0.671396455541253,1.2603479623794556,0.0685276016592979,-0.2859927117824554
1783201337233176600,7.323176513671875,0.4109014258582145,-0.3246843740642071,-0.5253004699110985,1.3168604373931885,0.0941533371806144,-0.2550230920314789
1783201337243113500,7.333113525390625,0.4259605363674462,-0.3317822233706712,-0.3271849587082863,1.342033863067627,0.1225517988204956,-0.2222140282392501
1783201337253050400,7.34305029296875,0.4532007177315652,-0.3576321194201707,-0.1207014321327209,1.3376638889312744,0.1700804233551025,-0.1825446486473083
1783201337262987300,7.3529873046875,0.4352503062276169,-0.4126373828053474,-0.0381955828815698,1.3383750915527344,0.1868354380130767,-0.1400131583213806
1783201337272924400,7.36292431640625,0.47578635128811,-0.3821767780900001,-0.1102174475193023,1.3410704135894775,0.1690668314695358,-0.094950333237648
1783201337282861600,7.372861572265625,0.4666553887188434,-0.2762000368803739,-0.1203174012511968,1.3287827968597412,0.1375323981046676,-0.0575727820396423
1783201337292798500,7.382798583984375,0.3788791978493332,-0.1906774701565504,-0.0588350508064031,1.301553726196289,0.1046703159809112,-0.0313209369778633
1783201337302735400,7.3927353515625,0.3402535529874265,-0.1315977969393134,-0.0112643213361501,1.2584404945373535,0.0575878247618675,-0.011574188247323
1783201337312672300,7.40267236328125,0.3521856905825435,-0.0475227986752986,0.0834340700119733,1.2002756595611572,0.0120626855641603,0.0091191055253148
1783201337322609400,7.412609375,0.359532107822597,-0.0501151532560586,0.204997671931982,1.1228938102722168,-0.0385852754116058,0.0375253446400165
1783201337332546600,7.422546630859375,0.3397213458068668,-0.0133487263947725,0.3706576052099466,1.0253992080688477,-0.0877221971750259,0.058791484683752
1783201337342483500,7.4324833984375,0.2965168121894821,0.0577925560161471,0.5904325750350952,0.904820680618286,-0.1225005090236663,0.078400619328022
1783201337352420400,7.44242041015625,0.225878949256055,0.1020718427255749,0.81459730425179,0.7745489478111267,-0.1283304393291473,0.0939228534698486
1783201337362357500,7.452357421875,0.1620984414041042,0.1264127955168485,1.0144237110257148,0.6476592421531677,-0.1286456137895584,0.1011086627840995
1783201337372294400,7.46229443359375,0.0991514252342283,0.2037377349987626,1.1261650071114302,0.5243426561355591,-0.1306056976318359,0.0967610478401184
1783201337382231600,7.4722314453125,0.0662096346950158,0.2931403580263257,1.222626901000738,0.4012227058410644,-0.120941661298275,0.0887850672006607
1783201337392168400,7.48216845703125,0.0120486035816371,0.3580412847429514,1.3353110308945175,0.2938706874847412,-0.1025120615959167,0.0748793706297874
1783201337402105300,7.492105224609375,-0.0336802974142134,0.3843210966423153,1.406516318452358,0.1844905465841293,-0.0894283950328826,0.0663136765360832
1783201337412042500,7.50204248046875,0.0215999835200607,0.3509872745782136,1.4676269129753112,0.0707442760467529,-0.0807219892740249,0.0845970809459686
1783201337421979400,7.5119794921875,0.1270829498633742,0.2634066062808036,1.51486972566545,-0.0547640360891819,-0.0702558904886245,0.114496923983097
1783201337431916500,7.52191650390625,0.173702625686489,0.1902919779703021,1.511055720335245,-0.1865377873182296,-0.0817690044641494,0.1483542323112487
1783201337441853400,7.531853515625,0.1842629269391298,0.1989133835822343,1.4934960982471703,-0.323470801115036,-0.0775975212454795,0.1674429774284362
1783201337451790300,7.541790283203125,0.1016093032477423,0.2397059972196817,1.44577105499804,-0.4383822083473205,-0.0658471211791038,0.1707942932844162
1783201337461727500,7.5517275390625,0.0020694632178172,0.2721221199169755,1.3485229791671036,-0.5368400812149048,-0.0489442758262157,0.1663018465042114
1783201337471664400,7.561664306640625,-0.0503872481957077,0.2979536035269499,1.2508026096493006,-0.6304922699928284,-0.0202926583588123,0.1647130250930786
1783201337481601500,7.5716015625,-0.0843057748125866,0.2841135864838958,1.1729255892425774,-0.7281516194343567,-0.0010796235874295,0.1571853011846542
1783201337491538400,7.581538330078125,-0.0672236705757677,0.2483250647440552,1.0747925472706557,-0.8330836296081543,0.0059258216060698,0.1467435806989669
1783201337501475300,7.591475341796875,-0.0844992150254547,0.217823251235485,0.9350836323291064,-0.9307605028152466,0.0122077111154794,0.1356530338525772
1783201337511412500,7.60141259765625,-0.1448112065166235,0.169577398982644,0.6993330947369336,-1.0001784563064575,0.0169505346566438,0.1347957551479339
1783201337521349400,7.611349365234375,-0.1122765720061957,0.113949912045896,0.3705798637986183,-1.0323894023895264,-0.0093432702124118,0.1493702232837677
1783201337531286500,7.62128662109375,-0.0492286162124946,0.0635191169694066,0.0666331573367118,-1.0429857969284058,-0.0491178482770919,0.1642676889896392
1783201337541223400,7.631223388671875,-0.0233874514587223,0.0632891076058149,-0.1341845985621214,-1.048526167869568,-0.1007167175412178,0.1700092852115631
1783201337551160300,7.641160400390625,-0.0459781995818018,0.1052352751925587,-0.2460521513760089,-1.0498007535934448,-0.146642655134201,0.1627306044101715
1783201337561097500,7.651097412109375,-0.0876229000039398,0.1439408534228801,-0.290886733880639,-1.040187120437622,-0.1693950593471527,0.1431623101234436
1783201337571034400,7.661034423828125,-0.1117936107948422,0.1575111136138439,-0.3026069822907448,-1.018369197845459,-0.1687321960926056,0.1292121410369873
1783201337580971500,7.670971435546875,-0.1439540051653981,0.1501934840768575,-0.3031599399983882,-0.9934079647064208,-0.1576921790838241,0.1129941120743751
1783201337590908400,7.680908447265625,-0.1731272004187106,0.1830757629811763,-0.2738485053181648,-0.9653371572494508,-0.1377592086791992,0.0966870412230491
1783201337600845300,7.69084521484375,-0.2107557970672845,0.2332014376312494,-0.2219236722916364,-0.9396681189537048,-0.1068968176841735,0.0705264061689376
1783201337610782500,7.700782470703125,-0.2716056948274374,0.2770101842194795,-0.1704033284127712,-0.9021620154380798,-0.0573058240115642,0.0373823083937168
1783201337620719400,7.71071923828125,-0.3667110595412552,0.3451785882994532,-0.1647504172176122,-0.8542991280555725,-0.0046085226349532,-0.0072540179826319
1783201337630656500,7.720656494140625,-0.4639879230752587,0.443610320957005,-0.1826572453081607,-0.7900708317756653,0.0416354052722454,-0.0549632161855697
1783201337640593400,7.730593505859375,-0.4925651982620358,0.513842671829462,-0.2651408827275037,-0.7153304219245911,0.0630073323845863,-0.0985905081033706
1783201337650530300,7.7405302734375,-0.5041909002564847,0.5613681008532643,-0.3362222516447306,-0.6534507870674133,0.0716607421636581,-0.1424042880535125
1783201337660467500,7.750467529296875,-0.5298766917854547,0.5885147587150334,-0.3175760033637285,-0.6138885021209717,0.0778709128499031,-0.180772989988327
1783201337670404400,7.760404296875,-0.5723945948455482,0.606182809613645,-0.2854997801452875,-0.5917150378227234,0.0867070108652114,-0.2261737585067749
1783201337680341500,7.770341552734375,-0.5898286908578128,0.6003250234961509,-0.2923269958168268,-0.5755511522293091,0.0948536545038223,-0.2657598257064819
1783201337690278700,7.780278564453125,-0.5850146416395903,0.5573264242470264,-0.3428787869244813,-0.5566911697387695,0.0933316573500633,-0.297685295343399
1783201337700215300,7.79021533203125,-0.5173692385204136,0.5593550074651837,-0.4694821365773677,-0.5144212245941162,0.0739597007632255,-0.32308030128479
1783201337710152400,7.80015234375,-0.4064391126871108,0.5706923940375447,-0.6247691444009542,-0.4616640210151672,0.0655052289366722,-0.3571940660476684
1783201337720089300,7.81008935546875,-0.4379427967146039,0.5535463211864232,-0.561687542065978,-0.4159171879291534,0.0920829027891159,-0.3873820006847381
1783201337730026500,7.820026611328125,-0.4687536761723458,0.4580865900769829,-0.5144727864265441,-0.3615285158157348,0.1470159292221069,-0.4133752584457397
1783201337739963600,7.829963623046875,-0.4330880501598119,0.3359258990466594,-0.6490583670049905,-0.2850436568260193,0.1823132336139679,-0.4308054149150848
1783201337749900300,7.839900390625,-0.3407701972726732,0.2990440291121602,-0.8471966745615005,-0.194655179977417,0.1986711770296096,-0.4436176121234894
1783201337759837400,7.84983740234375,-0.2343153536899015,0.2093522138796746,-1.0326777451187372,-0.0843468531966209,0.2055113315582275,-0.4359466433525085
1783201337769774300,7.8597744140625,-0.0831391787186265,0.0348379430167377,-1.2670470574855803,0.0429344065487384,0.1717701405286789,-0.4282096326351166
